time,wind_speed,wind_angle,battery_voltage,battery_current,position_x,position_y,position_z,orientation_x,orientation_y,orientation_z,orientation_w,velocity_x,velocity_y,velocity_z,angular_x,angular_y,angular_z,linear_acceleration_x,linear_acceleration_y,linear_acceleration_z,node_ids
0.0,0.699999988079071,28.0,24.123260498046875,0.1192766055464744,-79.78282421518117,40.45904285531535,264.77276717853545,0.0169497970491647,-0.0027410080656409,-0.7266815900802612,0.6867598295211792,-0.0013353105488187,-0.0067569178826384,-0.0035791228054355,-0.0015762355178594,6.143244718259666e-06,-0.005576747469604,0.2675995236821473,-0.2027494435943664,-9.800804668664927,14929.0
0.1,0.6000000238418579,28.0,24.12200927734375,0.1113248318433761,-79.78282419991974,40.459042889327954,264.76222240161894,0.0169418137520551,-0.0027420606929808,-0.7266822457313538,0.6867594122886658,-0.0066045689848824,-0.0019418232614294,-0.0059127462133725,-0.0037906153593212,-0.0004237761022523,-0.0040104934014379,0.2671585705317557,-0.2030322478339076,-9.80095143377781,14929.0
0.2,0.6000000238418579,32.0,24.123260498046875,0.1033730581402778,-79.78282420145484,40.459042895283815,264.76164322328566,0.0169418137520551,-0.0027420606929808,-0.7266822457313538,0.6867594122886658,-0.0063549486779126,-0.0016668876454151,-0.0058365017191775,0.0019260853296145,-0.0022011268883943,0.0046235681511461,0.2648751231841743,-0.199876450728625,-9.80430832028389,14929.0
0.4,0.6000000238418579,33.0,24.123260498046875,0.1192766055464744,-79.78282424313224,40.45904292225831,264.7510659618377,0.0169450398534536,-0.0027479217387735,-0.7266837358474731,0.6867577433586121,-0.0068484769854072,-0.0070152487134999,-0.0073588651259384,0.0027585565112531,-0.0058426475152373,0.0027503399178385,0.2660766163654625,-0.2009212933480739,-9.803580341935158,14929.0
0.6,0.5,36.0,24.1144962310791,0.0874695107340812,-79.78282421742725,40.459042927906594,264.73904757928847,0.0169414766132831,-0.0027398236561566,-0.7266830801963806,0.6867585182189941,-0.0039403647091708,0.0002494685665296,-0.0134783140382798,-0.002584847388789,0.0022129381541162,-0.0022924116346985,0.2679192750155926,-0.2051062552258372,-9.802475218176845,14929.0
0.7,0.5,38.0,24.12075614929199,0.1272283792495727,-79.78282421480276,40.45904293508372,264.736370496273,0.0169417597353458,-0.0027400841936469,-0.7266847491264343,0.6867567300796509,-0.00362471629637,0.000599479471344,-0.0134531265026176,0.0017746979137882,0.0039650555700063,0.0006973749841563,0.2686800160445273,-0.208067285232246,-9.800197727680208,14929.0
0.9,0.4000000059604645,39.0,24.12075614929199,0.1113248318433761,-79.782824233468,40.459042954914096,264.7266296072006,0.016943359747529,-0.0027442520949989,-0.7266853451728821,0.6867560744285583,-0.0053117622632476,-0.0026317307421511,-0.0132373791505442,0.0053959768265485,-0.0008119841222651,0.0019006072543561,0.2690217309817672,-0.2013159986771643,-9.802744190096854,14929.0
1.0,0.4000000059604645,40.0,24.124513626098643,0.1351801604032516,-79.78282425286463,40.45904296507942,264.71641182136534,0.0169473458081483,-0.002745097503066,-0.726685106754303,0.6867561936378479,-0.003097101334253,-0.0053053036264452,-0.0123248791379363,0.0046363114379346,-0.0023020394146442,-0.0025563379749655,0.2720024222508073,-0.1985218884050846,-9.80518423318863,14929.0
1.2,0.4000000059604645,43.0,24.123260498046875,0.1033730581402778,-79.78282425855775,40.45904296816826,264.7151830716133,0.0169473271816968,-0.0027453084476292,-0.7266861200332642,0.6867551207542419,-0.0026602223713547,-0.0053368763770038,-0.0120909750149588,-0.0009045226033777,0.0008895434439182,0.0052881725132465,0.2652109726332128,-0.2077232496812939,-9.80199223816395,14929.0
1.3,0.5,46.0,24.12075614929199,0.1113248318433761,-79.7828242622532,40.45904299332015,264.70484869909285,0.0169443134218454,-0.0027468453627079,-0.7266862392425537,0.6867550015449524,-0.0047232699637981,-0.0036589277204261,-0.0118448253213378,-0.001296340720728,0.0013095298781991,0.0063430103473365,0.2654879479296506,-0.2061741029843688,-9.801775306463243,14929.0
1.5,0.5,51.0,24.12075614929199,0.1113248318433761,-79.78282426576544,40.45904299807057,264.703658513546,0.0169443134218454,-0.0027468453627079,-0.7266862392425537,0.6867550015449524,-0.0049461206675722,-0.0035836493093282,-0.0120508583652401,0.0018739292863756,-0.0027925511822104,-0.0106632933020591,0.2703821587935089,-0.2001508130505681,-9.8038370347023,14929.0
1.6,0.5,53.0,24.12200927734375,0.0795177370309829,-79.78282427963599,40.459043024417184,264.6936893982887,0.0169448852539062,-0.0027495119720697,-0.7266867160797119,0.6867544651031494,-0.0062804585860445,-0.0056802062191871,-0.0117942649387588,-0.0024741787929087,0.0009931895183399,-0.0044105947017669,0.270365384593606,-0.1999904166162014,-9.80517429292202,14929.0
1.8,0.6000000238418579,54.0,24.12952041625977,0.0397588685154914,-79.78282428541802,40.45904303023857,264.6925255579948,0.0169448852539062,-0.0027495119720697,-0.7266867160797119,0.6867544651031494,-0.0056608256869104,-0.0054486398076046,-0.0115070602036163,0.0060477014631032,0.0015159560134634,0.0042287921532988,0.2657117866538465,-0.2034276657924056,-9.804004849791529,14929.0
1.9,0.6000000238418579,59.0,24.12701797485352,0.0477106422185897,-79.78282427898017,40.45904303982216,264.68254619073866,0.0169443003833293,-0.0027469983324408,-0.7266877293586731,0.686753511428833,-0.0036906760496627,-0.0032815108119277,-0.011684107716197,0.0004494580789469,-0.0007937974878586,0.0018230659188702,0.2656283359229565,-0.2006270504929124,-9.802878676056864,14929.0
2.1,0.699999988079071,61.0,24.12576484680176,0.0318070948123931,-79.7828242854326,40.45904304436886,264.6748426480293,0.0169476196169853,-0.002747779013589,-0.7266875505447388,0.6867536306381226,-0.001839044214009,-0.0060145147263667,-0.0112538429111501,-0.0052076783031225,0.0057385601103305,0.0013853916898369,0.2681658996082842,-0.2042262492701412,-9.80118649184704,14929.0
2.2,0.699999988079071,65.0,24.124513626098643,0.0397588685154914,-79.78282429810834,40.459043048267006,264.6725695056915,0.0169481746852397,-0.0027484653983265,-0.7266904711723328,0.6867505311965942,-0.0012896031496568,-0.0056400804375167,-0.0111627287892826,0.0015377963427454,0.0016661583213135,0.0053734858520329,0.2684132551029325,-0.2088945017941296,-9.800317595601085,14929.0
2.3,0.8000000119209291,71.0,24.12952041625977,0.0238553211092948,-79.78282428033714,40.45904307718891,264.6647528333664,0.0169426165521144,-0.0027508810162544,-0.7266905307769775,0.686750590801239,-0.0067984042614046,-0.004228329046613,-0.0115469446405828,-0.0008720124606043,-0.0032610683701932,-0.0044340402819216,0.2696637004427612,-0.1994000853784382,-9.805108804106712,14929.0
2.5,0.8000000119209291,71.0,24.12826919555664,0.0397588685154914,-79.78282427683635,40.45904309952788,264.6560426278114,0.0169430021196603,-0.0027530265506356,-0.7266903519630432,0.6867507696151733,-0.0074968104872464,-0.005979103666062,-0.0114689492745287,-0.0015974519774317,0.0006267920252867,-0.0045030112378299,0.2691960328258574,-0.2027807992883026,-9.80266993045807,14929.0
2.7,0.8000000119209291,75.0,24.124513626098643,0.0238553211092948,-79.78282428288925,40.45904310656505,264.6549032254219,0.0169428288936615,-0.0027538912836462,-0.7266903519630432,0.6867507100105286,-0.0071632859227158,-0.0056399543286057,-0.0113163087765913,0.0042604729533195,-0.0003504621563479,0.003433076897636,0.2671593014337122,-0.1996451202593744,-9.805487118959428,14929.0
2.8,0.8999999761581421,74.0,24.124513626098643,0.0477106422185897,-79.7828242804118,40.45904307816475,264.649680606842,0.0169517118483781,-0.0027474712114781,-0.7266920804977417,0.686748743057251,0.0020302299341269,-0.0072867267028349,-0.0055396478658549,0.0010726595064625,-0.0045074149966239,-0.0046795913949608,0.2693300254270434,-0.1982578135281801,-9.805109973549843,14929.0
3.0,0.8999999761581421,70.0,24.12701797485352,0.0636141896247863,-79.78282428887928,40.459043076512046,264.6491157336235,0.0169517118483781,-0.0027474712114781,-0.7266920804977417,0.686748743057251,0.0025789768640416,-0.0070337752931894,-0.0052690697260837,-0.002267213538289,-0.0003630873397924,0.0028324434533715,0.2646833710558712,-0.2037129368260503,-9.802549477815626,14929.0
3.1,0.8999999761581421,68.0,24.12826919555664,0.0397588685154914,-79.78282426465881,40.45904307605405,264.64301537704466,0.0169501435011625,-0.0027539986185729,-0.72669917345047,0.6867411732673645,0.002033868705877,-0.0049862981555523,-0.0044499641447925,0.0016947005642578,-0.0018164727371186,-2.1902829757891595e-05,0.2705747514590621,-0.1986073308438062,-9.806351922154429,14929.0
3.3,0.8000000119209291,65.0,24.12826919555664,0.0318070948123931,-79.78282427050459,40.45904307443851,264.6425602955818,0.0169485341757535,-0.0027488546911627,-0.7267062664031982,0.6867337822914124,0.002388769056596,-0.0048583414197831,-0.0042570929692071,-0.0029121250845491,0.0030531352385878,0.00349823362194,0.2665156691707671,-0.2060803648084402,-9.801587610840798,14929.0
3.4,0.8000000119209291,65.0,24.12075614929199,0.0397588685154914,-79.78282423418075,40.45904307551647,264.6374497337341,0.0169640276581048,-0.0027319102082401,-0.7266896963119507,0.6867509484291077,0.0018928997690934,-0.002371361532484,-0.0028602313293546,0.0038472756277769,-0.0025598669890314,0.0049969274550676,0.2662944434210658,-0.2007390429452061,-9.804160970449448,14929.0
3.6,0.699999988079071,60.0,24.12701797485352,0.055662415921688,-79.7828241924127,40.459043072707296,264.6328637523651,0.0169708598405122,-0.0027218896429985,-0.7266776561737059,0.6867635846138,0.0010155034525711,-0.0009684668857207,-0.0017006026875211,-0.0023466320708394,0.0046988702379167,-0.0006503699114546,0.2669134991057217,-0.2086762910149991,-9.800960789322852,14929.0
3.7,0.8000000119209291,61.0,24.11950492858887,0.0318070948123931,-79.78282419415898,40.45904307069736,264.63254206609724,0.016971280798316,-0.0026860446669161,-0.7266739010810852,0.6867676973342896,0.0015743936771427,-0.0005923523021848,-0.0013551846134231,-0.0010822891490533,-0.000105639504909,0.0069922227412462,0.2650046938285231,-0.2063780063576996,-9.80234014749527,14929.0
3.9,0.699999988079071,59.0,24.123260498046875,0.0477106422185897,-79.78282416961498,40.45904306743851,264.62822061014174,0.0169723257422447,-0.0026791004929691,-0.7266600131988525,0.6867823600769043,0.0011105097746836,-0.003668910831171,-0.0012070682714817,-0.002352433046326,-0.0019702715799212,-0.0042071300558745,0.2687566328421235,-0.2022531246207654,-9.802645956873896,14929.0
4.0,0.6000000238418579,60.0,24.12826919555664,0.0397588685154914,-79.7828241288933,40.459043057923616,264.6258053107261,0.0169741492718458,-0.0026340968906879,-0.7266560196876526,0.6867867112159729,0.0015969970702641,-0.0019351505548174,0.0026143260291313,-0.0005375283071771,0.0015576076693832,0.0006674678297713,0.2670171410031617,-0.2077713247574865,-9.802541291713714,14929.0
4.2,0.699999988079071,67.0,24.123260498046875,0.0397588685154914,-79.78282413120746,40.459043056546,264.62605678272246,0.0169760566204786,-0.0026285501662641,-0.7266465425491333,0.6867967247962952,0.0015254130556678,-0.0017291452741838,0.0024992955716037,0.0015777084045112,-0.0039511960931122,-0.0021213374566286,0.2696937587857246,-0.1988199319504201,-9.805561378598211,14929.0
4.3,0.699999988079071,63.0,24.124513626098643,0.0397588685154914,-79.78282410432206,40.45904302850279,264.6247931046486,0.016980618238449,-0.0026280011516064,-0.726648211479187,0.6867948174476624,0.0060842958168264,-0.0043168692215169,0.0060253102645466,-0.0019592514727264,-0.0015879322309046,-0.0077122319489717,0.2686680840700865,-0.201089875884354,-9.802877506613733,14929.0
4.5,0.6000000238418579,69.0,24.12701797485352,0.0318070948123931,-79.78282410975923,40.4590430228121,264.6253835482597,0.016980618238449,-0.0026280011516064,-0.726648211479187,0.6867948174476624,0.006484312431543,-0.0038900648441171,0.006116797514533,0.0026966012082993,-0.0040353825315833,0.0020371635910123,0.2682151989452541,-0.1995001093111932,-9.804744522571564,14929.0
4.61,0.6000000238418579,73.0,24.12075614929199,0.0397588685154914,-79.78282405564589,40.459042989210246,264.62475245428084,0.016979843378067,-0.0026252097450196,-0.7266489863395691,0.6867940425872803,0.0083295827901074,-0.0014807807360191,0.0074268848921868,0.0009758450905792,0.0010395647259429,-0.0084589561447501,0.2701678400672972,-0.1997015458904207,-9.804111269116405,14929.0
4.7,0.699999988079071,80.0,24.118253707885746,0.0159035474061965,-79.78282405788862,40.45904298122999,264.62548767757414,0.016979843378067,-0.0026252097450196,-0.7266489863395691,0.6867940425872803,0.0091899263578111,-0.000903480483912,0.0076350407762541,0.0030912866350263,-0.0005079062539152,0.0032205842435359,0.2656151796877385,-0.202577060367912,-9.803628289103507,14929.0
4.9,0.699999988079071,85.0,24.123260498046875,0.0238553211092948,-79.78282399325208,40.4590429911237,264.62294244003294,0.016971256583929,-0.0026312326081097,-0.7266497611999512,0.6867935061454773,0.0009280272981783,0.0002366858467364,0.00391246810918,0.0017399479402229,0.0015355009818449,-0.0009047434432432,0.2699319962784648,-0.1993482827022672,-9.80512985408306,14929.0
5.1,0.8999999761581421,94.0,24.12826919555664,0.055662415921688,-79.78282392137208,40.45904297243664,264.62249159049986,0.0169687457382679,-0.0026284107007086,-0.7266498804092407,0.6867934465408325,0.0012618021234738,0.0030167181398762,0.0053315972710855,-0.0040050479583442,0.0057198069989681,0.0043294755741953,0.2671355836652219,-0.2057067642733454,-9.80254070699215,14929.0
5.2,0.8999999761581421,99.0,24.12826919555664,0.0159035474061965,-79.78282391423468,40.45904296945624,264.62357597780226,0.0169693566858768,-0.002628972986713,-0.7266508936882019,0.6867923736572266,0.001826775487867,0.0036315134884582,0.005545529831376,0.0005440490785986,-0.0008062473498284,0.0039301272481679,0.2655871130526065,-0.2022018518485129,-9.803605484962464,14929.0
5.4,1.0,108.0,24.12826919555664,0.0636141896247863,-79.7828238498671,40.45904294705864,264.623967818737,0.0169686302542686,-0.002629576716572,-0.7266519665718079,0.6867912411689758,0.0015539453497087,0.0033596195138334,0.0069784852966207,-0.0010372016113251,6.203150405781344e-05,-0.0021735779009759,0.2708962386846542,-0.2051432023197412,-9.803153495192529,14929.0
5.5,1.100000023841858,106.0,24.124513626098643,0.0397588685154914,-79.78282380302036,40.45904292415149,264.6254953069687,0.0169719457626342,-0.0026332242414355,-0.7266520857810974,0.6867910027503967,0.0020286550428279,-0.0015590801556758,0.0086129913372523,-0.0016191598260775,0.0017102598212659,0.0052757523953914,0.2673181812465191,-0.2054163951985538,-9.801968264579774,14929.0
5.7,1.2000000476837158,103.0,24.12200927734375,0.0238553211092948,-79.78282380519855,40.45904292240511,264.62634389829634,0.0169721581041812,-0.0026336722075939,-0.7266520857810974,0.6867910027503967,0.0017920506229264,-0.0014438951025864,0.0085637841461204,0.0006202821969054,-0.0020204342436045,-0.0063148695044219,0.2697282390855253,-0.2015133056603373,-9.80446444094181,14929.0
5.8,1.2000000476837158,97.0,24.12576484680176,0.0715659633278846,-79.78282372754681,40.45904289596309,264.6285487337112,0.0169696193188428,-0.0026332952547818,-0.7266534566879272,0.6867895722389221,0.0018712125963184,0.0003871217930447,0.0096037161556707,-0.0005955919041298,0.0032815537415444,0.0029749954119324,0.2666937168873847,-0.2073058863915503,-9.8027114456892,14929.0
6.0,1.2000000476837158,100.0,24.123260498046875,0.0397588685154914,-79.78282372721345,40.45904289401086,264.629506878376,0.0169696193188428,-0.0026332952547818,-0.7266534566879272,0.6867895722389221,0.0017281408204239,0.0008482362325094,0.0094811669788062,-0.0014490487519651,-0.0025337720289826,-0.0036382807884365,0.2720574226230383,-0.1984315671958029,-9.80521113038063,14929.0
6.11,1.2999999523162842,101.0,24.118253707885746,0.0318070948123931,-79.78282365194914,40.45904285200255,264.6321382446289,0.0169709753245115,-0.0026300547178834,-0.7266542315483093,0.6867887377738953,0.0046844109687329,0.0017815161014249,0.0100797959844786,0.0006560102920047,-0.002190803643316,-0.004770431201905,0.2690719987638295,-0.2036674929969013,-9.80286522746086,14929.0
6.3,1.2999999523162842,106.0,24.124513626098643,0.0318070948123931,-79.7828236502301,40.459042847236034,264.63314496707915,0.0169709753245115,-0.0026300547178834,-0.7266542315483093,0.6867887377738953,0.0051069598914992,0.0022266377521463,0.0101335317675156,0.0023745030630379,-0.0018620309419929,0.0030552779790014,0.2665788921900093,-0.2014212851040065,-9.806089382171631,14929.0
6.4,1.2999999523162842,102.0,24.12701797485352,0.0318070948123931,-79.78282357311086,40.45904283835333,264.6340880317688,0.0169655662029981,-0.0026350724510848,-0.726655125617981,0.6867879629135132,-0.0005640968888922,0.0022476432546359,0.0062420437123706,0.0034220195375382,-0.0048260237090289,-0.0090412646532058,0.27149981752038,-0.1994988485053181,-9.806424427628516,14929.0
6.6,1.2999999523162842,104.0,24.130773544311523,0.0636141896247863,-79.78282349642308,40.45904280747363,264.6351627035141,0.0169654935598373,-0.0026336915325373,-0.7266549468040466,0.6867881417274475,0.0005288722780029,0.0024070571948911,0.0038427996150379,0.0002813111641444,0.0024989186786115,0.0040695336647331,0.2666975358501077,-0.2026900212652981,-9.804096066355706,14929.0
6.7,1.5,107.0,24.12200927734375,0.0238553211092948,-79.78282349089034,40.459042805813816,264.6359517498016,0.0169658958911895,-0.0026340892072767,-0.7266565561294556,0.6867863535881042,0.0009693857238411,0.0027746717574486,0.0039723597053209,0.0026197826955467,-0.00555165624246,0.0001710859069135,0.2697609469480813,-0.1979747169278562,-9.806108093261717,14929.0
6.9,1.5,105.0,24.12200927734375,0.0397588685154914,-79.78282340656054,40.45904275736589,264.6395763082504,0.0169677287340164,-0.0026313131675124,-0.7266592383384705,0.6867835521697998,0.0050788772629295,0.0031109987870361,0.0065549791585726,0.0003668787248898,0.0035944338887929,0.0057936180382967,0.2659904612973333,-0.2047921501100063,-9.802764070630074,14929.0
7.0,1.600000023841858,103.0,24.124513626098643,0.0715659633278846,-79.7828233074348,40.45904270902597,264.6438754720688,0.0169664081186056,-0.0026270379312336,-0.7266594767570496,0.6867833137512207,0.0066684621613244,0.0059743263499609,0.0075813047730708,-0.0004235978703945,-0.0010115599725395,0.0035892333835363,0.2656676767207682,-0.2015806400030851,-9.80462348520756,14929.0
7.2,1.7000000476837158,107.0,24.12200927734375,0.0318070948123931,-79.78282330097139,40.45904270251968,264.6446371598244,0.0169665440917015,-0.0026270933449268,-0.7266601324081421,0.6867825984954834,0.0067846361571971,0.0061776893018248,0.0076551707086984,-0.0045606200583279,-0.0006655366742052,-0.0007757979328744,0.2691420008987189,-0.2068405211158097,-9.802186950445176,14929.0
7.3,1.7000000476837158,101.0,24.12200927734375,0.0397588685154914,-79.78282323029333,40.45904268220996,264.64780526590346,0.0169653352349996,-0.0026366366073489,-0.7266609668731691,0.6867817640304565,0.0013225862539971,0.0010030622583503,0.0053066974833172,-0.0011161926668137,0.0022245424333959,0.0049293697811663,0.2668082857690752,-0.2066270429268479,-9.80247054040432,14929.0
7.5,1.7000000476837158,104.0,24.12576484680176,0.0397588685154914,-79.78282322927573,40.45904268086999,264.6483353896141,0.0169653352349996,-0.0026366366073489,-0.7266609668731691,0.6867817640304565,0.0012519434718851,0.0011942254571034,0.0052063531646465,-0.001743075903505,-0.002605817746371,-0.0072866235859692,0.2704113217815757,-0.1995096293091774,-9.804594833850864,14929.0
7.6,1.7999999523162842,106.0,24.123260498046875,0.0318070948123931,-79.78282313733703,40.45904262262938,264.6519240064621,0.0169680602848529,-0.0026317071169614,-0.7266617417335509,0.6867808103561401,0.0062022896644475,0.0021209785364381,0.0034201238990944,-0.0001436060993,-0.0037517948076128,-0.0070351427420973,0.2673469787836075,-0.2019265576265752,-9.80233020722866,14929.0
7.8,1.7999999523162842,108.0,24.12200927734375,0.0715659633278846,-79.7828231349637,40.45904261658757,264.65227966737746,0.0169680602848529,-0.0026317071169614,-0.7266617417335509,0.6867808103561401,0.0066476469116676,0.0026023319239014,0.0037235732618921,0.0022733355872333,-0.0007428248063661,0.0022171398159116,0.2649708347953856,-0.2010316778160632,-9.806253688931466,14929.0
7.9,1.7999999523162842,106.0,24.124513626098643,0.0318070948123931,-79.78282306919509,40.45904259971741,264.65909218025206,0.0169653855264186,-0.0026404256932437,-0.7266619801521301,0.6867806315422058,0.0003663369869814,-0.0018480691551075,0.0069982151512361,-0.0005982673028483,-0.0007251797360368,-0.0013057247269898,0.2699281042255461,-0.1969005285948515,-9.806011029481889,14929.0
8.1,1.7000000476837158,108.0,24.078187942504893,0.8269844651222229,-79.78282297539582,40.459042557719705,264.6651509923935,0.0169641934335231,-0.0026376286987215,-0.726662278175354,0.6867803931236267,0.0012258633244445,-0.0004646932318171,0.0081453009397711,-0.0003020045114681,0.0030453177168965,0.0054707815870642,0.2673519123718143,-0.2057146214693785,-9.80226881146431,14929.0
8.2,1.7000000476837158,107.0,24.11199188232422,0.3578298389911652,-79.78282297683185,40.45904255520146,264.66679071617125,0.0169575996696949,-0.0026331709232181,-0.7266613245010376,0.6867815852165222,0.0015442270607791,0.000152304598366,0.0084836388901968,0.0024572403635829,0.0030202392954379,0.005559338722378,0.2704575147852301,-0.2080856674164533,-9.801556035876272,14929.0
8.4,1.399999976158142,103.0,24.105731964111328,0.326022744178772,-79.78282288147916,40.459042525305534,264.67370145750044,0.0169749837368726,-0.0026276928838342,-0.726668119430542,0.6867738962173462,-0.0031847015625811,0.0006132575905311,0.0093549524218228,-0.0027037649415433,-0.00114778324496,-0.0005221015890128,0.2679340940527618,-0.1998464472033083,-9.800732747912408,14929.0
8.5,1.5,104.0,24.10823631286621,0.3419262766838074,-79.78282278174869,40.45904247650749,264.68200372886656,0.0169601738452911,-0.002616771729663,-0.7266390323638916,0.6868051886558533,-1.6179906349210485e-05,0.0022381480965842,0.0102933950918439,-0.0016270647756755,0.0038900121580809,0.0020290450192987,0.2669262350723148,-0.1954075699858367,-9.800876004695892,14929.0
8.6,1.399999976158142,103.0,24.104480743408203,0.326022744178772,-79.78282277946636,40.45904247658285,264.6830343527794,0.0169523153454065,-0.0026175964158028,-0.7266725301742554,0.6867699027061462,-6.565103256831791e-07,0.0029110795684765,0.0103712942753156,0.0003363546857144,-0.0020415703766047,0.0002823414979502,0.2692003268748522,-0.1974902933835984,-9.80352479338646,14929.0
8.8,1.399999976158142,101.0,24.10698509216309,0.3737333714962005,-79.78282267412327,40.45904242715719,264.69016581010817,0.0169820096343755,-0.0026163044385612,-0.7266572117805481,0.6867853999137878,0.0002441874014549,0.0028260091946795,0.0069034077174121,0.0013731059152632,-0.0060267685912549,0.0001633395004319,0.2738788302987814,-0.2085010024532676,-9.805699957609177,14929.0
9.0,1.2000000476837158,102.0,24.096967697143555,0.4612028896808624,-79.78282267057736,40.45904242580461,264.6908903045654,0.016975300386548,-0.0026187791954725,-0.726657509803772,0.6867852210998535,0.0011892027750932,0.0026228314818458,0.0075355227870784,0.002256199484691,0.0029044947586953,0.0049918913282454,0.2572067191265523,-0.2099164489097893,-9.80305877029896,14929.0
9.1,1.2000000476837158,99.0,24.09571647644043,0.4691546559333801,-79.78282260214496,40.459042387036014,264.6983132882118,0.0169690232723951,-0.0026094163767993,-0.7266658544540405,0.6867765784263611,0.0003434415613773,-0.0012027095526798,0.0066743495422824,-0.0040025212801992,-0.0003856263938359,0.0022028088569641,0.2600438612513244,-0.1958120876736939,-9.809349789619446,14929.0
9.3,1.100000023841858,99.0,23.99680328369141,1.3995121717453003,-79.78282260521755,40.459042386796405,264.6990165634155,0.0171274356544017,-0.0025966104585677,-0.7265527248382568,0.6868923306465149,0.0021684087372928,-0.0034224713721828,0.0076169708660053,-0.0045669535174965,-0.0050652781501412,0.0121341478079557,0.2411570257879793,-0.1712490858882665,-9.80140283882618,14929.0
9.4,1.100000023841858,99.0,24.090707778930664,0.4293957948684693,-79.78282250369588,40.45904231154025,264.7062231225967,0.0173174422234296,-0.0025618176441639,-0.7265151739120483,0.6869274973869324,0.0032228547490063,0.0020573341845481,0.0053051950596702,-0.0382803082466125,0.0018266334664076,-0.008961122483015,0.2757974113896489,-0.204243681281805,-9.786639788746834,14929.0
9.6,1.100000023841858,105.0,23.21928024291992,10.774653434753418,-79.78282240084073,40.45904226825985,264.7139249367714,0.0172623265534639,-0.0025597324129194,-0.7265077233314514,0.6869366765022278,0.0022616405513846,0.0011450200302534,0.002464446870025,0.0290045887231826,0.0230863727629184,-0.0012149257818236,0.2910244197584689,-0.2655194315314293,-9.809150399565697,14929.0
9.7,1.2999999523162842,101.0,24.01934051513672,1.0575859546661377,-79.78282239670291,40.459042263446456,264.71466677618025,0.0174174662679433,-0.0025395397096872,-0.7264005541801453,0.6870462894439697,0.0016280882830566,0.0036414653877788,0.0024110516284149,0.0083925034850835,-0.0391282774507999,0.0018034256063401,0.281779423635453,-0.2257172335870564,-9.776970832943915,14929.0
9.9,1.399999976158142,97.0,24.096967697143555,0.3021674156188965,-79.78282229074496,40.45904220519351,264.72273873519896,0.0173530392348766,-0.0025294825900346,-0.7264556884765625,0.6869896054267883,0.0013245322978125,0.003394615618617,0.0036706589457077,-0.0415390692651271,-0.004786585457623,0.0049408785998821,0.2620952837727964,-0.1940856972523033,-9.78867988228798,14929.0
10.0,1.5,99.0,24.07568359375,0.6918043494224548,-79.78282228195461,40.45904219935477,264.723305873394,0.017247213050723,-0.0025192771572619,-0.7264181971549988,0.6870319843292236,0.0012723939236249,0.0058687082834866,0.0027817156578898,-0.0248709768056869,-0.0128665706142783,0.0102105364203453,0.2750789347663522,-0.1747339350543916,-9.801555451154709,14929.0
10.2,1.7000000476837158,98.0,23.904151916503903,4.286005973815918,-79.78282217640917,40.45904213640853,264.7323659582138,0.0172839928418397,-0.0024762107059359,-0.7265200614929199,0.6869234442710876,0.0041467355112146,0.0050893840001793,0.0035861094649276,-0.0060488493181765,-0.0041789929382503,0.0066638751886785,0.279361472055316,-0.2744992746971548,-9.814497678279876,14929.0
10.3,1.7000000476837158,97.0,23.849061965942383,5.192508220672607,-79.78282207055989,40.45904207920229,264.74203848075865,0.0172580834478139,-0.0025060484185814,-0.7264805436134338,0.6869657039642334,0.0037809550445651,0.0043445487599838,0.0024000664849043,0.0186167806386947,-0.0122015047818422,0.0094013875350356,0.2884671765379608,-0.2030053871870041,-9.808624150156977,14929.0
10.5,1.8999999761581416,103.0,23.718849182128903,7.259969711303711,-79.78282206561336,40.459042076034905,264.7423789424896,0.0173242464661598,-0.002496393630281,-0.7264979481697083,0.6869457364082336,0.0044084074493167,0.004353629973631,0.0019026083084798,0.0297034922987222,-0.0140415383502841,-0.0328200124204158,0.2642588997446001,-0.2015390699543059,-9.825109205245973,14929.0
10.6,2.0,100.0,23.63996887207031,8.222134590148926,-79.78282196039268,40.45904202444769,264.75255381298064,0.0178501922637224,-0.0019773689564317,-0.7264800071716309,0.6869530081748962,0.00242793828872,0.0012570205916452,0.0034239791337254,0.0078523149713873,-0.0276405476033687,-0.0002801035880111,0.2884594655223191,-0.1996562847867608,-9.814156200885774,14929.0
10.8,2.299999952316284,112.0,23.473445892333984,11.315374374389648,-79.78282195547071,40.4590420202143,264.75324457120894,0.018457818776369,-0.0014926405856385,-0.7264941334724426,0.6869231462478638,0.0049562890409773,-0.0001299329883789,0.0034745681125561,0.0642060637474059,-0.0241964254528284,-0.0745752900838851,0.2957040195353329,-0.2980378260277212,-9.851359695196154,14929.0
10.9,2.400000095367432,109.0,23.37954330444336,12.738741874694824,-79.78282188716756,40.45904194254987,264.76699434947966,0.0199657659977674,3.699183434946463e-05,-0.7264799475669861,0.6868975758552551,0.0100183805845584,-0.0071244233896494,0.010215732990934,0.0303311608731746,-0.0052194413729012,0.0045608323998749,0.2861753969080746,-0.1306287528388202,-9.821915456056596,14929.0
11.1,2.400000095367432,105.0,23.17170333862305,16.006921768188473,-79.78282189339599,40.45904193269569,264.7684499545097,0.0210181567817926,0.0004239822155795,-0.7265660762786865,0.6867750287055969,0.013357992151549,-0.0109426595616149,0.0124516307643934,-0.0597507543861866,-0.006277170497924,0.1270936578512191,0.1522168557532131,-0.2044120628200471,-9.837115877866744,14929.0
11.2,2.400000095367432,110.0,23.07654571533203,17.61318016052246,-79.78282181437035,40.45904188789371,264.7791122121811,0.0222172401845455,0.0005675962311215,-0.7263779044151306,0.6869361996650696,0.0042821263204091,0.003412181324543,0.0153897920086218,0.0447754636406898,-0.1156348586082458,-0.0702669322490692,0.344581900164485,-0.3584944727271795,-9.820191696882253,14929.0
11.4,2.299999952316284,116.0,22.886234283447266,21.024490356445312,-79.78282173183881,40.45904185101672,264.79006826114653,0.0198639202862978,-0.000642743660137,-0.7258648872375488,0.6875501871109009,-0.0212577708118207,-0.0115183574320398,0.0208934298934156,-0.0974198207259178,0.0458805374801158,-0.0583823807537555,0.2496384303644299,-0.3534635649248958,-9.78924589276314,14929.0
11.5,2.400000095367432,115.0,22.747257232666016,22.972675323486328,-79.78282169984006,40.45904173476429,264.7997430486679,0.0059965890832245,-0.0104388501495122,-0.7280139923095703,0.6854566335678101,-0.0401949383309157,-0.0167673521009191,0.0878681902915115,-0.2730586230754852,-0.0624461360275745,-0.0313395224511623,0.0492160689644515,-0.0845187979191541,-10.221480259895324,14929.0
11.7,2.299999952316284,116.0,22.87621879577637,19.17172622680664,-79.7828217298977,40.45904179427188,264.81266777944563,-0.0058442698791623,-0.0204815957695245,-0.7295179963111877,0.6836299896240234,-0.0767327243955998,-0.0247022876382028,0.1806704645389557,-0.2825692892074585,-0.1166897937655448,0.1601980775594711,0.0975020377803594,-0.189740412030369,-10.59224401831627,14929.0
11.8,2.200000047683716,113.0,22.85368156433105,20.300878524780277,-79.78282193754356,40.45904186788499,264.86237638425825,-0.009705008007586,-0.0137408971786499,-0.7315915822982788,0.6815356016159058,-0.1025547311168064,-0.0544854669692344,0.2943571570635542,0.2637040317058563,-0.0636976808309555,-0.0198028665035963,0.1787413425743579,0.3851639887690544,-10.332911818027496,14929.0
12.0,2.200000047683716,112.0,22.936317443847656,18.766185760498047,-79.78282200402376,40.45904199300832,264.8919851703644,-0.0039787534624338,-0.0044837752357125,-0.7315776348114014,0.6817318201065063,-0.1286247108353244,-0.0643270696823168,0.3026584451983946,0.2273498773574829,-0.0364797711372375,0.0833352878689765,-0.0083082539029419,0.0625543901324272,-9.987630225419998,14929.0
12.1,2.200000047683716,106.0,22.83615303039551,20.730274200439453,-79.78282211936998,40.45904257934021,264.92934691143034,0.001078559551388,0.0094119133427739,-0.730098307132721,0.6832765340805054,-0.1524194775805245,-0.0542633351242272,0.191914844207936,-0.0757044330239296,-0.0330262742936611,-0.0085141416639089,0.0681037815101444,-0.0862276284210384,-9.454327320456503,14929.0
12.3,2.200000047683716,106.0,22.69216728210449,22.41604995727539,-79.7828221632696,40.45904270941124,264.9467218441963,0.0017191830556839,0.0102191604673862,-0.7295007109642029,0.6839015483856201,-0.1434032632260583,-0.045112687196277,0.1558942015751398,-0.0302435345947742,0.086447387933731,-0.0410547852516174,0.001142029738985,0.0165828314982354,-9.452300675511358,14929.0
12.4,2.0,105.0,22.79608726501465,21.12786293029785,-79.78282226504173,40.45904271693573,264.98790844511984,0.0063188853673636,0.003045005723834,-0.7292138934135437,0.6842498779296875,-0.1027022739905703,-0.0422813753266879,0.1258968991343053,-0.0448253005743026,0.0658274590969085,0.0095940986648201,0.0857610388845205,-0.1251458004489541,-9.692010204792023,14929.0
12.6,2.0,101.0,22.628313064575195,23.09990310668945,-79.78282223335506,40.4590428181662,265.03080689144133,0.0063706822693347,-0.000540196604561,-0.7289661765098572,0.6845199465751648,-0.1230270099568445,-0.0391414868616495,0.1361228924453978,-0.1685088723897934,-0.0223414804786443,-0.0331220999360084,0.112067378880456,-0.1141186826303601,-9.65693041920662,14930.0
12.7,2.0999999046325684,105.0,22.71720886230469,21.8355712890625,-79.78282231102182,40.45904302211833,265.0577247364521,0.0031448453664779,-0.0018116041319444,-0.728132963180542,0.6854263544082642,-0.1126107928285746,-0.0383400626348962,0.1443561026753542,-0.0465233698487281,0.0102643929421901,0.0013255896046757,0.0153533995896577,0.0300416418537497,-9.821107370853424,14930.0
12.9,2.200000047683716,103.0,22.672134399414062,22.66255569458008,-79.78282221651756,40.45904299168758,265.0994014365673,0.0019786001648753,-0.0020075023639947,-0.7282532453536987,0.6853023767471313,-0.0959117266786875,-0.0427336783369908,0.1747590039576269,0.0219046510756015,-0.0187923274934291,0.0395713746547699,-0.0201160846464336,-0.0103578171925619,-9.854051753282548,14930.0
13.0,2.200000047683716,103.0,22.59075164794922,23.9825496673584,-79.78282212670534,40.45904310370072,265.1537801845073,0.0017701159231364,0.0004590102762449,-0.7285423278808594,0.6849983930587769,-0.1070771356197358,-0.0311900388819622,0.1952909398948898,0.0678288787603378,-0.0590090379118919,0.003888189792633,0.1536720450036227,-0.0271480832342058,-9.996082960367202,14930.0
13.2,2.299999952316284,101.0,22.598262786865234,23.82351493835449,-79.78282215953544,40.45904319882134,265.17550014686583,0.0021543982438743,0.0040245708078145,-0.7284592390060425,0.685073971748352,-0.0977013887860013,-0.0339008355069201,0.2322548000328553,0.1447890698909759,-0.031988438218832,-0.016520719975233,0.1147003252711147,-0.0613301933091133,-10.154424390792848,14930.0
13.3,2.299999952316284,99.0,22.67338562011719,21.398223876953125,-79.78282214668721,40.45904342223477,265.2385399116277,0.0049710883758962,0.0073677934706211,-0.7286319732666016,0.684847891330719,-0.0982621446655101,-0.0365518249866962,0.311327856601987,-0.0038743771146982,-0.0705770179629325,0.0399592816829681,-0.0114455180754885,-0.143998886514455,-10.291276134252549,14930.0
13.5,2.400000095367432,98.0,22.769794464111328,20.52352905273437,-79.78282218126364,40.4590434985128,265.27101080846785,0.0052212672308087,0.008412261493504,-0.7290456891059875,0.6843934655189514,-0.0847633609916813,-0.0343314170257448,0.3254634505112198,-0.0240337643772363,-0.0597325712442398,0.0385013148188591,-0.0162179378326982,-0.1139379945304244,-9.992097498178484,14930.0
13.6,2.400000095367432,97.0,23.5247802734375,8.492494583129883,-79.78282229544354,40.459043666807325,265.3382250590324,0.0042038601823151,0.0111609073355793,-0.7292191982269287,0.6841762065887451,-0.0727172754975644,-0.0628701952888521,0.2441590497940349,0.1373537331819534,-0.0034435458946973,-0.0804847404360771,-0.038561966959387,-0.0257741245999932,-9.320269376635553,14930.0
13.8,2.5999999046325684,97.0,22.56696128845215,24.04616355895996,-79.78282236294639,40.45904372655532,265.3552709741592,0.0049711712636053,0.0121199060231447,-0.7285283803939819,0.6848903298377991,-0.0682902277832615,-0.0633148147278693,0.101353005234693,-0.0415822342038154,0.0231546629220247,-0.0994863882660865,-0.0287461866578087,-0.0047870515007525,-8.716585875749589,14930.0
13.91,2.799999952316284,95.0,22.493091583251957,25.461580276489247,-79.78282240276745,40.459043705805314,265.41193609294294,-0.0021539919544011,0.0084006953984498,-0.7269759774208069,0.6866081953048706,-0.0491918687575715,-0.0577303057634369,0.1137584466880412,-0.0100299092009663,0.0399381108582019,-0.035699263215065,-0.1613335237652063,0.0371368223475292,-9.8389472258091,14930.0
14.1,3.0,99.0,22.1888427734375,30.26445198059082,-79.78282223933073,40.45904372662388,265.45543099549405,-0.0028447499498724,0.0063704163767397,-0.7263672947883606,0.6872713565826416,-0.0318229966518212,-0.0304587436338167,0.2548891028445232,0.000364452105714,0.1005168929696083,-0.0292125083506107,-0.0887928384728729,0.0776382056716829,-10.6926442193985,14930.0
14.2,3.0,102.0,22.27898979187012,28.76156616210937,-79.78282230215373,40.45904376706108,265.5385828388929,0.0015551180113106,0.0065321628935635,-0.7255250215530396,0.6881630420684814,-0.0191390136481137,-0.0341184211135111,0.5807986018165899,0.0326442085206508,0.0054697724990546,0.0327373743057251,-0.0460406151646748,0.0216500468552112,-11.41631433963776,14930.0
14.4,3.2000000476837163,101.0,22.07991409301757,32.610225677490234,-79.78282229295762,40.45904370887442,265.61254069936274,0.0007844811188988,0.0083348182961344,-0.7256574630737305,0.6880052089691162,-0.0126674851962222,-0.0408073224806644,0.7423563072580394,0.0614237561821937,-0.0157079994678497,-0.031804896891117,-0.0846923871338367,-0.0516930317413061,-11.636863127946857,14930.0
14.5,3.2000000476837163,105.0,21.992271423339844,30.94035148620605,-79.78282230273858,40.459043617203605,265.8149874432087,-0.0070960293523967,0.0110608311370015,-0.7258067131042479,0.6877732276916504,-0.0031451777666669,-0.0448538312031667,1.1543538769981003,-0.0923828557133674,-0.0348931178450584,-0.0402013026177883,-0.1638363878801465,0.0093156789103522,-11.996182715892797,14930.0
14.7,3.2000000476837163,106.0,21.910886764526367,33.739376068115234,-79.78282232632326,40.45904360807732,265.9409620387554,-0.0097084436565637,0.0109991542994976,-0.7259371876716614,0.6876046061515808,-0.0019450524411988,-0.0412332545476759,1.3620524896020512,-0.1492988020181656,-0.0533830150961875,-0.024494944140315,0.0130515335127711,-0.0206460091215558,-11.944267627000809,14930.0
14.8,3.2000000476837163,108.0,21.974742889404297,31.218664169311523,-79.78282224566286,40.45904347996087,266.2676360530853,-0.0142321549355983,0.0137670319527387,-0.722975492477417,0.6905899047851562,0.0174893255930191,-0.0136224268381957,1.7979857599409228,0.026249211281538,-0.0618791580200195,-0.028901120647788,-0.0441074845567345,-0.071697142207995,-11.996824740171435,14931.0
15.0,3.0999999046325684,109.0,21.96347427368164,31.26637458801269,-79.7828221703783,40.45904346345685,266.4574729127884,-0.0093510458245873,0.0152195114642381,-0.7203537821769714,0.6933768391609192,0.0148521451548692,0.0068683735993202,1.9980485512913444,0.038114208728075,0.0508324205875396,-0.1348492056131363,0.0766073598247021,0.0453456279030069,-11.920016884803774,14931.0
15.1,3.0999999046325684,103.0,21.86330986022949,33.53263092041016,-79.78282173039868,40.459043316627024,266.9145756883621,0.0052469461224973,0.0220813136547803,-0.7159453034400941,0.6977874636650085,0.0170247727899015,0.1057077119801678,2.3660599868716936,0.0713870748877525,-0.0896251425147056,-0.0702427700161933,0.1871196717023849,0.0150930111994966,-11.683857200145724,14931.0
15.3,3.299999952316284,96.0,22.34409713745117,24.28471755981445,-79.78282152387426,40.4590432236548,267.16153942775725,0.0058876136317849,0.0222019124776124,-0.7133533954620361,0.7004280686378479,0.0342848993752816,0.134631555974274,2.59096441348275,-0.0120269823819398,-0.0976728051900863,-0.1064564064145088,-0.0245453048218041,0.0570051814801991,-11.930477553606035,14932.0
15.4,3.400000095367432,91.0,22.32155990600586,23.25893783569336,-79.78282088031752,40.4590427562953,267.73333858680724,0.0076641575433313,0.0167797189205884,-0.7087106704711914,0.7052581310272217,0.2236943831545946,0.1765140270388452,2.822093921705102,-0.1326300799846649,0.0789510458707809,-0.1235417872667312,-0.015088100451976,0.6060031644254923,-10.58660262465477,14932.0
15.6,3.299999952316284,79.0,22.34910583496093,26.08976936340332,-79.78282019115241,40.45904233603622,268.0834412498474,-0.0018723607063293,0.0039358707144856,-0.7137075662612915,0.7004302144050598,0.3075792321534756,0.216311391740713,2.8475755053089533,-0.4459749758243561,0.0621971003711223,0.160592645406723,0.1109058386273682,0.5664742324501276,-9.82724110007286,14933.0
15.7,3.299999952316284,73.0,22.114971160888672,28.62638664245605,-79.78281956360873,40.4590415962241,268.630170337677,-0.0416239388287067,-0.0254428181797266,-0.7323380112648009,0.6791915893554688,0.5582924243913129,0.3078653713510788,2.7100919003641377,-0.2368310689926147,-0.0554285570979118,0.3353107273578644,0.0458888388052582,0.6292731823772192,-9.482761160731316,14933.0
15.9,3.299999952316284,54.0,22.061134338378903,30.272403717041016,-79.7828187382051,40.45904113089144,268.99764823150645,-0.0424805134534835,-0.0330537222325801,-0.7402511239051819,0.6701725721359253,0.6200127833450091,0.3070360960286803,2.7538190058914167,0.0373408943414688,0.2484780400991439,0.1121270805597305,-0.0652024936024099,0.6706335353851318,-9.878042879104616,14933.0
16.0,3.2000000476837163,43.0,22.00604248046875,29.516984939575195,-79.78281743103388,40.4590404615808,269.6117196006775,-0.0079462295398116,-0.0353700071573257,-0.7482599020004272,0.6624144911766052,0.5229132198927146,0.4354853155013638,2.850016182321391,0.4462862014770508,0.2203094959259032,0.022771181538701,0.1818935948051512,0.3891137098520994,-10.313009065389632,14934.0
16.2,3.2000000476837163,24.0,21.974742889404297,31.04372596740723,-79.78281701462642,40.4590402118421,269.9033451004028,0.0116086713969707,-0.0276609677821397,-0.7478948831558228,0.6631391048431396,0.3937383233578989,0.4943119111148298,2.9056873868318536,0.3431876301765442,0.1648288965225219,-0.0164219327270984,0.3014502793550491,0.2405082954838872,-10.28051491856575,14934.0
16.3,3.400000095367432,22.0,22.033588409423828,29.62830924987793,-79.78281603313349,40.45903974734417,270.50429820251463,0.0102522280067205,-0.0190990790724754,-0.7429493069648743,0.6689966320991516,0.216900476919438,0.5210528685880733,3.0455581522332813,-0.1179146841168403,-0.1311132609844207,-0.1212992370128631,0.3111043613031507,0.0953550772368908,-10.505397663116458,14935.0
16.5,3.5999999046325684,8.0,21.838268280029297,33.40540313720703,-79.7828156617784,40.4590395255993,270.8139820022583,0.0011640643933787,-0.0178221780806779,-0.7391667366027832,0.6732856631278992,0.2435097888673396,0.4597359941733441,3.0994266440337577,-0.0866251811385154,-0.0126890614628791,-0.1994069367647171,0.2145695169456303,0.2771430749818683,-10.35684564113617,14935.0
16.6,3.799999952316284,2.0,21.84703254699707,32.832874298095696,-79.78281481513946,40.45903909217504,271.44877433013914,-0.0007105628028512,-0.0218305643647909,-0.7322286367416382,0.6807085871696472,0.3007713240029964,0.4117757294017367,3.196199800849676,0.035562090575695,0.0647737085819244,-0.0721810981631279,0.2808073240332305,0.2252686607837677,-10.384978934526444,14936.0
16.81,4.0,343.0,22.09368705749512,28.83313179016113,-79.78281444415194,40.45903888666487,271.7722310943604,0.0027269835118204,-0.0238711945712566,-0.7303032279014587,0.682700514793396,0.2962618477458097,0.4315112389175112,3.224854976115324,0.0780823156237602,0.0679927244782447,-0.1015592664480209,0.426367417126894,0.2480623133853078,-10.171843246221544,14936.0
16.91,4.0,341.0,22.08993148803711,29.19891357421875,-79.78281354810511,40.45903855558251,272.42005824279784,0.016246773302555,-0.0273705776780843,-0.7286567091941833,0.6841391324996948,0.2683728022536053,0.4718273806618453,3.138320614209108,0.1537953317165374,0.0795132741332054,-0.0965179651975631,0.4248640614375472,0.2263021196052432,-9.50165760755539,14937.0
17.1,4.099999904632568,331.0,22.028579711914062,28.212894439697266,-79.78281284027757,40.45903842275429,273.02923678588866,0.0227139182388782,-0.027381869032979,-0.7290350794792175,0.6835512518882751,0.189040847334242,0.4718911942597656,3.0720153096070515,-0.0954154133796692,0.0858312621712684,-0.0043125241063535,0.4473858550563455,0.2274929233454168,-9.533290459513664,14938.0
17.3,4.300000190734863,322.0,21.924659729003903,31.20276069641113,-79.78281255214905,40.4590382438665,273.33749388885497,0.0191808845847845,-0.0266484878957271,-0.7297388315200806,0.6829372644424438,0.2076964501676686,0.4604507931856191,3.0473843094169784,0.0022887859959155,-0.0589828863739967,0.1083593592047691,0.3317243480309844,0.11345527946949,-9.559692392349245,14938.0
17.4,4.400000095367432,319.0,21.803211212158203,32.82492446899414,-79.78281231810998,40.45903810945964,273.85229872894286,0.016247272491455,-0.0270971823483705,-0.731659471988678,0.6809378266334534,0.1970338778344089,0.3971856888802787,2.9801276211898307,-0.117301121354103,0.0358042865991592,0.0881335139274597,0.3794970866292715,0.0260005329013802,-9.796501702666284,14938.0
17.6,4.699999809265137,318.0,21.99978256225586,29.07963752746582,-79.7828121651956,40.45903836411527,274.1684417648315,0.0142525667324662,-0.0333918966352939,-0.7322548627853394,0.6800623536109924,0.1538939304568891,0.385315195472208,2.9987460450121013,-0.0948561951518058,0.031292650848627,-0.1001322567462921,0.5979109834134579,0.0609221718600019,-10.158374769687653,14939.0
17.7,4.800000190734863,319.0,21.908382415771484,29.739633560180664,-79.7828117675811,40.45903814632142,274.7797555847168,0.0201730970293283,-0.0504180565476417,-0.7271642088890076,0.6843122839927673,0.2187095863666623,0.4000180952494193,3.0365525836392164,-0.0014127262402325,0.1364093422889709,-0.0186208821833133,0.6032094378769398,0.2020677861571312,-9.823316448926926,14939.0
17.91,5.0,317.0,22.061134338378903,28.196990966796875,-79.78281135405902,40.45903792201898,275.0687484664917,0.0246164295822382,-0.0517394840717315,-0.7240017652511597,0.6874143481254578,0.2271622542372564,0.4048050903668409,2.9678604972204687,0.0101202335208654,-0.0051263426430523,0.0580692626535892,0.5085953490436077,0.36413685310632,-9.670512331724169,14940.0
18.01,5.099999904632568,317.0,22.078662872314453,27.147356033325195,-79.78281076798282,40.4590375018792,275.73862742614745,0.0185727253556251,-0.0489075928926467,-0.7215269207954407,0.6904071569442749,0.208978285927193,0.3526270221960255,2.9219888504486167,-0.1771378368139267,-0.1446150541305542,-0.0269200466573238,0.6662841571122409,0.2824379114806652,-9.367517217993736,14940.0
18.2,5.099999904632568,318.0,21.848285675048828,32.228538513183594,-79.78281073686473,40.45903739484862,276.03068350982664,0.0108790248632431,-0.0468967966735363,-0.7212826609611511,0.6909658312797546,0.2305681499879193,0.2837501967941558,2.8592854916349544,0.0411455854773521,-0.1796121001243591,-0.0380591675639152,0.5581670931726694,0.4806914857774973,-9.139505628347395,14941.0
18.3,5.099999904632568,316.0,21.756885528564453,32.17287826538086,-79.78281028504063,40.459036937865314,276.7075090332031,0.0034057784359902,-0.0369185023009777,-0.7259778380393982,0.6867180466651917,0.228331937385911,0.1879129264294042,2.812172226884373,-0.0006629083654843,-0.0279185213148593,0.1024322062730789,0.5207046402990818,0.3342481159418821,-9.48690742135048,14941.0
18.5,5.300000190734863,315.0,21.872074127197266,31.385652542114247,-79.78281030306974,40.45903685652824,276.98991202545164,0.005375693552196,-0.037974689155817,-0.7293195724487305,0.6830973625183105,0.2061057411903844,0.1541754955276716,2.802781688896824,-0.0585249438881874,0.1892747581005096,0.0669649466872215,0.696878909021616,0.2092553663626313,-9.638628634214404,14941.0
18.6,5.300000190734863,315.0,21.723079681396484,33.32588577270508,-79.78281034560287,40.45903648037584,277.6384868545532,0.0159058831632137,-0.0490669533610343,-0.7323547601699829,0.6789668798446655,0.1796423262487977,0.2090893793708261,2.8284417737099825,-0.1082582473754882,0.0530666969716548,0.0670875906944274,0.654314541220665,0.2369845440611243,-9.715446429848672,14942.0
18.8,5.400000095367432,311.0,21.819488525390625,31.31408500671387,-79.78281037747146,40.45903643284176,277.9235191268921,0.0172461345791816,-0.053821425884962,-0.7320574522018433,0.6788944602012634,0.160856464074439,0.2409350681149362,2.8455376585716823,-0.1216731593012809,-0.0198581963777542,0.1309107542037964,0.8573805932700634,0.1448138056509197,-9.897260338068008,14942.0
18.9,5.400000095367432,316.0,21.76439666748047,33.437210083007805,-79.7828104200805,40.4590361679207,278.5680932922363,0.0170688014477491,-0.0544565916061401,-0.7306742668151855,0.6803368926048279,0.1762346187101094,0.2216935324213063,2.909685847276533,0.039806380867958,-0.0730484500527381,0.0196297504007816,0.7755033481121064,0.2468587736785412,-9.911573152542116,14943.0
19.1,5.400000095367432,317.0,21.70054244995117,34.55045700073242,-79.78281036070445,40.45903602075163,278.9026060028076,0.0155395800247788,-0.0520356707274913,-0.7300222516059875,0.6812623739242554,0.1721748806942305,0.2129246030054888,2.9572160550515534,-0.0150822484865784,-0.1140603348612785,-0.0370811149477958,0.8809038687497378,0.1878759907744825,-10.071378725767136,14943.0
19.2,5.5,318.0,21.929668426513672,29.18301010131836,-79.78281062359389,40.45903603142367,279.4988279266357,0.0105895660817623,-0.048630516976118,-0.7294291257858276,0.6822434067726135,0.1361927366443527,0.1369156786915377,2.9915527659730263,0.075774110853672,0.007476077415049,-0.1149431318044662,0.8283696328103543,0.3880988524854184,-9.915929328203203,14944.0
19.4,5.599999904632568,316.0,21.713064193725582,32.538658142089844,-79.78281075008579,40.45903597765447,279.8204994125366,0.0118510155007243,-0.045014914125204,-0.7296717762947083,0.6822113394737244,0.1265298439761846,0.1220654893313047,2.9935369750323924,0.08279849588871,-0.033064667135477,0.1872042864561081,0.7370206291973591,0.1776940697059035,-9.8635417842865,14944.0
19.51,5.800000190734862,315.0,21.823244094848643,31.75143241882324,-79.78281109336909,40.459035987927706,280.4376573486328,0.0133104128763079,-0.0436125807464122,-0.7288263440132141,0.6831786036491394,0.0728254051043433,0.0957868967002283,2.988829524950244,0.0664693415164947,-0.0280164275318384,-0.1175194382667541,0.9686911140382288,0.3349072798714042,-9.739232903122902,14945.0
19.7,5.9000000953674325,313.0,21.630428314208984,33.27022171020508,-79.78281125076055,40.45903605007047,280.7349262161255,0.0151731595396995,-0.0461936332285404,-0.7286447882652283,0.6831638216972351,0.0518397997286293,0.1078551843875936,2.9599278562848066,0.046608343720436,0.041063092648983,-0.0329645909368991,1.0660344638675452,0.1390229425393045,-9.620927358269691,14945.0
19.8,6.0,312.0,21.7205753326416,31.322036743164062,-79.78281172124481,40.45903626069202,281.35706519317625,0.0259507969021797,-0.0459257923066616,-0.7274317741394043,0.6841493844985962,0.0234786446926591,0.1099751269763541,2.956248661396097,0.2058531641960144,0.1670529991388321,-0.1367272436618805,0.8958844352513552,0.4617607961967588,-9.686895645260812,14946.0
20.0,6.0,309.0,21.654216766357425,32.96010208129883,-79.7828119140768,40.45903635662707,281.6510190887451,0.0288165546953678,-0.0412358939647674,-0.7265158891677856,0.6853057742118835,-0.0196611975926886,0.121050638537175,2.9285100444360648,0.1364850997924804,-0.0732636377215385,0.0743747130036354,0.7620368450134993,0.0601723806560039,-9.531881865262983,14946.0
20.11,6.0,311.0,21.659225463867188,32.005889892578125,-79.78281230673566,40.45903655626042,282.2623796386718,0.0210549291223287,-0.0347929894924163,-0.7261077165603638,0.6863772869110107,-0.0660299156598974,0.0786047808422545,2.9676388588247646,-0.1414742916822433,0.0119535168632864,0.0836725756525993,0.7760662157088518,-0.0514965378865599,-10.07954728603363,14947.0
20.3,6.199999809265138,311.0,21.71932411193848,32.109264373779304,-79.78281250916895,40.45903664470164,282.56063174438475,0.0167066622525453,-0.0374484695494174,-0.7261919975280762,0.6862679719924927,-0.0262846308748047,0.0622879992741145,3.005494816779781,-0.0961031466722488,0.1524953693151474,0.0253918543457984,0.7947664884477854,0.3482114131003618,-10.02742286682129,14947.0
20.4,6.300000190734862,311.0,21.799455642700195,31.783241271972656,-79.78281270975691,40.459036712802,282.8766393585205,0.0153535325080156,-0.0415394082665443,-0.7259476184844971,0.6863227486610413,0.0040309976566692,0.066957803783029,2.9909515031829392,-0.1152518764138221,-0.0146866422146558,-0.0848397389054298,0.9085583482682704,0.2983393413573503,-9.766004964709284,14947.0
20.5,6.4000000953674325,309.0,21.60163116455078,36.22032928466797,-79.78281309083418,40.45903690843644,283.48124026489256,0.0148093728348612,-0.0434511303901672,-0.7265235185623169,0.6856064796447754,0.034943258112578,0.1172436368545634,2.9504077769881176,0.0074803987517952,-0.0196854248642921,0.0636966004967689,1.0662880137562751,0.4559559363126755,-9.627723577022556,14948.0
20.71,6.5,310.0,21.632932662963867,33.23046493530273,-79.78281335643051,40.45903705249923,284.0728197021484,0.0168732553720474,-0.0463237091898918,-0.7272154092788696,0.6846365928649902,0.0404890383215137,0.1537215061074948,2.9587609958617587,0.0149637954309582,0.0559538602828979,0.1820582449436188,0.8692933449894191,0.292584182806313,-9.728997352123262,14949.0
20.8,6.5,312.0,21.80070686340332,29.461322784423828,-79.78281347961892,40.45903720630919,284.38745021057133,0.0190748088061809,-0.0488079823553562,-0.7275786399841309,0.6840199828147888,0.0504844081870471,0.1328109600863187,2.9290789243728725,0.0022465884685516,-0.0493579618632793,-0.0533035062253475,0.8979743763059378,0.4015390796586871,-9.489288992285733,14949.0
21.01,6.4000000953674325,312.0,22.14752578735352,23.457733154296875,-79.78281363331826,40.45903727497881,284.6779088897705,0.0177968312054872,-0.0519482158124446,-0.727830708026886,0.6835547685623169,0.0380750615386964,0.144622952380336,2.8710502980718697,-0.1441292762756347,-0.0155890835449099,0.105891652405262,0.7251418644189835,0.4037892344221473,-9.039470878243447,14949.0
21.2,6.4000000953674325,316.0,21.959716796875,28.90469741821289,-79.78281387518851,40.4590375814589,285.25218295288084,0.0116068795323371,-0.0550155974924564,-0.7288838624954224,0.6823246479034424,0.0714309780713852,0.0987368608247907,2.5211714211579497,0.1818816512823104,-0.0492852143943309,0.0123337423428893,0.690778582021594,0.5628150814399123,-7.842620678544044,14950.0
21.3,6.5,314.0,22.17882537841797,23.354360580444336,-79.78281403750042,40.45903765793877,285.4950838012695,0.017765475437045,-0.0453853346407413,-0.730571448802948,0.681094765663147,0.0678581536410888,0.0815271300222889,2.3582386924730625,0.2575175762176513,0.0540329329669475,0.0265078954398632,0.8247217742353679,0.6413976033031941,-8.123613304495812,14950.0
21.4,6.599999904632568,315.0,22.22640419006348,24.38809013366699,-79.78281423369141,40.4590376722764,285.97096347045897,0.0214701537042856,-0.0337763130664825,-0.7327391505241394,0.6793317198753357,-0.0219592470278905,0.0839075522405877,2.1789264085158973,0.0226919539272785,0.2831208407878876,-0.204353615641594,0.9960753791034224,0.4775851890072227,-8.676798496842384,14950.0
21.6,6.599999904632568,315.0,22.04110145568848,26.5748291015625,-79.78281437832419,40.45903775210999,286.40915393066405,0.0171497613191604,-0.0589884221553802,-0.7312685251235962,0.6793177723884583,-0.0012746569502643,0.1117674625897733,1.9401817715414984,-0.0947171673178672,0.289307028055191,0.0166917573660612,0.6625278326869011,0.1663741160184145,-8.264313685297967,14951.0
21.7,6.599999904632568,317.0,22.047361373901367,24.523271560668945,-79.78281443681269,40.4590378285673,286.596732131958,0.0195342246443033,-0.0673389956355094,-0.7292333245277405,0.6806633472442627,0.0172201346619467,0.146008092367513,1.810858981490877,0.0013109560823068,0.0759400278329849,-0.0528940930962562,1.05761454641819,0.3560604595765471,-8.527199238538742,14951.0
21.9,6.599999904632568,318.0,22.044857025146484,26.7497673034668,-79.78281452715291,40.45903782694304,286.80826663208006,0.0247221123427152,-0.0679928585886955,-0.7270493507385254,0.6827628016471863,0.005841215273118,0.1570048780609597,1.7304092991084032,0.1297051310539245,0.1253235340118408,-0.0799720659852027,0.9241959956288338,0.3341731619462371,-8.531399293541911,14951.0
22.1,6.5,317.0,22.08241844177246,25.11170196533203,-79.7828146650072,40.45903787346236,287.194128982544,0.0332560017704963,-0.0613752380013465,-0.7235541343688965,0.6867289543151855,-0.0537669119315711,0.126499109789707,1.619261080463105,0.2008269429206848,0.0665394365787506,-0.1398631185293197,1.0086025270074606,0.4389799343794584,-8.984057984948159,14952.0
22.2,6.5,317.0,22.091182708740234,24.61869239807129,-79.78281477284948,40.45903799611559,287.35422801208495,0.034565906971693,-0.055486761033535,-0.7226693630218506,0.6880955696105957,-0.0746821663428757,0.1137903630538465,1.5847058992262997,0.0729077011346817,-0.1214500367641449,0.0109849944710731,1.283758096843958,0.3148810048028827,-9.296463607549668,14952.0
22.3,6.5,318.0,21.984758377075195,28.228797912597656,-79.78281490727166,40.45903803379916,287.72359561157225,0.0305279474705457,-0.0492766201496124,-0.7222440838813782,0.6892049312591553,-0.0698391219991247,0.0681857132285761,1.5212462023632782,0.0335443206131458,0.0787785351276397,-0.1574278324842453,1.052465195953846,0.392337864562869,-9.155358599424364,14952.0
22.5,6.599999904632568,315.0,22.038597106933597,25.827362060546875,-79.78281516728273,40.45903807136384,288.10034083557133,0.0262380931526422,-0.0487545877695083,-0.7229618430137634,0.6886658668518066,-0.0505756428998694,0.0594109934133025,1.5007424002836682,0.0037828751374036,-0.0205603148788213,0.1319599747657776,0.978225145339966,0.3074908185750246,-9.198467781543734,14953.0
22.7,6.599999904632568,316.0,21.843276977539062,28.363977432250977,-79.78281528499762,40.45903814779458,288.24654483032225,0.0239130314439535,-0.0467595346271991,-0.7234945893287659,0.6883293390274048,-0.0279436134865508,0.053595585975882,1.4322198550189442,0.0675531104207038,0.0693406909704208,-0.1545747369527816,1.0909357088059188,0.5593143168836833,-9.171477618813515,14953.0
22.8,6.699999809265138,316.0,22.03984832763672,25.70013236999512,-79.78281539709492,40.45903821243709,288.3877687377929,0.0230383612215518,-0.0456164143979549,-0.7241753339767456,0.6877197623252869,-0.0228299822202942,0.0444552666581013,1.4087386338597094,-0.0385197214782238,0.0368764176964759,0.1317550539970398,0.9473865645378828,0.3331145966425538,-9.439480070471763,14953.0
22.9,6.599999904632568,313.0,22.355365753173828,15.490056037902832,-79.78281544651125,40.45903818005411,288.75945567321776,0.0228731203824281,-0.046201042830944,-0.7260456085205078,0.6857113242149353,0.0205610663311735,0.086660145492882,1.3346486032370186,0.0030230141710489,-0.143334150314331,-0.0146799199283123,1.1929942533373834,0.4942522021383047,-8.80273992061615,14953.0
23.1,6.599999904632568,317.0,22.193851470947266,23.608816146850582,-79.78281549434081,40.45903812960296,288.9463663024902,0.0204946883022785,-0.0400830470025539,-0.7244140505790709,0.6878936886787415,0.0437142307354887,0.1122502852416938,1.106598315702712,0.1512053906917572,-0.2936131954193115,-0.1447755247354507,1.1501885417103768,0.158497916534543,-7.194724041223528,14953.0
23.2,6.599999904632568,320.0,22.151281356811523,23.79170799255371,-79.78281548189837,40.4590381121875,289.04408168029784,0.019158087670803,-0.0288792252540588,-0.7082657814025879,0.7050946950912476,0.0454142946574198,0.1079557983502046,0.8621146535332113,0.1373948007822036,-0.2268371433019638,-0.5634133815765381,1.0666653053462505,0.0792974353395402,-7.462696672081948,14954.0
23.41,6.599999904632568,322.0,22.131248474121094,24.75387191772461,-79.7828154236017,40.459038133842895,289.1621084136964,0.0200012046843767,-0.0368436425924301,-0.6588432192802429,0.7511112689971924,0.1044352375427779,0.1128772410196928,0.6094000344294642,-0.0270922277122736,0.2412880212068557,-0.8745603561401367,1.053505561798811,0.6748179490864277,-8.591950719952585,14954.0
23.6,6.5,312.0,22.05111694335937,26.137481689453125,-79.7828152827482,40.45903811629137,289.2259530944824,0.0216457620263099,-0.0465111285448074,-0.6077978014945984,0.7924330234527588,0.1964161936701971,0.1189721255160771,0.4772237968672057,-0.0304141789674758,0.1911822408437729,-0.4850242137908936,0.6645226833969355,0.8269847197830678,-9.146911126971244,14954.0
23.7,6.4000000953674325,308.0,21.55655670166016,31.767335891723643,-79.78281514092703,40.45903796642264,289.2739324493408,0.0198538862168788,-0.0511653684079647,-0.5881619453430176,0.8068788051605225,0.2272189281009656,0.1179988848863887,0.4489970483367861,-0.1003001108765602,0.1178143694996833,-0.3488061726093292,0.9236368556320668,0.7752005354315042,-9.392076693177223,14954.0
23.8,6.4000000953674325,313.0,21.76439666748047,30.57457160949707,-79.78281485771056,40.45903793296154,289.3195810241699,0.006850675214082,-0.0588484779000282,-0.5621872544288635,0.8248851299285889,0.2395658796686411,0.1226404855799142,0.5081793968121551,-0.2554165124893188,-0.2378300875425339,-0.1325460374355316,0.8840392919629813,0.6458388559520245,-10.210169405937195,14954.0
24.0,6.300000190734862,315.0,21.994773864746094,28.06976127624512,-79.78281436981698,40.459037846301605,289.3519983215332,-0.038224957883358,-0.0342351198196411,-0.5516334772109985,0.8325067162513733,0.2721897808125573,0.2169510950806628,0.5586912286128349,0.1223213449120521,-0.6035779118537903,0.0118966428562998,0.8598335733264685,0.9262852788716556,-10.000668346881868,14954.0
24.2,6.099999904632568,309.0,21.90087127685547,27.5369930267334,-79.7828139995884,40.45903776250611,289.4127969665527,-0.0608215928077697,-0.0120606068521738,-0.5513743162155151,0.8319506049156189,0.2693166666390383,0.3033010359532753,0.6066326545127309,0.2058092504739761,-0.635965883731842,0.0138617120683193,0.885510159060359,0.7688037545979023,-10.177586381435397,14954.0
24.3,6.099999904632568,297.0,21.98726272583008,27.131452560424805,-79.78281347116304,40.4590377345971,289.47693156433104,-0.0772647783160209,0.0070042209699749,-0.5531632900238037,0.829452633857727,0.2697023450132404,0.4266900305905939,0.6790984105412289,0.1950185298919677,-0.2962762117385864,0.0159193091094493,0.6205943794548512,0.8917433640360832,-10.240730463266372,14954.0
24.5,5.9000000953674325,300.0,21.81447982788086,29.310237884521484,-79.78281244944155,40.45903834081764,289.43655108642577,-0.0916738510131836,0.0264119058847427,-0.5594102740287781,0.8233823776245117,0.2443135991256026,0.7935676667711185,0.7880396665788431,0.025711927562952,-0.1211008876562118,-0.0408262647688388,0.6053716651350259,0.8070126045495272,-10.312997370958328,14954.0
24.6,5.9000000953674325,302.0,21.8282527923584,29.02397537231445,-79.78281148359865,40.45903896019196,289.3857126159668,-0.0951820835471153,0.0270314570516347,-0.5633130073547363,0.8202975988388062,0.2081301494646564,1.0118435660359075,0.8397129999685709,-0.1551256030797958,-0.1728138178586959,0.1659819632768631,0.5870385244488716,0.6829468213766814,-10.366868938207627,14954.0
24.7,5.699999809265138,286.0,21.950952529907227,26.964466094970703,-79.78280824011209,40.459039586752944,289.525385848999,-0.0975361391901969,0.0233925953507423,-0.5702551007270813,0.8153212070465088,0.2189864337250751,1.5004796890295309,1.0268073381666374,-0.0665914118289947,0.0735850632190704,0.0991929471492767,0.49030836481601,0.6596064175665379,-10.461931800842285,14954.0
24.9,5.699999809265138,290.0,22.22890853881836,21.072200775146484,-79.7828042443176,40.459040981889984,289.55830287170414,-0.0925845727324485,0.0226012337952852,-0.5737927556037903,0.8134366869926453,0.1958169573911869,1.95489006568214,1.067405173486322,0.1057972460985183,0.1523199081420898,-0.1120069175958633,0.5448195078223944,1.0080083768069743,-9.85206603884697,14954.0
25.0,5.599999904632568,292.0,22.044857025146484,25.501338958740234,-79.78280216422611,40.45904215267316,289.5144987030029,-0.0931133478879928,0.0230452604591846,-0.5737184882164001,0.8134162425994873,0.1370521740668102,2.1658393907173434,0.9972623266079944,-0.0212400704622268,0.0165024027228355,-0.0325320214033126,0.5110052058845759,0.8842177051305772,-9.568341009020807,14954.0
25.2,5.599999904632568,295.0,22.262714385986328,20.809791564941406,-79.78279971214151,40.45904282464559,289.5703535003662,-0.0963888764381408,0.024433372542262,-0.5734320282936096,0.8131961226463318,0.1418926077297587,2.3622829233266924,0.9925537287202164,-0.0150643773376941,-0.0597882010042667,0.0064076329581439,0.3973267455026507,0.8541812161356211,-9.625521515607836,14954.0
25.4,5.5,299.0,22.360374450683597,20.595094680786133,-79.78279413476305,40.4590450694443,289.5692071838379,-0.1025124043226242,0.0299717262387275,-0.570854127407074,0.814075231552124,0.1014495550673133,2.7740394854454173,0.8853057773334881,-0.0873545184731483,-0.1581592112779617,0.0256001688539981,0.3509962226450443,0.8780571518093347,-8.91231791138649,14954.0
25.5,5.5,301.0,22.290258407592773,21.62882423400879,-79.78278767601981,40.45904766707872,289.5412664337158,-0.1192918047308921,0.0387784913182258,-0.5670639276504517,0.814066469669342,0.0816593945679352,3.200244154146245,0.7620538426898629,0.0293200071901083,-0.2411826103925705,-0.0373465865850448,0.1880710502341389,0.7876945734769106,-8.666695677638055,14954.0
25.6,5.400000095367432,308.0,22.30152702331543,21.68448829650879,-79.78278413909774,40.45904869318433,289.5400991363525,-0.1279045343399048,0.0439639203250408,-0.5659457445144653,0.8132730722427368,0.0889845240813701,3.409529227033496,0.7538350579259672,-0.1175545006990432,-0.2712776064872741,0.066524364054203,0.0697412394359707,0.6575029548257589,-8.722468174695969,14954.0
25.8,5.400000095367432,312.0,22.133752822875977,24.9924259185791,-79.78277616050354,40.459051894353024,289.4699258728027,-0.1397037655115127,0.0521997585892677,-0.5645016431808472,0.8118473291397095,0.0203015105695954,3.877110168157805,0.8288509730705924,0.0225266516208648,-0.2228794991970062,0.0128723476082086,-0.1211030446831137,0.6338542565703392,-9.10009130179882,14954.0
25.9,5.300000190734863,317.0,22.05988121032715,24.539175033569336,-79.78277165008241,40.4590531658118,289.4400815887451,-0.1433023065328598,0.0562989860773086,-0.5664005279541016,0.8096205592155457,0.0265434791289482,4.119367307965124,0.8940010773555019,0.02988270111382,-0.1283606439828872,0.2188422530889511,-0.378733951896429,0.5494988152384759,-9.449452496767044,14954.0
26.1,5.400000095367432,319.0,22.073654174804688,25.40591812133789,-79.78276708714802,40.45905557069611,289.3892145080566,-0.1404904574155807,0.0580734498798847,-0.5696915984153748,0.8076766133308411,-0.0506153023855775,4.3443773885141495,1.015999983559527,0.0858313739299774,0.0929513946175575,0.2082943469285965,-0.3577727435901761,0.6284743796288967,-9.712386581897738,14954.0
26.2,5.400000095367432,330.0,21.91339111328125,27.68807601928711,-79.78275671832726,40.45905859094373,289.31621836853026,-0.1394396275281906,0.0559832155704498,-0.5790489315986633,0.8013269305229187,-0.1281071635365649,4.853664873444537,1.0695839135539889,0.0030550237279385,-0.0553502291440963,0.0243391189724206,-0.2813104038499296,0.7979320979118347,-10.040483207702636,14954.0
26.4,5.300000190734863,335.0,21.96973419189453,25.93073463439941,-79.78274541764813,40.45906290625613,289.24137210083006,-0.1329572647809982,0.0580696873366832,-0.5828836560249329,0.7994980216026306,-0.2534995708932785,5.303285204406134,1.334229244681426,0.1298748850822448,0.1006337031722068,-0.0710993632674217,-0.4277990347892046,0.8939783891290427,-10.557795732021331,14954.0
26.5,5.400000095367432,347.0,21.962221145629886,26.185192108154297,-79.78273979460519,40.45906594829548,289.2014627380371,-0.1321656852960586,0.0618739314377307,-0.5800390839576721,0.8014103770256042,-0.3831021440569397,5.512390402057086,1.4597784096286333,0.006831016857177,-0.0584184527397155,-0.1109514534473419,-0.5305623515322805,0.677179347127676,-10.688013224601749,14954.0
26.7,5.5,351.0,21.93592834472656,26.7418155670166,-79.78272679012696,40.4590699184614,289.17895793151854,-0.1283136159181594,0.0608698688447475,-0.574196994304657,0.8063052892684937,-0.2786334888838235,5.917617549571274,1.7133897189373457,-0.0555505231022834,0.0350186787545681,-0.2273037135601044,-0.6643415658921004,0.7040817285329104,-10.69305001616478,14954.0
26.9,5.599999904632568,0.0,22.02607536315918,25.906879425048828,-79.78272049749948,40.45907301824845,289.1023530883789,-0.1244630962610244,0.0605284124612808,-0.5678495764732361,0.8114137649536133,-0.2870735997993063,6.113465173424825,1.78394296348629,-0.0105920620262622,-0.0869351103901863,-0.1914749592542649,-0.7578642719238997,0.5064195635542273,-10.978913372755056,14954.0
27.0,5.599999904632568,5.0,21.96472549438477,26.566877365112305,-79.78271341693168,40.459075204397415,289.1084813995361,-0.1225656941533088,0.061148814857006,-0.561659038066864,0.8159520030021667,-0.1829935964459745,6.309558264336612,1.891758825944479,-0.076769158244133,-0.0653621107339859,0.0741209015250206,-0.7889488012343645,0.2463349362462759,-10.903328754901883,14954.0
27.1,5.9000000953674325,9.0,22.018564224243164,25.270736694335927,-79.78269882834812,40.4590807668852,289.06252764892577,-0.1184048801660537,0.0678248554468154,-0.5484980940818787,0.824942409992218,0.0183821916884402,6.692152315588903,2.0847113001793334,0.1358627080917358,-0.2609567642211914,-0.1195633634924888,-0.8044170255213976,0.3980442354083061,-10.701204543113713,14954.0
27.3,6.0,10.0,21.78693389892578,28.745662689208984,-79.78268337333267,40.45908655749318,289.0276307983398,-0.1198272034525871,0.0774175226688385,-0.5397166013717651,0.8296710848808289,0.1645902292716428,7.022535662839488,2.2561097297318407,-0.0413020141422748,0.0786907225847244,-0.234821006655693,-0.7440854544192553,0.5419693190976977,-10.202525925636293,14954.0
27.4,6.300000190734862,14.0,21.85204124450684,28.16518402099609,-79.78267521330048,40.45908907580528,289.05152224731444,-0.1182267293334007,0.0776992067694664,-0.5386554002761841,0.8305634260177612,0.2745639483886402,7.168141359413912,2.392090485588384,0.0950393825769424,0.0765942111611366,0.0077229226008057,-1.1801926517486574,0.4763669581711292,-10.44069471359253,14954.0
27.6,6.5,16.0,21.838268280029297,27.38591003417969,-79.78266734022745,40.45909292127126,288.98155879211424,-0.1175641044974327,0.0807573720812797,-0.5360838174819946,0.8320283293724059,0.2294801030751528,7.346683098739022,2.4373434826957605,0.0674920752644538,-0.1265158802270889,0.2106489539146424,-1.2898872944712645,0.0787755530700087,-10.431287713050844,14953.0
27.8,7.099999904632568,15.0,22.32155990600586,19.49774932861328,-79.78265007010128,40.45909829843861,289.05813693237303,-0.1184921413660049,0.0805136635899543,-0.5382069349288939,0.8305483460426331,0.3315219195333553,7.584125565609638,2.7917052425559,0.0597427189350128,-0.040520790964365,0.0455632954835891,-1.3465894988179208,0.2911976983398199,-10.882837772369385,14954.0
27.9,7.300000190734862,19.0,22.352861404418945,20.300878524780277,-79.78263261302773,40.45910564276407,289.02265834045414,-0.1283976733684539,0.1019162014126777,-0.5376261472702026,0.8270944952964783,0.2610578279669633,7.863160487349282,2.96540087690153,0.1470744162797928,-0.2276898473501205,-0.0453518740832805,-1.8678369069099428,0.1807641868293285,-9.870315198898316,14954.0
28.0,8.0,23.0,22.36788558959961,19.680641174316406,-79.78262399174929,40.45911056403881,288.9104356689453,-0.1344456672668457,0.1077281460165977,-0.5347816348075867,0.8272409439086914,0.1286333593784254,7.997624178295839,3.114363596113926,0.0829911530017852,-0.1724897474050522,0.0417579300701618,-1.7298937806487085,0.1026509588398039,-9.626011512279511,14953.0
28.21,8.300000190734862,25.0,22.23141288757324,21.978702545166016,-79.78261456216839,40.45911356313669,288.94546221923827,-0.142212763428688,0.1101396381855011,-0.5341507792472839,0.8260313868522644,0.2040518579836615,8.110710465777416,3.2732484324972866,-0.0738537237048149,-0.1213255226612091,0.0391676761209964,-1.6535563337802888,0.188810905739665,-9.57800938010216,14953.0
28.4,8.699999809265138,23.0,22.28650283813477,20.261119842529297,-79.78259572819223,40.45912170753935,288.87525462341307,-0.1561265140771865,0.1037317439913749,-0.5311487913131714,0.8262839913368225,0.1910320080781456,8.43698948262395,3.5025948914243834,-0.1227948516607284,-0.2094191610813141,0.162417858839035,-1.8184663800895216,0.3416593886911869,-9.775765721797944,14953.0
28.5,9.0,25.0,22.352861404418945,19.48979759216309,-79.78258568835362,40.45912492000915,288.89556407165526,-0.1612890064716339,0.1039190292358398,-0.5322080850601196,0.8245856165885925,0.3008745406601777,8.611068323903396,3.611845156036592,0.022481333464384,-0.2293773889541626,-0.0025596565101295,-1.4300877383351327,0.3541819684579969,-9.711939269900322,14953.0
28.6,9.399999618530272,28.0,22.031084060668945,24.68230628967285,-79.78256530550397,40.45913333822392,288.8573827667236,-0.1773490309715271,0.0975924134254455,-0.5275039672851562,0.8250834941864014,0.2134624542391316,8.973396709053697,3.762592500097561,-0.1443222016096115,0.1406094133853912,-0.0874499529600143,-1.4961618599295616,0.2556872470490635,-8.950750490427017,14953.0
28.8,9.5,28.0,22.22139549255371,21.80376434326172,-79.78255468450611,40.45913686918215,288.8520498199464,-0.1681398004293441,0.0923838168382644,-0.5307286381721497,0.8255430459976196,0.2626234660653461,9.144733317588717,3.858610669947027,0.0763050690293312,0.242842510342598,0.1383974403142929,-1.7761304922401906,0.1399332078360021,-9.459747689366342,14953.0
28.9,9.899999618530272,33.0,22.08867835998535,23.03628921508789,-79.78253229307705,40.459145390499415,288.88332843017577,-0.1204718425869941,0.0891075804829597,-0.5425524115562439,0.8265489935874939,0.0476882284152536,9.703340991121015,3.432506340466402,0.0871496498584747,0.4457909464836121,0.1966520696878432,-1.7629637320339682,0.027719602882862,-9.716171484589577,14953.0
29.1,10.0,37.0,22.345348358154297,20.762081146240234,-79.78252041385282,40.45915010964001,288.92600535583495,-0.0976088121533394,0.0803343802690506,-0.5463569760322571,0.8279570937156677,-0.1232144341970923,9.977643899928465,3.0850403103465283,0.1131113991141319,0.5492417812347412,0.1700617522001266,-1.5014961285889152,0.080765424510464,-9.828128707408906,14953.0
29.3,10.199999809265137,37.0,22.35787010192871,19.22739028930664,-79.7824977493167,40.45915774476522,288.92154597473143,-0.0719719380140304,0.051534753292799,-0.5512623190879822,0.8296229243278503,-0.1669258511663138,10.322765845582213,2.1683690274553618,-0.1857558786869049,0.1574837565422058,0.1300465017557144,-1.3630573046207428,0.0438213729858398,-9.600712364315989,14953.0
29.4,10.300000190734863,37.0,22.489334106445312,17.83582878112793,-79.78248572972731,40.45916263749248,288.97589205932616,-0.0639169141650199,0.037711352109909,-0.5503056645393372,0.8316587805747986,-0.2086684452078626,10.41941675538015,1.8974068222370275,-0.0072408858686685,0.1801261752843856,0.0037999567575752,-1.654612340927124,0.2788255199231208,-9.805215808153156,14953.0
29.5,10.399999618530272,57.0,22.233917236328125,20.937021255493164,-79.7824620524351,40.4591712418414,289.00459193420414,-0.0559173598885536,0.0302148759365081,-0.5491759777069092,0.8332862854003906,-0.1950860616475574,10.484345843372756,1.382022587872426,0.0433316528797149,-0.0590426102280616,0.0356650799512863,-1.5362597259879114,0.0992218409478664,-9.444112234711648,14954.0
29.7,10.399999618530272,57.0,22.283998489379886,21.06424903869629,-79.78243935796853,40.459178951547386,289.01203059387205,-0.0543434992432594,0.0223768893629312,-0.544153094291687,0.8369250297546387,-0.0564684469325898,10.392453648548402,1.371646048356754,-0.0508761703968048,0.0467349775135517,-0.2579802572727203,-1.932633119523525,0.3804379767179489,-10.06427786707878,14954.0
29.9,10.5,57.0,22.33407974243164,19.04449844360352,-79.78242685566886,40.45918361093919,289.0404176635742,-0.0529263615608215,0.018589461222291,-0.5411680340766907,0.8390414118766785,-0.039029544665019,10.432231447927292,1.3643547101388385,-0.0353512875735759,0.0147799858823418,-0.1822219789028168,-1.7205342887341977,0.0651408694311976,-10.117683995962144,14954.0
30.0,10.5,58.0,22.22890853881836,22.105932235717773,-79.78241558566788,40.45918749710082,289.05828379821776,-0.0506407283246517,0.0176354423165321,-0.5411030650138855,0.8392448425292969,0.0289170130109602,10.38775044625121,1.3336282349282014,0.1276654750108719,-0.0068363095633685,0.1413172036409378,-1.2395815055072308,0.009315674342215,-10.11281794309616,14954.0
30.2,10.600000381469728,60.0,22.52439308166504,15.21969509124756,-79.78239231307779,40.45919554397477,289.06019686889647,-0.0582179129123687,0.0321364663541317,-0.5456359386444092,0.8353798985481262,-0.0634314415583979,10.318871309840816,1.3997547399088497,-0.0104185324162244,-0.1290059685707092,0.0939608886837959,-1.7549081692099573,0.0547520117461681,-9.737513236999511,14954.0
30.3,10.699999809265137,60.0,22.33282852172852,19.13991928100586,-79.78238117125389,40.45919942499201,289.0760507507324,-0.0587035119533538,0.0365225337445735,-0.5487213730812073,0.8331416249275208,-0.132697266669837,10.252210671452607,1.5139312334236243,0.1242241114377975,-0.0244050491601228,-0.1282359510660171,-1.7261335824429989,0.2015875104814768,-9.512204815149309,14954.0
30.4,10.800000190734863,61.0,22.39417839050293,18.57534408569336,-79.7823585516472,40.45920739484611,289.0932149810792,-0.0489838607609272,0.0286033432930707,-0.5529471635818481,0.8312833309173584,-0.2849217097447187,10.171845916402033,1.4569835285445327,-0.0023011092562228,0.3301045596599579,-0.1685608923435211,-1.5874633549153805,0.2927730113267898,-9.42880831718445,14954.0
30.6,10.699999809265137,61.0,22.41671562194824,18.54353713989257,-79.7823360890462,40.45921524078826,289.12281321716307,-0.0256544221192598,0.0159399509429931,-0.5556424260139465,0.830872654914856,-0.3639520288743617,10.112930563450924,0.9228278668004832,-0.0092742219567298,0.1918250471353531,0.2323681414127349,-1.6236051410436632,-0.0264836476743221,-9.52059615433216,14954.0
30.7,10.600000381469728,64.0,22.330324172973643,19.17172622680664,-79.78232524711156,40.45921902458597,289.12832164001463,-0.0140154156833887,0.0095169208943843,-0.5554553270339966,0.8313737511634827,-0.37012215876844,10.0344261141423,0.6699292823951877,-0.088263064622879,0.383188933134079,0.1399013102054596,-1.3343799278140072,0.0779568697884678,-9.769394595623018,14954.0
30.9,10.600000381469728,71.0,22.446765899658203,18.05052757263184,-79.78231405738988,40.45922282337885,289.1498212738037,-0.0028798377607017,-0.0001757657300913,-0.5542081594467163,0.8323731422424316,-0.3513305143775354,9.959148230113204,0.4444612205551651,-0.1215346753597259,0.1661759167909622,-0.013085788115859,-1.2324633975327015,0.2072863530367613,-9.88896547794342,14954.0
31.1,10.300000190734863,72.0,22.519384384155277,16.269329071044922,-79.78229229238684,40.45923009426578,289.17234324645995,0.0081728007644414,-0.0178023427724838,-0.5482301712036133,0.8360981345176697,-0.2391871705709156,9.744008208539896,-0.0384379237173264,-0.1329995542764663,-0.0770433545112609,-0.1500638127326965,-1.060021918192506,0.25621526889503,-10.06612207889557,14954.0
31.2,10.199999809265137,72.0,22.4279842376709,19.87943458557129,-79.78228191445315,40.45923369460028,289.18941592407225,0.0098581006750464,-0.0192314945161342,-0.5457280278205872,0.8376836776733398,-0.1613986290484757,9.604584599904047,-0.142343786749348,0.1521671414375305,0.070378340780735,-0.08779276907444,-0.7003167063742877,0.1146568366046995,-10.070122743844989,14954.0
31.3,10.0,86.0,22.475563049316406,17.374626159667972,-79.78226108941514,40.459240741830776,289.2207212371826,0.0055108675733208,-0.0134568344801664,-0.5461267232894897,0.8375763297080994,-0.0987488179208571,9.355467700999396,-0.0939406174060398,0.0403795689344406,-0.1502807885408401,-0.30209881067276,-1.1220453811436892,0.2423024953342974,-9.963459005355835,14954.0
31.5,9.800000190734863,80.0,22.42422866821289,16.762338638305664,-79.78224090593702,40.459247320277626,289.25892161560057,0.0038905614055693,-0.0170127935707569,-0.5478072762489319,0.8364226222038269,-0.1288336755503273,9.111002602920246,-0.0294045434584035,-0.1343679577112198,0.0212848782539367,0.1553678810596466,-0.8626700576394797,0.224101848900318,-10.041480742692949,14954.0
31.7,9.600000381469728,80.0,22.47430992126465,17.668842315673828,-79.78223120127016,40.45925069882794,289.2789430541992,0.0014177308185026,-0.0178829915821552,-0.5482763051986694,0.8361048698425293,-0.1572870514490923,8.996803559280625,-0.0243723500641308,-0.1189136654138565,-0.1934866458177566,0.1015865057706832,-0.9740609045326708,0.1506910248287022,-9.80709685742855,14954.0
31.8,9.5,79.0,22.432992935180664,16.778242111206055,-79.78221183745055,40.45925705710521,289.31812380981444,-0.0191516317427158,-0.0081625301390886,-0.5462983250617981,0.8373319506645203,-0.1349080027995516,8.796373648591349,0.1899338822312852,-0.0488563738763332,-0.2258776277303696,0.1466900557279586,-0.7135088288784027,0.054370407834649,-9.852720927000046,14954.0
31.9,9.300000190734863,79.0,22.45052146911621,17.8835391998291,-79.78220245484539,40.45926033604845,289.3377332611084,-0.0327644199132919,-0.0015878789126873,-0.5453401207923889,0.8375727534294128,-0.126253438177073,8.71762028689542,0.3881793897250412,-0.0732346922159195,-0.4355535805225372,0.2376472502946853,-0.8058670619130135,0.0886262293718755,-9.59236078619957,14954.0
32.1,9.100000381469728,71.0,22.58949851989746,15.25150203704834,-79.78218374131067,40.459266458027294,289.3531427307129,-0.0552033558487892,0.0064431563951075,-0.5425733327865601,0.8381678462028503,-0.0816046135563519,8.580350762047246,0.7192808416288861,-0.1026078760623932,-0.2532368302345276,-0.032439325004816,-1.125385676175356,0.0389914084039628,-8.864636791348458,14954.0
32.2,9.0,70.0,22.431739807128903,17.120168685913086,-79.782174540627,40.45926969741284,289.3502263946533,-0.0607239790260791,0.0069498931989073,-0.5421240925788879,0.8380727171897888,-0.08493318823509,8.54606250705559,0.7820550263769273,0.024071104824543,-0.0619554035365581,-0.2008648961782455,-1.2230871679633857,0.2405158968642354,-8.810942979454994,14954.0
32.4,8.899999618530273,70.0,22.43800163269043,17.501853942871097,-79.78216515905626,40.45927268435397,289.3738851470947,-0.0623464174568653,0.0073047899641096,-0.5417264699935913,0.8382076621055603,-0.0729073098853131,8.522646442613084,0.8371272263030074,0.0003923700714949,0.0409327074885368,-0.0697960779070854,-0.832112362459302,0.3742330576479435,-9.057827627062796,14954.0
32.6,8.600000381469728,62.0,22.369138717651367,19.076305389404297,-79.78214677284527,40.459279015114326,289.3635969085693,-0.0627860873937606,0.0121060144156217,-0.5426437258720398,0.8375257253646851,-0.1231174650614308,8.515012134349456,0.8006481348849874,0.1033881083130836,0.0358664467930793,-0.0325363352894783,-1.1044609033316375,0.1520096998661756,-9.340629966259003,14954.0
32.7,8.600000381469728,60.0,22.38791847229004,18.28907966613769,-79.7821376453799,40.45928230331576,289.34432887268065,-0.0662664547562599,0.0181102361530065,-0.5429216027259827,0.8369689583778381,-0.1677917784771378,8.517055597435672,0.8090635825942485,0.1267917901277542,-0.0285264365375042,-0.007065949961543,-1.10412351898849,0.1296430858690291,-9.44952909529209,14954.0
32.8,8.5,60.0,22.362876892089844,18.79004096984864,-79.78211929843155,40.45928867463007,289.337943069458,-0.073180191218853,0.0271138027310371,-0.5439614057540894,0.8354732990264893,-0.2171206656580557,8.53758035648158,1.047863588746527,0.1143366992473602,0.0695709139108657,-0.1906932592391968,-1.085238181874156,0.2916907282546163,-9.69899762749672,14954.0
33.0,8.399999618530272,60.0,22.30904006958008,20.92906951904297,-79.78211012212401,40.45929203038703,289.3178701324464,-0.0760518312454223,0.0311546642333269,-0.5435266494750977,0.8353587985038757,-0.2519520867716095,8.584635171252206,1.1146141920234882,0.0443523190915584,-0.1087070479989051,-0.1138011887669563,-0.9892353062331676,0.0424020892940461,-9.627301408052444,14954.0
33.1,8.300000190734862,56.0,22.302780151367188,20.245216369628903,-79.78209160584703,40.459298418293926,289.3184995574951,-0.0885654613375663,0.0388634279370307,-0.5434034466743469,0.8338815569877625,-0.2441537953357193,8.670379385104567,1.3157532878947849,-0.0545597448945045,-0.014708443544805,-0.0358809828758239,-0.7903334949910641,0.0946066884510219,-9.385759946107862,14954.0
33.31,8.199999809265138,52.0,22.19510269165039,23.17146873474121,-79.78208227253383,40.459301859367045,289.2938814086914,-0.0912602990865707,0.0422869995236396,-0.5448115468025208,0.8325046300888062,-0.2930726991937432,8.715589832815969,1.4318061109904845,-0.022929286584258,0.0445365458726882,-0.0670893192291259,-0.8537407015264035,0.0855775459483265,-9.517969585061074,14954.0
33.4,8.0,53.0,22.260210037231445,19.92714500427246,-79.78206346999478,40.459308319896586,289.2890806121826,-0.085068941116333,0.0511348247528076,-0.5477184057235718,0.8307545185089111,-0.355779350084317,8.791789579573948,1.555356548076109,0.1176398023962974,-0.0384982042014598,0.1203498244285583,-1.4762327948212624,-0.1379726638365537,-9.722378304004671,14954.0
33.6,8.0,54.0,22.17256546020508,21.461837768554688,-79.78204454638463,40.45931529405785,289.2755021972656,-0.082511305809021,0.0580800659954547,-0.5498510003089905,0.8291457295417786,-0.451938394311947,8.910026469163906,1.6535218050405596,0.0226658564060926,-0.0463016740977764,0.0524279102683067,-0.8985257687419653,0.0385636845789849,-10.100445234775544,14954.0
33.8,8.100000381469728,52.0,22.193851470947266,22.765928268432607,-79.78203488651228,40.45931886500318,289.26163577270506,-0.0856946632266044,0.0611500591039657,-0.5494055151939392,0.82889723777771,-0.465917589649067,8.97339976291267,1.693460461050095,0.0057142185978591,-0.1824669986963272,0.0396026670932769,-1.1622686699777842,-0.016408666698262,-9.81499936938286,14954.0
33.9,8.199999809265138,50.0,22.21388435363769,21.501596450805664,-79.78201557243435,40.45932578442263,289.21782397460936,-0.0953279286623001,0.0684872716665268,-0.5466422438621521,0.8290984630584717,-0.4211910578956481,9.035267785593415,1.930349733308372,0.0248171649873256,0.0867973640561103,-0.2010470479726791,-1.464857913851738,0.1246129729226231,-9.91602054476738,14954.0
34.1,8.399999618530272,50.0,22.014806747436523,24.411945343017567,-79.78200578213622,40.45932938626868,289.1870832366943,-0.1023779511451721,0.0701885595917701,-0.5444272756576538,0.8295729160308838,-0.4064010495048666,9.089526942510709,2.042632058557249,-0.1091645285487175,-0.0750491619110107,0.0793613940477371,-1.70826522231102,-0.0253292428515851,-9.829979935884475,14954.0
34.2,8.5,49.0,22.06864547729492,24.03026008605957,-79.78199580501443,40.45933303706802,289.17613314819334,-0.1070873811841011,0.070886380970478,-0.5422612428665161,0.8303374648094177,-0.3536407712488378,9.1490714841826,2.23821361312176,-0.0170396994799375,0.0431137904524803,-0.0282672457396984,-1.9451970317959784,0.1150819200463593,-10.02395897626877,14954.0
34.3,8.699999809265138,46.0,22.123735427856445,23.219179153442383,-79.78197551382259,40.45934052338379,289.14733027648924,-0.0963510796427726,0.0621893107891082,-0.5409297347068787,0.8332131505012512,-0.2796620309233686,9.287451129760708,2.4024522322784763,-0.0751845091581344,0.2139273285865784,0.0992635786533355,-1.833298134952784,-0.0065860067820176,-10.511989814043048,14954.0
34.5,8.800000190734863,48.0,22.273983001708984,20.300878524780277,-79.78196525704995,40.459344267503575,289.15350436401366,-0.0872769206762313,0.0563391298055648,-0.5407883524894714,0.8347195386886597,-0.2505019573536162,9.403449822329646,2.2901200037107707,0.0425072200596332,0.1229828149080276,0.0166784822940826,-1.6070521120727064,0.0545142904529348,-10.21892970442772,14954.0
34.6,9.100000381469728,48.0,22.217639923095703,21.962799072265625,-79.781944356365,40.45935192496695,289.1558313293457,-0.0754774436354637,0.057353388518095,-0.541056752204895,0.8356263637542725,-0.2149870632011057,9.569932848855244,1.9599129484013016,0.0947252288460731,0.020335366949439,-0.1728301048278808,-1.418170089572668,0.2048296819254756,-9.833659003973008,14954.0
34.8,9.199999809265137,48.0,22.167558670043945,22.47171401977539,-79.78192340072134,40.45935965577439,289.1450605316162,-0.0670411512255668,0.0579175241291523,-0.5424522161483765,0.8354021310806274,-0.2117002676730821,9.635825216290003,1.7976679425750182,0.0748159140348434,0.0819460824131965,-0.1700591892004013,-1.4125700649619104,0.2108510532416404,-9.686031426787377,14954.0
35.0,9.399999618530272,49.0,22.246437072753903,20.85750389099121,-79.78191292861125,40.45936341140247,289.14918612670897,-0.0673984140157699,0.0550940632820129,-0.5430890917778015,0.8351505398750305,-0.2035247297427872,9.651758929656864,1.7579320769905888,-0.100444994866848,-0.0001391574623994,0.0629080608487129,-1.7740854285657406,0.0426422773813828,-9.716018287539482,14954.0
35.11,9.5,51.0,22.33282852172852,19.05245018005371,-79.78189163062241,40.45937115849331,289.1413698120117,-0.0715103298425674,0.0460105575621128,-0.542857825756073,0.8355087041854858,-0.1853752260127288,9.710539168666694,1.7200263556387874,-0.105424165725708,0.1485957205295562,0.0512390471994876,-1.6334384036064151,0.066386509090662,-9.699211050868035,14954.0
35.2,9.600000381469728,50.0,22.250192642211918,21.040393829345703,-79.78188107935738,40.45937490573922,289.14465045166014,-0.0735621303319931,0.0437210649251937,-0.5432083010673523,0.8352256417274475,-0.1514912682453892,9.734259669771854,1.700508540803814,0.0242735035717487,-0.0478809028863906,-0.1336758136749267,-1.3319663433730602,0.2762082879245281,-9.699138545393945,14954.0
35.4,9.600000381469728,50.0,22.18383407592773,21.620872497558597,-79.78187014580989,40.459378608326006,289.1390008850097,-0.0747816488146781,0.0432566478848457,-0.542815625667572,0.8353967666625977,-0.1416417015537701,9.770808034656694,1.67328682786918,-0.0038702441379427,-0.1382217407226562,-0.1076290383934974,-1.5636527618765832,0.2508042007125914,-9.44681072473526,14954.0
35.6,9.600000381469728,52.0,22.24518585205078,20.85750389099121,-79.7818485652019,40.45938617018445,289.14602755737303,-0.0686997100710868,0.0354641862213611,-0.5414179563522339,0.8371912240982056,-0.112393668467007,9.806260755862006,1.6814607022060517,-0.0838266164064407,0.2370316237211227,-0.2698459625244141,-1.5739935627579689,0.4485350887477398,-9.993707821369172,14954.0
35.7,9.600000381469728,53.0,22.2526969909668,21.49364471435547,-79.78183791274445,40.45938992162146,289.1513166351318,-0.0665786117315292,0.0303229372948408,-0.5405371785163879,0.8381333351135254,-0.0747708901050319,9.806565928203224,1.5973120595041608,0.0126065481454134,0.2332363575696945,-0.0584164150059223,-1.870714321732521,0.21724787062034,-10.08286265730858,14954.0
35.9,9.699999809265137,52.0,22.32781982421875,19.49774932861328,-79.78181626620399,40.45939742631619,289.17022227478026,-0.0699054151773452,0.0288207568228244,-0.5406032204627991,0.8378727436065674,-0.0437009655939147,9.839923881944284,1.5229580744012776,-0.0832739621400833,0.0288722570985555,-0.1231408566236496,-1.5724003426730633,0.4154388979822397,-9.913976358175278,14954.0
36.0,9.699999809265137,52.0,22.31780433654785,20.213409423828125,-79.78180560879935,40.45940117874945,289.1806688232422,-0.0712876319885253,0.0309619158506393,-0.5413250923156738,0.8372136950492859,-0.0477403219544608,9.82893575398463,1.5909552485961715,-0.0046977000311017,-0.0166950263082981,0.0994767472147941,-1.4678844326734544,0.2905878154747188,-9.883133465051651,14954.0
36.1,9.699999809265137,53.0,22.220144271850582,20.99268341064453,-79.78178406704923,40.45940876668196,289.20253466796873,-0.0730478093028068,0.0339075066149234,-0.5418634414672852,0.8365992903709412,-0.0893732342551651,9.817724863564033,1.6630500084889464,0.029900437220931,0.0774445459246635,-0.054186075925827,-1.4542911180853844,0.232103690430522,-9.798688561320306,14954.0
36.3,9.699999809265137,51.0,22.345348358154297,19.13991928100586,-79.7817624301333,40.45941643768048,289.23964595031737,-0.0733347907662391,0.0297204963862896,-0.5408954620361328,0.8373594880104065,-0.0740438603991903,9.839293524118643,1.651326802778061,0.0321482047438621,0.1419881284236908,-0.025725232437253,-1.3803608237206937,0.3134230015799403,-9.559522238373756,14954.0
36.4,9.699999809265137,51.0,22.206371307373047,21.779909133911133,-79.7817517547389,40.45942021275248,289.24579333496087,-0.0734870061278343,0.0284160804003477,-0.5403965115547179,0.8377135396003723,-0.0817277270072092,9.847347073884109,1.6047981251804082,-0.1374367624521255,-0.0204302836209535,0.1819911450147628,-1.6012575213611129,0.0457411509286612,-9.515475747585295,14954.0
36.6,9.699999809265137,51.0,22.37539863586425,19.14787101745605,-79.78174080014341,40.45942404643103,289.2759275360107,-0.0739494413137435,0.0268727280199527,-0.5404835939407349,0.8376675248146057,-0.0689006550720065,9.856097409845376,1.5991840354226063,-0.0294535998255014,-0.0515441186726093,0.0761419981718063,-1.598933106958866,0.0948552864789962,-9.585097959637643,14954.0
36.8,9.699999809265137,55.0,22.362876892089844,18.57534408569336,-79.7817194625771,40.45943163573767,289.2855195922852,-0.07261274009943,0.0246050152927637,-0.5416838526725769,0.8370786905288696,-0.0933387488112211,9.869616102793955,1.5242155358254952,0.0407540276646614,0.0128564480692148,-0.1937666088342666,-1.3608116814494131,0.4560796049237251,-9.475173813700676,14954.0
36.9,9.699999809265137,54.0,22.256452560424805,20.66666030883789,-79.7817083867306,40.45943545962557,289.32623957824705,-0.0715466737747192,0.0257166288793087,-0.5422487258911133,0.8367711901664734,-0.1178773781165821,9.87747362216528,1.5099788629521695,0.0126183973625302,0.1023905649781227,-0.1199516654014587,-1.4960390684008602,0.6230951604992152,-9.373183754682538,14954.0
37.0,9.699999809265137,54.0,22.20887565612793,21.891233444213867,-79.7816867992865,40.45944310585544,289.36684130859373,-0.0714602470397949,0.0284826643764972,-0.5431859493255615,0.8360809087753296,-0.153069967982667,9.87330757293148,1.5005384789592242,0.0133691010996699,0.0627990737557411,-0.219434067606926,-1.7264274050295354,0.4210410787537694,-9.518307554125789,14954.0
37.21,9.699999809265137,54.0,22.489334106445312,17.430288314819336,-79.78166546630759,40.45945073336282,289.37560176086424,-0.0731247812509536,0.0266099162399768,-0.5427908897399902,0.8362552523612976,-0.1568405245842105,9.870303681904804,1.5613531607313027,-0.0256476514041423,0.1576069891452789,-0.221443012356758,-1.3489516277611255,0.5973621491342783,-9.64915479183197,14954.0
37.4,9.600000381469728,54.0,22.30152702331543,19.34666633605957,-79.78165450892368,40.45945459040153,289.4076623840332,-0.0752066671848297,0.0257441066205501,-0.5429561734199524,0.8359903693199158,-0.1663944320077869,9.870350431642423,1.5346314948613953,-0.0268958508968353,0.094885729253292,0.1591663360595703,-1.7390265467762949,0.2758108782581985,-9.453898134827618,14954.0
37.5,9.600000381469728,56.0,22.30778694152832,19.704496383666992,-79.78164383478857,40.45945841174729,289.4083776397705,-0.0750801637768745,0.0242744088172912,-0.543204665184021,0.8358842730522156,-0.1644917501165448,9.882718737469531,1.535164113122228,0.0281321760267019,-0.0379120782017707,-0.0002780628856271,-1.3830803637206557,0.18219158353284,-9.367352911233905,14954.0
37.6,9.600000381469728,56.0,22.30528259277344,20.75412940979004,-79.7816222433867,40.45946598611029,289.43979930114745,-0.0731637477874755,0.0159269217401742,-0.54367595911026,0.8359485268592834,-0.1872853387640256,9.884389787054513,1.4628089048895156,-0.0965442284941673,-0.1003129109740257,0.1966579407453537,-1.6508449798822404,0.0271481654606759,-9.554139291644097,14954.0
37.8,9.600000381469728,56.0,22.240177154541016,20.110036849975582,-79.78160069057292,40.45947362828649,289.46326541137694,-0.0704072788357734,0.0134888244792819,-0.5432472229003906,0.836506724357605,-0.2051928982186905,9.887149767431548,1.3298614836330986,-0.015212308615446,0.0099775353446602,-0.0558551289141178,-1.3261882710456852,0.4196540826559067,-9.64395661711693,14954.0
37.9,9.600000381469728,59.0,22.34785270690918,18.81389617919922,-79.78159007868237,40.45947747553454,289.4613523406982,-0.0680656358599662,0.0158506017178297,-0.5431965589523315,0.8366919755935669,-0.2108750191074224,9.861346614638157,1.3072600893964037,0.0562257952988147,0.1553130000829696,0.0361806936562061,-1.5183402027189732,0.4974561839550734,-9.604317172765732,14954.0
38.1,9.600000381469728,60.0,22.39417839050293,18.686668395996094,-79.78157912246779,40.45948126555018,289.487393371582,-0.0658861771225929,0.0205994639545679,-0.5437632799148561,0.8363948464393616,-0.22416006070168,9.865803758849133,1.2853027859602797,0.1337404251098632,-0.053608763962984,0.0215249881148338,-1.3926547408103944,0.1406485872622579,-9.496982173919678,14954.0
38.3,9.5,60.0,22.34660148620605,19.27510070800781,-79.78155797550299,40.4594889784596,289.4749803466797,-0.0629284754395484,0.0212908759713172,-0.5459102988243103,0.8352057337760925,-0.2785131499549894,9.845993744847592,1.23735738177634,0.0085887992754578,0.2241654694080352,-0.1946539431810379,-1.2587087711691858,0.5363539820909501,-9.581119514107703,14954.0
38.4,9.5,60.0,22.336584091186523,20.451963424682614,-79.78154706831053,40.459492742504224,289.5007734222412,-0.0627284571528434,0.0211501494050026,-0.5468469858169556,0.8346114158630371,-0.3081280777092894,9.8428717882012,1.2259247775195323,-0.0216892287135124,-0.1060065329074859,0.138296753168106,-1.3186596885323525,0.0600458432547748,-9.687577430605891,14954.0
38.5,9.399999618530272,63.0,22.40043830871582,17.772214889526367,-79.78152583193662,40.4595002825484,289.4989995880127,-0.0625949352979659,0.0234816260635852,-0.547746479511261,0.8339690566062927,-0.3444230617960408,9.807396497482427,1.1900628222896623,-0.0152523508295416,-0.1661714017391204,0.2501043975353241,-1.4201590199768543,-0.0057274208217859,-9.342563640475271,14954.0
38.7,9.300000190734863,61.0,22.25770568847656,20.8177433013916,-79.78150481935535,40.459507961345096,289.47332858276366,-0.0625852271914482,0.0266886986792087,-0.5491216182708739,0.8329684734344482,-0.3782501796218893,9.795234025355224,1.1674982917655576,0.0547880567610263,-0.0269478149712085,-0.0981130972504615,-1.5211627998948098,0.274218480437994,-9.443310581445692,14954.0
38.8,9.199999809265137,62.0,22.29151153564453,20.579191207885746,-79.78149411949488,40.45951189719002,289.4835252685547,-0.0545746870338916,0.024191690608859,-0.5504618287086487,0.8327233791351318,-0.4228055501849413,9.7587304593768,1.2169407254476172,0.0528471805155277,0.3094581961631775,-0.1177630797028541,-1.8068492782115937,0.2839238717034459,-9.746900941729546,14954.0
39.0,9.100000381469728,62.0,22.322813034057614,20.086181640625,-79.78148371007913,40.45951573320461,289.47437571716307,-0.02924295514822,0.0107518471777439,-0.5516760349273682,0.8334764242172241,-0.4480459128077952,9.692326191866734,1.0738496093489471,0.0800400003790855,0.6490645408630371,-0.0099731190130114,-1.790023330450058,0.1961897081695497,-9.903744900226592,14954.0
39.2,8.800000190734863,67.0,22.352861404418945,18.32088661193848,-79.78146285301933,40.45952327232122,289.4521474761964,0.0375524014234542,-0.0296567678451538,-0.5514843463897705,0.8328118324279785,-0.4663010662918646,9.489625678871713,-0.2191932068457488,0.1039054170250892,0.7533008456230164,-0.0508327335119247,-1.1100236519426108,0.176889967918396,-10.0280906188488,14954.0
39.3,8.699999809265138,87.0,22.28775405883789,20.54738426208496,-79.78144273326994,40.45953057828275,289.4350843353272,0.0865809842944145,-0.0581455081701278,-0.5483157038688661,0.8297426700592041,-0.4379386571041327,8.904466616014695,-1.4939622228801883,-0.0727932825684547,0.3304897844791412,0.0936964079737663,-0.7405473042279482,0.0894215603359043,-10.156182063817976,14954.0
39.4,8.399999618530272,87.0,22.34660148620605,19.27510070800781,-79.78143329305256,40.45953406678045,289.43005656433104,0.0955221578478813,-0.0656206384301185,-0.5479151606559753,0.8284675478935242,-0.4198914362657669,8.533996801081015,-1.8716660340518336,0.0367103517055511,0.1850695163011551,-0.0910761654376983,-0.5415646552294493,0.1069144378602504,-10.140546609163287,14954.0
39.6,8.300000190734862,87.0,22.40043830871582,16.937278747558597,-79.7814239366675,40.459537480388185,289.4220743103027,0.096228688955307,-0.0677354410290718,-0.548039436340332,0.8281333446502686,-0.4287064788956099,8.214471987789143,-2.038941522826735,-0.048218622803688,-0.062338151037693,0.043363619595766,-1.0669677525758745,0.0565937202237546,-9.907487118244171,14954.0
39.8,7.900000095367432,113.0,22.392927169799805,18.551488876342773,-79.78140660955873,40.45954390656454,289.39769076538084,0.0927211865782737,-0.0651318654417991,-0.5469153523445129,0.8294843435287476,-0.4091879675252333,7.604626900913951,-1.98428882282044,0.0010919262422248,0.0080051757395267,0.0662673786282539,-0.8366391306370498,0.1247428176552057,-9.55419542491436,14954.0
39.9,7.599999904632567,111.0,22.218891143798828,21.000635147094727,-79.78139809149657,40.45954687210364,289.3825006408691,0.0944972708821296,-0.0676581636071205,-0.5456401705741882,0.8299214243888855,-0.3582383999209413,7.343604926289357,-1.99486548616638,-0.0438909493386745,0.0365729071199894,0.0146544808521866,-0.8108934015780688,-0.0033063629083335,-9.351463687419892,14954.0
40.0,7.099999904632568,110.0,22.2714786529541,21.8355712890625,-79.78138230224258,40.45955245315717,289.3189210815429,0.1116966232657432,-0.0861742794513702,-0.541833758354187,0.8285614848136902,-0.2930143140162649,6.681654543785652,-2.1697509925079204,0.0157218649983406,0.4273366928100586,-0.0304877590388059,-0.5703936211019754,0.3458447525650263,-9.600724643468856,14954.0
40.2,6.9000000953674325,109.0,22.14627265930176,22.495569229125977,-79.7813681181251,40.45955767927353,289.2236032409668,0.1292790025472641,-0.1038970723748207,-0.5375573635101318,0.8267554044723511,-0.2740248317128034,5.861857648145556,-2.4091641000180504,-0.1576907634735107,0.1442826837301254,0.0986545085906982,-0.5225548455119133,0.1330008220486343,-10.113282212018966,14954.0
40.3,6.4000000953674325,114.0,22.01981544494629,25.49338722229004,-79.78136124162863,40.45955983510795,289.1876039428712,0.1295881867408752,-0.1136016398668289,-0.5362547039985657,0.8262763619422913,-0.2404140059297105,5.492418106267043,-2.400270188515877,-0.1133611798286438,0.0031115429010242,-0.0894771814346313,-0.3208767031878233,0.346489115729928,-10.449153295755387,14954.0
40.5,6.099999904632568,114.0,22.03984832763672,23.091951370239247,-79.78135511242692,40.459562115850574,289.1393232269287,0.1275112032890319,-0.1202765479683876,-0.5364629626274109,0.8255192041397095,-0.2768639288411215,5.1083409289343535,-2.311853072714858,-0.112664096057415,0.0136748123914003,-0.0539363697171211,-0.0237440809607505,0.4227211299911141,-10.693580943346024,14954.0
40.7,5.5,110.0,21.70179557800293,30.42348670959473,-79.78134368407105,40.45956602015927,289.0631685180664,0.1198306605219841,-0.116502821445465,-0.5390946269035339,0.8254966735839844,-0.3271290891416966,4.44738994122842,-2.0064244581407347,-0.0311051495373249,-0.0356690436601638,0.0147005282342433,-0.1845694085955619,0.462550097219646,-10.658349130153656,14954.0
40.81,5.199999809265137,108.0,21.610395431518555,31.52878379821777,-79.78133377980778,40.45956927735693,288.9961976928712,0.1162446811795234,-0.113563984632492,-0.5427541136741638,0.824019730091095,-0.3662011189756891,3.847876795179333,-1.5178861704837536,0.0557646676898002,-0.0153991095721721,0.0078488094732165,-0.2233130777813494,0.3821882676333189,-11.504955790042878,14953.0
40.9,4.599999904632568,99.0,21.610395431518555,30.956254959106445,-79.78132966087195,40.45957096392678,288.98022364807133,0.1150737330317497,-0.1119442954659462,-0.5447900891304016,0.8230615854263306,-0.4027126312152656,3.5462770173823275,-1.2379147873339684,-0.0271421372890472,0.0315855927765369,0.0527633279561996,0.046013548951596,0.3577844380214811,-11.89978084087372,14953.0
41.1,4.300000190734863,94.0,21.749372482299805,29.10349273681641,-79.78132561344546,40.459571895276106,288.95273875427245,0.1150961369276046,-0.1102448552846908,-0.5449046492576599,0.8232119679450989,-0.3844172912531692,3.258142401401344,-1.0076371495056038,0.0389157012104988,-0.0175460409373044,0.0903699025511741,-0.0603964477870613,0.2123357892036438,-11.77339678287506,14953.0
41.3,3.799999952316284,84.0,21.619159698486328,30.26445198059082,-79.78131932584388,40.45957469681306,288.9830503387451,0.1216058507561683,-0.1091665029525756,-0.5448896884918213,0.8224292397499084,-0.4312699700485438,2.662757510852192,-0.5681595100477776,-0.0037561524659395,0.1337931603193283,-0.0264773499220609,0.0952040911652147,0.3734083078801632,-11.518807843923572,14953.0
41.4,3.5,78.0,21.815731048583984,27.52108955383301,-79.78131661496668,40.45957514790479,288.9709367675781,0.1249692365527153,-0.1106536835432052,-0.542302668094635,0.8234357237815857,-0.3896491232339907,2.3564847593625746,-0.3970184348009467,0.0488123185932636,0.0081546967849135,0.0595123879611492,0.1543970266543329,0.1283317107148468,-11.565742274522789,14953.0
41.5,3.2000000476837163,66.0,21.75813674926757,29.397708892822266,-79.78131259713331,40.45957653865932,289.01686190795897,0.1285313814878463,-0.120231382548809,-0.5372188091278076,0.8248758316040039,-0.3774322170029714,1.730237824746222,-0.064637375419428,-0.0954008474946022,0.2159365862607956,-0.07940074801445,0.2729894870705903,0.3507027289643884,-11.262032046318057,14954.0
41.71,3.0999999046325684,58.0,21.63919258117676,29.9066219329834,-79.78131013433496,40.45957813051742,289.1296033782959,0.1489394307136535,-0.1066994294524192,-0.5313885211944579,0.8270782828330994,-0.35608488189959,1.1479137248628886,0.2414884101709159,0.330496072769165,-0.2080185413360596,0.0758184716105461,0.6160951662808657,0.189870804939419,-10.956920825242996,14954.0
41.8,2.900000095367432,41.0,21.76064109802246,28.817228317260746,-79.78130925157734,40.45957789413313,289.115624420166,0.1469826251268386,-0.0956014320254326,-0.5291855931282043,0.8301922678947449,-0.314334087511502,0.8300479637059199,0.3518125855327044,-0.004430531989783,-0.2187074571847916,0.0252048410475254,0.3940334109216929,0.0117887724749743,-10.903947390317915,14954.0
42.0,2.900000095367432,32.0,22.37790298461914,18.495826721191406,-79.7813088935811,40.45957833481585,289.17995738220213,0.1399811506271362,-0.0982084348797798,-0.5292574763298035,0.8310518264770508,-0.3085234399120459,0.5270934190533713,0.5119004805705227,-0.195338100194931,-0.0451432578265666,-0.0199995692819356,0.3516271006688476,0.0499361444357782,-10.74448095560074,14954.0
42.2,2.900000095367432,20.0,22.30904006958008,18.233417510986328,-79.78130828066992,40.45957780089857,289.1855001373292,0.0459376983344554,-0.0608144514262676,-0.5501958131790161,0.8315504193305969,-0.1952330273521235,0.2526242315336339,0.4071576906961909,-0.2382339388132096,-1.922285079956055,0.5646711587905884,1.3379533074796202,0.5305969597399235,-9.00450218975544,14954.0
42.3,3.0,3.0,22.223899841308597,21.445934295654297,-79.78130944514719,40.45957685996471,289.1645345611572,-0.0229979641735553,-0.0181387327611446,-0.6228093504905701,0.7818251252174377,-0.0851341055922758,-0.1010443729094888,0.3245987210832206,0.3940679430961609,0.0050048357807099,1.2217761278152466,-0.2174681461974978,0.6520749114453793,-9.18705752491951,14954.0
42.4,3.299999952316284,348.0,22.20011138916016,20.4837703704834,-79.78130959482199,40.4595769374655,289.19290827941893,-0.0012904751347377,-0.0144611233845353,-0.6687684059143066,0.7433290481567383,-0.103733807327662,-0.0793363022941269,0.254421619492652,0.2943908870220184,0.3607931733131409,1.2433043718338013,0.1835679267346859,0.2269572087563574,-9.113966744542124,14954.0
42.6,3.400000095367432,341.0,22.15503692626953,21.223283767700195,-79.78131054737987,40.45957624885582,289.2918481750488,0.0266104694455862,-0.0354336127638816,-0.7625810503959656,0.6453731656074524,-0.0737666369078594,-0.0825726448503092,0.1272788271060166,-0.1003198325634002,0.206523135304451,1.527548909187317,0.4524820689484477,-0.1892676829174161,-8.96840966641903,14954.0
42.8,3.700000047683716,315.0,22.17882537841797,20.13389205932617,-79.78131064272561,40.4595763214441,289.30083178710936,0.0302796922624111,-0.0467753894627094,-0.8084161281585693,0.5859681963920593,-0.0696451232892643,-0.0916738394844319,0.0696418319560107,-0.1999595314264296,0.2498632967472076,1.4280716180801392,0.8753263559192419,-0.0242393081495538,-9.176935994625092,14954.0
42.9,3.799999952316284,331.0,22.218891143798828,20.91316604614257,-79.78131159366441,40.4595754743288,289.3787050170898,0.0313852168619632,-0.0527577362954616,-0.8508785963058472,0.5217636823654175,-0.0127557682918548,-0.1428213549511617,0.0619248812029918,-0.1367022395133972,0.0400295183062553,1.675870418548584,0.8428050926327706,-0.1151335582695901,-9.20511781990528,14954.0
43.1,4.099999904632568,319.0,21.994773864746094,23.49749183654785,-79.781312659198,40.45957454988447,289.4878930969238,0.0331158898770809,-0.054945308715105,-0.9226123690605164,0.3803564310073853,0.0612443869703701,-0.2248252532169237,0.0478752044922779,-0.0701195821166038,0.0125280590727925,1.5602705478668213,0.6422819946706295,-0.0492991725169122,-9.366687498092652,14954.0
43.2,4.199999809265137,312.0,21.99352264404297,25.27868843078613,-79.78131293965838,40.459574649646136,289.48920916748045,0.0383626073598861,-0.0523980483412742,-0.950125813484192,0.3050310313701629,0.0792113721512252,-0.2715246542950356,0.045546329513223,-0.0024625211954116,-0.0031613332685083,1.6322060823440552,0.7843684579432011,-0.3204823084920645,-9.690939579606056,14954.0
43.3,4.300000190734863,332.0,21.89335823059082,26.55892562866211,-79.78131413750666,40.45957382341757,289.6061506195068,0.0439387336373329,-0.0439476817846298,-0.9869715571403505,0.148409217596054,0.1952130212058914,-0.3126553549320174,0.1899554765062456,-0.0690465793013572,-0.0868505984544754,1.7359485626220703,0.4148627645149827,-0.8185871679335833,-10.12815635919571,14954.0
43.5,4.400000095367432,350.0,22.081167221069336,23.15556526184082,-79.78131453346131,40.459574037781465,289.6236352844238,0.0422399640083313,-0.0398982651531696,-0.9959955811500548,0.0679467022418975,0.2283060658510085,-0.3358659108810222,0.2547878548825547,-0.1328450888395309,0.0280610956251621,1.6115493774414062,0.3725339664146304,-0.6350648494809866,-10.37455919623375,14954.0
43.7,4.5,336.0,22.008546829223643,24.70616149902344,-79.78131574174365,40.45957389981906,289.71046923828123,-0.040340319275856,0.0319849140942096,0.9949573874473572,0.0860783606767654,0.3475402327659529,-0.3027848726639011,0.3137215288444828,-0.1091711074113845,0.0163227040320634,1.476294755935669,0.1569299125671386,-0.858167701587081,-9.806438460946085,14954.0
43.81,4.5,328.0,22.18383407592773,21.01653861999512,-79.7813161758366,40.459574217963954,289.7358808441162,-0.0409712940454483,0.0288541037589311,0.987848460674286,0.1471202671527862,0.3956931655359087,-0.2813649633842573,0.3000832105584711,-0.0416500754654407,0.0345813371241092,1.0730899572372437,0.2078368318453432,-0.9248754420876504,-9.75657165169716,14954.0
43.9,4.5,339.0,22.12874412536621,28.18903923034668,-79.781317009752,40.4595744122656,289.7964124603272,-0.0304076634347438,0.0207745153456926,0.9736979603767396,0.2248467952013016,0.4243231286174699,-0.2320291110013201,0.2887344410405196,-0.0173514280468225,0.0691903606057167,0.3975592851638794,0.0205555691407062,-0.6146388441324234,-9.638163195848463,14954.0
44.1,4.5,339.0,21.82574844360352,25.859169006347656,-79.78131836231223,40.45957476751192,289.8538465423584,-0.1169270873069763,-0.0534109733998775,0.9592034220695496,0.2518019676208496,0.5931234854832517,0.0078034772825635,0.2431146845555764,0.5828017592430115,-1.1541908979415894,-0.0977863371372222,0.1713014001958072,-0.7963093493878842,-9.645057647824288,14954.0
44.3,4.5,324.0,21.77942276000977,27.32229423522949,-79.78131907056914,40.45957498434925,289.874470703125,-0.137016087770462,-0.0981034636497497,0.9537543058395386,0.2489080429077148,0.6014302362022691,0.1187179809118345,0.4012883246960552,-0.3074929416179657,-0.710150420665741,-0.1954158693552016,-0.5327951473742724,-1.226236843764782,-10.29585450410843,14954.0
44.4,4.5,319.0,21.925912857055664,24.730016708374023,-79.7813201904318,40.45957476167188,289.904629699707,-0.1145523637533188,-0.1187302097678184,0.9565914273262024,0.2402368634939193,0.6522477000762154,0.2729944429987819,0.6247457239108258,-0.7422311305999756,-0.1434324979782104,-0.035625122487545,-1.0153546723723412,-1.3998399455845356,-11.058386389017103,14954.0
44.6,4.599999904632568,341.0,22.114971160888672,20.65870857238769,-79.7813227933704,40.45957441154417,289.9798173828125,-0.0488534793257713,-0.1129137054085731,0.9682410955429076,0.2176534682512284,0.8040277796735339,0.6800469534869084,0.7606575746239015,-0.441460907459259,0.1997393667697906,-0.1545043587684631,-0.2693763463385403,-0.5617478549480438,-10.423675807714464,14954.0
44.7,4.699999809265137,325.0,22.08617401123047,21.85942649841309,-79.78132419648188,40.45957398370955,290.02668475341795,-0.0345960222184658,-0.1088986471295356,0.9712724685668944,0.2087441831827164,0.8234424032236058,0.9048485411599616,0.7335618325746681,-0.2398965060710907,0.0387386083602905,-0.0617294088006019,0.0363418614026159,-0.6168553774058819,-10.124532254934312,14955.0
44.8,4.800000190734863,318.0,22.002286911010746,24.06206703186035,-79.7813274544277,40.45957262713645,290.101313583374,-0.0325401537120342,-0.1115825772285461,0.973048210144043,0.1991674453020096,0.7905033921877468,1.2708531149615838,0.6981408731891783,0.0743293911218643,-0.1592584550380706,-0.057567723095417,-0.4059555912762881,-0.8727671027183533,-9.760042558908465,14955.0
45.0,4.900000095367432,314.0,22.0035400390625,24.12568283081055,-79.78132899003377,40.45957166136522,290.1388845367432,-0.0350896604359149,-0.1165419295430183,0.9727810025215148,0.1971900761127472,0.7322222258194628,1.4700332774862792,0.7400428938776116,-0.0459254905581474,-0.0788380056619644,0.1231070607900619,-0.0765873239748179,-0.7946430391073227,-9.857575285434724,14955.0
45.1,5.099999904632568,303.0,22.114971160888672,21.47774124145508,-79.78133232533555,40.45956929501448,290.2085447235107,-0.0431047268211841,-0.118226334452629,0.9718420505523682,0.1992177665233612,0.6499003985900615,1.8138100790113865,0.8091418125558171,0.1091310679912567,-0.0872482880949974,-0.0131624229252338,-0.5325291721522808,-0.8533117351680994,-9.829308675527573,14955.0
45.3,5.199999809265137,302.0,22.054872512817383,22.83749389648437,-79.78133397598614,40.4595678133614,290.23972796630864,-0.0492990836501121,-0.1204508915543556,0.9706605076789856,0.2021866142749786,0.5958932621851214,2.0171642470092426,0.8490843314263331,0.0376628190279006,-0.1048977002501487,-0.0034001341555267,-0.7164393802732231,-0.7283160254359246,-9.71681584775448,14955.0
45.5,5.400000095367432,297.0,21.91714859008789,26.09772109985352,-79.78133750521758,40.45956428271235,290.32201289367674,-0.0583314038813114,-0.129154771566391,0.9676036834716796,0.2089488804340362,0.5171190461962348,2.391971368973319,0.9967414334669455,0.0744039639830589,0.0300277341157197,-0.1563769876956939,-0.3932646847888828,-0.6050609587132931,-9.929710046052934,14955.0
45.6,5.5,295.0,22.04610824584961,22.55918312072754,-79.78133933621551,40.45956206057628,290.3717088623047,-0.0603523068130016,-0.1326476782560348,0.9663172364234924,0.2121159583330154,0.4592181219072981,2.5725698504054137,1.1081355161141218,0.05695191770792,-0.0988613218069076,0.2229665517807006,-0.7140818560123444,-0.9446996958553792,-10.016165807247162,14955.0
45.7,5.599999904632568,302.0,22.20011138916016,18.718475341796875,-79.78134331752966,40.45955748188011,290.4432325286865,-0.0584713742136955,-0.1393535584211349,0.9647692441940308,0.2153649628162384,0.384170141521956,3.0111681346500485,1.2984431799443237,-0.140923872590065,-0.1950266361236572,0.084925539791584,-0.6097935488820077,-0.7423356751352549,-9.98028261423111,14955.0
45.9,5.699999809265138,303.0,22.099946975708008,23.03628921508789,-79.78134527913326,40.4595546523453,290.4843873901367,-0.0617925636470317,-0.142332375049591,0.9637787342071532,0.2169189304113388,0.346022611132835,3.2159730572258085,1.3186832545682945,0.1151106730103492,-0.1018991023302078,0.0041614207439124,-0.2337670588307083,-0.6993375901132822,-9.548435332775115,14955.0
46.1,6.0,298.0,22.10871124267578,22.360387802124023,-79.78134959757556,40.459548744318106,290.5604925079345,-0.0689205601811409,-0.1465535908937454,0.9619554877281188,0.2200314551591872,0.2621770299347972,3.625007119200664,1.4284600227242874,0.0194558631628751,-0.1068906858563423,-0.0305243860930204,-0.6047568669542671,-0.8101141870021821,-9.70475070297718,14955.0
46.2,6.099999904632568,297.0,22.123735427856445,21.501596450805664,-79.78135196529801,40.45954561944893,290.58072184753416,-0.0675853937864303,-0.1475602835416793,0.9614537358283995,0.2219572216272354,0.2359649162591605,3.8516078081089584,1.478961581948543,-0.0066598262637853,-0.1376824378967285,0.0425646677613258,-0.6460625850409271,-0.8056471335142851,-9.645634768009186,14955.0
46.3,6.300000190734862,298.0,21.981002807617188,23.322553634643555,-79.7813568235231,40.45953833066399,290.63503550720213,-0.0699260085821151,-0.147415891289711,0.9601619839668274,0.2268655598163605,0.1545804957632034,4.276907144700032,1.6123016704552828,0.0358592197299003,-0.0513330996036529,-0.0075302934274077,-0.8145674264431,-0.7231494256854057,-9.853113859891891,14955.0
46.51,6.4000000953674325,297.0,22.170061111450195,20.475818634033203,-79.7813621395876,40.45953040881847,290.6749105377197,-0.0721326321363449,-0.1403983235359192,0.960239827632904,0.2302710115909576,0.0805229634524505,4.714793792518837,1.6633814054164928,-0.0841668173670768,0.0299769602715969,0.0172646660357713,-0.7183946891874076,-0.5974789472669363,-9.639153714179994,14955.0
46.6,6.699999809265138,294.0,22.133752822875977,22.479665756225582,-79.78136500121899,40.4595263696735,290.6839532775879,-0.0689039453864097,-0.1419155448675155,0.9599325656890868,0.2316071540117264,0.0568302520740099,4.938800242184192,1.6452674441352555,-0.0613079480826854,-0.041989367455244,-0.0969878062605857,-0.8297678482532501,-0.7450447632372379,-9.506852858662604,14955.0
46.8,6.800000190734862,292.0,22.10245132446289,21.49364471435547,-79.78136796997941,40.45952215938094,290.68942736816405,-0.0638072565197944,-0.1467067301273346,0.9593760371208192,0.2323865294456482,0.042452296497842,5.133509809149301,1.6996991851369587,-0.0901849567890167,-0.0106065105646848,0.077074110507965,-1.2584631881117818,-0.6423370315879584,-9.52347123026848,14955.0
47.0,7.099999904632568,290.0,22.008546829223643,23.95869445800781,-79.78137401849705,40.45951280064457,290.71381854248045,-0.0675563663244247,-0.1455368548631668,0.958267629146576,0.2365975379943848,-0.0030701818664342,5.511449515342672,1.81321118242214,0.08936308324337,-0.0628383159637451,0.0443595461547374,-0.8457788403332234,-0.6223826772719622,-9.545862557888034,14955.0
47.11,7.400000095367432,288.0,22.124988555908203,22.185449600219727,-79.78138049148312,40.45950274402314,290.7295923156738,-0.0693151950836181,-0.1490380614995956,0.9565408825874328,0.24085833132267,-0.1057769031512998,5.9062934299089145,1.952602010102913,-0.1259350329637527,-0.0596135258674621,0.0899233371019363,-0.7542947660386563,-0.5459832499176264,-9.891540591716767,14955.0
47.31,7.5,288.0,22.03609275817871,22.46376037597656,-79.78138736869914,40.45949194004808,290.7309808654785,-0.0677844062447547,-0.1588223278522491,0.9548878669738772,0.2415986806154251,-0.1806908555251089,6.276028006927284,2.1605832122154545,-0.0621668547391891,-0.0350593738257885,0.0205359850078821,-1.2107034961134195,-0.4281562996655703,-9.896984349489212,14955.0
47.5,7.900000095367432,285.0,21.962221145629886,24.63459587097168,-79.78139102610764,40.459486545085774,290.7302675170898,-0.0683149546384811,-0.1620611101388931,0.9544254541397096,0.2411253005266189,-0.18449492943021,6.455413849312135,2.2754854750402407,-0.0333913750946521,0.0456775054335594,-0.1045446842908859,-1.2100048269331456,-0.3738763774931431,-9.789714839458464,14955.0
