time,wind_speed,wind_angle,battery_voltage,battery_current,position_x,position_y,position_z,orientation_x,orientation_y,orientation_z,orientation_w,velocity_x,velocity_y,velocity_z,angular_x,angular_y,angular_z,linear_acceleration_x,linear_acceleration_y,linear_acceleration_z,node_ids
0.0,0.4000000059604645,83.0,25.74216270446777,-0.0397588685154914,-79.78274427073059,40.45898996000192,271.7925434212685,0.0088812950998544,0.0086541669443249,-0.8061190843582153,0.5916234254837036,-0.005631413388943,-0.0062995225571899,0.0229032199229577,-0.0046295938082039,0.0009724426199682,-0.0055111558176577,-0.0353723998996429,-0.2376274088770151,-9.80453460752964,14936.0
0.1,0.4000000059604645,82.0,25.74091148376465,-0.0477106422185897,-79.78274427613526,40.45898996584465,271.7948586742878,0.0088812950998544,0.0086541669443249,-0.8061190843582153,0.5916234254837036,-0.0051337990186207,-0.0065844817889904,0.0231020156675016,0.006381812505424,-0.0002086927561322,0.004250528756529,-0.0353300418471917,-0.2449952112324536,-9.805614003539086,14936.0
0.29,0.4000000059604645,78.0,25.74717140197754,-0.0238553211092948,-79.7827443628402,40.4589900973959,271.80015377211566,0.0088829454034566,0.0086486851796507,-0.8061205744743347,0.5916215181350708,-0.0081867174550257,-0.0104744425996806,0.0182387201393707,-0.0018869910854846,-0.0009147804812528,-0.006874453742057,-0.0369416623888537,-0.2479213954880833,-9.805396487116814,14936.0
0.4,0.4000000059604645,75.0,25.748422622680664,-0.0159035474061965,-79.78274437197283,40.45899010687201,271.8020116786957,0.0088829454034566,0.0086486851796507,-0.8061205744743347,0.5916215181350708,-0.0079160325078641,-0.0107419977300116,0.0183861702393814,0.0045243152417242,0.0009409718913957,0.0040051359683275,-0.034316781044472,-0.2512058313377202,-9.805683585405353,14936.0
0.6,0.4000000059604645,74.0,25.744667053222656,-0.0159035474061965,-79.78274443851942,40.45899020818279,271.8090311985016,0.0088850753381848,0.0086544919759035,-0.8061227798461914,0.5916183590888977,-0.0047449681436966,-0.0079470950673624,0.0197533151426876,0.0032239579595625,-0.0011675113346427,-0.0012956283753737,-0.0361120612593367,-0.2431633333861828,-9.804762648940088,14936.0
0.71,0.4000000059604645,71.0,25.75092697143555,-0.0159035474061965,-79.78274444583231,40.45899021415112,271.8110351960659,0.0088853435590863,0.0086554177105426,-0.8061243891716003,0.591616153717041,-0.0049334430907976,-0.0081150407504011,0.0199692866844714,0.0022687413729727,0.0023311662953346,0.0043191653676331,-0.0349872031481936,-0.2518204102478921,-9.806287018060685,14936.0
0.9,0.4000000059604645,70.0,25.74717140197754,0.0,-79.78274448983234,40.45899032112428,271.8151601057053,0.0088829724118113,0.0086601255461573,-0.8061242103576659,0.5916163325309753,-0.0032492943860578,-0.0033944597144242,0.0175804919638639,0.0021501393057405,0.0012873898958787,0.0035506249405443,-0.0364803764596581,-0.2374806620366872,-9.804421756267546,14936.0
1.0,0.4000000059604645,68.0,25.748422622680664,-0.0079517737030982,-79.78274459094526,40.45899041604911,271.8167066078186,0.0088935028761625,0.008658330887556,-0.8061256408691406,0.591614305973053,0.0018285138966255,-0.0088661998582963,0.0153259735195117,-0.0036508024204522,-5.544858504435979e-05,0.0001102181413443,-0.036558936999645,-0.2474411380849779,-9.804949759840966,14936.0
1.19,0.4000000059604645,70.0,25.752178192138672,-0.0079517737030982,-79.78274461256635,40.45899041761916,271.81982667255403,0.0088930018246173,0.0086586512625217,-0.8061272501945496,0.5916121006011963,0.0016065800885465,-0.0093935233592896,0.0158288052334266,0.0036259146872907,0.0012994330609217,0.0071782264858484,-0.0356269410741515,-0.2505990182608366,-9.80633438050747,14936.0
1.3,0.4000000059604645,70.0,25.749675750732425,-0.0079517737030982,-79.78274467619137,40.45899055618651,271.8207540910244,0.008886613883078,0.0086537320166826,-0.8061272501945496,0.5916122794151306,-0.0043831780112162,-0.0084016527929138,0.01407080013649,-0.0049975835718214,-0.0013641889672726,-0.0002078104298561,-0.036609627334401,-0.2427847444452345,-9.804151614904406,14936.0
1.5,0.4000000059604645,70.0,25.74717140197754,-0.0238553211092948,-79.78274477498283,40.45899068722299,271.82204390573503,0.0088732242584228,0.0086553860455751,-0.8061451911926271,0.5915879011154175,-0.0029483286362979,-0.0103247584903084,0.0129700752982009,0.0001499632780905,0.000340685568517,0.0044597559608519,-0.0367698364751413,-0.2383576530218124,-9.804979580640794,14936.0
1.6,0.4000000059604645,70.0,25.744667053222656,-0.0238553211092948,-79.78274478559959,40.45899069271199,271.8233684103489,0.008880459703505,0.0086389128118753,-0.8061544895172119,0.591575562953949,-0.0040626306052749,-0.0105677580750501,0.0133144688722888,-0.0038725533522665,-0.0003056397254113,-0.0055208341218531,-0.0366168335708789,-0.2387949333898723,-9.804701253175736,14936.0
1.79,0.4000000059604645,71.0,25.749675750732425,-0.0159035474061965,-79.78274491267537,40.45899082711348,271.8210114042759,0.0088737094774842,0.0086426995694637,-0.8061501383781433,0.5915814638137817,-0.0013365631503643,-0.015885512878321,0.0079345107215451,0.0023709863889962,-0.0008481472614221,0.0026391483843326,-0.037057588007301,-0.2410184650495648,-9.804897134900092,14936.0
1.89,0.4000000059604645,71.0,25.74591827392578,-0.0159035474061965,-79.78274493013947,40.45899083280054,271.8218275110722,0.0088798962533473,0.0086577534675598,-0.8061366677284241,0.5915995240211487,-0.0024829418042733,-0.0161681992967587,0.0082262585846678,-0.0070633837021887,-0.0033610069658607,-0.009381347335875,-0.0361610545311123,-0.2395215595699847,-9.804279084205628,14936.0
2.09,0.5,72.0,25.74591827392578,-0.0079517737030982,-79.78274499662494,40.45899094978336,271.819669703722,0.0088531225919723,0.0086585721001029,-0.8061255812644958,0.5916149616241455,-0.001482163741468,-0.0100179573647721,0.0064925924758288,-0.0039906823076307,-0.0033665604423731,0.0017819261411204,-0.0355053463974036,-0.242762123029679,-9.8050316208601,14936.0
2.2,0.5,70.0,25.74591827392578,-0.0079517737030982,-79.78274500748238,40.45899095369371,271.82033745455743,0.0088498359546065,0.0086714169010519,-0.8061255216598511,0.591614842414856,-0.0022240517606894,-0.0102258774252528,0.0067640887736928,-0.0028692176565527,0.0001809262030292,-0.0089794136583805,-0.0359517973009496,-0.2353544134274125,-9.803870948553088,14936.0
2.39,0.5,70.0,25.7434139251709,0.0079517737030982,-79.78274508415629,40.4589910873244,271.8189878265858,0.0088465018197894,0.0086748572066426,-0.8061296343803406,0.5916092991828918,-0.0036041516005301,-0.0081252316223932,0.0081933753653354,-0.0035206475295126,0.0004343851178418,0.0031850708182901,-0.0356616954621858,-0.2469822595641017,-9.805436832904816,14936.0
2.5,0.5,71.0,25.748422622680664,0.0079517737030982,-79.78274520033597,40.458991224628186,271.81384725379945,0.0088522592559456,0.0086683854460716,-0.8061301708221436,0.5916087031364441,-0.0014053714293202,-0.0139500655876186,0.0047201905260423,-0.0041795009747147,-0.0015948434593155,-0.0068892179988324,-0.0364378722268156,-0.2350304411351681,-9.803680329322816,14936.0
2.7,0.5,69.0,25.748422622680664,0.0,-79.78274523118839,40.45899123459599,271.8148531417847,0.0088542709127068,0.008670144714415,-0.8061320185661316,0.5916060209274292,-0.0023290034109577,-0.0143028452630834,0.0052382434750243,-0.0037667881697416,-0.0015711990417912,-0.0029251473024487,-0.0343121580895967,-0.2511000332795084,-9.806696907877924,14936.0
2.8,0.5,66.0,25.74216270446777,0.0,-79.78274531965755,40.45899137702485,271.8094502191544,0.0088533656671643,0.0086681712418794,-0.8061317205429077,0.5916064977645874,-0.0017885381794192,-0.0138560961773961,0.0030589892686995,0.0007814913406036,0.0027873001527041,0.0019419798627495,-0.0366177974478341,-0.2388587594032288,-9.803985553979873,14936.0
2.99,0.5,63.0,25.74216270446777,-0.0159035474061965,-79.7827454080413,40.45899151702591,271.8042517106533,0.0088498266413807,0.0086680734530091,-0.8061344623565674,0.5916028618812561,-0.0034017192560526,-0.0113457804212399,0.0022340406582002,-0.0043192161247134,-0.002276062965393,-0.0080044548958539,-0.0365094229602254,-0.2346708921901882,-9.802765240073205,14936.0
3.09,0.5,62.0,25.74591827392578,-0.0159035474061965,-79.78274541983792,40.45899152284984,271.80449480819703,0.0088498266413807,0.0086680734530091,-0.8061344623565674,0.5916028618812561,-0.002931898764047,-0.0116857190718106,0.0023769900956061,0.0077075227163732,0.0005112788057886,0.007383813150227,-0.0354367078514769,-0.2475706721842289,-9.805757845044138,14936.0
3.3,0.5,61.0,25.73965835571289,-0.0159035474061965,-79.78274551463545,40.458991650867546,271.79873515176774,0.0088546695187687,0.0086714448407292,-0.8061354756355286,0.5916013121604919,0.0001767171280592,-0.0110184357237546,0.0018308698386271,-0.0027339537627995,0.0031894617713987,0.0010122340172529,-0.0362190835783258,-0.2468626109138131,-9.80529591500759,14936.0
3.4,0.5,63.0,25.73965835571289,-0.0159035474061965,-79.7827455270568,40.45899165373282,271.7989301185608,0.0088546695187687,0.0086714448407292,-0.8061354756355286,0.5916013121604919,0.0003115143953057,-0.0111023257995088,0.0019629956287565,0.0024715503677725,-0.0018392861820757,0.0061639421619474,-0.0339745384873822,-0.2508551445789635,-9.805987055897711,14936.0
3.59,0.5,63.0,25.74091148376465,-0.0079517737030982,-79.78274560020904,40.45899180048588,271.7924576203823,0.0088505130261182,0.0086715118959546,-0.806136965751648,0.5915993452072144,-0.0020440524707424,-0.0081360044613056,0.001352858736734,0.0006290373275987,-0.0016765699256211,-0.0018485857872292,-0.0360796137806028,-0.2413382163830101,-9.805457882881164,14936.0
3.69,0.4000000059604645,64.0,25.75343132019043,-0.0159035474061965,-79.78274560856724,40.45899180464906,271.7926114897728,0.0088512515649199,0.0086721926927566,-0.8061384558677673,0.591597318649292,-0.002344147053778,-0.0082000749295133,0.0014955095404086,0.0043388791382312,-0.0005537890247069,0.0063542970456182,-0.033793770445045,-0.2511576100811362,-9.806263044476507,14936.0
3.9,0.5,64.0,25.74216270446777,0.0,-79.78274573806249,40.45899195364583,271.7879965107441,0.008856956847012,0.0086650513112545,-0.8061383366584778,0.5915974378585815,-0.0010930008110539,-0.0144720728674435,0.005136531712794,0.0051598870195448,0.0034768225159496,-0.0014740142505615,-0.036354490017984,-0.2393295881710947,-9.803528301715849,14936.0
4.0,0.5,64.0,25.734649658203125,-0.0238553211092948,-79.78274580285228,40.45899211886588,271.77999634552003,0.0088511705398559,0.0086632808670401,-0.806140661239624,0.591594398021698,-0.0059593556018622,-0.0116096918915622,0.002768494543196,-0.0002778708876576,0.0005052179913036,0.0033351411111652,-0.0347846747841686,-0.2510106622427702,-9.80555202305317,14936.0
4.19,0.5,65.0,25.74717140197754,0.0079517737030982,-79.78274582476955,40.45899213654811,271.78064335393907,0.0088509581983089,0.0086638946086168,-0.8061428070068359,0.591591477394104,-0.0069174543703846,-0.0121518448634265,0.0032334222002274,0.0067445402964949,0.0031173981260508,0.0011112202191725,-0.0364764707023277,-0.2385813272930682,-9.804044610857964,14936.0
4.29,0.5,65.0,25.73089408874512,-0.0397588685154914,-79.7827458857344,40.45899227302529,271.7745908300877,0.0088506853207945,0.0086654983460903,-0.8061429262161255,0.5915912985801697,-0.0047447072843913,-0.0097152737718538,0.0046540330693233,0.0022746264003217,0.0017143395962193,0.0038399316836148,-0.0343051208741962,-0.2513425282761454,-9.80635543048382,14936.0
4.49,0.5,67.0,25.735902786254893,0.055662415921688,-79.78274597091726,40.4589924228739,271.767337362051,0.0088528264313936,0.0086641376838088,-0.8061441779136658,0.5915895700454712,-0.0039536336442668,-0.0109832359943883,0.0027676441650506,0.0015519794542342,0.0024969454389065,6.282218964770436e-05,-0.0363566530309617,-0.2412041872367263,-9.803762775063516,14936.0
4.59,0.5,68.0,25.74591827392578,-0.0318070948123931,-79.78274598182425,40.45899242957599,271.76763782906534,0.0088528264313936,0.0086641376838088,-0.8061441779136658,0.5915895700454712,-0.0043941220186677,-0.0111814483343701,0.0029250878707808,-8.813103340798989e-05,-0.0026516364887356,0.0013851526891812,-0.0342102406639605,-0.2518727611005306,-9.805899347662926,14936.0
4.79,0.6000000238418579,70.0,25.73965835571289,0.0874695107340812,-79.78274604727879,40.45899256926465,271.7621484797001,0.00885378010571,0.0086688408628106,-0.8061458468437195,0.5915873050689697,-0.002260501938427,-0.0077310378804014,0.0052702937904314,0.0041365423239767,0.0020200528670102,0.0015994638670235,-0.0363584460248239,-0.2389223113283515,-9.803084498047829,14936.0
4.9,0.6000000238418579,71.0,25.72588539123535,0.0477106422185897,-79.78274605507131,40.45899257363824,271.7626955609322,0.00885378010571,0.0086688408628106,-0.8061458468437195,0.5915873050689697,-0.0028402977051714,-0.0078422185049411,0.0054365826712175,0.0013374906266108,0.0009263633983209,0.0020061263348907,-0.0335721769602969,-0.251474931165576,-9.806273569464684,14936.0
5.09,0.6000000238418579,70.0,25.735902786254893,0.055662415921688,-79.78274611321405,40.45899274669888,271.7571732800007,0.0088481418788433,0.0086638741195201,-0.8061476945877075,0.5915848612785339,-0.007876569824603,-0.0076386070920747,0.0068252098389908,0.0056045344099402,0.003743814304471,0.0026108811143785,-0.0358494093571789,-0.2370158083923161,-9.804439297914506,14936.0
5.2,0.6000000238418579,70.0,25.73965835571289,0.0636141896247863,-79.78274611891734,40.45899275582715,271.75789527106286,0.0088496701791882,0.008665282279253,-0.8061501383781433,0.5915814042091371,-0.0087447788368907,-0.0077468381722278,0.0070871250773398,-0.0033516562543809,-0.0012357101077213,0.0001841046614572,-0.0352341794874519,-0.2494008506834507,-9.805808715820312,14936.0
5.39,0.6000000238418579,72.0,25.72713851928711,0.0238553211092948,-79.78274617276783,40.45899289600643,271.75230447459217,0.0088503491133451,0.0086664790287613,-0.8061500191688538,0.5915815234184265,-0.0060242895178378,-0.00640034431729,0.0078589758337371,0.004661105107516,0.0041252509690821,0.0051476527005434,-0.0357246832223609,-0.2484109901636839,-9.805380114912989,14936.0
5.49,0.6000000238418579,73.0,25.73840713500977,0.1033730581402778,-79.78274621468043,40.45899305127747,271.74610249209405,0.0088471351191401,0.0086632054299116,-0.8061524629592896,0.5915783047676086,-0.0098167520357052,-0.0061838524786175,0.008302549176478,-0.0025410610251128,-0.0018342821858823,-0.0017332101706415,-0.0350878963130526,-0.2466240627877414,-9.805129269361496,14936.0
5.69,0.6000000238418579,74.0,25.73965835571289,0.0318070948123931,-79.78274622210962,40.45899307171548,271.7478557031155,0.008847227320075,0.0086637213826179,-0.8061540722846985,0.5915760993957521,-0.0101838701799442,-0.0066966027202242,0.0085601766268272,0.0026927634608,0.0034750157501548,0.0056024114601314,-0.0356104500987567,-0.2504071199521423,-9.804745107293131,14936.0
5.79,0.6000000238418579,75.0,25.72964286804199,0.0715659633278846,-79.78274626212135,40.4589931966999,271.7415362994671,0.0088492855429649,0.0086665777489542,-0.8061539530754089,0.5915762186050415,-0.0066651344185278,-0.0046576900050372,0.008839777973031,-0.0033434245269745,-0.0056547126732766,-0.0040275352075695,-0.0359098115516826,-0.2437988526374101,-9.805215808153156,14936.0
5.99,0.6000000238418579,76.0,25.73965835571289,0.0477106422185897,-79.78274632618663,40.45899332774551,271.7361612122059,0.0088568488135933,0.0086681237444281,-0.8061556220054626,0.5915737748146057,-0.0010162310227296,-0.0068538816243189,0.0090489394558958,0.0024327381979674,-0.000457795598777,0.0069969710893929,-0.0362645251234062,-0.237158535271883,-9.803347038030624,14936.0
6.09,0.6000000238418579,77.0,25.73965835571289,0.0318070948123931,-79.78274633343244,40.458993330833,271.7370841305256,0.0088568488135933,0.0086681237444281,-0.8061556220054626,0.5915737748146057,-0.0023290770949059,-0.0069975197358764,0.0093797427459597,-0.0045943413861095,-0.0030188388191163,0.0003044775803573,-0.0361559039563872,-0.2437837595120073,-9.805650256276133,14936.0
6.29,0.6000000238418579,80.0,25.735902786254893,0.0318070948123931,-79.78274639024067,40.45899347539015,271.73216782021524,0.0088571431115269,0.0086647849529981,-0.8061584234237671,0.5915700793266296,-0.0024945000314661,-0.0087666456199686,0.009492506981338,0.0011667885119095,-0.0002713867288548,0.0051776114851236,-0.0350257376697845,-0.2381259753741324,-9.80479422390461,14936.0
6.39,0.6000000238418579,82.0,25.73089408874512,0.0715659633278846,-79.7827463992236,40.45899348023181,271.73313812422754,0.0088571431115269,0.0086647849529981,-0.8061584234237671,0.5915700793266296,-0.0037144847522389,-0.0090283548957905,0.0097619265953362,-0.0046129813417792,-0.0047534657642245,-0.0046373158693313,-0.0368773544370196,-0.2428808032348752,-9.80474627673626,14936.0
6.59,0.5,87.0,25.73965835571289,0.0477106422185897,-79.78274643892753,40.458993608871616,271.72837261366845,0.0088564148172736,0.00866718031466,-0.8061603903770447,0.59156733751297,-0.0019350063848297,-0.0068621670362159,0.0096106184804159,0.0017403960227966,0.0027896543033421,0.0055944491177797,-0.0358453962486237,-0.2375941711105406,-9.80418786764145,14936.0
6.7,0.5,88.0,25.72964286804199,0.0795177370309829,-79.78274644599414,40.458993612493735,271.7293543319701,0.0088581936433911,0.0086688539013266,-0.8061619400978088,0.5915651917457581,-0.0030803514854601,-0.0070821006996916,0.0098746872702898,-0.0023723607882857,-6.935649435035884e-05,-0.0033776233904063,-0.0360598543030209,-0.2427365780062973,-9.80467727959156,14936.0
6.89,0.5,91.0,25.73840713500977,0.0954212844371795,-79.78274648299188,40.458993774459366,271.7268067698479,0.0088523551821708,0.0086636189371347,-0.806162416934967,0.5915647149085999,-0.0077612228860756,-0.0070529727023099,0.0132479214310036,0.0027962797321379,-0.0013770553050562,0.0047100805677473,-0.034855677341111,-0.2379378594830633,-9.804526421427727,14936.0
7.0,0.5,92.0,25.73715400695801,0.0477106422185897,-79.7827465158618,40.45899388942553,271.7225398670435,0.008853904902935,0.0086672734469175,-0.8061646223068237,0.5915616154670715,-0.0048097928603855,-0.0048080810948108,0.0154173022915923,-0.0041695307008922,4.398661985760556e-06,3.322051634313539e-05,-0.0366882221354171,-0.2440758462063969,-9.804758555889132,14936.0
7.19,0.5,96.0,25.73965835571289,0.0477106422185897,-79.78274652404994,40.4589938999784,271.72568027186395,0.0088542411103844,0.008668121881783,-0.8061668872833252,0.5915585160255432,-0.0050436589287209,-0.0053715174914555,0.0157369776012446,0.0043614623136818,4.086075568920933e-05,0.0073405485600233,-0.0360908057168126,-0.2376255633495748,-9.803773884773255,14936.0
7.29,0.5,95.0,25.73715400695801,0.0715659633278846,-79.78274653952464,40.458994010359504,271.7215439181328,0.0088522117584943,0.0086704455316066,-0.8061670064926147,0.5915583372116089,-0.0046825285843371,-0.0020271538162307,0.0167101008267469,-0.0037879063747823,-0.0020792067516595,-0.0025631580501794,-0.0366479814145714,-0.2437646281532944,-9.804671432375908,14936.0
7.49,0.5,96.0,25.73840713500977,0.0795177370309829,-79.78274657707051,40.45899413546308,271.7189523379803,0.0088530406355857,0.0086698895320296,-0.8061691522598267,0.5915554165840149,-0.0046634485465287,-0.0027353738942451,0.0174701716868542,0.0039476105011999,-0.002068911679089,0.0046614315360784,-0.0358874116907827,-0.2364525936171413,-9.80403174698353,14936.0
7.6,0.5,97.0,25.74216270446777,0.0397588685154914,-79.78274657845206,40.45899414040779,271.7207335929871,0.0088530406355857,0.0086698895320296,-0.8061691522598267,0.5915554165840149,-0.0058815621589214,-0.0029421516530022,0.017853910997486,-0.00283535849303,-0.0055191721767187,-0.0032846280373632,-0.0371615268336608,-0.2443761007301509,-9.805216977596285,14936.0
7.79,0.5,97.0,25.7434139251709,-0.0079517737030982,-79.78274664325028,40.45899428052585,271.7184635500908,0.0088537624105811,0.0086629996076226,-0.8061699271202087,0.5915544629096985,-0.0079253103299109,-0.008067412633823,0.0183485618587428,0.0028332273941487,0.0041045197285711,0.0061772069893777,-0.0359752752422355,-0.2361074799858033,-9.804222366213798,14936.0
7.89,0.5,98.0,25.74216270446777,0.0,-79.78274664943919,40.45899428974325,271.72033382463457,0.0088537624105811,0.0086629996076226,-0.8061699271202087,0.5915544629096985,-0.0092130284726182,-0.0082324647102553,0.0185962578593027,-0.0041554518975317,-0.0002211376850027,-0.0029433909803628,-0.0363740051002241,-0.2449617541953921,-9.804906490445138,14936.0
8.09,0.5,97.0,25.744667053222656,-0.0079517737030982,-79.78274671948886,40.458994404292895,271.7181860904694,0.0088572045788168,0.0086625125259161,-0.8061708211898804,0.5915532112121582,-0.0060700631996214,-0.0100406522249728,0.0188888207088001,0.0056143612600862,0.0036716123577207,0.0021962923929095,-0.0356028738431632,-0.2365372868813574,-9.80342012822628,14936.0
8.19,0.5,95.0,25.74591827392578,-0.0159035474061965,-79.78274672856105,40.458994412236,271.7201123635769,0.0088590718805789,0.0086640184745192,-0.8061731457710266,0.5915499925613403,-0.007281244571593,-0.0101438790713131,0.0191876349907353,-0.0027747971471399,-0.0019092371221631,-0.0034470341634005,-0.0361581880250014,-0.2447607744298876,-9.804397197961809,14936.0
8.39,0.5,91.0,25.73965835571289,-0.0079517737030982,-79.78274676349066,40.45899449999872,271.71989961969854,0.0088586593046784,0.0086694089695811,-0.8061734437942505,0.5915495157241821,-0.0036639044947622,-0.0058567265746863,0.02153145276525,0.0045784404501318,0.0022339401766657,0.0066987136378884,-0.0353612879058346,-0.2366396131552756,-9.804491922855377,14936.0
8.49,0.6000000238418579,91.0,25.74091148376465,-0.0159035474061965,-79.78274680915017,40.458994611538174,271.71625375258924,0.008855408988893,0.0086662760004401,-0.8061757683753967,0.591546356678009,-0.007695125263847,-0.0059416288696557,0.0209596424190007,-0.0028980011120438,0.0007626381702721,-0.0023792721331119,-0.0364525108225643,-0.2435521549545229,-9.804819366931916,14936.0
8.69,0.6000000238418579,89.0,25.74717140197754,-0.0159035474061965,-79.78274681777191,40.45899462734601,271.7205213110447,0.0088555887341499,0.0086669269949197,-0.8061777949333191,0.5915436148643494,-0.0078860243072533,-0.0064642749078851,0.021234444032763,0.0035147934686392,0.0021739553194493,0.0049396017566323,-0.0352178735216148,-0.2505992558039725,-9.806319177746774,14936.0
8.8,0.6000000238418579,87.0,25.73840713500977,-0.0079517737030982,-79.78274686547988,40.45899472014793,271.7168095062971,0.0088557070121169,0.0086671989411115,-0.8061776161193848,0.5915438532829285,-0.0076519324024262,-0.0054110258118636,0.0206935889396063,-0.0051775178872048,-0.0023358834441751,-0.0010495808674022,-0.0366901658778078,-0.2435339189507067,-9.804919939041136,14936.0
9.0,0.6000000238418579,85.0,25.7434139251709,-0.0079517737030982,-79.7827469414774,40.45899480002446,271.71562431263925,0.008863934315741,0.008670063689351,-0.8061785101890564,0.5915424227714539,-0.0014324273633758,-0.007210167092537,0.0202738228821787,0.0036357729695737,0.002161590848118,0.0022750017233192,-0.036567113965284,-0.2374604891426861,-9.803888490200045,14936.0
9.1,0.6000000238418579,84.0,25.73965835571289,-0.0079517737030982,-79.78274694907034,40.45899480326655,271.71766933310033,0.008863934315741,0.008670063689351,-0.8061785101890564,0.5915424227714539,-0.0026533892240621,-0.0072893567088315,0.0205397227239374,-0.0043041515164077,0.0006269112927839,-0.0048745302483439,-0.0351482277014292,-0.2396996438317001,-9.803724768161777,14936.0
9.29,0.6000000238418579,82.0,25.7434139251709,-0.0079517737030982,-79.78274699448461,40.45899486419837,271.7174949001074,0.0088633811101317,0.008675648830831,-0.8061808347702026,0.5915392637252808,0.0004923678082209,-0.0031491216789566,0.0206176506994275,0.0016831448301672,-0.002662151120603,0.004525888711214,-0.0365726733882911,-0.2399455375224352,-9.80557775080204,14936.0
9.4,0.6000000238418579,82.0,25.72713851928711,-0.0874695107340812,-79.78274699828003,40.458994864523646,271.7195701401234,0.0088633811101317,0.008675648830831,-0.8061808347702026,0.5915392637252808,-0.0005444333082741,-0.0033323394387513,0.020929068016665,-0.0051936679519712,-0.0015190609265118,-0.0076773110777139,-0.0355749899335205,-0.2368955019302666,-9.804926370978356,14936.0
9.59,0.6000000238418579,81.0,25.7434139251709,-0.0079517737030982,-79.78274708419794,40.4589949444077,271.71948450315,0.0088666873052716,0.0086719831451773,-0.8061833381652832,0.5915358662605286,-0.0007913191447226,-0.0069946046901932,0.0207255850532127,0.0023917525541037,-0.0048897643573582,0.0022758275736123,-0.0351948798028752,-0.2457145283930004,-9.806357184648514,14936.0
9.69,0.6000000238418579,78.0,25.744667053222656,-0.0079517737030982,-79.78274709204665,40.458994946533295,271.72155890870096,0.0088677052408456,0.0086731603369116,-0.8061853051185608,0.5915331244468689,-0.0014010007883422,-0.0072907940212332,0.0207776023620469,0.0001083992319763,0.0003604597586672,0.0007560728117823,-0.0358878251072019,-0.2346438670903445,-9.803294413089752,14936.0
9.89,0.6000000238418579,77.0,25.7333984375,-0.0159035474061965,-79.782747157315,40.45899502583335,271.721794361949,0.0088659841567277,0.0086721228435635,-0.8061852455139159,0.5915332436561584,-0.0032214706233619,-0.0064575553952366,0.0207020069925197,-0.005732636898756,-0.0023294202983379,-0.0023977821692824,-0.0357014336879365,-0.2509012279473245,-9.805354971885684,14936.0
10.0,0.6000000238418579,77.0,25.73965835571289,-0.0159035474061965,-79.78274720493583,40.45899509706685,271.71991021442415,0.0088627720251679,0.0086750239133834,-0.8061875104904175,0.5915302038192749,-0.0043204506601505,-0.0023069984528005,0.0202880394007166,0.0040753227658569,0.0052512600086629,-0.0002980441786348,-0.0360820805747062,-0.2373039299435913,-9.80451998949051,14936.0
10.19,0.6000000238418579,75.0,25.73089408874512,-0.0079517737030982,-79.78274720728926,40.45899510569271,271.7240231435299,0.0088637480512261,0.008675904944539,-0.8061894774436951,0.59152752161026,-0.005730439079818,-0.0026642297858797,0.0206489222183967,-0.0059851226396858,-0.0010190423345193,-0.0056192381307482,-0.0355231986776925,-0.2384644926153124,-9.804689558744432,14936.0
10.29,0.6000000238418579,75.0,25.7434139251709,-0.0079517737030982,-79.7827473231123,40.45899518473403,271.72276076185705,0.008868969976902,0.0086668981239199,-0.8061889410018921,0.5915282964706421,-0.0056441466156885,-0.0106113555559281,0.02031473214186,0.0041826791130006,0.003136638784781,0.0026873692404478,-0.0351250809500925,-0.2442916267365217,-9.805480102300644,14936.0
10.49,0.6000000238418579,76.0,25.74091148376465,-0.0159035474061965,-79.78274740487218,40.45899522375496,271.7237435977459,0.008872440084815,0.0086746839806437,-0.8061922192573547,0.5915235877037048,-0.0002354952794627,-0.0068843024670381,0.0205396385690298,-0.0034758851397782,-0.000113785288704,-0.0068494286388158,-0.035727264219895,-0.2483736958913505,-9.806116279363634,14936.0
10.6,0.6000000238418579,76.0,25.73715400695801,-0.0079517737030982,-79.78274741283475,40.45899522533736,271.7258031468392,0.008872440084815,0.0086746839806437,-0.8061922192573547,0.5915235877037048,-3.0018633674199494e-06,-0.0072164257844308,0.0206321920607207,0.0059067057445645,0.001487121800892,0.0049377940595149,-0.035254475721158,-0.2490447735227645,-9.8062531042099,14936.0
10.79,0.6000000238418579,77.0,25.74591827392578,0.0636141896247863,-79.78274749817432,40.45899528222946,271.7249999444485,0.0088730882853269,0.0086759775876998,-0.8061939477920532,0.5915212631225586,-0.0019852234950365,-0.0063403060557577,0.0171601070869522,-0.0052414163947105,-0.0015342216938734,-0.0023985020816326,-0.0369751285621896,-0.2485591257177293,-9.80493338763714,14936.0
10.91,0.6000000238418579,76.0,25.7434139251709,0.0079517737030982,-79.78274750483331,40.45899528538136,271.7267268102169,0.0088730882853269,0.0086759775876998,-0.8061939477920532,0.5915212631225586,-0.0018096595906959,-0.0066730856922099,0.0171990604361339,0.0076046781614422,0.000633890798781,0.0059533324092626,-0.0355246924585662,-0.2509736968763173,-9.805506999492646,14936.0
11.09,0.6000000238418579,74.0,25.744667053222656,0.0,-79.78274759011738,40.458995378421605,271.72575987386705,0.0088681690394878,0.0086701968684792,-0.8061959743499756,0.5915185809135437,-0.0100412072529113,-0.0079353504625041,0.0143712622064218,0.0009181859786622,-0.0014784701634198,-0.0022767584305256,-0.0365183148393407,-0.2448982205428183,-9.80446327149868,14936.0
11.2,0.6000000238418579,72.0,25.7434139251709,-0.0079517737030982,-79.7827475956176,40.45899538907646,271.7272310655117,0.0088681699708104,0.0086706038564443,-0.8061979413032532,0.5915160775184631,-0.0100982950996743,-0.0082146402974596,0.0144696677602217,0.0014695795252919,0.0018866133177652,0.0043009403161704,-0.0347177036083303,-0.2514445256441832,-9.80629988193512,14936.0
11.39,0.6000000238418579,73.0,25.735902786254893,0.0079517737030982,-79.78274767767543,40.45899542747152,271.72872419166566,0.0088716205209493,0.0086743766441941,-0.8061978220939636,0.5915159583091736,-0.0064478438676881,-0.0066932584222224,0.0161280254671996,0.0038864719681441,0.0013108000857755,0.0021942399907857,-0.0354745571524836,-0.2384233062900603,-9.804424095153813,14936.0
11.5,0.5,72.0,25.74091148376465,-0.0079517737030982,-79.78274780324878,40.45899545964436,271.72690347838403,0.0088825328275561,0.0086723919957876,-0.8061981797218323,0.591515302658081,-0.0020591376846219,-0.0128513284444759,0.0136787016400278,0.0010791193926706,-0.0003268425934948,0.0031551755964756,-0.035209931815043,-0.2509390521235764,-9.805740888118743,14936.0
11.69,0.5,72.0,25.7333984375,-0.0159035474061965,-79.78274783092208,40.458995470552566,271.7296832602024,0.0088819358497858,0.0086726006120443,-0.8062000870704651,0.5915127396583557,-0.0025591735017873,-0.0133776919129764,0.0138175507912078,0.0034215173218399,0.0015320576494559,0.0065334080718457,-0.0364956705830991,-0.2354529572837055,-9.803403756022451,14936.0
11.8,0.5,72.0,25.73965835571289,0.0,-79.78274795510544,40.45899548567012,271.72833401966096,0.0088905524462461,0.0086742434650659,-0.8061994910240173,0.591513454914093,0.0033779011575621,-0.015695462446248,0.0125713012291843,-0.0012678726343438,-0.0036685694940388,-0.0009438319248147,-0.0369857266405597,-0.2475308014824986,-9.805612834095957,14936.0
11.99,0.5,73.0,25.74216270446777,0.0,-79.78274804125664,40.45899552305927,271.7303089599609,0.0088857300579547,0.0086790965870022,-0.8062025904655457,0.5915092825889587,0.0010101091611758,-0.0095759327935216,0.014773225821445,0.0038266675546765,-4.593861376633868e-05,0.006701179780066,-0.0359623679704964,-0.2502175057120621,-9.805439756512644,14936.0
12.1,0.5,72.0,25.73965835571289,-0.0159035474061965,-79.78274805233016,40.4589955250217,271.7317986588478,0.0088857300579547,0.0086790965870022,-0.8062025904655457,0.5915092825889587,-0.000200051343589,-0.00972666469676,0.0150013287197729,-0.002356116194278,-0.0034983369987457,-0.0049826698377728,-0.0360713066230528,-0.2428947086445987,-9.804717040657998,14936.0
12.29,0.5,71.0,25.74216270446777,-0.0318070948123931,-79.78274814564706,40.458995559933136,271.7325555484295,0.0088850324973464,0.0086804023012518,-0.8062044382095337,0.5915067195892334,-0.000488219345355,-0.0082779415784093,0.0136853464701419,0.0039904173463582,0.0026572777424007,0.0055357827804982,-0.0363198041520081,-0.2372558183223009,-9.804647458791733,14936.0
12.4,0.5,70.0,25.73840713500977,-0.0079517737030982,-79.78274825455671,40.45899557463736,271.73363400506975,0.0088909612968564,0.0086831580847501,-0.8062067627906799,0.5915034413337708,0.0033774084404032,-0.0088128888382538,0.0126008786764262,0.0054703177884221,0.0009555213619023,0.0022926733363419,-0.0357831576629541,-0.2381658278033137,-9.80391363322735,14936.0
12.6,0.5,70.0,25.735902786254893,-0.0238553211092948,-79.78274826556206,40.45899557439046,271.73490355420114,0.0088909612968564,0.0086831580847501,-0.8062067627906799,0.5915034413337708,0.0024616902733527,-0.0089471084180746,0.0128203405057592,-0.0013237813254818,-0.0012403986183926,0.0028878217563033,-0.0354855115455575,-0.2494963978417217,-9.805661365985872,14936.0
12.79,0.6000000238418579,73.0,25.734649658203125,-0.0636141896247863,-79.78274834178167,40.45899560062019,271.7379408876896,0.0088875815272331,0.0086862510070204,-0.8062087297439575,0.5915007591247559,0.0002413786691049,-0.0048165833502918,0.0152509347262775,0.0053823175840079,0.0031593788880854,0.0039828093722462,-0.036109347785823,-0.2344659290090204,-9.803213721513748,14936.0
12.9,0.6000000238418579,73.0,25.74216270446777,-0.0079517737030982,-79.78274834722849,40.45899560196533,271.7394779126644,0.0088875815272331,0.0086862510070204,-0.8062087297439575,0.5915007591247559,-0.0009373305271927,-0.0050002369429251,0.0153687449598289,-0.0026727828662842,-0.0024918501731008,-0.0008151810616254,-0.0364568893820978,-0.2449763722345233,-9.804433450698854,14936.0
13.09,0.6000000238418579,75.0,25.74216270446777,-0.0318070948123931,-79.78274843621519,40.45899560678552,271.7433875601292,0.0088901193812489,0.0086893094703555,-0.8062115907669067,0.5914967656135559,0.00212287584268,-0.0040934067791173,0.0170240798779697,0.0055626141838729,0.0003370940394233,0.0080902045592665,-0.0355851471866481,-0.2515283600986004,-9.805086584687231,14936.0
13.19,0.6000000238418579,76.0,25.7434139251709,-0.0238553211092948,-79.78274844157416,40.45899560608986,271.745098004818,0.008891605772078,0.0086907530203461,-0.8062142133712769,0.5914930701255798,0.0008884353864944,-0.0042423939526485,0.0172672618317946,-0.0062257568351924,0.0011688045924529,-0.0065831416286528,-0.0362169182812795,-0.2404481239803135,-9.804142844080925,14936.0
13.39,0.6000000238418579,79.0,25.7333984375,-0.0477106422185897,-79.78274855234253,40.45899564755953,271.7469425599575,0.0088919159024953,0.0086841043084859,-0.8062137961387634,0.5914937257766724,-0.0025328551612675,-0.0084876221454894,0.0148592679914743,0.0007093088934198,-0.0008520894916728,0.0026346473023295,-0.036582147704903,-0.2421922022290528,-9.804556242227555,14936.0
13.5,0.6000000238418579,79.0,25.73840713500977,-0.0318070948123931,-79.7827486180353,40.45899566432068,271.74826420354844,0.0088887717574834,0.0086871916428208,-0.8062156438827515,0.5914912223815918,-0.0035763686329083,-0.0044884016350995,0.0137540538421957,-0.0053918748162686,0.0003192767326254,-0.0045805806294083,-0.0359104076935909,-0.2357450987957418,-9.803690269589424,14936.0
13.69,0.6000000238418579,80.0,25.735902786254893,-0.0318070948123931,-79.78274862634855,40.458995672387225,271.7510603468418,0.0088905077427625,0.0086888214573264,-0.8062179684638977,0.5914880037307739,-0.0044214659330387,-0.0049529456986576,0.0140344336658344,-0.0038423791993409,-0.0018849681364372,-0.0039498838596045,-0.035913918307051,-0.2452575502172113,-9.804574368596075,14936.0
13.79,0.6000000238418579,80.0,25.735902786254893,-0.0079517737030982,-79.78274870483513,40.45899566862233,271.7544584672451,0.0088939554989337,0.0086920140311121,-0.8062180280685425,0.5914878249168396,-0.0005870151349063,-0.0038526648535183,0.0159834146684179,0.0005235419375821,0.0007955071050673,-0.0037030221428722,-0.0353704721457324,-0.2377829448133708,-9.803729445934296,14936.0
13.99,0.6000000238418579,80.0,25.68331527709961,0.787225604057312,-79.7827488105263,40.458995662797314,271.7598165075779,0.0088961981236934,0.0086960522457957,-0.8062378168106079,0.5914607644081116,0.0031048389817455,-0.0064378752546383,0.0180685350275468,-0.0038695693947374,-0.0007403216441161,-0.0078477729111909,-0.0348217680584639,-0.2509750490449369,-9.80653610944748,14936.0
14.1,0.6000000238418579,80.0,25.71586990356445,0.3021674156188965,-79.78274881898004,40.45899566116339,271.76161832618715,0.0089066531509161,0.0086984168738126,-0.8062104582786559,0.5914978981018066,0.0019332915709193,-0.0072709574370216,0.0180319421759394,-0.0026122985873371,0.0011328539112582,-0.0011232116958126,-0.0430551958736032,-0.2584272157587111,-9.808558076620102,14936.0
14.29,0.6000000238418579,77.0,25.70960998535156,0.278312087059021,-79.78274891215148,40.45899568744896,271.76723701763154,0.0089000537991523,0.0087036676704883,-0.8062223792076111,0.5914815664291382,-0.0007780138626935,-0.0094959853262982,0.0190767936861232,-0.0014141312567517,-0.0052721332758665,-0.0058385711163282,-0.0402239603502675,-0.241980642657727,-9.801437337398529,14936.0
14.39,0.6000000238418579,77.0,25.717121124267567,0.2862638533115387,-79.78274892274575,40.458995690389365,271.7691637377739,0.0089137144386768,0.0087079517543315,-0.8061762452125549,0.5915443301200867,-0.0012956049570952,-0.0094860935797609,0.0192621397222066,0.006722945254296,0.0020949493627995,0.0005929945036768,-0.0333178230794146,-0.2506505833938718,-9.80262666106224,14936.0
14.6,0.6000000238418579,78.0,25.71336555480957,0.2703603208065033,-79.7827489979956,40.45899568971412,271.7752722005844,0.008893565274775,0.0087227160111069,-0.8062037229537964,0.5915068984031677,0.0001585534819759,-0.0080566724756148,0.0200168139407786,-0.002810736419633,0.0023105554282665,-0.0103829624131321,-0.0320125829335302,-0.2524539926089346,-9.805897008776665,14936.0
14.69,0.6000000238418579,78.0,25.71586990356445,0.326022744178772,-79.78274900685064,40.45899569052357,271.7772692542076,0.008892860263586,0.0087163671851158,-0.8061866760253906,0.5915302038192749,0.0015356215083191,-0.0074085053856816,0.0199363000647074,0.004691005218774,0.0036160198505967,0.008299047127366,-0.034417136167176,-0.2504005966521799,-9.805483610630036,14936.0
14.89,0.6000000238418579,77.0,25.708356857299805,0.4214440286159515,-79.78274904817646,40.45899568020794,271.7863407533169,0.0089042549952864,0.0087060220539569,-0.8061838150024414,0.5915341973304749,0.0020407677700711,-0.0030842479928955,0.023653198136436,0.0003062983450945,0.0068522929213941,-0.009464188478887,-0.0355392602481879,-0.2513310165703297,-9.804515896439552,14936.0
15.01,0.6000000238418579,77.0,25.702096939086918,0.4452993273735046,-79.78274910621867,40.4589956862133,271.7913672130108,0.0089021753519773,0.0086859688162803,-0.8062041401863098,0.5915067791938782,0.0018844362143497,-0.0027375525053658,0.0226959338304798,0.0019945183303207,0.0022249505855143,0.0113482000306248,-0.0423519083065912,-0.2402653071284294,-9.798836495876312,14936.0
15.19,0.6000000238418579,77.0,25.43415832519531,2.5843265056610107,-79.78274911474062,40.45899568569372,271.7960482041836,0.0091213323175907,0.0086913956329226,-0.8061562180519104,0.5915687084197998,0.0037284822497695,-0.0074669026181961,0.0238116327952538,0.010308664292097,0.002782720606774,-0.0019293060759082,-0.0860743674170226,-0.2291269825771451,-9.804186113476751,14936.0
15.3,0.6000000238418579,77.0,25.68456840515137,0.4771064221858978,-79.78274917347504,40.45899566776242,271.80148992943765,0.0093223378062248,0.0087544145062565,-0.8061268925666809,0.5916045308113098,0.0060281962036953,0.0024071302767008,0.022794310149681,0.0339194014668464,-0.0094570405781269,-0.0001221490238094,0.013868212524103,-0.3246113929152489,-9.7910181838274,14936.0
15.49,0.6000000238418579,76.0,24.465070724487305,22.38424301147461,-79.7827492439597,40.45899567034751,271.809654484272,0.0091399038210511,0.0086925588548183,-0.8061603307723999,0.5915626883506775,0.0009807176728943,-0.0032384082819901,0.0220745561130987,0.0116411382332444,-0.0005455286591313,-0.0046336371451616,-0.05096369208768,-0.259367996212095,-9.799352805018426,14936.0
15.6,0.6000000238418579,77.0,25.539329528808597,1.669872522354126,-79.78274925329471,40.4589956681693,271.8120299379826,0.009359217248857,0.008747361600399,-0.8061432838439941,0.5915817618370056,0.0109081451694167,-0.0104213776285138,0.0244438684597891,0.0350819826126098,0.0220356993377208,0.0344293229281902,-0.0214788696169853,-0.2656935871951282,-9.815883468389512,14936.0
15.8,0.6000000238418579,77.0,25.70710563659668,0.2306014448404312,-79.78274929856913,40.45899564778282,271.8225182693005,0.009292428381741,0.0087591549381613,-0.8061183094978333,0.5916166305541992,0.0034876803719631,-0.0031579473255085,0.0239657568372015,-0.0010960910003632,-0.0213407706469297,-0.0170707460492849,-0.0165100165328476,-0.4140260279551149,-9.810286513566972,14936.0
15.89,0.6000000238418579,77.0,25.708356857299805,0.3021674156188965,-79.78274930299699,40.45899564498733,271.8249741892815,0.0091900806874036,0.0086505711078643,-0.8061416745185852,0.5915880799293518,0.0031036621998844,-0.0028130022074483,0.0247357307728193,-0.0031607879791408,0.0071991300210356,0.0029631883371621,-0.0295805295137688,-0.2272657590173185,-9.810392932891846,14936.0
16.1,0.6000000238418579,73.0,25.45794677734375,4.357572078704834,-79.78274934230599,40.45899569793311,271.83413685369493,0.0090982532128691,0.0087183965370059,-0.8061294555664062,0.5916050672531128,-0.0063635267602564,-0.0042895915771199,0.0250777992898408,-0.0090995859354734,-0.0023455161135643,0.0187356881797313,-0.0414958439581096,-0.2771406630054116,-9.82081384062767,14936.0
16.2,0.6000000238418579,72.0,25.374059677124023,5.462868690490723,-79.78274934712177,40.45899570363253,271.83661980438234,0.0091527150943875,0.0086599281057715,-0.8061556816101074,0.5915693640708923,-0.0054235333241353,-0.0064826471713619,0.0244408700415479,-0.003693674923852,0.0143942972645163,-0.0022197477519512,-0.0008603081479668,-0.2529708316549659,-9.819051489830017,14936.0
16.39,0.6000000238418579,72.0,25.20378112792969,7.792738437652588,-79.78274938239781,40.45899569880053,271.8477948408127,0.009443356655538,0.0087501304224133,-0.8061329126358032,0.5915944576263428,0.0001335406427948,-0.0034986936441821,0.0314699233140483,0.0142836868762969,0.0773467347025871,0.0495382957160472,-0.0414271209016442,-0.1158068560156971,-9.77372445881367,14936.0
16.5,0.699999988079071,69.0,25.12114524841309,8.87417984008789,-79.78274940187242,40.45899569044197,271.85679526138307,0.0100168036296963,0.0091616101562976,-0.8061522841453552,0.5915524363517761,0.0058570094395017,-0.007456994078537,0.0288460802850161,0.047961987555027,0.0594921000301837,-0.0411298237740993,0.0067997122358065,-0.287438870575279,-9.841884866952896,14936.0
16.69,0.699999988079071,67.0,24.889516830444336,12.205972671508787,-79.78274941424881,40.45899568189984,271.86318255472185,0.0116395968943834,0.0103652914986014,-0.806082546710968,0.591597855091095,0.010332171555004,-0.0136018653714815,0.0299284871352433,0.0882500410079956,-0.0983635559678077,0.011465429328382,-0.0499382366426289,-0.2641651067510247,-9.782903417944908,14936.0
16.79,0.699999988079071,66.0,24.774328231811523,13.581629753112791,-79.78274944767179,40.45899571785581,271.8681168060303,0.0127786379307508,0.011132538318634,-0.8061746954917908,0.5914348959922789,-0.0065803304869966,-0.006485469113131,0.0325252910501998,-0.025704700499773,0.0114118503406643,0.0590654462575912,-0.0951746358163654,-0.4588443146646023,-9.81670909523964,14936.0
17.0,0.8000000119209291,65.0,24.52642059326172,17.064506530761722,-79.78274944318841,40.45899570977423,271.8810116450787,0.0142650101333856,0.0129994386807084,-0.8058436512947083,0.5918138027191162,0.0053866787780505,0.0086911167362045,0.0345736360141683,0.0794874355196952,0.0783728435635566,-0.2154302150011062,0.1338046862930059,-0.3183360514417291,-9.84072594881058,14936.0
17.09,0.8000000119209291,63.0,24.37116622924805,19.10811233520508,-79.782749430084,40.45899571768405,271.885718474865,0.0124720996245741,0.012217910028994,-0.8061259388923645,0.5914863348007202,-0.0200546824752384,0.0114793482546757,0.0631397604154382,-0.0584880784153938,0.0309818647801876,-0.0202811826020479,0.1409837058093399,-0.5010848198086023,-10.081787939071656,14936.0
17.3,0.8999999761581421,59.0,24.10197639465332,22.408098220825195,-79.78274942445168,40.45899565265454,271.9072580735684,-0.0036557102575898,0.0001692065998213,-0.8054834008216858,0.5926070213317871,-0.0016722551484899,0.0254103575772708,0.1742532241754069,-0.2691777050495148,0.0628624483942985,-0.0847258493304252,0.066045812848024,-0.3922074716538191,-10.15928810477257,14936.0
17.4,0.8999999761581421,58.0,24.461315155029297,16.046680450439453,-79.78274938620379,40.45899563752732,271.9297958712578,-0.0096745677292346,-0.0070316125638782,-0.8046393990516663,0.5936434268951416,-0.0009723500776971,0.0388074289339017,0.2869941396496362,-0.1800862848758697,0.0514120906591415,-0.1216726005077362,0.1438096011802554,0.2526723130233586,-10.876242113113404,14936.0
17.59,1.0,58.0,24.411231994628903,17.55751609802246,-79.78274926241043,40.458995472851015,271.9814018111229,-0.0012192358262836,-0.0021505157928913,-0.8030998706817627,0.5958393216133118,0.0024765851548919,0.0699959546147543,0.2929821936278291,0.1249799132347107,-0.0848295092582702,-0.0379524193704128,0.213839473798871,0.079497940018773,-10.452803127765655,14936.0
17.7,1.0,61.0,24.362401962280277,17.978960037231445,-79.78274918857376,40.45899545570448,272.0091843109131,0.0036254320293664,-3.2138785172719515e-05,-0.8026175498962402,0.5964829921722412,-0.0015275299839832,0.0769014686110662,0.2664490097986732,-0.006307472474873,0.0051256883889436,-0.0483568608760833,0.1911185642145574,-0.0154968984844163,-9.60579476416111,14937.0
17.89,1.100000023841858,60.0,24.33360481262207,18.98883628845215,-79.78274916959809,40.458995576588,272.0364206533432,-4.826288932235912e-05,-0.0041730571538209,-0.8027608394622803,0.5962866544723511,0.0108590967493311,0.0626137624809465,0.1711315987128792,-0.0966308638453483,-0.064331866800785,0.0300880763679742,0.2298133543320001,0.0167294321581721,-9.54218816757202,14937.0
18.0,1.2000000476837158,61.0,24.40121650695801,17.27125358581543,-79.78274897536926,40.45899543477157,272.0591485004425,0.0005928828613832,-0.0060418206267058,-0.8031592965126038,0.5957335233688354,0.0290502321239223,0.0823586256724692,0.1443689972597036,-0.0127962660044431,0.0085423411801457,-0.0229438077658414,0.2162425515241921,0.0863819949142634,-9.621798008680344,14937.0
18.19,1.2999999523162842,64.0,24.22092056274414,20.8177433013916,-79.78274881938272,40.45899534034539,272.08269692468645,0.000501375994645,-0.0078100939281284,-0.8036674261093141,0.5950273275375366,0.0317068825106403,0.0899477502693975,0.0873991046315514,-0.0186705775558948,-0.0762886777520179,0.0695461928844451,0.1508742710854858,0.0849267234373837,-9.509006388187409,14937.0
18.29,1.2999999523162842,67.0,24.20214080810547,19.259197235107425,-79.78274859436966,40.45899539790845,272.1185165743828,-0.0001450892596039,-0.00745067326352,-0.8039472699165344,0.5946539640426636,0.0087987984113486,0.087422818742352,0.1133856993256573,-0.073442094027996,-0.0251881889998912,0.0261056367307901,0.1244270131923258,0.1226940172445029,-9.772531626820564,14937.0
18.5,1.399999976158142,68.0,24.177099227905277,20.06232643127441,-79.78274829963014,40.45899531799327,272.1694111924172,-0.003884142730385,-0.0105775166302919,-0.8049551248550415,0.593228816986084,0.0190022871592687,0.0831814495396097,0.1740826841177447,0.0459322780370712,0.0536894500255584,0.030622012913227,0.0930789115000516,0.117716328240931,-9.99249276995659,14937.0
18.6,1.399999976158142,69.0,24.27475929260254,18.74233055114746,-79.78274821078118,40.45899528818115,272.1878378491402,-0.0031857953872531,-0.0115358941256999,-0.8055296540260315,0.5924345850944519,0.0152149996557958,0.0826766520135706,0.1903711751663928,0.0678782537579536,0.028706070035696,0.028261587023735,0.1200384494382888,0.1399002624303102,-9.990577222108842,14937.0
18.79,1.5,73.0,24.18085479736328,20.33268547058105,-79.782748064748,40.45899512854616,272.2422295908928,-0.0031719261314719,-0.0127678178250789,-0.8066919445991516,0.5908256769180298,0.0232469160161781,0.0684093473049101,0.2211876980768133,0.0146497664973139,-0.0082219522446393,0.0346708223223686,0.1046027502883225,0.0965569724142551,-10.00354283809662,14937.0
18.9,1.5,74.0,24.21716499328613,19.34666633605957,-79.78274799490141,40.45899510284139,272.2650315265656,-0.0033269510604441,-0.0128025151789188,-0.8070014715194702,0.5904013514518738,0.0122057055327749,0.0638357407502635,0.2356864435062358,0.0069588557817041,-0.017946507781744,0.0415072552859783,0.1287893284298479,0.1510905632469803,-10.010791046619415,14937.0
19.09,1.5,72.0,24.17960357666016,19.267148971557614,-79.78274771504141,40.4589951706664,272.3270653586388,-0.0022417195141315,-0.0124274734407663,-0.8067453503608704,0.5907644629478455,-0.0252600695830136,0.0635226899619854,0.259615422522563,-0.036260787397623,-0.0541378371417522,-0.0338850505650043,0.129473544023931,0.1586436949297786,-10.007176297903062,14937.0
19.19,1.600000023841858,72.0,24.13828468322754,20.730274200439453,-79.78274764219488,40.45899518107112,272.3534122209549,-0.0024276091717183,-0.012242286466062,-0.8061422109603882,0.5915902853012085,-0.0358841078072942,0.0585304200020203,0.2683381929661698,-0.0590235106647014,-0.0274027660489082,-0.1034481227397918,0.1157333272788673,0.2087677085772157,-9.87613317847252,14937.0
19.4,1.600000023841858,70.0,24.840686798095703,12.444525718688965,-79.78274743330441,40.45899518552093,272.41964812088014,0.0009520604507997,-0.0096511431038379,-0.8048940300941467,0.5933393836021423,-0.0233540849366184,0.0416905314719283,0.2680925774622309,0.0239650402218103,0.0063096713274717,-0.0257336441427469,0.0912263034470379,0.2243107406795025,-9.983210899829864,14937.0
19.5,1.600000023841858,69.0,24.059406280517567,20.746177673339844,-79.78274733137775,40.45899530217041,272.4535418252945,0.0002659628225956,-0.0081219701096415,-0.8045052886009216,0.5938900113105774,-0.0343816809834434,0.0265051213625083,0.0957262729592075,0.0431801564991474,-0.0850505530834198,-0.0201422329992055,0.177211053147912,0.1121586228534579,-8.532897350192071,14937.0
19.69,1.600000023841858,66.0,23.79397201538086,25.87507247924805,-79.7827472577533,40.45899535044308,272.4637022714615,-0.0004524012329056,-0.0025381748564541,-0.8041427731513977,0.5944306254386902,-0.0341234022765535,0.025995129167061,0.0833927155242126,-0.0245260428637266,-0.0077856117859482,-0.0411678068339824,0.1043316130712628,0.1582350476458668,-9.097146059274673,14937.0
19.79,1.600000023841858,64.0,23.66751480102539,26.209047317504893,-79.78274704090026,40.458995363497294,272.52937335777284,-0.0018948767101392,-0.0028439408633857,-0.8040208220481873,0.5945914387702942,-0.037949408793517,0.0375711186521622,0.2676748125570912,-0.1039683073759079,-0.0119238486513495,-0.0377552136778831,0.1025866760127246,0.1654394751414656,-10.848253830671313,14937.0
20.0,1.600000023841858,59.0,23.52102470397949,29.206865310668945,-79.78274675698694,40.45899520023376,272.6016474466324,-0.0036898190155625,-0.0069773239083588,-0.8038331866264343,0.5948024392127991,-0.0265744323139888,0.0568497012510197,0.5573305755574828,-0.11687882989645,0.0586017034947872,-0.1081146672368049,0.1830258167535066,-0.0518474713247269,-11.321171954870223,14937.0
20.1,1.7000000476837158,59.0,23.636213302612305,27.46542739868164,-79.78274669005313,40.45899520255045,272.66703457641603,-0.0035630592610687,-0.0091854194179177,-0.8035920262336731,0.5950989723205566,0.0008960281502858,0.06058592466428,0.7569640035655043,0.1170831993222236,0.0507486462593078,-0.0438695512712001,0.1179094051290303,0.1759685380943119,-11.75532888650894,14937.0
20.29,1.7000000476837158,58.0,23.43713760375977,28.523012161254893,-79.78274638714586,40.45899529994497,272.87123973178865,-0.0045454902574419,-0.0099689085036516,-0.803210973739624,0.5955939888954163,-0.0038584561359542,0.0648951868826714,1.1862697017389807,0.1092663630843162,0.0659533962607383,0.0825630277395248,0.1085459754802286,0.1803491076081991,-11.920646045207976,14937.0
20.4,1.7999999523162842,57.0,23.517269134521484,28.713855743408203,-79.78274631578141,40.4589953205966,273.0017746191025,-0.0044555864296853,-0.0093799382448196,-0.8031094074249268,0.5957412123680115,-0.0104347503140502,0.0642770885605413,1.4215056189782411,0.0787672847509384,0.0297426860779523,0.0365361459553241,0.0522271703230217,0.1543145078234374,-12.084639394283297,14938.0
20.5,1.8999999761581416,58.0,23.402080535888672,31.44926643371582,-79.78274608866856,40.45899538095838,273.1655551891327,-0.0044890935532748,-0.0087968157604336,-0.8030356168746948,0.5958492755889893,-0.0186389363280598,0.0615818735254583,1.6268862686797652,0.0881044417619705,0.026900740340352,-0.0176933445036411,0.0707568551134318,0.2159052219986916,-12.02688527584076,14938.0
20.69,2.0,60.0,23.2180290222168,31.58444595336914,-79.7827459387852,40.45899545438725,273.5411390762329,-0.0050776544958353,-0.0052137789316475,-0.8031282424926758,0.595761775970459,-0.0281011195749386,0.0663729580134322,2.162360544140125,-0.0244661476463079,-0.0813589170575141,0.0786071866750717,0.0296185364155098,-0.0714909090846777,-12.604805359840393,14938.0
20.89,2.0999999046325684,60.0,23.32695770263672,30.200838088989247,-79.78274565148963,40.45899560629704,274.0283910732269,-0.0028425969649106,-0.0021986777428537,-0.8031970858573914,0.5957026481628418,-0.0509901354721807,0.0627600431279143,2.664212476500321,-0.0578675605356693,0.0045468737371265,-0.0438152886927127,0.0735763002745807,0.21809736141935,-12.523000473976134,14939.0
20.99,2.200000047683716,62.0,23.602407455444336,24.80158233642578,-79.78274546079551,40.45899575945325,274.3125800590515,-0.0027044240850955,-0.0019630121532827,-0.8032081723213196,0.5956891775131226,-0.0509672044333411,0.0692951731053049,2.883898442227677,-0.0339752733707428,-0.01390250492841,0.0334513857960701,0.0610636699106544,0.0627787587605416,-12.12171424984932,14939.0
21.09,2.400000095367432,61.0,23.86033058166504,21.93894386291504,-79.78274535539599,40.45899580165291,274.60969896125795,-0.0029483453836292,-0.0025955636519938,-0.8032822012901306,0.5955857038497925,-0.0441277977232843,0.0760458374128911,3.043743761603253,0.0251056980341672,0.0043560774065554,0.0613579340279102,0.0241530457301996,-0.0138304374553263,-11.4966422188282,14939.0
21.29,2.5,62.0,23.73637771606445,24.35628318786621,-79.7827450332745,40.458995934011455,275.25223607826234,-0.0020629877690225,-0.0039593526162207,-0.8036907911300659,0.5950304269790649,-0.0502041893126958,0.0942237035099297,3.1939805205651424,-0.0753068327903747,0.0165179688483476,-0.0469106249511241,0.1166361921932548,0.2975749458186329,-10.69373647928238,14940.0
21.39,2.700000047683716,64.0,23.86408615112305,22.57508659362793,-79.78274490964908,40.45899596504528,275.5752996902466,-0.0015044559258967,-0.004265469033271,-0.803948700428009,0.5946816205978394,-0.0340430604614528,0.1072116546473346,3.2603790725185413,0.02853942848742,0.0088223982602357,-0.023086741566658,0.0702344749169424,0.1880491962656378,-10.472536311149597,14940.0
21.59,2.799999952316284,64.0,23.93420219421387,21.25509262084961,-79.78274463845753,40.45899619513864,276.2368034820557,-0.0017741447081789,-0.0056614875793457,-0.804436981678009,0.5940083861351013,-0.057602222479759,0.1082275314984393,3.2828440770735523,-0.1026103720068931,0.0481038838624954,-0.0714611932635307,-0.0098975819349288,0.3224087833240629,-9.901893671751024,14941.0
21.79,2.900000095367432,65.0,23.849061965942383,21.636775970458984,-79.78274451053954,40.45899623557879,276.56425089645387,-0.0013611394679173,-0.0074881529435515,-0.80440753698349,0.5940291881561279,-0.0483395348618178,0.1139681978761431,3.2655774110908697,-0.1038056164979934,-0.0121484063565731,-0.0420740246772766,0.1039353819843381,0.0873788903653621,-9.70314915060997,14941.0
21.9,2.900000095367432,65.0,23.88662338256836,21.54135513305664,-79.78274412836427,40.45899646536727,277.22902197647096,-0.0010822634212672,-0.0100261811167001,-0.8040933609008789,0.5944176316261292,-0.0525625955331425,0.1321817124278796,3.2153819328697355,-0.0077116298489272,-0.015152039937675,-0.0072749056853353,0.0823181800357997,0.0430126756522804,-9.565360683202744,14942.0
22.0,2.900000095367432,64.0,23.77393913269043,24.411945343017567,-79.78274384386098,40.45899655031735,277.5833320121765,-0.0021151057444512,-0.0108877290040254,-0.8038393259048462,0.5947430729866028,-0.0582241578201905,0.1334988999163946,3.1935759411157365,-0.0081384731456637,-0.0800420492887497,0.0189444161951541,0.1352855119295418,0.0051716977916657,-9.625173021554946,14942.0
22.19,3.0,65.0,23.74639320373535,22.78183174133301,-79.78274359247537,40.45899669335007,278.22144551086427,-0.0002567152841947,-0.011364665813744,-0.8035269379615784,0.5951598286628723,-0.0644978609407416,0.1202287912991939,3.1886400559062675,-0.0050552580505609,0.0471931174397468,-0.0463250018656253,0.0726531345583498,0.2334393954835832,-9.756048910617828,14943.0
22.29,3.0,69.0,23.84530639648437,22.877254486083984,-79.7827434372049,40.458996861350045,278.52252001571657,0.0012627164833247,-0.011218468658626,-0.8033000826835632,0.5954675078392029,-0.0744864511400813,0.1120019183414767,3.160393861068444,0.0031467473600059,0.0392903611063957,-0.0119046242907643,0.0506789281172677,0.0786132745631039,-9.746478188037871,14943.0
22.5,3.0,70.0,23.78771209716797,22.996530532836918,-79.78274320177603,40.458997116309774,279.11985583114625,0.0022717528045177,-0.0075889597646892,-0.8030073046684265,0.5959165692329407,-0.1028755678157295,0.0892159061636528,3.1110682886768366,-0.0390823446214199,-0.1289445608854293,-0.0580856427550315,0.1338711983710527,0.0535646797902882,-9.775499673485756,14944.0
22.69,2.900000095367432,72.0,23.93670463562012,19.76015853881836,-79.78274305473234,40.45899730257384,279.7432856063843,0.002245498355478,-0.0019399323500692,-0.8032259941101074,0.5956670641899109,-0.1099332809325206,0.0373724100969025,3.1038071504581257,-0.0140293566510081,-0.0346282608807086,-0.0236842781305313,-0.0088019050844013,0.06809531675186,-9.724752858281136,14944.0
22.79,2.900000095367432,73.0,23.702571868896484,23.63267135620117,-79.78274296305209,40.45899749463715,279.9993032913208,0.0035176989622414,-0.0037030335515737,-0.8038273453712463,0.5948408246040344,-0.1058701434316449,0.016581332471296,3.0217403274862886,0.0249420646578073,0.0282319001853466,0.0166962780058383,0.0583830230310559,0.0246245848434045,-9.562534139156345,14944.0
22.89,2.900000095367432,74.0,23.835289001464844,21.533403396606445,-79.78274293254823,40.45899758141653,280.300582359314,0.0047409031540155,-0.0058515723794698,-0.8043173551559448,0.5941522717475891,-0.0978319769503415,0.0227775715434328,3.005683308542273,0.0261499471962452,0.0633289813995361,-0.0422530099749565,0.0899496918171644,0.0904542973916977,-9.638145069479943,14945.0
23.09,2.900000095367432,75.0,23.738882064819336,23.17146873474121,-79.78274327605716,40.45899786024205,280.7881330947876,0.0027216547168791,-0.0055227875709533,-0.8040058016777039,0.5945897102355957,-0.0902700659827116,-0.0047659374858706,2.897421205004421,-0.1316879391670227,-0.0565832033753395,-0.1043742522597312,0.0254422768391668,0.1970386507920921,-9.666200010180471,14945.0
23.29,2.799999952316284,78.0,23.8365421295166,23.068096160888672,-79.78274331286694,40.45899794230109,281.0779327850342,0.0018768142908811,-0.0047730226069688,-0.8037309050559998,0.5949710011482239,-0.0679170902969903,-0.0250542365571367,2.9035138605172746,-0.0053641218692064,-0.0628590583801269,0.0290395729243755,0.0707360335439443,0.0008304508030414,-9.866278281211851,14946.0
23.4,2.799999952316284,81.0,23.861581802368164,21.040393829345703,-79.78274313110234,40.45899793010248,281.75571102905275,0.0024127431679517,-0.0025435041170567,-0.8032518625259399,0.5956292748451233,-0.0600798673183273,-0.0319828006916523,2.9114735101546327,-0.0098181013017892,-0.0282406862825155,-0.0390233993530273,0.0737279258854687,0.0770044497214257,-9.76521325170994,14946.0
23.59,2.799999952316284,84.0,23.796476364135746,22.670507431030277,-79.78274286357689,40.45899781719642,282.4615473251343,0.0046522421762347,-0.0047320444136858,-0.802489161491394,0.5966298580169678,-0.0417163357393053,-0.024765521453247,2.902827128147162,0.0471797175705432,0.1109369918704032,-0.0032648819033056,0.0585482936678454,-0.0021148099936544,-9.574899830818175,14947.0
23.71,2.700000047683716,87.0,23.847810745239247,21.636775970458984,-79.78274290720904,40.458997862248495,282.75095505523683,0.0061254911124706,-0.0063645369373261,-0.8023052811622621,0.5968486666679382,-0.0406994259991674,-0.0140423080500993,2.89049297344888,0.0224217977374792,0.0725861117243766,-0.03201924264431,0.0593100990727543,0.0658314164634794,-9.646956823468209,14947.0
23.79,2.700000047683716,91.0,23.85657501220703,22.19340133666992,-79.78274268632693,40.45899778972891,283.16659493255617,0.00680473446846,-0.0070165847428143,-0.8021766543388367,0.5970068573951721,-0.0341104905460927,-0.0055184482186297,2.9274759415952327,-0.0366689004004001,-0.032865684479475,-0.037338487803936,0.107809007037431,0.0506569371046498,-9.713384701609613,14948.0
23.99,2.5999999046325684,93.0,23.817760467529297,21.604969024658203,-79.78274234754647,40.4589977249871,283.8654207687378,0.0042742658406496,-0.0052286563441157,-0.8018396496772766,0.5975010991096497,-0.0198230495397858,0.0038343091878804,2.960408102886704,0.009460087865591,0.0260191168636083,-0.0507560223340988,0.065341725856997,0.1148660207446664,-9.760925488471983,14948.0
24.09,2.400000095367432,97.0,23.756410598754893,22.85339736938477,-79.78274240082685,40.45899774538538,284.16101403045656,0.0037486120127141,-0.0044642118737101,-0.8017469644546509,0.5976352095603943,-0.0107148216181503,-0.0140830876136299,2.952498267981768,-0.002505934331566,-0.0250598322600126,-0.0325981229543685,0.1290149395912885,0.088173362519592,-9.782011132836342,14949.0
24.3,2.299999952316284,100.0,23.808996200561523,21.326658248901367,-79.78274214118511,40.458997634615656,284.83697457122804,0.0063189440406858,-0.002107280306518,-0.8029634356498718,0.5959911942481995,0.0095742563607092,0.0037997647189297,2.9967340806267764,0.0159938372671604,0.0477402433753013,0.0548516735434532,0.1376939800567925,0.0102939500659704,-9.885458317995072,14949.0
24.49,2.0,109.0,23.718849182128903,24.18929672241211,-79.78274205440759,40.458997584338704,285.5134462814331,0.0049798930995166,-0.0048090703785419,-0.8039963245391846,0.5945940017700195,0.00624605521768,0.0174836736896253,3.0057818454489285,-0.0926009938120842,-0.0033791325986385,-0.0447603911161422,0.1661637989804149,0.0939786152634769,-9.739881359338758,14950.0
24.6,1.7999999523162842,108.0,23.74764633178711,21.899185180664062,-79.782742085146,40.45899756157864,285.81354851531984,0.0061639230698347,-0.0064138327725231,-0.8036258220672607,0.5950684547424316,0.0239333233796485,0.0251846437105707,2.9963113116796114,-0.0176127906888723,0.0391466878354549,-0.0233063604682684,0.1746199874393642,0.0705028301384299,-9.708971807956695,14950.0
24.8,1.7000000476837158,114.0,23.54731750488281,24.658451080322266,-79.78274211663789,40.45899753551852,286.1126064758301,0.0072173569351434,-0.0077536688186228,-0.8031939268112183,0.5956234335899353,0.0313322190201039,0.0355875583927544,2.98447153818019,-0.0068008215166628,0.0886701345443725,-0.0321008488535881,0.1323470942024141,0.0946871973015368,-9.656645075082778,14951.0
24.9,1.7000000476837158,124.0,23.718849182128903,21.92304039001465,-79.78274189881914,40.458997482238864,286.7839006881714,0.0035849912092089,-0.0095648504793643,-0.8020145893096924,0.5972170829772949,0.0427477760478171,0.0581345691617518,3.0162471465855463,-0.0159049052745103,-0.0567440651357173,0.0340163968503475,0.2093481543660164,-0.1431067384500056,-9.88905786395073,14951.0
25.09,1.7000000476837158,134.0,23.7000675201416,23.64857482910156,-79.78274151703913,40.458997317171786,287.4531359176636,0.0079759210348129,0.0016513060545548,-0.8010844588279724,0.5984960198402405,0.0571165661837129,0.0620475689562557,3.026009777133902,0.0816045328974723,-0.065448023378849,0.0093771647661924,0.1519470067508518,-0.0548591802455484,-9.641040610671045,14952.0
25.19,1.7999999523162842,131.0,23.77769470214844,22.43195343017578,-79.78274150886942,40.45899725738757,287.7552151184082,0.0115647204220294,0.0036400358658283,-0.8016514778137207,0.5976688265800476,0.0213625937689616,0.05011568346935,3.017860807084749,-0.0153636382892727,0.0737141370773315,0.0250426847487688,0.0972507171425968,-0.022371992978733,-9.691774562001228,14952.0
25.29,1.7000000476837158,120.0,23.778947830200195,22.718217849731445,-79.78274133747159,40.45899714963989,288.12050289916994,0.0138201033696532,0.001713361707516,-0.8029642701148987,0.5958645343780518,0.0237648109419141,0.0545548327047058,3.041637920126962,-0.0096303401514887,0.0860553011298179,0.0253688003867864,0.0845109407231211,-0.0185740962205454,-9.767443964481354,14953.0
25.49,1.7000000476837158,136.0,23.79772758483887,21.35846519470215,-79.78274117698216,40.45899710037848,288.7804645996094,0.0086164576932787,-0.0100067546591162,-0.8027697205543518,0.5961430072784424,0.0631677773229515,0.0916729180884533,3.0184309317535014,-0.0858961418271064,0.0583312846720218,-0.0057975896634161,0.1964155386015773,-0.0563627323647961,-9.552041310667992,14953.0
25.59,1.8999999761581416,280.0,23.666261672973643,23.219179153442383,-79.78274118684033,40.45899699547885,289.0810207824707,0.0040777451358735,-0.013304878026247,-0.8017868399620056,0.5974481701850891,0.1132370750464419,0.1048614003352778,2.9938000801513245,-0.0611024424433708,-0.0324990153312683,-0.0912710502743721,0.2434524416550994,0.1611442201584577,-9.583139142394066,14954.0
25.79,2.0,295.0,23.690052032470703,23.56905746459961,-79.78274104618036,40.45899677098935,289.7314095001221,0.0037992233410477,-0.0100519387051463,-0.8001353144645691,0.5997233986854553,0.1592786601727609,0.0913395607228966,3.025717692474472,0.1319761276245117,0.0154820382595062,0.014491107314825,0.2482957269251346,-0.0425108018238097,-9.87610628128052,14954.0
25.99,2.299999952316284,311.0,23.748897552490234,23.34640884399414,-79.78274078141065,40.4589966214102,290.37407154846187,0.0002536979445721,-0.0115809179842472,-0.7994435429573059,0.6006296277046204,0.1170724435031494,0.1098914110660969,3.0671294594219862,-0.0424795821309089,-0.0559601075947284,-0.0268792640417814,0.354231633245945,0.0452468556398525,-9.983402688503269,14955.0
26.1,2.5,314.0,23.642473220825195,24.39604187011719,-79.78274074716083,40.458996530515954,290.68140454101564,-0.001540002063848,-0.0125867817550897,-0.7996389865875244,0.600347101688385,0.1326027304495713,0.1178478284530314,3.0739530396431647,0.0604587830603122,0.0317867808043956,0.0254618786275386,0.3135055569559336,-0.0493644877430051,-9.924023044109346,14955.0
26.19,2.700000047683716,308.0,23.72010040283203,21.85147476196289,-79.78274070205296,40.45899644309353,290.98979420471187,-0.0014809536514803,-0.0133585333824157,-0.8001935482025146,0.5995912551879883,0.1289495953478928,0.1251792542485179,3.087151176321915,0.011919411830604,0.0247780587524175,0.0520744435489177,0.2628395977802574,0.0037732722144573,-9.944087179899215,14955.0
26.39,2.700000047683716,318.0,23.63746452331543,22.46376037597656,-79.7827406304145,40.45899618646983,291.6317142944336,0.0039344113320112,-0.0161476228386163,-0.8012275099754333,0.5981290936470032,0.1587962186288274,0.1213605996170066,3.0788963555704894,0.204053908586502,0.0859008356928825,0.0377671830356121,0.2641838543862104,0.0727356807980686,-9.799622361660004,14956.0
26.59,2.799999952316284,332.0,23.666261672973643,22.37629127502441,-79.78274018806798,40.45899616770225,292.2619976501465,0.006870977114886,-0.0148151563480496,-0.8011540770530701,0.5982353091239929,0.0931082007236598,0.1634891556661755,3.0482270556432405,-0.0943070128560066,-0.0291766542941331,-0.0934109091758728,0.2536529276333749,0.1501920563355088,-9.684049805402756,14957.0
26.69,2.799999952316284,329.0,23.72761344909668,22.034364700317383,-79.78274014587149,40.45899607965502,292.5663380126953,0.0033740929793566,-0.0155662931501865,-0.8005542159080505,0.5990486145019531,0.1034253472700346,0.1596226057599995,3.0296211020492043,-0.2121351361274719,-0.0828198492527008,-0.0566712468862533,0.2911425517871976,0.2336817077547312,-9.627225978970529,14957.0
26.79,2.900000095367432,323.0,23.5786190032959,24.141586303710927,-79.78274007484914,40.45899596948434,292.892153213501,-0.0008525101002305,-0.0174326431006193,-0.8000593781471252,0.5996670722961426,0.1470725342904069,0.135859015061823,3.0017572118987053,-0.0615001693367958,0.0060160579159855,-0.058199543505907,0.3316227526590228,0.2545643623732031,-9.549335219264028,14957.0
27.0,3.0999999046325684,323.0,23.5886344909668,23.839418411254893,-79.7827398529186,40.45899580593525,293.5206741790772,-0.0071365796029567,-0.0200119577348232,-0.7993693947792053,0.6004641652107239,0.1956282448411284,0.1360466447480771,3.0026536375027364,-0.1171246692538261,-0.0102264797315001,-0.0867486596107482,0.3142571434378624,0.4328395539522171,-9.764753660559654,14958.0
27.09,3.0999999046325684,325.0,23.59239196777344,23.24303436279297,-79.78273981746442,40.45899569928255,293.8217186431885,-0.0073759341612458,-0.023052429780364,-0.799211323261261,0.6005626916885376,0.2126929517171314,0.136188527208689,3.00399467762168,0.0560229457914829,-0.0168754402548074,0.1350672543048858,0.3457115456834436,0.0865137217193841,-9.87974091053009,14958.0
27.3,3.0999999046325684,328.0,23.598651885986328,23.92688751220703,-79.78273950113417,40.45899545433571,294.4425510864258,-0.0040879030711948,-0.027881670743227,-0.7999244928359985,0.5994386672973633,0.2067152816127107,0.1797723284512673,3.001176516321937,-0.0393464677035808,0.0682663023471832,-0.1190047338604927,0.3945179623737932,0.4900078544765711,-9.730626971125604,14959.0
27.4,3.2000000476837163,332.0,23.48221015930176,24.84134101867676,-79.78273944206691,40.458995363172015,294.7432732086182,-0.0029876565095037,-0.0298144128173589,-0.8001255393028259,0.5990837812423706,0.2019137163937497,0.1913396225837845,2.994167304982639,0.0661987662315368,0.079347550868988,0.0564389713108539,0.3859798946231604,0.2957501577213407,-9.801022185087202,14959.0
27.59,3.2000000476837163,333.0,23.633708953857425,23.529298782348643,-79.78273918127141,40.45899521756817,295.36304516601564,-0.0008543548174202,-0.0287480223923921,-0.8003130555152893,0.598892331123352,0.1644385170098171,0.2027141637931353,3.018594411447745,-0.1552739292383194,-0.1314788460731506,0.0567194409668445,0.3342885713651776,0.1841791800409555,-9.945062495470047,14960.0
27.69,3.2000000476837163,334.0,23.47970771789551,25.31049728393555,-79.78273913636416,40.4589951561436,295.6667236785889,-0.0026993232313543,-0.0294091943651437,-0.8004634976387024,0.5986536145210266,0.1680286316116448,0.1880865049395908,3.0307073982891364,0.1205761730670929,0.0298292562365531,0.0026480283122509,0.4387028494477273,0.1773772054351866,-9.935911602973938,14960.0
27.9,3.299999952316284,333.0,23.583627700805664,22.718217849731445,-79.78273887326603,40.45899497339214,296.28373379516603,-0.0030127936042845,-0.0289845205843448,-0.8007082939147949,0.5983453989028931,0.1497098320672445,0.173765000314381,3.0507078811656703,-0.0910200625658035,-0.0628364533185958,-0.0038063554093241,0.3949214202538133,0.2441317784786224,-9.882832918167113,14961.0
28.0,3.299999952316284,331.0,23.48471450805664,25.80350685119629,-79.78273866200108,40.4589949651828,296.59400410461427,-0.0024070465005934,-0.0290160253643989,-0.8006086349487305,0.5984799265861511,0.143509134464051,0.1724684726918564,3.03377514237818,0.0626098215579986,0.02699008397758,0.0558343827724456,0.4039528833702207,0.1877204731106758,-9.772752066850662,14961.0
28.2,3.299999952316284,331.0,23.44089317321777,24.57893371582031,-79.78273859073751,40.458994934475335,297.2007488708496,-0.0013737935805693,-0.0273195132613182,-0.8004968762397766,0.5987125039100647,0.1195521849528475,0.161236784337853,3.012621963699408,0.0973612368106842,-0.028322260826826,0.0218744743615388,0.4489242209494114,0.1530824812129139,-9.712904645204542,14962.0
28.39,3.299999952316284,332.0,23.474699020385746,24.920860290527344,-79.78273847629701,40.45899490441737,297.81448979187013,0.0012054019607603,-0.0264608524739742,-0.800714910030365,0.598459780216217,0.0654087410330927,0.1331400498727919,3.0250042329771323,-0.112284779548645,-0.0876707509160041,-0.0168996881693601,0.3097166343033314,0.2086970486305654,-9.952764447927477,14962.0
28.49,3.299999952316284,332.0,23.65249061584473,23.441829681396484,-79.7827383509748,40.45899490559074,298.13081402587886,0.0001881321077235,-0.0259770583361387,-0.800857663154602,0.5982910990715027,0.0854981506115735,0.1261278188955474,3.045296955413723,0.0919423252344131,0.0125181647017598,0.0802215635776519,0.3322677736356854,0.0986388918198645,-9.94101388335228,14963.0
28.59,3.299999952316284,332.0,23.47094345092773,24.316524505615234,-79.78273835621705,40.45899492589778,298.43470616149904,-0.0024388642050325,-0.0255628060549497,-0.8006876111030579,0.5985316038131714,0.0575851732640262,0.1185099213867848,3.02483605190486,-0.1901402175426483,-0.0938265398144722,-0.1655457764863968,0.3122156611829996,0.4714188250154257,-9.629950196743012,14963.0
28.8,3.299999952316284,331.0,23.40959167480469,25.20712280273437,-79.78273824337029,40.45899498326222,299.05278248596187,-0.0037423460744321,-0.0227023176848888,-0.7995136976242065,0.6002071499824524,0.0741221038982119,0.0793034516580423,3.0314365228674465,0.1238099336624145,0.0647473558783531,0.0025730701163411,0.3343698111176491,0.2537355012819171,-9.883291339874267,14964.0
28.89,3.299999952316284,328.0,23.53229331970215,23.86327362060547,-79.78273824727532,40.45899502775927,299.3569225769043,-0.0032532557379454,-0.0232599098235368,-0.7991198897361755,0.6007127165794373,0.0455214844929447,0.0821880263018189,3.047943302065435,-0.0843254476785659,-0.0005274632130749,-0.083150491118431,0.3764387735724449,0.3237730849161744,-9.928242394924164,14964.0
29.09,3.400000095367432,329.0,23.54105758666992,23.537250518798828,-79.78273810081227,40.458995074869314,299.97510762023927,-0.0014573545195162,-0.0223207436501979,-0.7992182374000549,0.600624680519104,0.0400288681721178,0.0987634334673393,3.031329883180967,0.0369314178824424,-0.0534225404262542,0.0911250784993171,0.4210444774478673,0.0261304758489132,-9.775598491430284,14964.0
29.29,3.400000095367432,328.0,23.51226043701172,24.05411529541016,-79.78273797286153,40.45899518270183,300.59170574951173,0.0015356326475739,-0.0245911516249179,-0.7994577884674072,0.6002168655395508,0.0030020824869899,0.1051788937021266,3.0193902860752484,-0.0965378805994987,-0.0252024494111538,0.0092642800882458,0.4142223847657441,0.2182017159461976,-9.7138828843832,14965.0
29.39,3.400000095367432,327.0,23.41835594177246,25.46953201293945,-79.78273796190305,40.458995245702354,300.8934616546631,0.0020489164162427,-0.0242732912302017,-0.7998262047767639,0.5997371673583984,0.0117082039070791,0.1171493346919859,3.0131083316164515,0.0122108021751046,0.0011657255236059,-0.0198787115514278,0.390838163383305,0.30277438133955,-9.728799716234208,14965.0
29.49,3.400000095367432,327.0,23.473445892333984,23.60086441040039,-79.78273795210198,40.458995313595,301.1944088439941,0.0028130083810538,-0.0234640333801508,-0.8000022768974304,0.599531352519989,-0.0002465233849127,0.1089716778692506,3.008445204274183,-0.0363551080226898,-0.0825150310993194,0.056653156876564,0.4031237116456032,0.1039036334306001,-9.830825443267823,14966.0
29.7,3.400000095367432,327.0,23.430877685546875,24.41989707946777,-79.78273786628299,40.45899542962074,301.812900970459,0.0073136487044394,-0.0215924773365259,-0.7993422746658325,0.6004433631896973,-0.0212996945285882,0.1004796018180414,3.022278823864432,-0.0710318759083747,-0.0286601297557354,-0.0492650531232357,0.3455909834057093,0.2102222217433154,-9.846380206346511,14966.0
29.79,3.5,326.0,23.397071838378903,25.89097595214844,-79.78273764218311,40.458995522489225,302.12029881286617,0.0056590153835713,-0.0210997350513935,-0.7989611625671387,0.6009858250617981,-0.0349201399985043,0.1057729266215207,3.0260022974838217,-0.1286595165729522,-0.0314226895570755,-0.1657804697751999,0.3817602514475584,0.4542655793577433,-9.785144070982932,14967.0
29.99,3.5,324.0,23.43838882446289,23.40207099914551,-79.78273751135109,40.4589956091999,302.7402233581543,0.0016957254847511,-0.0192236509174108,-0.7987814545631409,0.6013118624687195,-0.015716531487658,0.08760585809557,3.061101635215685,-0.1247725412249565,-0.107813648879528,0.0157045777887105,0.3802265633270145,0.226835403945297,-10.061011612415315,14967.0
30.19,3.5,322.0,23.37703895568848,24.6027889251709,-79.78273753239559,40.45899573605013,303.3552956085205,0.0032804016955196,-0.0178955476731061,-0.799270749092102,0.6006956696510315,0.0013128441902307,0.0609257205770361,3.064668402303066,0.104875735938549,0.0226606912910938,0.1149126589298248,0.3096211785078049,-0.0172770239040255,-9.732060123682023,14968.0
30.29,3.5,320.0,23.49222755432129,24.41989707946777,-79.78273743715535,40.458995798380776,303.66977352905275,0.0055409953929483,-0.0164129622280597,-0.7994856238365173,0.6004354953765869,-0.0073957293214882,0.0696791301840791,3.0567321925754687,0.0706918314099311,-0.0229173935949802,-0.1248369961977005,0.4383479600027204,0.3278103680536151,-9.803082159161567,14968.0
30.4,3.5,320.0,23.447153091430664,23.990501403808597,-79.78273745433046,40.45899585337915,303.9761661987305,0.0060596447438001,-0.0169387497007846,-0.7988331317901611,0.6012837290763855,-0.026224253253822,0.0704884226690861,3.0773917870269,-0.1442819684743881,-0.0215594451874494,0.0327033326029777,0.3987049342319369,0.0522578088194131,-10.00281193614006,14968.0
30.6,3.5,321.0,23.400827407836918,25.000377655029297,-79.78273736391915,40.45899592450958,304.6040768127441,0.001243821461685,-0.0191841218620538,-0.7966448068618774,0.6041420698165894,0.0294324125034723,0.0914744603992143,3.10403036538026,-0.0692971646785736,-0.0959623605012893,0.054290547966957,0.4132163347676397,0.334796255864203,-9.990048633813856,14969.0
30.79,3.5,321.0,23.52102470397949,23.21122741699219,-79.78273735756567,40.458995933632494,305.23733181762697,0.002168589271605,-0.0187207628041505,-0.7975950837135315,0.6028988361358643,0.0500506387158774,0.0689872593035575,3.1853402052976274,-0.1255659013986587,0.0014105350710451,0.0673787668347358,0.3602091687172652,0.3683430842310189,-10.241409909725188,14970.0
30.9,3.5,322.0,23.57110595703125,23.250986099243164,-79.78273737357722,40.458995940818745,305.55651516723634,-0.001183739863336,-0.0253274831920862,-0.7997985482215881,0.5997327566146851,0.0632391738480482,0.0964778013412024,3.1905631447207083,-0.0882306545972824,-0.0493941083550453,0.1025978773832321,0.5362960581108928,0.1181009014416486,-9.983321996927264,14970.0
30.99,3.5,323.0,23.47595024108887,21.74015045166016,-79.78273726615807,40.45899583466953,305.8803066711426,-0.0027671342249959,-0.0274909026920795,-0.8015571236610413,0.5972795486450195,0.1041809097809522,0.1093423661954073,3.1507162916363924,0.1152766793966293,0.0580700933933258,0.063221238553524,0.4756029829010368,0.3308263253420591,-9.80970471560955,14970.0
31.19,3.5,324.0,23.59990310668945,21.565210342407227,-79.78273727211014,40.45899584894544,306.5122684936524,9.563748608343305e-05,-0.0256403572857379,-0.8012067675590515,0.5978380441665649,0.0921475840743783,0.1366901571399685,3.15023775372246,0.0264154411852359,0.0236493796110153,-0.0027363162953406,0.4347383276000619,0.3609441637247801,-9.734491980671883,14971.0
31.29,3.5,326.0,23.660001754760746,20.34063720703125,-79.78273713545553,40.45899581545753,306.831455657959,0.0007796846912242,-0.0274517312645912,-0.8002144098281859,0.5990850329399109,0.1010580029416594,0.1301501983444476,3.092559612328581,-0.0199294406920671,0.0689869374036789,-0.0459131598472595,0.4342434704303741,0.3810949113965035,-9.46483067393303,14971.0
31.5,3.5,327.0,23.54481315612793,24.730016708374023,-79.78273702287697,40.45899578503241,307.46630139160163,0.0019909790717065,-0.0316941738128662,-0.7992046475410461,0.6002194881439209,0.1128964744829352,0.1492855832031713,3.0294171232173315,0.0990505293011665,0.0523725822567939,0.001969427568838,0.4804371684417129,0.3311207326501608,-9.483826523423197,14972.0
31.59,3.5,330.0,23.52102470397949,23.10785484313965,-79.78273702780166,40.458995785563815,307.76893658447267,0.0038010086864233,-0.0316801629960536,-0.7991138696670532,0.6003323793411255,0.1063172360702512,0.1565790644253951,3.0128556835914524,0.0703214034438133,0.0448997914791107,-0.0879073515534401,0.5207538300007581,0.3559329171851277,-9.558016580343248,14972.0
31.81,3.5,330.0,23.53855323791504,23.083999633789062,-79.78273681908423,40.45899561458047,308.40906567382814,0.0023461091332137,-0.0262157469987869,-0.7984589934349059,0.6014736890792847,0.0847796984143714,0.1516177046404695,3.0424975605735947,0.0440677404403686,-0.0377811305224895,0.0882957503199577,0.4205195071175695,0.1676508738286793,-9.83164990067482,14973.0
31.9,3.400000095367432,332.0,23.59113883972168,22.16159439086914,-79.78273682739027,40.45899562334912,308.7147449951172,0.0022305950988084,-0.0248952414840459,-0.7980080246925354,0.602128267288208,0.0742100763761021,0.1244852168514125,3.062160274444491,-0.0064839697442948,0.0437352769076824,-0.0510069727897644,0.3650954310223461,0.2361514620110393,-9.910765067338945,14973.0
32.1,3.400000095367432,330.0,23.48221015930176,21.84352302551269,-79.78273658175486,40.4589955793298,309.35458798217775,0.0019033906282857,-0.0278787594288587,-0.7977088689804077,0.6023950576782227,0.0683586600569259,0.1411829647030141,3.0707300602477305,0.0006629917188547,0.0318271592259407,-0.1068192571401596,0.4329978307709098,0.4276663760840893,-9.704745440483093,14974.0
32.19,3.400000095367432,326.0,23.499740600585927,22.92496490478516,-79.78273657445357,40.458995600673866,309.6619457702637,0.0015445853350684,-0.0266810692846775,-0.7977240681648254,0.6024301052093506,0.0702577080942477,0.1370586620778001,3.0657900777171205,0.0622054263949394,-0.0099520366638898,-0.043095912784338,0.4946800721436739,0.2068351672589779,-9.786366139054303,14974.0
32.4,3.400000095367432,325.0,23.51100730895996,22.137739181518555,-79.78273651911138,40.45899560578498,310.2987102966309,0.0057666809298098,-0.0221804268658161,-0.7981187105178833,0.602064311504364,0.0312804755774215,0.1160496371633757,3.087569063886112,0.0110231665894389,-0.0483806617558002,-0.0003612289438024,0.413545642644167,0.053850873587653,-9.775327765345574,14975.0
32.6,3.400000095367432,322.0,23.51601600646973,22.0661735534668,-79.78273640922178,40.45899556157672,310.9344181518555,0.0068557006306946,-0.0198198016732931,-0.7996032238006592,0.6001623868942261,0.0087026410487268,0.1171751641059366,3.084926777691732,0.0168370604515075,-0.0689014792442321,0.1445652246475219,0.4209186892211437,0.0601049549505114,-9.722791702151303,14975.0
32.7,3.299999952316284,321.0,23.54857063293457,21.14376640319824,-79.7827364056913,40.4589955948349,311.24313778686525,0.0079630771651864,-0.0192512087523937,-0.8000466823577881,0.5995759963989258,0.0046158967521212,0.1191020808912178,3.081822149101207,0.0778954550623893,0.0128571996465325,0.1254551708698272,0.4430053403601051,-0.0180590341798961,-9.767170899510385,14976.0
32.79,3.299999952316284,315.0,23.59489631652832,22.424001693725582,-79.78273627246351,40.458995640503176,311.5692066650392,0.0090799070894718,-0.0203821510076522,-0.8001565933227539,0.5993760824203491,-0.0146814900215925,0.1226251648484097,3.080723040319976,0.008703582920134,0.0419722236692905,0.0483835078775882,0.4176377799734473,-0.0316305404808372,-9.65014998793602,14976.0
33.0,3.299999952316284,313.0,23.54731750488281,23.25893783569336,-79.78273613665323,40.458995660092,312.1994404296875,0.0103524308651685,-0.021502686664462,-0.7997713088989258,0.5998303890228271,-0.0165228444703157,0.1435838104967633,3.0548909720840034,0.0167296566069126,0.0025971289724111,-0.0504500269889831,0.4121569289267064,0.1145412353239953,-9.543433039784432,14977.0
33.09,3.2000000476837163,309.0,23.48221015930176,24.714113235473643,-79.78273612783404,40.45899570680053,312.5042080383301,0.0108085814863443,-0.0222848579287529,-0.7993966341018677,0.6002928614616394,-0.0263524856432076,0.1297052132392201,3.0395623061591457,-0.021550714969635,0.0628014206886291,-0.0324917510151863,0.3379531675949693,0.1015697081666439,-9.606008187532426,14977.0
33.3,3.2000000476837163,304.0,23.45216178894043,23.09990310668945,-79.78273606485763,40.45899570039903,313.1340984802246,0.0142898503690958,-0.0207831896841526,-0.7991385459899902,0.6006176471710205,-0.0295566773102847,0.1338396755642093,3.0934149652002474,-0.04050113260746,-0.0817146822810173,-0.0125235421583056,0.4338222516328097,0.065131660066545,-9.990918699502943,14978.0
33.49,3.299999952316284,299.0,23.460926055908203,23.457733154296875,-79.78273605077328,40.458995742248725,313.76112789916994,0.0127051584422588,-0.0168223697692155,-0.799503743648529,0.6002911925315857,-0.0513073895825512,0.110318537128841,3.116727138625022,0.0073179458267986,-0.0475432090461254,0.0690426304936409,0.4151841786503792,-0.139689232762903,-9.965554647445677,14978.0
33.6,3.299999952316284,297.0,23.54230880737305,22.6227970123291,-79.78273607236133,40.45899579826912,314.0734981994629,0.0120177678763866,-0.0166365504264831,-0.7994914650917053,0.6003267765045166,-0.0570512641656607,0.0980690278987193,3.1254564994689784,0.0156020447611808,0.0036574399564415,0.04056091979146,0.4187479835003615,-0.1734624762833118,-9.862976943254472,14979.0
33.69,3.299999952316284,293.0,23.61492919921875,21.891233444213867,-79.78273608888624,40.45899585683165,314.38541836547853,0.0117524545639753,-0.0176445860415697,-0.7990333437919617,0.6009129285812378,-0.0623614551724479,0.0983654990705531,3.109524865773825,-0.0398635268211364,-0.053961593657732,-0.0240854788571596,0.4804624941945077,-0.0631285593006759,-9.681511529088018,14979.0
33.9,3.299999952316284,291.0,23.430877685546875,24.904956817626957,-79.78273611560172,40.458995891036686,315.0014118652344,0.0149387866258621,-0.0220057275146246,-0.7976865768432617,0.6024855375289917,-0.0448306495801354,0.0912993859032491,3.010323996013313,0.1250167042016983,0.0466828495264053,-0.009806833229959,0.4723433429002762,-0.0901055840682238,-9.306152443885804,14980.0
33.99,3.299999952316284,288.0,23.370779037475582,23.489540100097656,-79.78273606132294,40.45899583900128,315.3140186767578,0.0137773808091878,-0.0194499306380748,-0.7969096899032593,0.6036282181739807,-0.0489422856572879,0.1105621229576172,2.9772663771100984,-0.0291051603853702,-0.0732423886656761,-0.1092265769839286,0.494528007991612,0.1176050392817706,-9.273474109768868,14980.0
34.2,3.299999952316284,288.0,23.39957618713379,23.38616752624512,-79.78273614125608,40.45899595001038,315.9036907653809,0.0123741794377565,-0.010846902616322,-0.7952083349227905,0.6061130166053772,-0.0518440875862,0.0593286896527232,2.931353452225537,-0.0055819922126829,-0.0340558029711246,-0.1188801676034927,0.3088728079944849,0.185856746211648,-9.58199718117714,14980.0
34.39,3.299999952316284,287.0,23.22804450988769,26.169288635253903,-79.78273602465302,40.458995900863854,316.51723141479494,0.0104923648759722,-0.0145755112171173,-0.7932758331298828,0.6085976362228394,-0.0714980760936417,0.036634186295091,2.9673993058792414,-0.2296222597360611,0.089930735528469,-0.2180757373571396,0.3045912756957113,-0.0820826834253966,-9.653416242599487,14981.0
34.49,3.299999952316284,287.0,23.29315185546875,26.853139877319336,-79.78273605692951,40.45899594296368,316.82029766845704,0.0098353680223226,-0.0191288813948631,-0.793130099773407,0.6086723804473877,-0.020535328089267,0.0655493361240835,3.014704937805155,0.0077671650797128,-0.0015460603171959,0.0656513124704361,0.3672550270333886,0.1067179165966808,-10.060067871809006,14981.0
34.6,3.400000095367432,288.0,23.38329887390137,24.268814086914062,-79.78273609707827,40.45899597263733,317.1237835388184,0.0078845527023077,-0.0183730963617563,-0.7933966517448425,0.608376681804657,0.0105643805589321,0.0873994675997561,3.0524111672520937,0.1074070185422897,-0.0220659058541059,0.001982505666092,0.4236938508599997,0.2006879528984428,-10.13294873714447,14982.0
34.8,3.5,288.0,23.33196449279785,25.962541580200195,-79.7827361512555,40.45899602996314,317.72276348876954,0.0044225719757378,-0.0109220826998353,-0.7948781251907349,0.6066547036170961,0.0076129822183796,0.0647808571159354,3.0412975147126526,-0.044637706130743,-0.0844585224986076,0.0648464486002922,0.3539379202947021,0.0534336930233985,-9.710234221816064,14982.0
35.0,3.5,293.0,23.258094787597656,25.42977333068848,-79.7827361796916,40.4589959775756,318.32283825683595,0.0046721398830413,-0.0148943914100527,-0.7962266206741333,0.6047971844673157,0.0375751112011452,0.0597899840649476,3.0736973723881267,0.058112796396017,0.1194195821881294,0.1615573465824127,0.4395970349013806,0.0333508370071649,-10.126770569086077,14983.0
35.11,3.5,293.0,23.40959167480469,23.219179153442383,-79.78273618702488,40.45899596876185,318.632538269043,0.0061958036385476,-0.0171244796365499,-0.7972666025161743,0.6033526062965393,0.0551252116711274,0.0885403883195056,3.1153226911379623,0.0496909543871879,0.0113881984725594,0.0861908495426178,0.4116086062788963,0.1509229034744203,-10.175192531347276,14983.0
35.19,3.5,299.0,23.54481315612793,22.47171401977539,-79.78273619676288,40.458995943815,318.94559902954103,0.0107756005600094,-0.0186732523143291,-0.798934817314148,0.6010311245918274,0.0628836844332162,0.1053193006745918,3.1361109887629173,0.0289628598839044,0.132019892334938,-0.003322435542941,0.3444861885532737,0.4295269966498017,-9.974859906435013,14983.0
35.4,3.5,301.0,23.45466613769531,23.147613525390625,-79.7827363453522,40.45899579673826,319.53950161743165,0.0085839992389082,-0.0217072870582342,-0.8023679256439209,0.5963732004165649,0.0698265343105055,0.1228614813692914,3.0646602362899245,0.0409083180129528,0.0136345317587256,0.0863446816802024,0.3748250882327557,0.0250902539002709,-9.63266155064106,14984.0
35.5,3.400000095367432,311.0,23.43588447570801,23.42592620849609,-79.78273639829618,40.458995681142994,319.83385891723634,0.0015916026895865,-0.0215177666395902,-0.8030441403388977,0.5955289006233215,0.0664887662267909,0.1159656640157955,3.025992503272708,-0.185534581542015,-0.0769072696566581,-0.0595736168324947,0.3629846958070993,0.2790892658941448,-9.53623102426529,14984.0
35.69,3.400000095367432,313.0,23.315689086914062,24.45965576171875,-79.78273648407917,40.458995643339456,320.4366688232422,-0.0038255807012319,-0.0210665687918663,-0.8018425107002258,0.5971518158912659,0.119917168672856,0.056309103675019,3.0074996365028586,0.1238744705915451,-0.0210755951702594,0.0153068024665117,0.3782576230913401,0.1354921379126608,-9.809063276052475,14985.0
35.79,3.299999952316284,319.0,23.43964195251465,24.57893371582031,-79.78273651917989,40.45899554168085,320.73145336914064,-0.000921212893445,-0.0183826386928558,-0.8006031513214111,0.598912239074707,0.1177268579751707,0.0558740629651261,3.0252597962675853,0.1142686158418655,0.0559889450669288,0.0042197299189865,0.2364818845130504,0.18067700849846,-9.877300282716751,14985.0
35.99,3.299999952316284,321.0,23.38204765319824,22.17749786376953,-79.78273651401697,40.45899542062021,321.32902951049806,0.0020700234454125,-0.0162987448275089,-0.7976142764091492,0.6029441356658936,0.0909340069367682,0.0691514623771458,3.0440602689234675,0.1431819200515747,0.012469726614654,-0.0180076528340578,0.3604114458337426,-0.0352661975612863,-9.987008081674576,14986.0
36.09,3.2000000476837163,325.0,23.310680389404297,24.594837188720703,-79.78273653925426,40.4589954063937,321.63471646118165,0.0015164746437221,-0.0158088635653257,-0.7967705726623535,0.6040732860565186,0.0607136354515618,0.0754962311000344,3.059067840434874,-0.0704476311802864,-0.0419214814901351,-0.083661250770092,0.3176426082104445,0.2730944994091988,-9.881166461706163,14986.0
36.29,3.0999999046325684,327.0,23.40834045410156,23.05219268798828,-79.78273665220019,40.45899536776783,322.23009533691413,0.0010610444005578,-0.0137739609926939,-0.7955655455589294,0.605709969997406,0.0662715245540037,0.0540463996525832,3.061259478743388,-0.0125228948891162,0.0317490063607692,-0.0644339993596077,0.2503713605739176,0.2438203959725797,-9.881726624965667,14987.0
36.39,2.900000095367432,330.0,23.35575485229492,25.318449020385746,-79.78273668814771,40.45899535822408,322.53696102905275,0.0011386119294911,-0.0147192943841218,-0.7951300144195557,0.6062594056129456,0.0605859186004094,0.046824180995162,3.0748332020770137,-0.1442485749721527,-0.0671541765332222,-0.0052207633852958,0.2533052923902869,0.1453632794693112,-9.946868115663529,14987.0
36.59,2.900000095367432,329.0,23.310680389404297,25.135557174682607,-79.78273676238281,40.45899523110654,323.14217419433595,-0.0009147772216238,-0.0169994365423917,-0.7956349849700928,0.6055371165275574,0.076273672337514,0.0605822163367062,3.1058632845237195,-0.0289856325834989,-0.0289730709046125,-0.065289556980133,0.3504954817146063,0.225025855153799,-10.025980943441391,14988.0
36.8,3.0,326.0,23.44464874267578,22.41604995727539,-79.78273693168144,40.45899511137172,323.74232525634767,-0.0038694073446094,-0.0157641284167766,-0.7965126037597656,0.6044040322303772,0.0638947221802412,0.0528923285099485,3.049509978864922,-0.0834259986877441,-0.0496741458773613,0.0107678873464465,0.2505993837118149,0.019181329566054,-9.813743387460711,14988.0
36.89,3.0999999046325684,323.0,23.341981887817383,24.88109970092773,-79.78273694524313,40.458995120287454,324.0446590881348,-0.0010462674545124,-0.0138338608667254,-0.7967870831489563,0.6041009426116943,0.0614116239639356,0.0514337792421811,2.9969308017032223,0.0517836809158325,0.0710342600941658,0.0227993763983249,0.2082310438156128,0.1058835828769952,-9.31384971857071,14989.0
36.99,3.0999999046325684,319.0,23.348241806030277,25.000377655029297,-79.78273702352419,40.45899504625203,324.34175152587886,0.0023416150361299,-0.013725466094911,-0.7968382835388184,0.6040322780609131,0.0198181222095858,0.0545335861258422,2.9738927486411937,-0.0966190174221992,0.0003970220568589,-0.0745050907135009,0.2865453612059355,0.1591754078306257,-9.46280578315258,14989.0
37.21,3.2000000476837163,316.0,23.32695770263672,24.642547607421875,-79.78273699798577,40.4589951049584,324.9336056213379,0.0055764913558959,-0.0153354909271001,-0.7973817586898804,0.6032545566558838,-0.0066053785602927,0.0920010384744089,2.9553698085202087,-0.0054825353436172,-0.0214834064245224,-0.0439972504973411,0.3429195732995868,0.1268056422472,-9.762327650785444,14989.0
37.3,3.299999952316284,311.0,23.37954330444336,23.93483924865723,-79.78273699639708,40.45899503479738,325.2381596069336,0.0071530183777213,-0.0151981692761182,-0.7977771162986755,0.6027184724807739,2.716386718254124e-05,0.1105588408411791,2.988580617039438,0.1870047301054,0.1006035879254341,0.0892694443464279,0.4097481318935752,-0.0595502734556794,-9.823737448453905,14990.0
37.5,3.400000095367432,310.0,23.3494930267334,24.84134101867676,-79.7827368838879,40.45899503929444,325.8340382080078,0.0057606357149779,-0.0144476713612675,-0.7983838319778442,0.6019480228424072,-0.0416447930260713,0.126658325115769,3.016368258900204,-0.10550307482481,0.0231007281690835,-0.0173999052494764,0.4460176065936685,-0.0050273669249145,-9.946629549264909,14990.0
37.7,3.400000095367432,309.0,23.211767196655277,26.05796241760254,-79.78273675021408,40.458995104852136,326.442108581543,0.0077167688868939,-0.016298783943057,-0.7982280850410461,0.6020854711532593,-0.0176847680179796,0.1488101105777777,3.056084194418025,-0.0061562564224004,-0.0290608834475278,0.0412606671452522,0.4127170921862125,-0.1136614669114351,-10.033225643634797,14991.0
37.8,3.5,307.0,23.417104721069336,23.04424095153809,-79.78273670027461,40.45899508147693,326.73827404785163,0.0095339156687259,-0.018716799095273,-0.7977256774902344,0.6026546359062195,-0.0224398985827564,0.1420434284630363,3.067457148385785,0.0673857033252716,0.1636673808097839,0.0675808563828468,0.3242786497995257,0.0495653670094907,-9.986789395809174,14991.0
37.89,3.5999999046325684,303.0,23.261850357055664,25.708086013793945,-79.78273664896871,40.45899511321391,327.0451473693848,0.0108895394951105,-0.021116055548191,-0.7971963286399841,0.6032525897026062,-0.0292558580830103,0.1555986413051399,3.05807640022359,-0.1060393154621124,-0.0125686721876263,-0.022273451089859,0.3752445163205266,0.1485662562958896,-9.758642735481263,14992.0
38.09,3.700000047683716,303.0,23.40583610534668,24.411945343017567,-79.78273653371187,40.45899511806308,327.64397091674806,0.0053458921611309,-0.0186055917292833,-0.7973498106002808,0.6032070517539978,-0.0176993994934841,0.1669966617983285,3.0542677257133444,-0.050052210688591,-0.1488631069660186,-0.0517351031303405,0.4353132185339928,0.1281265739444643,-9.865233968496325,14992.0
38.2,3.5999999046325684,307.0,23.36451911926269,23.56110572814941,-79.78273648249697,40.45899514599866,327.94986767578126,0.003971274010837,-0.016870817169547,-0.7973881363868713,0.6032178997993469,0.0067549976159497,0.1405172139442532,3.0558836196315067,0.1052966192364692,0.0441870652139186,0.0053097144700586,0.3540684228390455,0.1227082241512835,-9.84826885700226,14992.0
38.4,3.5,309.0,23.35074615478516,24.141586303710927,-79.78273641592331,40.45899513935776,328.55399746704103,0.0085287000983953,-0.0213669221848249,-0.7967965602874756,0.6038095355033875,0.0002644673055584,0.1403219740214616,3.0834573228565603,-0.1157238408923149,0.0502564385533332,-0.056882657110691,0.3372927976772189,0.3786498250812293,-9.979103815555574,14993.0
38.59,3.5,317.0,23.31694030761719,23.82351493835449,-79.78273635791588,40.45899513636044,329.1602901916504,0.0047264108434319,-0.0262003149837255,-0.7957082986831665,0.6050946712493896,0.033270059326566,0.1553175275627677,3.0745932012736312,-0.1462186276912689,-0.0879967808723449,-0.0498068407177925,0.3976994324102998,0.1332513021491468,-9.885397506952287,14994.0
38.69,3.400000095367432,318.0,23.221784591674805,25.54904937744141,-79.78273635361872,40.45899514287144,329.4676403503418,0.0043784566223621,-0.0251713301986455,-0.7947192192077637,0.6064392924308777,0.0823006069157516,0.1409952435462598,3.063545892128841,0.1860739588737488,-0.0262559205293655,0.1100745275616645,0.3366770858690143,0.0847355651669204,-9.712482476234436,14994.0
38.79,3.299999952316284,322.0,23.30942726135254,24.06206703186035,-79.78273633828984,40.45899510187843,329.76833004760744,0.0057526053860783,-0.0210867729038,-0.7941040992736816,0.6073886156082153,0.06507380722497,0.1288166076735408,3.077643857385308,-0.017170974984765,-0.1158619821071624,-0.0456890985369682,0.2958296615816653,0.2327384239621461,-9.912332121133804,14994.0
39.0,3.2000000476837163,324.0,23.294403076171875,23.68833541870117,-79.78273635882658,40.458995041642254,330.3794979553223,0.0074505251832306,-0.019707579165697,-0.7955636382102966,0.6055036187171936,0.0506907618530682,0.1036838798261235,3.1020768489059414,0.0021477648988366,0.0252347514033317,0.0084849465638399,0.3407564689591527,0.25479945698753,-9.857999793291093,14995.0
39.1,3.2000000476837163,326.0,23.36451911926269,24.69820976257324,-79.78273638540328,40.45899503054296,330.68991513061525,0.0075231562368571,-0.0192626826465129,-0.7963249087333679,0.6045156121253967,0.0588503195732362,0.1024152123015038,3.098054698653748,-0.020255347713828,-0.0230250991880893,0.0340935438871383,0.3786485460028052,0.1477061765547842,-9.814163217544555,14995.0
39.3,3.2000000476837163,326.0,23.44965744018555,23.942790985107425,-79.7827364716181,40.45899496664281,331.30288739013673,0.004818775691092,-0.018515633419156,-0.7967314720153809,0.6040306091308594,0.0675609051468757,0.0892085329178779,3.095814613924229,-0.0446966774761676,0.0528539903461933,-0.0664258152246475,0.2890863418579101,0.2416882453300059,-9.78567324399948,14996.0
39.49,3.2000000476837163,330.0,23.400827407836918,22.408098220825195,-79.78273659830754,40.45899486921822,331.91701931762697,0.0021437546238303,-0.0214422103017568,-0.7962334752082825,0.6046056747436523,0.1010536464987114,0.0827117824581543,3.0868790723988897,-0.0572714768350124,0.0064979931339621,-0.1273476928472519,0.4027300843968988,0.2964240493252874,-9.807873952388764,14996.0
39.59,3.2000000476837163,331.0,23.407087326049805,23.46568489074707,-79.78273664386622,40.45899483418656,332.22526211547853,-0.0003058609727304,-0.0231974720954895,-0.7959069013595581,0.6049743890762329,0.1228632393932167,0.0876436744390734,3.0709740994358183,-0.0649688690900802,-0.0727397128939628,0.023978017270565,0.3243142081797123,0.2257171422243118,-9.663617879748346,14997.0
39.7,3.2000000476837163,333.0,23.448406219482425,21.891233444213867,-79.78273668965382,40.4589947986031,332.53189892578126,-0.0013021444901823,-0.0247766319662332,-0.7955862283706665,0.6053321361541748,0.1404788575814393,0.0826725874170822,3.058743845306758,0.0496760532259941,0.0083508249372243,0.1008784994482994,0.2999708241596818,0.1695036737434566,-9.734030050635338,14997.0
39.89,3.2000000476837163,333.0,23.36451911926269,22.63870048522949,-79.78273676267092,40.45899467458916,333.14708752441413,-0.0004110699519515,-0.0270622875541448,-0.7941760420799255,0.6070846915245056,0.1541924321516541,0.1035394708891235,3.051170222222047,0.0384741127490997,0.0335710309445858,-0.0148077616468071,0.4199266359955073,0.3019443690776825,-9.638870708942411,14998.0
40.09,3.299999952316284,334.0,23.42837333679199,23.55315399169922,-79.78273685066344,40.45899457293485,333.7541737060547,-0.0024417624808847,-0.0240351054817438,-0.7935051321983337,0.608083963394165,0.1576051541208924,0.0922710885435653,3.0069756887701766,0.0168967396020889,-0.0409760773181915,-0.0514255538582801,0.3932515285536647,0.4980028986185789,-9.573074330091476,14998.0
40.2,3.299999952316284,334.0,23.36076164245605,24.35628318786621,-79.78273689585265,40.45899453348985,334.0532955627441,-0.0041672731749713,-0.0242391284555196,-0.793633759021759,0.607898473739624,0.1515419051543201,0.0814392338186148,2.968318074385551,-0.0204673800617456,-0.0136072263121604,-0.0351027250289917,0.3835732902958989,0.2945365681126713,-9.455028401613236,14999.0
40.3,3.400000095367432,334.0,23.30692481994629,23.903032302856445,-79.78273690048627,40.458994395356775,334.3636593322754,-0.0051186485216021,-0.0256572254002094,-0.7936462759971619,0.6078167557716371,0.1808649270270999,0.0827999952568355,2.984840431521576,0.0313339233398437,0.0134460628032684,0.0095341941341757,0.3680495905503631,0.3727262301743031,-9.588078870177268,14999.0
40.49,3.5,335.0,23.480958938598643,22.479665756225582,-79.78273701329023,40.458994201525336,334.96425289916994,-0.0025757506955415,-0.0239940378814935,-0.7940154671669006,0.607418417930603,0.1738149951598965,0.103535378874313,3.0195673996619234,-0.0726543143391609,-0.0614403709769249,-0.0310679003596305,0.3789586311578751,0.4635278247669339,-9.884947271347048,14999.0
40.59,3.5,338.0,23.44464874267578,22.24906349182129,-79.78273704653225,40.45899414503581,335.2669224243164,-0.004026401322335,-0.0260011050850152,-0.7941957116127014,0.6070922613143921,0.1671400279573034,0.0954847729890554,3.0171952444472496,-0.0940029472112655,-0.0181534066796302,0.0043124412186443,0.3385071181878448,0.2630902423337102,-9.778973504304886,15000.0
40.8,3.5,339.0,23.363265991210927,23.43387794494629,-79.7827370591502,40.4589940562092,335.8676151733398,-0.0089524621143937,-0.0286137219518423,-0.7944191098213196,0.606629490852356,0.2075165326057092,0.113023619250577,3.0255666659717178,0.0735691264271736,-0.055561114102602,0.1498972922563552,0.3651998769119382,0.1876163013093173,-9.8682207262516,15000.0
40.99,3.5,342.0,23.42586898803711,22.37629127502441,-79.78273711517947,40.45899391836596,336.470802734375,-0.0069783837534487,-0.0291668158024549,-0.7935501337051392,0.6077654361724854,0.1987404481772892,0.0833071910148989,3.069732483276282,0.0376626066863536,-0.0186320357024669,0.1104800924658775,0.2924174275249243,0.22297253228724,-10.028187682628634,15001.0
41.09,3.5,344.0,23.59113883972168,20.78593635559082,-79.7827371438002,40.45899388710348,336.78004498291017,-0.0037387958727777,-0.0293647665530443,-0.7937136888504028,0.6075709462165833,0.1892395724848591,0.102721251169949,3.092865433966978,0.1959194988012313,0.0418959595263004,0.1212261319160461,0.4088634847104549,0.2300188108719885,-9.989068640470505,15001.0
41.2,3.5,346.0,23.45216178894043,22.54327964782715,-79.78273717455214,40.45899386309059,337.08953900146486,-0.0028349559288471,-0.0288784019649028,-0.7943932414054871,0.6067103147506714,0.162198924801454,0.1075210311397138,3.0783349820775032,0.0129397194832563,-0.0304612275213003,0.1154249161481857,0.2896374967508018,0.1868784557841718,-9.698699419498444,15002.0
41.4,3.5,348.0,23.52853775024414,20.300878524780277,-79.78273735619902,40.45899376934396,337.68189282226564,-0.0042862831614911,-0.0228586550801992,-0.7955930829048157,0.6053847670555115,0.1808809346617034,0.0746218356195352,3.0146361220346227,0.0055876742117106,-0.111921027302742,0.0805899128317833,0.2756638938747347,0.2351205613464117,-9.55468425214291,15002.0
41.59,3.5,352.0,23.576114654541016,20.261119842529297,-79.78273745611644,40.458993682094366,338.27625317382814,-0.0140003031119704,-0.0253933388739824,-0.7952864170074463,0.6055400967597961,0.1959822838891861,0.0309151684148952,2.9642260565386307,-0.0378509014844894,-0.0250494591891765,-0.0127194700762629,0.1670982936769724,0.3748808925971389,-9.49429537832737,15003.0
41.7,3.400000095367432,352.0,23.598651885986328,18.82184791564941,-79.7827375220348,40.45899363946206,338.5729984741211,-0.0170193444937467,-0.0262545309960842,-0.7949295043945312,0.6058944463729858,0.218660067418153,0.0321959023755043,2.957015797928105,0.0090492870658636,-0.015720248222351,-0.0466677546501159,0.3250826784968376,0.5543734196573497,-9.717815136909485,15003.0
41.8,3.299999952316284,353.0,23.58613204956055,20.300878524780277,-79.78273751191837,40.458993685513576,338.8733982543945,-0.0184229370206594,-0.0240956917405128,-0.7945656776428223,0.6064202189445496,0.1990790481873326,0.0333541079162609,2.985153314530264,-0.0202547349035739,-0.0341286547482013,0.0043234871700406,0.314220488704741,0.3755182756483555,-9.794442313313484,15003.0
42.0,3.299999952316284,353.0,23.68253898620605,17.19968605041504,-79.78273759387555,40.45899357231016,339.4686207275392,-0.0138578964397311,-0.0225128307938575,-0.7939073443412781,0.6074638366699219,0.1882452203063126,0.0411612899028118,3.0107517895260485,0.0360198467969894,0.0647792890667915,-0.0522839911282062,0.4413593126088381,0.4305968909338117,-9.869584296941758,15004.0
42.09,3.299999952316284,349.0,23.722604751586918,19.08425712585449,-79.78273758576556,40.458993553112094,339.7699970703125,-0.0107087008655071,-0.0251490604132413,-0.7936370968818665,0.6077771782875061,0.1645455554124239,0.0877357030407212,2.995127046801924,-0.0372396409511566,0.069125659763813,-0.0431042835116386,0.5465584697574377,0.4451443614810705,-9.653344906568528,15004.0
42.29,3.400000095367432,351.0,23.68379211425781,19.01269149780273,-79.78273759580294,40.45899347263117,340.3581547241211,-0.0102840438485145,-0.0321555733680725,-0.7932449579238892,0.6079660058021545,0.1715131938309108,0.1614161227527801,2.944403862122148,0.0213405769318342,0.1199174001812934,-0.0240857806056737,0.5921663863956929,0.5637372238934041,-9.518397016525268,15005.0
42.39,3.5,348.0,23.71008491516113,20.094133377075195,-79.78273751311389,40.45899344051308,340.6517338256836,-0.0083196349442005,-0.0347190797328949,-0.7928009629249573,0.6084340214729309,0.1760717389551234,0.1996627000079588,2.905412779369968,-0.0086377626284956,0.1019712015986442,-0.0562110617756843,0.7156040324270726,0.5059149122983218,-9.437166911959649,15005.0
42.6,3.5,346.0,23.46593475341797,22.169546127319336,-79.78273743164581,40.45899343075784,341.22779125976564,-0.0014654659898951,-0.0405730865895748,-0.7928755879402161,0.6080296635627747,0.1475110354211117,0.2478968538021733,2.855573600036645,0.0117134479805827,0.0794044286012649,0.056306641548872,0.6015298982709647,0.349942773655057,-9.484786051511763,15006.0
42.8,3.5999999046325684,343.0,23.45216178894043,21.175573348999023,-79.78273720528192,40.45899336159629,341.80101055908204,-0.0022696941159665,-0.0420423671603202,-0.7941254973411559,0.6062937378883362,0.1304525432438276,0.2975079968158821,2.87153288766373,-0.0080468989908695,-0.0882914066314697,0.1378508061170578,0.5549932610616088,0.2946086898632348,-9.721960228085518,15006.0
42.89,3.5999999046325684,338.0,23.50975608825684,22.0025577545166,-79.78273707299897,40.45899335434024,342.0902637939453,-0.0020666844211518,-0.0407941304147243,-0.7947008609771729,0.6056253910064697,0.1283930178027332,0.2947878927281145,2.881858118492005,-0.0002742739452514,-0.0248677842319011,0.0125304404646158,0.5863317788019776,0.2943743078783155,-9.810005847215653,15007.0
43.09,3.5999999046325684,335.0,23.45967483520508,23.37821578979492,-79.78273684924834,40.45899336698544,342.66173596191413,0.0062142712995409,-0.0409362018108367,-0.7940366864204407,0.6064581871032715,0.1019839747354362,0.293742201354177,2.90588887478387,0.1017473712563514,0.0657748430967331,0.0208923835307359,0.6507087825983763,0.269832356069237,-9.878549247980116,15007.0
43.3,3.799999952316284,331.0,23.74639320373535,17.183782577514652,-79.7827365826452,40.458993455043405,343.2277836303711,0.0038985719438642,-0.0386416651308536,-0.7927138209342957,0.6083555221557617,0.0693905285247007,0.3088938960884334,2.9366751535303504,-0.0058637801557779,-0.0015249559655785,-0.0048061669804155,0.5761809393391013,0.2500701010599732,-9.98530771136284,15008.0
43.39,3.900000095367432,329.0,23.87660789489746,15.736560821533203,-79.78273646792809,40.458993476284405,343.52125592041017,-0.0004841724876314,-0.0407593920826911,-0.7926085591316223,0.608366847038269,0.0715415643484072,0.2766379701234704,2.8934869086466413,-0.0975540280342102,0.0778980925679206,-0.0464663617312908,0.572606317140162,0.3993578854948282,-9.427528361678124,15008.0
43.49,3.900000095367432,327.0,23.85281753540039,17.74835968017578,-79.78273637638873,40.45899356257319,343.78701824951173,-0.0025748037733137,-0.0450953245162963,-0.7928444743156433,0.6077479124069214,0.0694511240353999,0.2500411745136641,2.7641214515740096,-0.0527635402977466,0.0380219966173172,0.0578134842216968,0.4869666810706258,0.4262889182567597,-8.806406709551812,15008.0
43.7,4.0,325.0,23.881614685058597,15.959210395812988,-79.78273616705977,40.458993671637046,344.3148884277344,-0.000123010831885,-0.0494146905839443,-0.7937353253364563,0.6062528491020203,0.0667315968715314,0.2535898628047869,2.515226045038455,0.0448369123041629,0.0689582601189613,-0.0169949941337108,0.6492099219560623,0.4735212644934654,-8.713093333840371,15009.0
43.89,4.0,324.0,23.821516036987305,17.438240051269528,-79.78273603478068,40.458993792961785,344.8027348022461,0.0060883979313075,-0.043601706624031,-0.7948197722434998,0.6052466630935669,0.0156294827624191,0.239061137592426,2.315750809346764,0.0834629163146019,-0.1023125946521759,0.1343719661235809,0.588570641130209,0.3022795789875089,-8.657893279194832,15009.0
44.0,4.0,323.0,23.909160614013672,15.593428611755373,-79.7827359422164,40.45899383540729,345.0278095703125,0.0082068089395761,-0.0401607416570186,-0.7949720025062561,0.6052597761154175,-0.0111087509364117,0.237623930262823,2.2430468313938907,0.0503707826137542,-0.0074122585356235,-0.0254223830997943,0.7253182310611009,0.1977118297666311,-8.792189789414406,15010.0
44.1,4.099999904632568,323.0,23.81525611877441,17.676794052124023,-79.78273583679298,40.45899391669767,345.2479481201172,0.0091515434905886,-0.040591724216938,-0.7949119210243225,0.6052963137626648,-0.0289551900723082,0.2283773628127725,2.1376249498974493,0.0184623748064041,0.0726749449968338,-0.0872447341680526,0.7642163215577603,0.2584352008625865,-8.702346736192704,15010.0
44.3,4.099999904632568,324.0,23.83403778076172,17.016796112060547,-79.78273569341962,40.45899408648617,345.6566853027344,0.0157488659024238,-0.0445729345083236,-0.7947779893875122,0.6050565242767334,-0.0291291193902549,0.2297472615721674,1.9617532237617856,0.0139955673366785,0.0500498935580253,0.0206765178591012,0.7684488286077976,0.3559567080438137,-8.880571038722993,15010.0
44.39,4.099999904632568,322.0,23.917924880981445,14.599456787109377,-79.78273558618388,40.458994150758826,345.8480915527344,0.0159578938037157,-0.0472389869391918,-0.7948432564735413,0.6047629117965698,-0.0402721627963479,0.2381885718110589,1.8439503075711008,-0.0487701073288917,0.0241747926920652,-0.0625654086470604,0.8407207795232535,0.2441364562511444,-8.674732675552367,15010.0
44.6,4.099999904632568,320.0,23.88912773132324,17.223543167114258,-79.78273540549903,40.4589943100986,346.1947254638672,0.0180451869964599,-0.0472057797014713,-0.795099139213562,0.6043702960014343,-0.0316141728455032,0.2151696800205754,1.6026237088649415,0.0663786232471466,0.0272961221635341,0.0066239619627594,0.8500165367871524,0.3650836269557477,-8.45570065498352,15011.0
44.69,4.199999809265137,317.0,23.70507621765137,20.15774726867676,-79.78273530908206,40.45899437480283,346.3501438598633,0.0205604117363691,-0.0446250773966312,-0.7954331636428833,0.6040464043617249,-0.0532239993726802,0.2008728185265358,1.4872016045088274,0.03162582218647,-0.0330634042620658,0.0637890994548797,0.7940828758478166,0.2610612036846578,-8.59955970168114,15011.0
44.9,4.300000190734863,316.0,23.73637771606445,18.360645294189453,-79.7827351609899,40.45899451820056,346.6397785644532,0.0229215547442436,-0.0376243852078914,-0.7956913709640503,0.6040979623794556,-0.0666926517991193,0.1773750031537628,1.383131843715658,0.0466319248080253,-0.0051403357647359,-0.0099770128726959,0.7790347740054131,0.203744621425867,-9.134547189474109,15011.0
44.99,4.400000095367432,312.0,23.7927188873291,17.978960037231445,-79.78273509199359,40.45899457561547,346.77820629882814,0.0255921352654695,-0.0366499908268451,-0.7954497933387756,0.6043686866760254,-0.0687011469437774,0.1736487468382896,1.3456416432950753,-0.003025971353054,0.0197815112769603,-0.0038008294068276,0.7507279644906522,0.1633933699317276,-9.085955657958984,15011.0
45.19,4.5,311.0,23.71759605407715,17.279205322265625,-79.7827349209835,40.45899467378186,347.0359577636719,0.0277497842907905,-0.0363974459469318,-0.7944306135177612,0.6056279540061951,-0.0469574334827756,0.1686288848176347,1.2156665856788882,0.0015358850359916,-0.0535162799060344,0.0855874866247177,0.7975254240632058,0.1952822751179336,-9.229891303181647,15012.0
45.29,4.599999904632568,309.0,23.96049499511719,12.651272773742676,-79.78273493504327,40.4589947300964,347.1578602294922,0.0275876466184854,-0.0342510715126991,-0.7942042946815491,0.606057345867157,-0.0259371231335005,0.172886392316481,1.1905655141209122,0.0269416235387325,0.0448440872132778,-0.0812641009688377,0.8874996741861105,0.3653147016093135,-9.242604904174804,15012.0
45.5,4.699999809265137,307.0,23.7251091003418,16.778242111206055,-79.78273481002681,40.458994790628864,347.3361362915039,0.0109880585223436,-0.0310275070369243,-0.7913699746131897,0.6104508638381958,-0.0150695082347591,0.1944939953470258,0.7315555529242576,0.1310124397277832,-0.216930866241455,-0.4889624416828156,0.996932946369052,-0.009483914268203,-7.181169610619548,15012.0
45.69,4.800000190734863,307.0,23.71759605407715,19.31485939025879,-79.78273446196424,40.45899477018979,347.45254559326173,0.0137580530717968,-0.0204641055315732,-0.7371956110000609,0.6752293109893799,-0.0210272851607014,0.1788329336264837,0.4591689145801005,-0.1506156772375106,0.1149291396141052,-0.996305286884308,0.6953501544892788,-0.0777534049563109,-8.588654059767723,15012.0
45.79,4.900000095367432,307.0,23.89288330078125,14.535842895507812,-79.7827343789897,40.4589948454104,347.4378590087892,0.0119009790942072,-0.0333534218370914,-0.6974738836288452,0.7157346606254578,0.0115393906879498,0.2031900560252914,0.3738531745921786,-0.1813541650772094,0.1229248195886612,-1.097270369529724,0.7843767171353102,0.4238523104041815,-8.912840067744256,15012.0
45.89,5.0,296.0,23.69380760192871,19.887386322021484,-79.78273415371099,40.458994799808686,347.4719471435547,0.0126158697530627,-0.0408657565712928,-0.6564770936965942,0.753132700920105,0.0830476090329008,0.2178594660671438,0.2739354521769418,0.0261289980262518,-0.0076753832399845,-0.9542232155799866,0.6990172357857227,0.5970643796771765,-8.822742075920106,15012.0
46.1,5.099999904632568,291.0,23.582374572753903,20.937021255493164,-79.78273345582552,40.45899463517746,347.4584278564453,0.0149029605090618,-0.0402056388556957,-0.5582286715507507,0.8285784125328064,0.2299327737260053,0.1975380454538588,0.1946887287336623,-0.0542863719165325,0.0477105118334293,-0.7459357976913452,0.7468288218230009,0.7799157301336527,-9.468497462868688,15012.0
46.3,5.199999809265137,297.0,23.06527900695801,27.71988296508789,-79.78273318534967,40.458994684498975,347.4039387207032,0.0114830499514937,-0.0444843545556068,-0.538904070854187,0.8411133885383606,0.2393094996176481,0.1783238804388408,0.2328500959633221,-0.2889088988304138,0.1088376715779304,-0.6083309650421143,0.4544719495251775,0.7361169420182705,-10.324587721824653,15012.0
46.4,5.199999809265137,300.0,23.51852035522461,21.15171813964844,-79.78273289302122,40.45899455029609,347.4375156860352,0.0012096751015633,-0.0550059750676155,-0.5251204371452332,0.8492476344108582,0.2611640385046948,0.1975343658645935,0.3912093334031849,-0.2784896790981293,-0.1685358583927154,-0.0203919168561697,0.7274994617700578,0.3601365536078811,-11.071449068784714,15012.0
46.6,5.199999809265137,300.0,23.52853775024414,20.746177673339844,-79.78273176137836,40.45899458578295,347.56519360351564,-0.0454427935183048,-0.0344400554895401,-0.5145842432975769,0.8555418848991394,0.2832482518393945,0.3323218402071082,0.6268675023840491,0.0576787553727626,-0.6830266714096069,-0.0744941234588623,0.6040967163071037,0.9706030073761942,-10.77974551320076,15012.0
46.69,5.099999904632568,296.0,23.70132064819336,19.53750801086425,-79.78273124657366,40.45899456964661,347.63597149658204,-0.0625659152865409,-0.009102564305067,-0.5154712200164795,0.8545713424682617,0.2869068319412324,0.4087375917003106,0.739643061143803,0.3040649592876434,-0.4581907689571381,0.1784892082214355,0.3981140730902553,0.6282866840064526,-10.710662999153136,15012.0
46.79,5.0,304.0,23.563594818115234,20.730274200439453,-79.78273112574229,40.45899458596008,347.52986950683595,-0.0746312141418457,0.0090487767010927,-0.5184733271598816,0.8517827391624451,0.2599022078529882,0.4949451912402798,0.7589286074064957,0.1021368652582168,-0.3136167526245117,0.106623001396656,0.3688534365221858,0.6895185801386834,-10.425586677789688,15012.0
47.0,4.900000095367432,308.0,23.63746452331543,19.131967544555664,-79.78272982656149,40.45899501018118,347.55386395263673,-0.0921651422977447,0.0198646001517772,-0.5269075036048889,0.844677209854126,0.2434295271637708,0.7907946669944182,0.8408451077704351,0.0483859665691852,-0.1171117722988128,0.0680961459875106,0.3508763547241688,0.7250994721055031,-10.11364707827568,15012.0
47.09,4.699999809265137,304.0,23.64748191833496,19.94304847717285,-79.78272863635708,40.45899527149516,347.6251224975586,-0.0990144833922386,0.024182554334402,-0.5313605666160583,0.8409919738769531,0.2328957336938549,1.005351128866824,0.8878243044033917,-0.0433246195316314,-0.1255616992712021,0.0117772724479436,0.467062137722969,0.7643119235336779,-10.026620628833774,15012.0
47.3,4.599999904632568,306.0,23.62118911743164,19.65678596496582,-79.78272595832127,40.458996262310926,347.694923828125,-0.1126409098505973,0.0259582940489053,-0.5370306372642517,0.8356053829193115,0.1790091429320613,1.4157326454000128,0.99654068781117,-0.061445016413927,-0.0915546789765358,0.0810522213578224,0.3719297663122416,0.5469480770453811,-10.207601308822634,15012.0
47.49,4.400000095367432,313.0,23.50224304199219,23.04424095153809,-79.78272225864285,40.45899777795113,347.7759174804688,-0.1215049922466278,0.0306245684623718,-0.5414760708808899,0.8313257694244385,0.1131965771596422,1.8701359163003823,1.1322653449984093,0.0993643254041671,-0.1823120266199112,0.1543275266885757,0.2969891461730004,0.5709383623301983,-10.192310839891434,15012.0
47.6,4.300000190734863,316.0,23.596147537231445,20.53943252563477,-79.78271986899884,40.45899857106753,347.8451694946289,-0.1241559535264968,0.036382257938385,-0.5446316599845886,0.8286362886428833,0.0838481505039441,2.1111053327610536,1.22598811569333,0.0807888060808181,-0.1865353286266327,0.1772865056991577,0.1474771941080689,0.4940316890180112,-10.22756019473076,15012.0
