time,wind_speed,wind_angle,battery_voltage,battery_current,position_x,position_y,position_z,orientation_x,orientation_y,orientation_z,orientation_w,velocity_x,velocity_y,velocity_z,angular_x,angular_y,angular_z,linear_acceleration_x,linear_acceleration_y,linear_acceleration_z,node_ids
0.0,0.5,74.0,24.412485122680664,0.0079517737030982,-79.78275157259006,40.45899571123051,271.0484463644028,0.0058142794296145,0.0020584175363183,-0.7483837008476257,0.663237452507019,-0.0036995234745958,-0.0071248836978487,0.0129810359979631,0.0010696171084418,0.0034421712625771,0.0036997282877564,0.0447812345484271,-0.1167775669042021,-9.80633321106434,14936.0
0.2,0.5,74.0,24.41749382019043,-0.0079517737030982,-79.78275167328697,40.45899579112477,271.03771895885467,0.0058152601122856,0.0020528272725641,-0.7483839392662048,0.6632372140884399,-0.0078006250816314,-0.0094929824476391,0.0111098603561719,0.0022694682702422,0.0019409764790907,-0.0068205720745027,0.0440272406581789,-0.1250032745674252,-9.807594455480578,14936.0
0.3,0.5,70.0,24.40998077392578,-0.0159035474061965,-79.78275168340848,40.45899579903461,271.03883058547973,0.0058152601122856,0.0020528272725641,-0.7483839392662048,0.6632372140884399,-0.0076117359850277,-0.0095721099306129,0.0109941451583429,0.0038396634627133,0.0013132004532963,0.00909682828933,0.0453778606792911,-0.125040696747601,-9.807279875278471,14936.0
0.5,0.6000000238418579,68.0,24.41999626159668,-0.0079517737030982,-79.78275174308527,40.45899586878552,271.02954740047454,0.0058188587427139,0.0020691379904747,-0.7483801245689392,0.6632413268089294,-0.0076018290630062,-0.0042682779178066,0.0128186101482242,0.0001251813810085,0.0065436605364084,0.0019191090250387,0.0437257390329614,-0.1176971786096692,-9.806205157041552,14936.0
0.6,0.6000000238418579,64.0,24.41749382019043,-0.0079517737030982,-79.78275174697713,40.45899587630082,271.03083509922027,0.0058045573532581,0.0020689647644758,-0.7483742833137512,0.6632480621337891,-0.0083576237013624,-0.0042237162407003,0.0127713741904156,-0.0005156660918146,-0.0017030452145263,0.0067735463380813,0.0444453759631142,-0.1262768255453557,-9.807748237252236,14936.0
0.8,0.6000000238418579,62.0,24.408727645874023,0.0079517737030982,-79.78275180068039,40.4589959399138,271.0201518011093,0.0058138058520853,0.0020559984259307,-0.7483761310577393,0.6632459759712219,-0.0082987537530513,-0.0013270939331939,0.0138835492722362,-0.0030062173027545,-0.0006103828782215,-0.0056737000122666,0.0455127577716484,-0.1089021714124828,-9.804546301960944,14936.0
0.9,0.6000000238418579,59.0,24.411231994628903,-0.0079517737030982,-79.78275180175255,40.458995955130646,271.0229311656952,0.0057829511351883,0.0020722502376884,-0.7483729124069214,0.6632498502731323,-0.0096487476117619,-0.001362053587245,0.0138653656374645,-0.0018879580311477,-0.0027958611026406,-0.0038593539502471,0.0437079232977703,-0.1165305585879832,-9.806127973794936,14936.0
1.1,0.6000000238418579,57.0,24.41498947143555,-0.0397588685154914,-79.78275190225992,40.458996024998605,271.01168627262115,0.0057944911532104,0.0020790677517652,-0.7483612895011902,0.6632628440856934,-0.0064993928303319,-0.0059783041492489,0.0114936686255069,0.0008917963132262,0.0004630522162187,0.0003877500130329,0.0447122419718652,-0.114118161862716,-9.806258366703988,14936.0
1.2,0.699999988079071,55.0,24.41373634338379,0.0079517737030982,-79.78275195419758,40.458996091616406,271.00162274360656,0.0057944301515817,0.0020715354476124,-0.7483677268028259,0.6632556319236755,-0.0063382766490697,-0.0047618320190294,0.0134084523862549,-0.0018867847975343,0.0021113161928951,-0.0042558996938169,0.0439401491219177,-0.1086909772921353,-9.805028697252274,14936.0
1.4,0.699999988079071,55.0,24.411231994628903,-0.0159035474061965,-79.78275196372795,40.45899610411077,271.004308052063,0.0058086714707314,0.0020637651905417,-0.7483676075935364,0.6632555723190308,-0.0077640530418039,-0.0047840809939018,0.0133637333425959,-0.0058363480493426,0.0010088287526741,4.128848377149552e-05,0.0462007238063961,-0.1259060207102448,-9.808280918598175,14936.0
1.51,0.699999988079071,57.0,24.42124938964844,-0.0079517737030982,-79.78275198769049,40.45899619268349,270.9927564334869,0.0058016180992126,0.0020639474969357,-0.7483674883842468,0.6632558107376099,-0.0101676054970418,-0.0011293280829461,0.0110908677228947,0.0033625334035605,0.0032693974208086,0.0015240018256008,0.0439637115737423,-0.1147961465176194,-9.806178844571114,14935.0
1.7,0.699999988079071,57.0,24.416240692138672,-0.0079517737030982,-79.78275205947818,40.45899626896583,270.9852776002884,0.0058133988641202,0.0020605586469173,-0.7483687996864319,0.6632542610168457,-0.0082181545707163,-0.0079514532550244,0.0136653722800208,-0.0026701821479946,0.0008067866438068,-0.0057396716438233,0.0454620834253728,-0.1269270541984588,-9.808069834113118,14935.0
1.8,0.699999988079071,55.0,24.41749382019043,-0.0079517737030982,-79.78275206774117,40.45899627697871,270.9866450500488,0.0058133988641202,0.0020605586469173,-0.7483687996864319,0.6632542610168457,-0.0079462027221085,-0.0080432206110497,0.0135102824705135,0.0079853404313325,7.693807128816843e-05,0.0065072108991444,0.0447417384339496,-0.1259072632435709,-9.807650004029275,14935.0
2.0,0.699999988079071,57.0,24.41498947143555,0.0,-79.782752101772,40.4589963520925,270.97949928760534,0.0058149667456746,0.002064784290269,-0.7483693361282349,0.6632535457611084,-0.007604337696523,-0.0061893580817864,0.0146906585446229,0.005593208130449,0.005121530033648,0.0016001834301277,0.043554292274639,-0.1158665067516267,-9.807168193459509,14935.0
2.1,0.699999988079071,60.0,24.41749382019043,-0.0238553211092948,-79.78275210787922,40.45899635989496,270.980979270935,0.0058161336928606,0.0020658867433667,-0.7483695745468141,0.6632532477378845,-0.008619397080258,-0.0060849120195427,0.0146989581592608,-0.0009267135174013,-0.0015446961624547,0.0003968208911828,0.0435086474474519,-0.1259032706916332,-9.808494926691056,14935.0
2.3,0.6000000238418579,61.0,24.411231994628903,-0.0159035474061965,-79.78275213038538,40.45899643564751,270.97389060974115,0.0058157965540885,0.0020682082977145,-0.7483696937561035,0.663253128528595,-0.0075367476255727,-0.0045698135309427,0.0153775909285605,0.0044556646607816,0.0021197046153247,0.0049016131088137,0.0452476687682792,-0.1099019996076822,-9.805468992590905,14935.0
2.5,0.6000000238418579,65.0,24.41498947143555,-0.0238553211092948,-79.7827521347774,40.45899644327928,270.9754419994354,0.0058182515203952,0.0020701298490166,-0.7483716011047363,0.6632509827613831,-0.0091558875728863,-0.0046255622962346,0.0154904370132276,-0.0054524755105376,-0.0035859609488397,-0.0079189538955688,0.0440885953092947,-0.1149598502833396,-9.805714575648306,14935.0
2.6,0.6000000238418579,66.0,24.416240692138672,-0.0238553211092948,-79.78275214585585,40.45899651224384,270.966968126297,0.0058181583881378,0.0020721782930195,-0.7483717203140259,0.6632508635520935,-0.007019695856917,-0.0034106498034664,0.0159942023078002,0.0006160082994028,0.0006930690724402,0.002052680356428,0.0449689621478319,-0.1175385637488216,-9.80581631720066,14935.0
2.71,0.6000000238418579,71.0,24.41999626159668,-0.0238553211092948,-79.78275214251686,40.45899658992768,270.9591539573669,0.0058159688487648,0.0020764921791851,-0.7483729124069214,0.6632494926452637,-0.0081142920798491,-0.0003713802152744,0.0140441076097506,-0.0033452613279223,-0.0009353284258395,-0.0061041987501084,0.0451870907004922,-0.1098185031954199,-9.8057046353817,14935.0
2.9,0.6000000238418579,73.0,24.41498947143555,-0.0079517737030982,-79.7827521419076,40.458996597036645,270.960562415123,0.0058159688487648,0.0020764921791851,-0.7483729124069214,0.6632494926452637,-0.0078174785166856,-0.0003853823443148,0.0138436391239174,0.0053826794028282,0.0035368350800126,0.0065014199353754,0.0460427165077999,-0.1250523454975337,-9.80734536409378,14935.0
3.0,0.6000000238418579,73.0,24.40622520446777,-0.0079517737030982,-79.78275219760326,40.458996647555146,270.9546265077591,0.0058331764303147,0.0020760591141879,-0.7483736872673035,0.6632484793663025,-0.0015451631272063,-0.0082582266163504,0.0157689931898718,0.0018746956484392,0.0021303992252796,-0.002832586178556,0.0448330280883237,-0.1117402088921517,-9.804277330040932,14935.0
3.2,0.6000000238418579,72.0,24.41498947143555,-0.0079517737030982,-79.7827522071308,40.45899664988743,270.9561953020096,0.0058344369754195,0.0020775040611624,-0.7483749389648438,0.6632471084594727,-0.0019509851746717,-0.0083493128106012,0.0155988415478558,0.0012466665357351,-0.0003696338681038,0.0061756526120007,0.0451447897497564,-0.1272226035408675,-9.807534229159357,14935.0
3.3,0.6000000238418579,72.0,24.41999626159668,-0.0079517737030982,-79.78275220266181,40.458996724818704,270.9502479505539,0.0058305505663156,0.0020792633295059,-0.7483751773834229,0.6632468700408936,-0.0033716012751449,-0.0057978192795911,0.0162702489610057,0.0038085428532212,0.0040328274480998,0.0029618381522595,0.0455398011440411,-0.1182220484409481,-9.806387590169908,14935.0
3.5,0.6000000238418579,72.0,24.41749382019043,-0.0159035474061965,-79.78275219064507,40.45899681912358,270.94457942962646,0.0058250962756574,0.0020777974277734,-0.7483763694763184,0.6632454991340637,-0.0088174474727218,-0.0040783145409591,0.0169511262940507,-0.005785696208477,0.0003885464102495,-0.0065275356173515,0.0442006471473723,-0.1263310493342578,-9.807531890273095,14935.0
3.6,0.6000000238418579,69.0,24.412485122680664,-0.0159035474061965,-79.78275219441464,40.45899682699206,270.9462797117233,0.0058278916403651,0.0020801648497581,-0.7483782172203064,0.6632434129714966,-0.0086170645344263,-0.0042057104695134,0.0168531787360988,0.0017382123041898,0.0035608545877039,0.0063569745980203,0.0460837520845234,-0.1202248385734856,-9.807841792702677,14935.0
3.8,0.6000000238418579,69.0,24.40998077392578,0.055662415921688,-79.78275216178908,40.45899688805165,270.94121379375457,0.0058268820866942,0.0020864808466285,-0.7483785152435303,0.6632431149482727,-0.0071325168574732,-0.0004985729255941,0.0171893978063597,-0.0037087085656821,-0.0014404105022549,-0.0109939416870474,0.0439018544275313,-0.1239736712537706,-9.807641817927363,14935.0
3.91,0.6000000238418579,68.0,24.41373634338379,0.055662415921688,-79.78275216159899,40.45899689418315,270.9429354143142,0.0058273132890462,0.0020868510473519,-0.7483802437782288,0.6632411479949951,-0.0069336855976543,-0.0006811574238247,0.0170484051556599,0.00351396901533,-0.0015324540436267,0.0056296349503099,0.0444602772267535,-0.1204374122712761,-9.8070506644249,14935.0
4.1,0.6000000238418579,67.0,24.40998077392578,0.0079517737030982,-79.78275213727751,40.45899696059215,270.93634838581085,0.0058271228335797,0.0020875860936939,-0.7483802437782288,0.6632411479949951,-0.00671284782764,-0.0003068381149991,0.0173945769632488,-0.0033483125735074,-0.0038047842681407,0.0002397609932813,0.0443127126898616,-0.1243838808406144,-9.807552940249444,14935.0
4.2,0.6000000238418579,65.0,24.40246772766113,0.0477106422185897,-79.78275209081951,40.45899701697863,270.9320120286941,0.0058280318044126,0.0020963640417903,-0.7483810782432556,0.6632401347160339,-0.0033222469001909,0.0034973400020632,0.0174965401328205,0.0034985963720828,0.0014192841481417,0.0005989704513922,0.04438365586102,-0.1100385686382651,-9.805501736998556,14935.0
4.4,0.6000000238418579,65.0,24.411231994628903,0.0795177370309829,-79.78275208177071,40.4589970233345,270.9355332326889,0.0058303158730268,0.0020983568392694,-0.7483817934989929,0.6632393002510071,-0.0052267891745882,0.0034141316686599,0.0175269553301319,-0.0028684954158961,0.0003810707421507,-0.003917324822396,0.0443965151673182,-0.1244362225569784,-9.808005514740945,14935.0
4.53,0.5,62.0,24.398712158203125,0.0636141896247863,-79.7827520435158,40.45899709536671,270.93143326759343,0.0058309752494096,0.0020979461260139,-0.7483826875686646,0.6632382869720459,-0.0055082718345263,0.0023679165746298,0.0177924714512494,0.0014802042860537,0.0016059996560215,0.0003699957160279,0.0444880834780633,-0.1199824623484164,-9.807418454289436,14935.0
4.71,0.5,59.0,24.40372085571289,0.1828908026218414,-79.78275203026244,40.458997153107966,270.92389173030847,0.0058351978659629,0.0020946729928255,-0.7483819127082825,0.6632391214370728,-0.0048423991418698,-0.0017162197687382,0.0147360903358671,-0.0054352991282939,-0.0015837032115086,-0.0109598757699131,0.0435004659136757,-0.1109362989664077,-9.805514600872996,14935.0
4.9,0.5,57.0,24.40372085571289,0.0636141896247863,-79.78275203337391,40.45899716212247,270.92681819915765,0.0058379410766065,0.0020884939003735,-0.7483915686607361,0.6632282137870789,-0.0055597529145224,-0.0018583582554255,0.0145090269362787,0.0018926283810287,0.001052877632901,-0.0001941176014952,0.0453811908513307,-0.1191856969892978,-9.806684628725051,14935.0
5.0,0.4000000059604645,53.0,24.398712158203125,0.0715659633278846,-79.78275197462526,40.458997214218,270.92135400295257,0.0058300108648836,0.0020910871680825,-0.7483913898468018,0.663228452205658,-0.0037153389647388,0.0018697030704393,0.0155142073935444,-0.0047802436165511,-0.0013443632051348,-0.0041284337639808,0.0456200770195573,-0.125753161702305,-9.8088054138422,14935.0
5.2,0.4000000059604645,53.0,24.398712158203125,0.0397588685154914,-79.78275195583844,40.4589972951992,270.9150618982315,0.0058260005898773,0.0020717391744256,-0.7483791708946228,0.6632423400878906,-0.0075039075829811,-0.0037022061572015,0.0124368142270545,-0.0001569082960486,-0.0017223958857357,-0.0008950376068241,0.044803664102219,-0.1191503213346004,-9.807002717256546,14935.0
5.3,0.4000000059604645,52.0,24.40622520446777,0.0477106422185897,-79.78275195921591,40.45899730241821,270.91631645679473,0.0058225989341735,0.0020577816758304,-0.74839186668396,0.6632281541824341,-0.008435025467066,-0.0037656170815821,0.012564242563264,-0.002547015203163,0.0024036432150751,-0.0062126112170517,0.0442667343886569,-0.109764224588871,-9.80612271130085,14935.0
5.5,0.4000000059604645,52.0,24.39495658874512,0.0238553211092948,-79.78275196256351,40.45899731015518,270.9175731611252,0.0058156424202024,0.0020423242822289,-0.7483850121498108,0.6632359623908997,-0.0082600043310523,-0.0038926685366003,0.0123774284030716,0.0010658402461558,0.0027761061210185,0.002411327091977,0.0458305767830461,-0.1218913224432617,-9.807441843152048,14935.0
5.6,0.3000000119209289,53.0,24.4074764251709,0.0477106422185897,-79.78275194810794,40.4589973531976,270.91385204315185,0.005817559082061,0.0020505844149738,-0.7483661770820618,0.6632571220397949,-0.003569618477545,-0.0058318489956433,0.014853337233901,-0.0027267537079751,-0.0024428397882729,-0.0045176078565418,0.0440091325622052,-0.1090948554407805,-9.80564674794674,14935.0
5.8,0.3000000119209289,53.0,24.39370346069336,0.0238553211092948,-79.78275190702931,40.458997419439655,270.90961296081537,0.0057990811765193,0.0020442781969904,-0.7483606338500977,0.6632636785507202,-0.0050414598106583,-0.0037129444744941,0.0158270186425955,-0.0015364484861493,-0.000647903420031,-0.0018790336325764,0.0450886473432183,-0.1237729564402252,-9.806844842433929,14935.0
5.91,0.3000000119209289,52.0,24.408727645874023,-0.0318070948123931,-79.78275191097053,40.45899742403226,270.91119629859924,0.0058052977547049,0.0020432448945939,-0.7483662366867065,0.6632572412490845,-0.0055226081912334,-0.0039987599528537,0.0157999789509467,0.000590780749917,-0.0005297824391163,-0.0033435290679335,0.0435949624003842,-0.1097610086202621,-9.805380114912989,14935.0
6.11,0.3000000119209289,51.0,24.40622520446777,0.0238553211092948,-79.78275188836001,40.458997465953885,270.90568215370183,0.0058092745020985,0.0020452053286135,-0.7483661770820618,0.6632572412490845,-0.001677845931559,-0.0051562292196946,0.0163710132967424,0.0024217623285949,-0.0005258782766759,0.0046265237033367,0.0447512675682082,-0.1259766715206206,-9.807182811498643,14935.0
6.21,0.3000000119209289,50.0,24.41373634338379,0.0636141896247863,-79.78275183433738,40.458997551894825,270.9017790031433,0.0057972189970314,0.0020437047351151,-0.7483675479888916,0.6632557511329651,-0.0101958773952763,-0.0009167057732611,0.0168833686903873,0.0007742583402432,0.0014157177647575,-0.0010869349353015,0.0445875500980764,-0.1126757725328207,-9.805027527809145,14935.0
6.4,0.2000000029802322,49.0,24.411231994628903,0.0636141896247863,-79.78275183400761,40.45899756137416,270.90347761631006,0.0057972189970314,0.0020437047351151,-0.7483675479888916,0.6632557511329651,-0.010697762998818,-0.0009350077500823,0.0167650026566787,0.0021565868519246,-0.0002389176079304,0.0038379533216357,0.04612784831319,-0.1267022287566215,-9.808256945014,14935.0
6.51,0.2000000029802322,47.0,24.412485122680664,0.0636141896247863,-79.78275179290492,40.45899758681377,270.89968318462365,0.0058075068518519,0.0020561579149216,-0.7483684420585632,0.6632546186447144,-0.0024894321547564,0.0002804208357857,0.0170139410909187,0.0048612798564136,0.0023882512468844,0.0040640099905431,0.0436957537801936,-0.1114665957447141,-9.805107049942016,14935.0
6.7,0.2000000029802322,46.0,24.39996337890625,0.055662415921688,-79.78275179216391,40.45899758946863,270.90138930797576,0.0058046835474669,0.0020573129877448,-0.7483667135238647,0.6632567048072815,-0.0035714871832208,0.0003307645419482,0.017005079516066,0.0025554462336003,-0.0027173697017133,0.0025295293889939,0.045163615043275,-0.1251131930854171,-9.808198472857477,14935.0
6.8,0.3000000119209289,45.0,24.4074764251709,0.0715659633278846,-79.78275172378177,40.45899764184651,270.8978067111969,0.0057681226171553,0.0020649924408644,-0.7483557462692261,0.6632694005966187,-0.0044843310838683,0.0037915712374861,0.0172530414328198,0.0061724130064249,0.0042149596847593,0.0054728030227124,0.0438357808906585,-0.1232201022002846,-9.807661113739014,14935.0
7.0,0.3000000119209289,42.0,24.41373634338379,0.0159035474061965,-79.78275171865539,40.45899764591092,270.89953691482543,0.0057596373371779,0.0020538314711302,-0.7483448386192322,0.6632816791534424,-0.0059793777196241,0.0039278630638862,0.0171797321099401,-0.0026394126471132,-0.0033425923902541,0.0007474847952835,0.042916982313618,-0.12270567513071,-9.80691500902176,14935.0
7.1,0.3000000119209289,37.0,24.40998077392578,-0.0238553211092948,-79.78275170265366,40.458997716384346,270.8962306451797,0.0057425471022725,0.0020319456234574,-0.7483325600624084,0.6632958054542542,-0.0085150325344552,-0.0007599183654192,0.0173482114964095,0.0042273662984371,0.0003492265532258,0.0041061178781092,0.045343590513803,-0.1259281396307051,-9.807507331967354,14935.0
7.3,0.3000000119209289,33.0,24.41373634338379,0.0,-79.78275166459706,40.45899776573808,270.8905691576004,0.0057353437878191,0.0020366790704429,-0.748322069644928,0.6633076667785645,-0.0080855649495058,-0.0002750772233962,0.0142588805287075,0.0011748881079256,0.0007612423505634,-0.0056022927165031,0.043093079435639,-0.1188302867766469,-9.806569438576696,14935.0
7.41,0.3000000119209289,27.0,24.411231994628903,0.0,-79.78275166381863,40.458997773222784,270.8919968080521,0.0057205157354474,0.0020457587670534,-0.7483124136924744,0.6633186340332031,-0.0085838216773989,-0.000312364946762,0.0140503485043771,0.0061711920425295,0.0017757292371243,0.0039396444335579,0.0459345110412687,-0.1266921149007976,-9.807792091369633,14935.0
7.6,0.3000000119209289,25.0,24.41373634338379,-0.0159035474061965,-79.78275162928571,40.4589978009619,270.8846140575409,0.0057106572203338,0.0020506023429334,-0.748310923576355,0.6633204221725464,-0.0051278276630381,0.0005935471891603,0.0121094436833076,-0.0055399606935679,-0.0017975172959268,-0.0069501516409218,0.0431392313260585,-0.1132153883110732,-9.8041802662611,14935.0
7.7,0.3000000119209289,21.0,24.416240692138672,-0.0079517737030982,-79.78275157522616,40.45899783227591,270.877990193367,0.0057014748454093,0.0020703254267573,-0.7483124136924744,0.6633188128471375,-0.0022192625985194,0.0046969919026265,0.0104588234603637,-0.0030458346009254,0.001159735256806,-0.0019371352391317,0.0453202290600165,-0.1171605869382619,-9.806528508067132,14935.0
7.9,0.3000000119209289,19.0,24.40246772766113,-0.0159035474061965,-79.7827515694821,40.45899783399893,270.87904352664947,0.0057014748454093,0.0020703254267573,-0.7483124136924744,0.6633188128471375,-0.0033870027340701,0.0046509974177999,0.0105937055357816,-0.004183663520962,0.0023900254163891,-0.0090478714555501,0.0433883683942258,-0.1091990820597857,-9.805578335523606,14935.0
8.0,0.4000000059604645,18.0,24.40246772766113,-0.0159035474061965,-79.78275154105391,40.458997871580245,270.87223155021667,0.0057031637988984,0.0020697473082691,-0.7483143806457521,0.6633166074752808,-0.004706602057765,0.0037801545529709,0.0098323997552299,-0.0054351524449884,-0.0023108243476599,-0.0067459987476468,0.0442665333906188,-0.1177832057699561,-9.806950092315674,14935.0
8.2,0.4000000059604645,18.0,24.41749382019043,0.0,-79.78275156872876,40.45899792760708,270.86499292373657,0.005713780876249,0.0020586107857525,-0.7483139038085938,0.663317084312439,-0.0072962000980516,-0.0070069268396669,0.0092022759244192,0.0021169215906411,0.0004340631130617,0.0045442483387887,0.0455677672801539,-0.1127454457618296,-9.806103415489195,14935.0
8.3,0.4000000059604645,16.0,24.416240692138672,-0.0079517737030982,-79.78275157590639,40.45899793534085,270.86592072963714,0.005713780876249,0.0020586107857525,-0.7483139038085938,0.663317084312439,-0.0088324158657725,-0.0069659101579808,0.0092621148570439,-0.0028192831669002,-0.0017821957590058,-0.0074406531639397,0.0444228459103032,-0.1104991830512881,-9.805346785783769,14935.0
8.5,0.3000000119209289,14.0,24.412485122680664,-0.0159035474061965,-79.78275158286391,40.45899794379602,270.86683971405034,0.0057151434011757,0.0020594256930053,-0.7483159303665161,0.6633147597312927,-0.0087488437546262,-0.0069693014256372,0.0089263005746841,0.0037295047659426,0.0044345585629344,0.0022832581307739,0.045661395820789,-0.1221064177528023,-9.806924364566804,14935.0
8.61,0.3000000119209289,11.0,24.40372085571289,-0.0238553211092948,-79.78275154176505,40.45899794641439,270.861090965271,0.0057197846472263,0.0020741401240229,-0.7483188509941101,0.6633113622665405,-0.0030067060624088,-0.0006600313423411,0.0114855026103896,-0.0011168470373377,-0.0004912056028842,-0.0018314326880499,0.0438960757339373,-0.1102973992936313,-9.804492507576944,14935.0
8.8,0.3000000119209289,12.0,24.416240692138672,-0.0079517737030982,-79.78275152236827,40.4589979788717,270.8524779748917,0.0057192575186491,0.0020747072994709,-0.7483186125755309,0.6633116006851196,-0.00455507112625,-9.808490422484476e-05,0.0100815595627669,-0.0050989463925361,-1.2225012142152993e-05,-0.0085136676207184,0.046142082628794,-0.1274899492040276,-9.808510714173318,14935.0
8.9,0.3000000119209289,15.0,24.41498947143555,-0.0079517737030982,-79.78275152194594,40.45899798265592,270.85348124027246,0.0057211499661207,0.0020759922917932,-0.7483206391334534,0.6633093357086182,-0.0045175247394028,-7.896067169797143e-05,0.0098726866272786,0.003562880679965,0.0047713774256408,0.0016508190892636,0.0452519399765878,-0.1195031733904034,-9.80598120868206,14935.0
9.1,0.3000000119209289,18.0,24.408727645874023,-0.0318070948123931,-79.7827515041489,40.45899801380675,270.84501320838933,0.0057277199812233,0.002082725521177,-0.7483264803886414,0.6633026599884033,-0.0059511349644075,0.0002286284501017,0.0091694197590649,-0.0038185145240277,-0.000528824632056,-0.0040756533853709,0.0441958186263218,-0.1243701307475566,-9.807346533536911,14935.0
9.21,0.3000000119209289,22.0,24.416240692138672,-0.0159035474061965,-79.7827514887805,40.45899804346321,270.83524662971496,0.0057120104320347,0.0020674695260822,-0.7483315467834473,0.6632971167564392,-0.0047301713477712,0.0003340675681207,0.0086086223872897,0.0025168848223984,0.0007459902553819,0.0038635327946394,0.0446715764142572,-0.1265583324339241,-9.808266300559042,14935.0
9.4,0.3000000119209289,24.0,24.411231994628903,-0.0159035474061965,-79.78275148762188,40.45899804837679,270.8361191225052,0.0056964056566357,0.0020701177418231,-0.7483295202255249,0.663299560546875,-0.0065447151044074,0.0004006259258501,0.0087669460917204,-0.0036689108237624,-0.0019313681405037,-0.0041753058321774,0.0439895717985928,-0.1159656718745827,-9.807002717256546,14935.0
9.5,0.2000000029802322,30.0,24.4074764251709,-0.0079517737030982,-79.78275147698228,40.4589980793011,270.8267821741104,0.0056675500236451,0.0020626697223633,-0.7483244538307191,0.6633055210113525,-0.0058430379219696,0.0005411455148287,0.0080105500377856,-0.0020443759858608,-0.0029646568000316,0.0024048048071563,0.0440086483396589,-0.1163817743584513,-9.805298838615418,14935.0
9.7,0.2000000029802322,33.0,24.41373634338379,-0.0159035474061965,-79.78275147559773,40.45899808465269,270.82758183002466,0.0056643923744559,0.0020635752007365,-0.7483334541320801,0.6632953286170961,-0.0070716202771684,0.0005654993607453,0.0079551168494016,-0.0049705901183187,-0.0034664666745811,-0.0028513972647488,0.0438588088704273,-0.1094418328721076,-9.805013494491575,14935.0
9.8,0.2000000029802322,41.0,24.40372085571289,-0.0079517737030982,-79.78275146612273,40.45899811526567,270.82009536743163,0.0056549464352428,0.0020679726731032,-0.7483118176460266,0.6633198261260986,-0.0071384363627002,0.0008194616408869,0.0112026577207692,-0.0034218828659504,-0.0002869969466701,-0.0045393351465463,0.0441070231748744,-0.117889086054638,-9.806613877415655,14935.0
10.0,0.3000000119209289,45.0,24.41373634338379,-0.0159035474061965,-79.7827514642714,40.45899812123346,270.8212128353119,0.0056626391597092,0.0020711726974695,-0.7483170628547668,0.6633139252662659,-0.00743463331559,0.0008456995814386,0.0110147079196291,0.0008225630735978,0.0025651135947555,-0.0003520855098031,0.044291448011063,-0.1140708268247544,-9.805823333859443,14935.0
10.1,0.3000000119209289,55.0,24.411231994628903,-0.0318070948123931,-79.78275145353871,40.458998151566256,270.8114656877517,0.0056557259522378,0.0020577616523951,-0.7483086585998535,0.6633234620094299,-0.0084192454976527,0.0010820218665522,0.0101035470286761,-0.0014993286458775,-0.0014674946432933,-0.00707229366526,0.044024664228782,-0.110071614542976,-9.806624987125398,14935.0
10.3,0.3000000119209289,58.0,24.416240692138672,0.055662415921688,-79.78275144696242,40.45899817290174,270.80015797138213,0.0056577078066766,0.0020591071806848,-0.7483084201812744,0.6633237600326538,-0.0062689501620375,0.0008676411940035,0.0089845598721621,0.002625749213621,0.0038411805871874,0.0043770428746938,0.0447194093791768,-0.1235946072265505,-9.808049953579904,14935.0
10.41,0.3000000119209289,65.0,24.408727645874023,-0.0159035474061965,-79.782751442634,40.45899818594844,270.80198199272155,0.0056613553315401,0.0020614464301615,-0.7483091354370117,0.6633228659629822,-0.0085819357543595,0.0010928084751937,0.0090180595950349,0.0030566090717911,0.0010554862674325,-0.0003944698255509,0.0442622576141729,-0.1115848922263831,-9.805892331004143,14935.0
10.61,0.3000000119209289,66.0,24.411231994628903,-0.0318070948123931,-79.78275141516589,40.4589982102254,270.79051632404327,0.0056614698842167,0.0020664390176534,-0.7483105659484863,0.6633212566375732,-0.0087464288247035,0.0045790890337987,0.0081653904880609,-0.0062668779864907,-0.0006332555203698,-0.0025318546686321,0.0460500575043261,-0.1263170434255153,-9.808423590660096,14935.0
10.71,0.3000000119209289,68.0,24.416240692138672,-0.0079517737030982,-79.78275144774754,40.45899823166716,270.7774248790741,0.0056692971847951,0.0020631088409572,-0.7483097910881042,0.6633220911026001,-0.0055932715332496,-0.0011936505126098,0.0075296592226217,0.0040834471583366,0.0022879706230014,0.0041865520179271,0.0449257018882781,-0.1202004264481365,-9.807206200361252,14935.0
10.9,0.3000000119209289,69.0,24.41749382019043,-0.0238553211092948,-79.7827514483227,40.458998243999964,270.77893144607543,0.0056729479692876,0.0020655784755945,-0.7483108639717102,0.6633208394050598,-0.0082263645349088,-0.0008865948709087,0.0074567212660918,-0.0029816455207765,-0.0013423220952972,-0.0034915257710963,0.0432623608969152,-0.1247300725523382,-9.807374015450476,14935.0
11.01,0.3000000119209289,73.0,24.41373634338379,-0.0079517737030982,-79.78275145092455,40.45899826718836,270.76712805747985,0.0056740203872323,0.0020667121279984,-0.748310923576355,0.663320779800415,-0.0069448246744659,-0.0005280146727092,0.009306067054045,0.0031897400040179,0.0047698551788926,0.0074359108693897,0.0458840468293056,-0.127582143349573,-9.808327696323396,14935.0
11.2,0.3000000119209289,74.0,24.412485122680664,-0.0159035474061965,-79.7827514504771,40.45899827403753,270.76807279109954,0.0056753573007881,0.0020670858211815,-0.7483115196228027,0.6633200645446777,-0.0087301205425303,-0.000350795506552,0.0094066713776177,-0.0034471158869564,-0.0009118071757256,-0.0042357887141406,0.0439389979513362,-0.1149788263253867,-9.806501026153564,14935.0
11.3,0.3000000119209289,77.0,24.41373634338379,0.0,-79.78275145869317,40.45899829455605,270.7547634315491,0.0056775198318064,0.0020688904915004,-0.7483112215995789,0.6633203625679016,-0.007544820472219,-0.0001188107411997,0.0081905361930298,-0.0002238598826806,-0.0004152907931711,0.0002312828146386,0.043743084250018,-0.1252621600404382,-9.807751745581626,14935.0
11.5,0.3000000119209289,78.0,24.416240692138672,0.0,-79.78275145784147,40.45899830143098,270.75558299541467,0.0056801657192409,0.0020704073831439,-0.7483116388320923,0.6633198857307434,-0.0088483858480338,-7.572227268639285e-05,0.0081070591367955,-0.001771306968294,0.0033490103669464,-0.006847180891782,0.0435497287055477,-0.1099295089300722,-9.804606528282166,14935.0
11.61,0.3000000119209289,80.0,24.40121650695801,-0.0238553211092948,-79.7827514707925,40.4589983191948,270.7412552309036,0.0056850416585803,0.0020734427962452,-0.7483121752738953,0.6633192300796509,-0.0081728168228026,5.21019122209478e-05,0.0070005095294989,-0.0039299842901527,-0.0048171496018767,-0.0012310235761106,0.0427063409378752,-0.1193518035952002,-9.805629791021348,14935.0
11.8,0.3000000119209289,79.0,24.41498947143555,-0.0159035474061965,-79.78275154834536,40.45899831044654,270.72908336639404,0.0057001858949661,0.0020722893532365,-0.7483115196228027,0.6633198261260986,-0.0009350554223357,-0.0078346283097152,0.0108948444974085,0.0002630721137393,-0.0004721929435618,0.0042788265272974,0.0446745685441419,-0.1123690312542021,-9.805480102300644,14935.0
11.9,0.3000000119209289,79.0,24.398712158203125,-0.0159035474061965,-79.78275155737484,40.45899831237569,270.7301755619049,0.005703717470169,0.0020745394285768,-0.7483128309249878,0.6633182764053345,-0.0025158015824212,-0.0076657055475359,0.0110272276754797,-0.0024523241445422,0.0014434513868764,-0.0069251400418579,0.0431781518552452,-0.1110823240410536,-9.806412148475648,14935.0
12.1,0.3000000119209289,80.0,24.398712158203125,-0.055662415921688,-79.78275155986793,40.45899831131396,270.7157302570343,0.0057024001143872,0.0020803466904908,-0.7483131885528564,0.663317859172821,-7.002025454256918e-05,-0.0033555879598108,0.0118644556194542,0.0051585659384727,0.0027593981940299,0.0034960869234055,0.0461559195164591,-0.120030336426571,-9.808169821500776,14935.0
12.2,0.3000000119209289,83.0,24.404972076416016,-0.0238553211092948,-79.78275158600525,40.45899830855497,270.70174939155584,0.0057061580009758,0.0020847611594945,-0.7483137249946594,0.6633172035217285,0.0011784646733657,-0.0019106703290426,0.0131109112864621,-0.0002822598908096,-0.002836802508682,-0.0052068461664021,0.043919382370077,-0.1094848281797021,-9.804519404768945,14935.0
12.4,0.3000000119209289,85.0,24.412485122680664,-0.0159035474061965,-79.78275158839784,40.45899830771653,270.7030493688584,0.0057061580009758,0.0020847611594945,-0.7483137249946594,0.6633172035217285,0.0011607922027854,-0.0018583997038345,0.0128906687277106,0.004849397111684,0.0029118729289621,0.0055288225412368,0.0455008714785799,-0.1254435973148793,-9.807847055196763,14935.0
12.51,0.2000000029802322,89.0,24.411231994628903,-0.0238553211092948,-79.78275161308738,40.45899829769507,270.6887394857406,0.0057107945904135,0.00208893395029,-0.74831622838974,0.6633142828941345,0.0023313170333426,-0.0010200735717278,0.0136695950329277,0.0038503422401845,0.0029119353275746,-0.0005716230953112,0.0444019649550318,-0.1121401767153292,-9.805870696306233,14935.0
12.7,0.2000000029802322,88.0,24.408727645874023,-0.0238553211092948,-79.78275161459946,40.45899829583893,270.69010526657104,0.0057135862298309,0.0020909386221319,-0.7483170628547668,0.6633133292198181,0.0018080334301865,-0.0009342153333011,0.0135609703124357,0.0039417287334799,-0.0002058999525615,0.003601002972573,0.0449087129859253,-0.1268840040732175,-9.808913587331771,14935.0
12.8,0.2000000029802322,84.0,24.39996337890625,-0.0159035474061965,-79.78275164213079,40.45899832322485,270.67552275180816,0.0057097747921943,0.002086310647428,-0.7483167052268982,0.6633138060569763,-0.0042031251167183,-0.0011412802555539,0.0142074954083312,0.0033766140695661,0.0002415820636088,0.0062648630701005,0.0456482121767476,-0.1189657137729227,-9.807497391700744,14935.0
13.0,0.2000000029802322,82.0,24.40998077392578,-0.0159035474061965,-79.78275164283792,40.45899832759845,270.6769451570511,0.0057113491930067,0.002086880384013,-0.7483186721801758,0.6633115410804749,-0.0054322290799445,-0.0010169723518803,0.0140904430193753,-0.0009030959336087,-0.0021362272091209,-0.0001210644113598,0.0439528576796874,-0.1249846822489053,-9.807818988561632,14935.0
13.1,0.3000000119209289,77.0,24.408727645874023,-0.0397588685154914,-79.78275165162638,40.458998316399295,270.66257304668426,0.0057154647074639,0.0020941360853612,-0.7483204007148743,0.6633095145225525,-0.0032286475376348,0.0017737984502226,0.013999257189242,0.0046637346968054,0.0024362041149288,0.0069289514794945,0.046016728375107,-0.1237846051901579,-9.807455876469612,14935.0
13.3,0.3000000119209289,77.0,24.404972076416016,0.2862638533115387,-79.78275168191203,40.458998301484655,270.64607102394103,0.0057205227203667,0.0020972352940589,-0.7483198046684265,0.6633101105690002,-0.0009041563035266,0.001533893484201,0.0112246563341145,-0.001850384986028,0.0038322813343256,-0.005891072563827,0.0436206307634711,-0.1206025961134582,-9.806474713683128,14935.0
13.41,0.3000000119209289,77.0,24.354890823364247,1.0416823625564575,-79.7827516800398,40.45899830226725,270.6471840810776,0.0057172090746462,0.0020852759480476,-0.7482463717460632,0.6633930206298828,0.001210542694142,0.0013603687827042,0.0110022575502882,0.0019696170929819,0.0019618042279034,0.0296435412019491,0.0415437363088131,-0.0966442969255149,-9.807379277944566,14935.0
13.6,0.3000000119209289,76.0,24.392452239990234,0.278312087059021,-79.7827517093492,40.45899830013843,270.63225800514215,0.0057178679853677,0.0020650380756706,-0.7483492493629456,0.6632770299911499,-0.0030758251682792,0.0011167087837898,0.0125107515197504,-0.0081910388544201,0.0049282358959317,0.0052664736285805,0.0306450265436433,-0.1230488061904907,-9.798127813339232,14935.0
13.71,0.3000000119209289,75.0,24.392452239990234,0.2942156493663788,-79.78275174525984,40.45899825623184,270.61597616195684,0.0057231714017689,0.0020973584614694,-0.7482345700263977,0.663406252861023,0.0046793955291777,0.0013215484311015,0.0133328310302313,0.0022516464814543,0.0011119197588413,0.001168446498923,0.0476373801240697,-0.1220138855651021,-9.810622143745425,14935.0
13.9,0.3000000119209289,74.0,24.39495658874512,0.2862638533115387,-79.78275174456292,40.45899825229088,270.61730761051183,0.005724583286792,0.0020884631667286,-0.7483157515525818,0.663314700126648,0.0030368651907247,0.0012154682168866,0.0134523794635389,-0.0053052990697324,-0.0025682039558887,-0.0120857646688818,0.0453111384669318,-0.1233986615482717,-9.809505325555802,14935.0
14.01,0.4000000059604645,73.0,24.39495658874512,0.278312087059021,-79.7827517648402,40.45899825603431,270.6007140350342,0.00571462046355,0.0020914056804031,-0.7482665777206421,0.6633703708648682,-0.0026362708887314,0.0036285674286638,0.0108911124402029,-0.0048275189474225,-0.0027089500799775,-0.0105181746184825,0.0456036454299464,-0.1259200448915362,-9.80363413631916,14935.0
14.2,0.4000000059604645,74.0,24.39119911193848,0.3578298389911652,-79.78275182056187,40.458998233374096,270.5841035318374,0.0057094506919384,0.0020944017451256,-0.7482595443725586,0.6633782982826233,0.0017932170593566,-0.0011849306871614,0.0091352220841064,-0.0018318961374461,0.0002636308490764,0.0064639239571988,0.0410555075062438,-0.1134872747026384,-9.805098863840104,14935.0
14.3,0.4000000059604645,74.0,24.37993049621582,0.3975887000560761,-79.78275182221046,40.45899823245944,270.5850010585785,0.0057157566770911,0.0020688199438154,-0.7482838630676271,0.6633509397506714,1.5360883983247664e-05,-0.001078079087967,0.0089516250034037,-0.0060454178601503,-0.0001394013088429,-0.0089577753096818,0.0431870368821546,-0.1306982707511633,-9.807270519733429,14935.0
14.5,0.4000000059604645,74.0,23.03898429870605,18.957029342651367,-79.78275182401646,40.458998231970966,270.5858828496933,0.005728940013796,0.0020723240450024,-0.7482829689979553,0.6633517742156982,-0.0003380772642195,-0.0008781599260053,0.0087587235631955,-0.0048201396130025,-0.0008140947320498,0.0034943220671266,0.0420411424990743,-0.1096240193210542,-9.804849187731744,14935.0
14.6,0.4000000059604645,75.0,24.31732940673828,1.3279461860656738,-79.78275184485489,40.45899824300157,270.5686172914505,0.0059597943909466,0.0023922908585518,-0.748346209526062,0.663277268409729,-0.0034643715145025,-0.0003251834006857,0.008639768493562,-0.0020132979843765,0.0085605205968022,0.0072668623179197,0.0129947652714326,-0.1251233252137899,-9.794730581045153,14935.0
14.8,0.4000000059604645,75.0,24.38744354248047,0.2306014448404312,-79.78275189342385,40.45899821272568,270.55302257061004,0.0059226155281066,0.002445630962029,-0.7483621835708618,0.6632593274116516,-0.0033464723218339,0.0001553832476142,0.0096413991101862,-0.0067606926895678,0.0096642337739467,0.0046999864280223,0.0128410189028363,-0.1494252305477857,-9.788581649065016,14935.0
14.9,0.4000000059604645,74.0,23.78019905090332,7.41105318069458,-79.78275189119428,40.45899821374446,270.5539959144592,0.0059839556924998,0.0024346089921891,-0.7483524084091187,0.6632699370384216,-0.0031473052097662,0.0024605954997573,0.0108398190427403,-0.0041154362261295,-0.0016219130484387,-0.0162972919642925,0.0271923873131163,-0.097011885792017,-9.800856124162674,14935.0
15.1,0.4000000059604645,74.0,24.37617492675781,0.2465049922466278,-79.78275195462095,40.45899818030807,270.53775138378137,0.0061699394136667,0.0025999920908361,-0.748360276222229,0.6632586717605591,-0.0012876367349765,-0.0010627075944754,0.0120891456316516,-0.009587800130248,0.006976690609008,-0.0030331746675074,0.0432167617511004,-0.0972155790310353,-9.788962302803991,14935.0
15.2,0.5,73.0,24.37867927551269,0.2465049922466278,-79.7827519912352,40.4589981780107,270.52073091983794,0.0061331465840339,0.0025459639728069,-0.7483651041984558,0.6632537841796875,-0.0037341402079222,0.0021295493199393,0.0082167402341161,0.0198177564889192,-0.0191443003714084,-0.0113714104518294,0.053712404211983,-0.1186808355990797,-9.814546794891358,14935.0
15.4,0.5,72.0,24.260986328125,2.266255617141724,-79.78275198842957,40.4589981827654,270.5215631198883,0.0059595583006739,0.0024569821543991,-0.7483464479446411,0.663276731967926,-0.0061612976048373,0.0011380365396033,0.0086128066062087,-0.0034172411542385,0.0158459041267633,0.0081514595076441,0.0453654992999509,-0.0949038275051862,-9.811190493106842,14935.0
15.51,0.5,73.0,24.170839309692383,4.612029075622559,-79.78275203715913,40.45899816513255,270.5046112012863,0.0058878934942185,0.0023684555198997,-0.748352587223053,0.6632707715034485,-0.003603972186617,0.0004466577057251,0.0070853080361026,0.0004002023197244,-0.0013700354611501,0.0043768463656306,0.0581519438093528,-0.1257335918024182,-9.804849772453313,14935.0
15.7,0.5,73.0,24.0468864440918,5.772987842559815,-79.78275203510718,40.45899816932256,270.50535566329955,0.0058833952061831,0.0024086965713649,-0.7483661770820618,0.6632553935050964,-0.0049610924797915,0.0007521875947824,0.0069386560071942,-0.0061228857375681,-0.0069289896637201,0.0142088755965232,0.023519990989007,-0.1319546638056636,-9.801325655579568,14935.0
15.8,0.5,71.0,23.97802352905273,6.9339470863342285,-79.78275212489024,40.4589981150048,270.489059753418,0.0063780029304325,0.0028289465699344,-0.7483806610107422,0.6632328033447266,0.0034828315780777,-0.003641273897961,0.0106310016262576,-0.0147784864529967,-0.0550019405782222,0.0621501617133617,0.0255546461627818,-0.0178373972978442,-9.792447243332862,14935.0
16.0,0.5,71.0,23.84154891967773,9.494418144226074,-79.78275212887979,40.458998112992994,270.4900110435486,0.0067638051696121,0.0031523376237601,-0.748416543006897,0.6631870865821838,-0.0009806500068458,-0.0036673118508145,0.0111835284182104,-0.0279287789016962,0.0459625534713268,0.0262663513422012,0.0500889120809733,0.0480284994654357,-9.806823207736016,14935.0
16.1,0.5,69.0,23.755157470703125,10.91778564453125,-79.78275218080427,40.45899806959847,270.47393149852746,0.0078433230519294,0.0043470673263072,-0.7484549283981323,0.6631250381469727,0.0096697467977325,0.0012759747431899,0.0138428852531508,0.0186124127358198,0.1095148846507072,-0.0250256676226854,0.0289290446229279,-0.1723280799016356,-9.871941894292831,14935.0
16.3,0.6000000238418579,69.0,23.579870223999023,14.154157638549805,-79.78275226678542,40.45899802535157,270.4575546455383,0.0102479979395866,0.00515300873667,-0.7484192252159119,0.6631267666816711,0.0048960183087572,-0.0076964573813835,0.0184205869891108,0.0468913242220878,0.0378315038979053,-0.0436536967754364,-0.0508213580679148,0.0258692149445414,-9.804148106575012,14935.0
16.5,0.6000000238418579,71.0,23.384552001953125,17.581371307373047,-79.78275227964774,40.458998019743404,270.45966405391687,0.0119496546685695,0.0050101848319172,-0.7485948801040649,0.6629010438919067,0.0113095219750151,-0.0116328275345442,0.0242056794406736,0.0321762301027774,0.1049908623099327,-0.0516459345817565,0.0577983106020838,-0.0538293028436601,-9.871588722467424,14935.0
16.6,0.6000000238418579,68.0,23.29064750671387,19.131967544555664,-79.78275235118177,40.45899795878797,270.44172079086303,0.0144324712455272,0.0052848639898002,-0.7489871382713318,0.6624062657356262,0.0200625139704556,-0.0096190238636021,0.0173522101299864,0.0475653372704982,0.032275129109621,0.0150185776874423,0.0900589890684932,-0.1835070060566068,-9.795859093666078,14935.0
16.7,0.6000000238418579,65.0,23.18297004699707,21.104007720947266,-79.78275239659692,40.45899789482233,270.4288925600052,0.0091766193509101,0.0031393792014569,-0.7507890462875366,0.6604709625244141,0.0346266421242141,0.0002819244620159,0.0586158146494669,-0.0091274315491318,-0.0512956455349922,-0.0967622548341751,0.0939942657016217,-0.0361007003020495,-10.20316444158554,14935.0
16.9,0.6000000238418579,62.0,23.38705444335937,17.008844375610348,-79.78275240378386,40.45899786158347,270.4387171936035,0.0055968277156353,-2.877523002098314e-05,-0.750916600227356,0.660373330116272,0.041620070639335,0.0008555420424239,0.1477767756759042,-0.1314019113779068,-0.0227576084434986,-0.085100844502449,-0.0116370794840622,0.0566169080883264,-10.623119655847551,14935.0
17.0,0.699999988079071,57.0,23.37703895568848,17.470046997070312,-79.78275234175612,40.45899759960175,270.45851153850555,-0.0016259356634691,-0.0081681450828909,-0.7494216561317444,0.6620407104492188,0.0541970302757995,0.0063518177948345,0.3075392541622468,-0.0124355843290686,-0.1450388729572296,-0.0383679345250129,0.148185401558876,0.1520253046229481,-10.47451267004013,14935.0
17.1,0.699999988079071,60.0,23.35074615478516,17.93920135498047,-79.78275235231789,40.45899756051856,270.48949582099914,-0.0065151969902217,-0.0073827258311212,-0.7487325668334961,0.662799060344696,0.0494664365566581,-0.0035882051667054,0.2996223546934357,-0.0151655813679099,-0.0154916504397988,-0.0283975228667259,0.0303453772980719,0.1815066370368004,-9.828999942541124,14935.0
17.3,0.8000000119209291,64.0,23.27186584472656,18.82980155944824,-79.78275256688902,40.458997474084846,270.504376835823,-0.0039802985265851,-0.0006855427636764,-0.7483739852905273,0.6632646918296814,0.0435525320023069,-0.004777491354437,0.193883542740145,0.1470583826303482,0.0287123434245586,-0.0282664038240909,0.0919655011408031,0.178431494962424,-9.486257210969926,14935.0
17.5,0.8000000119209291,70.0,23.344486236572266,17.430288314819336,-79.78275255056104,40.45899748028346,270.50460035324096,-0.0033531805966049,0.0026829505804926,-0.7494317293167114,0.662067711353302,0.0239434586403042,0.0330441796967538,0.1187401825788291,-0.1034072488546371,0.0244884919375181,0.0370406322181224,0.1174153336789459,-0.14810894921422,-9.520126038193702,14935.0
17.6,0.8000000119209291,68.0,23.177963256835927,20.18955421447754,-79.78275251038716,40.4589974496576,270.5152064037323,-0.0047099920921027,-0.0005413547623902,-0.7500540018081665,0.6613596081733704,0.0368226628587967,0.0443703933000966,0.0985477241535778,0.0055260066874325,0.0401440151035785,0.0363360047340393,0.0336040648422204,0.0148342673387378,-9.622683277130127,14935.0
17.8,0.8999999761581421,66.0,23.16043472290039,20.475818634033203,-79.78275232841717,40.45899763227271,270.5366954278946,0.0003424357273615,-0.0046627051196992,-0.7513266801834106,0.6599138379096985,-0.0021575186875511,0.0796810876239136,0.1275174509060162,-0.02848413400352,-0.0125425094738602,0.0241111814975738,0.0129008763469755,0.1318675402924418,-9.833720984458925,14935.0
17.91,0.8999999761581421,65.0,23.112855911254893,21.0483455657959,-79.7827522388307,40.458997624373616,270.5491328907013,0.0009437808766961,-0.0062570152804255,-0.7518210411071777,0.6593368053436279,-0.0028879969268957,0.0801271919542737,0.1241145847440792,-0.0744246840476989,0.062064953148365,0.0110292239114642,0.1014731742907315,0.0670630684867501,-9.781246317029,14935.0
18.1,1.0,67.0,23.12287330627441,20.53148078918457,-79.7827523150603,40.458997537359146,270.54972631454467,8.788373088464141e-05,-0.008881033398211,-0.7521157264709473,0.6589712500572205,0.0163392495860305,0.0692426810509593,0.1361593214367308,-0.06271892786026,0.062658704817295,0.030387494713068,0.1683355279639363,0.045333773586899,-9.89408296108246,14935.0
18.21,1.0,80.0,23.12287330627441,20.595094680786133,-79.78275209544363,40.45899754649279,270.5692936849594,-0.0031900673639029,-0.0101470351219177,-0.7518244385719299,0.659277617931366,0.0027340699440666,0.0886920706697344,0.162123813016927,-0.0095335589721798,-0.0527950227260589,0.0151981767266988,0.2246683161891997,0.0044245469709858,-9.926317491531371,14935.0
18.4,1.0,85.0,23.12287330627441,20.467866897583008,-79.78275188463769,40.458997536841686,270.6064706516266,-0.0032509181182831,-0.0081230653449893,-0.7507964372634888,0.6604756712913513,-0.0140577087298104,0.0928758798509409,0.2095413838174505,-6.758922609151341e-06,-0.0251254606992006,-0.0446297451853752,0.0722997525986284,0.0882144026644528,-9.998576213121416,14935.0
18.51,1.0,98.0,23.03022003173828,21.278947830200195,-79.7827520115413,40.45899746239726,270.61943668842315,-0.0020460851956158,-0.0072611686773598,-0.7503293752670288,0.6610212326049805,0.0006935960560384,0.0681570309946512,0.2368884632036853,-0.0123331286013126,-3.325237116769131e-07,-0.0401966981589794,0.0987449274212122,0.128171012783423,-10.051542631387711,14935.0
18.7,1.0,103.0,23.147912979125977,19.79196548461914,-79.78275155323526,40.45899754293294,270.6473003101349,0.0018875520909205,-0.0073986030183732,-0.7503186464309692,0.6610322594642639,-0.0163924418673116,0.1149031251861997,0.2900729621277469,0.0593742802739143,0.0240095518529415,0.0572893358767032,0.1456598063930869,0.0288557077478617,-10.109197347164155,14935.0
18.8,0.8999999761581421,101.0,23.11911582946777,20.67461204528809,-79.7827514151355,40.45899755096622,270.6777321767807,0.0028918122407048,-0.0065244133584201,-0.7505241632461548,0.6608044505119324,-0.019207989185933,0.1185916869141259,0.3058524731272008,0.0405214540660381,-0.0120948012918233,0.0128599731251597,0.2023664144240319,0.0229790961323306,-10.000689396858215,14935.0
19.0,0.8999999761581421,100.0,23.10158729553223,20.467866897583008,-79.78275127419127,40.45899755708753,270.70911175727844,0.0028128172270953,-0.0051744170486927,-0.7509741187095642,0.6603055000305176,-0.020739697456357,0.125559504519135,0.3178022931879925,0.0055894339457154,-0.0459081530570983,-0.0023789217229932,0.1249799770675599,0.0990958882682025,-9.921888810396196,14935.0
19.1,0.8999999761581421,109.0,23.67502593994141,5.478772163391113,-79.7827513578638,40.45899758557061,270.7379660081864,0.0038965689018368,-0.0064484258182346,-0.7524851560592651,0.6585662364959717,-0.0092581324557089,0.0794181394561904,0.2711094886908344,0.0199706740677356,0.0606241300702095,0.0215497910976409,0.0930315033718943,-0.0340477451705373,-9.580961639285087,14935.0
19.3,0.8999999761581421,113.0,22.841161727905277,23.69628715515137,-79.78275145650173,40.45899765160926,270.7429695796966,0.0038134199567139,-0.0105448504909873,-0.7538438439369202,0.6569579839706421,-0.0206843304904886,0.045610582167262,0.0335223868130695,-0.0836516171693801,-0.0046145026572048,0.0012281613890081,0.1900777963735163,-0.0522980769490823,-8.569752350449562,14935.0
19.4,0.8000000119209291,121.0,22.92129325866699,22.7977352142334,-79.7827514041305,40.458997664093424,270.74815577983856,0.001116449246183,-0.0109085356816649,-0.7545700669288635,0.6561279892921448,-0.0245998272452438,0.0415673624462812,0.0806078379241473,-0.0571034960448741,0.000774506595917,-0.0009363964200019,0.141582013014704,0.0678380164224654,-10.008592493534088,14935.0
19.6,0.8000000119209291,122.0,22.66963005065918,27.59265518188477,-79.78275109281851,40.45899771528182,270.7964031171798,-0.0016281798016279,-0.008537788875401,-0.7555205225944519,0.6550674438476562,-0.0370868399771272,0.0634577367053005,0.3510862596463138,-0.0373212397098541,-0.0611851550638675,-0.0102671850472688,0.1102590543497354,0.1310650008078664,-10.518076765537264,14935.0
19.7,0.8999999761581421,122.0,22.761030197143555,26.61458778381348,-79.7827509688718,40.45899785127536,270.8080759716034,0.0030569648370146,-0.0054173581302165,-0.7556206583976746,0.6549798846244812,-0.0180665999480695,0.0655733419852657,0.5070202759582776,0.2785647809505462,0.0592255666851997,0.1159738823771476,0.1456049339286983,-0.1339644888695329,-11.543575479984286,14935.0
19.9,0.8999999761581421,119.0,22.44300842285156,30.96420669555664,-79.78275088716364,40.45899787788513,270.868481464386,0.0075381812639534,-0.0034244337584823,-0.7553296089172363,0.655292809009552,-0.0475419693024868,0.0740118951358677,0.7063729982417054,-0.07873997092247,-0.0378126837313175,-0.0441266708076,0.1171025990042835,0.0663660438358783,-11.788600713014604,14935.0
20.0,1.100000023841858,114.0,22.645841598510746,27.40181350708008,-79.78275077712198,40.45899796688244,271.0320012044906,0.0052101733162999,-0.0027603053022176,-0.7533688545227051,0.6575718522071838,-0.0213489790118878,0.0774347798688536,1.141868063241262,0.0378379747271537,-0.0014994115335866,0.0856024771928787,0.1675649380311369,-0.0205958121456205,-12.042155864238742,14936.0
20.2,1.100000023841858,110.0,22.581987380981445,28.87289047241211,-79.78275070250406,40.458997975143305,271.1564961147308,0.0035989510361105,-0.0033345299307256,-0.7520429491996765,0.6590959429740906,-0.0183308967315486,0.0740862480370397,1.350908913151662,-0.0530012659728527,-0.0350870601832866,-0.1245198771357536,0.1297021884284913,-0.0165351218730211,-12.002119978666306,14936.0
20.3,1.2999999523162842,111.0,22.44050407409668,31.28227806091309,-79.78275065889456,40.45899801934942,271.44207573652267,0.001470877090469,-0.006934295874089,-0.7485963702201843,0.6629881858825684,-0.0154194192423165,0.0722179522492189,1.7605042268028883,-0.0704745054244995,0.0335948690772056,-0.110220231115818,0.1127196449227631,0.0551230998057872,-11.899646354913711,14936.0
20.5,1.399999976158142,114.0,22.339088439941406,32.538658142089844,-79.78275058986567,40.45899803162639,271.62933612585067,0.0020695475395768,-0.0059233782812953,-0.7471656203269958,0.6646082997322083,-0.0002288508508189,0.083856196004772,1.989205975395524,0.0748109295964241,-0.0817237272858619,-0.0189788546413183,0.1559857516922057,-0.1000836474448442,-12.083468781709673,14936.0
20.6,1.600000023841858,111.0,22.53190422058105,27.83916091918945,-79.78275059620047,40.45899810455821,272.025932021141,0.0051386817358434,0.0021684749517589,-0.7464903593063354,0.6653729081153871,-0.0312413155351411,0.088686246397642,2.445666740000056,0.0392295159399509,-0.0983841344714164,-0.0396960191428661,0.2080426172912121,-0.1114945710171014,-12.159587835073474,14937.0
20.7,1.7000000476837158,110.0,22.53691291809082,28.363977432250977,-79.78275077300077,40.45899815622219,272.2040339947492,0.005099456757307,0.0052201300859451,-0.7468958497047424,0.6649010181427002,-0.0422708375765681,0.0762461878863909,2.5788682412969783,0.0681285262107849,-0.0189535748213529,0.0872318297624588,0.179040135294199,-0.1265189642272889,-11.801380387544633,14937.0
20.9,1.8999999761581416,120.0,22.63457298278809,26.376033782958984,-79.78275057798174,40.45899814825117,272.75049031496053,0.0051044127903878,0.0079686604440212,-0.7477343082427979,0.6639305949211121,-0.0422568891840124,0.0882035710951975,2.8646166872940086,-0.0025968065019696,-0.0143351610749959,-0.0540850348770618,0.1923855279386044,0.0715173403266817,-11.178649581670758,14937.0
21.0,2.0,129.0,22.5932559967041,27.51313781738281,-79.78275063354387,40.45899814428875,272.96910262823104,0.0057869786396622,0.0068101603537797,-0.7483998537063599,0.6631876826286316,-0.0390209191000699,0.0934988995812194,2.8895129442237133,-0.0412906110286712,0.0963065847754478,-0.0647622570395469,0.1282897112611681,0.2348054329678416,-10.746508769989012,14937.0
21.21,2.0999999046325684,142.0,22.76478576660156,23.36231231689453,-79.78275062570937,40.45899817003754,273.47423893928527,0.0068343519233167,0.0010135712800547,-0.7495939135551453,0.6618619561195374,0.0004817468069875,0.1216146292337168,2.9599528037421945,0.098478078842163,0.0865847542881965,0.1051074489951133,0.1352114898338914,-0.2124373845756054,-10.447214359045027,14938.0
21.4,2.0999999046325684,149.0,22.777305603027344,23.664478302001957,-79.78275049108345,40.45899812704667,273.7719274234772,0.0067608268000185,-0.0021208317484706,-0.7499487996101379,0.6614580154418945,-0.0102136407609196,0.1440382277688325,2.9867332742279804,-0.1979853808879852,-0.0136621920391917,-0.0434648841619491,0.1783136918395757,0.0246364574320614,-10.1672625374794,14938.0
21.5,2.0999999046325684,156.0,22.71345138549805,24.849292755126957,-79.78275035431892,40.458998079841095,274.07121307373046,0.0062430426478385,-0.0049675884656608,-0.7502772212028503,0.6610752940177917,0.0142610260318451,0.1621426700398361,2.9991312904330125,-0.0691921859979629,0.0642103552818298,-0.0095226066187024,0.1581343293562531,-0.2481639635749161,-9.915468567609787,14939.0
21.61,2.0999999046325684,163.0,22.74850845336914,23.8076114654541,-79.78275021897598,40.45899810732579,274.606892414093,0.0074392524547874,-0.0054016821086406,-0.7504293918609619,0.6608867645263672,0.0202688103666721,0.1591811560385975,2.9742193198760267,-0.0296818930655717,-0.0739862322807312,-0.0508777797222137,0.1536083103530109,0.0972873261943459,-9.976132260560991,14939.0
21.8,2.0,175.0,22.74600601196289,23.95869445800781,-79.78274991240063,40.458998240791146,275.24336511611943,0.0059958542697131,-0.0052598291076719,-0.7501393556594849,0.6612317562103271,0.0048422263431262,0.1445605583465542,2.9631731709402,-0.0339524149894714,-0.0450595244765281,-0.0975452288985252,0.1579500507004559,0.0835784011892974,-9.685363674759865,14940.0
22.0,1.8999999761581416,177.0,22.781063079833984,23.34640884399414,-79.7827497504041,40.458998254964,275.794707365036,0.0081736780703067,-0.0065896618179976,-0.7496121525764465,0.6617940664291382,0.0157747254476418,0.1302895672818428,2.886074164026585,0.0023167361505329,0.013496171683073,-0.0383214950561523,0.1876979430578649,-0.1434653737675398,-9.713104035258294,14940.0
22.1,1.7999999523162842,185.0,22.75602149963379,23.65652656555176,-79.78274965608068,40.45899822633061,276.0823953819275,0.0088530080392956,-0.0077196056954562,-0.7495551109313965,0.6618377566337585,0.0152343424894388,0.1342167475532107,2.8569223012481286,0.0026291040703654,0.0042949141934514,0.022180363535881,0.1862802490778267,-0.1251354490499943,-9.56500575721264,14941.0
22.21,1.7000000476837158,189.0,22.62080001831055,25.27868843078613,-79.78274940027549,40.45899792061728,276.26608497619634,0.0093825384974479,-0.0115298004820942,-0.7497730255126953,0.6615281105041504,0.0427367363429199,0.1356719923900462,2.7451987986078783,0.0096652088686823,0.1039737835526466,0.0615431405603885,0.1521900864690542,-0.0657456908002495,-9.579536672830582,14941.0
22.41,1.600000023841858,202.0,22.76478576660156,23.24303436279297,-79.78274926747294,40.45899781523887,276.81195432662963,0.0099219689145684,-0.0182318314909935,-0.7503942251205444,0.6606645584106445,0.0694707808708356,0.1496095618717985,2.701577548580408,0.0408603623509407,0.0784748047590255,0.0396816618740558,0.2260055378638208,0.1160470760799944,-9.567076256275175,14941.0
22.5,1.600000023841858,201.0,22.73849296569824,23.42592620849609,-79.78274885692517,40.45899772711113,277.2309926223755,0.0095692742615938,-0.0192981883883476,-0.7511422038078308,0.6597889065742493,0.0735252550459254,0.1341981849683177,2.723628309063635,-0.0524075515568256,-0.0338142290711402,0.0002029673196375,0.2484547711908817,0.0661128137167543,-9.60674318253994,14942.0
22.7,1.600000023841858,194.0,22.791078567504893,22.46376037597656,-79.78274797176802,40.458997497115455,277.9285286140442,0.0057761650532484,-0.0213388837873935,-0.7542611956596375,0.6562023162841797,0.050790572545804,0.1384518061264497,2.725252176211104,-0.1876716762781143,-0.0939490273594856,-0.0023982429411262,0.1224009803775698,0.08716432495974,-9.51727493584156,14942.0
22.9,1.7000000476837158,202.0,22.69091415405273,24.30857276916504,-79.78274796594455,40.45899747763612,278.199909992218,0.0059234211221337,-0.0200168341398239,-0.7546129822731018,0.655838131904602,0.0759850863857365,0.1033463453271994,2.693911536008578,0.1246645897626876,-0.0591975562274456,0.0540771223604679,0.1391659069620072,-0.0660576945729553,-9.521518260240557,14943.0
23.0,1.7999999523162842,210.0,22.62956428527832,25.3900146484375,-79.78274798424279,40.45899747181647,278.468003578186,0.0081522557884454,-0.0166204422712326,-0.7543640732765198,0.656195342540741,0.0537009627340482,0.0770850228019128,2.6612220120142336,0.1245729625225067,0.0164868272840976,0.0406397432088851,0.1162723217904567,-0.0741007955186069,-9.48764417052269,14943.0
23.1,1.8999999761581416,218.0,22.67338562011719,24.435800552368164,-79.78274752462389,40.45899731832213,279.15033561706537,0.0111436024308204,-0.014434409327805,-0.7530192136764526,0.6577457785606384,0.0122690699332659,0.0565621059939546,2.6896302756833337,0.1762630492448806,0.089015357196331,0.0308138523250818,0.1500947824213654,-0.0127362772263586,-9.65814079284668,14944.0
23.31,2.0999999046325684,231.0,22.57948303222656,26.034107208251957,-79.78274728896066,40.458997186444,279.833445854187,0.0151031017303466,-0.0090187527239322,-0.7502105236053467,0.660965085029602,-0.020587310009383,0.037665643483308,2.720597786616553,0.0601587370038032,0.0122870448976755,0.0080065112560987,0.2585221781954169,-0.0801323080994188,-9.701087422370913,14944.0
23.5,2.299999952316284,230.0,22.57948303222656,25.97049331665039,-79.78274735472425,40.458997196329655,280.10509950637817,0.0152724543586373,-0.0078323446214199,-0.7490230202674866,0.6623216271400452,-0.0317950637015815,0.0254663962237354,2.708818850649619,-0.0207551792263984,-0.094082660973072,0.0129540292546153,0.2545506031438708,-0.2515898289531469,-9.704999794363976,14945.0
23.6,2.400000095367432,236.0,22.688411712646484,24.87314796447754,-79.78274700683944,40.458996996685016,280.53055603027343,0.0152162741869688,-0.009661890566349,-0.7481606006622314,0.6632729172706604,-0.0189109229853114,0.0264114157291137,2.7625306584154323,0.0063583017326891,0.0534133352339267,-0.0087779639288783,0.2695715154334903,-0.0594896908197552,-9.667002248167991,14945.0
23.8,2.299999952316284,236.0,22.481822967529297,27.33819961547852,-79.78274696705925,40.458996976267954,281.51304752349847,0.0142295146360993,-0.0141666810959577,-0.7468676567077637,0.6646695137023926,0.0190345307793809,0.0223658383655631,2.7931315635209155,0.0026540961116552,0.039869550615549,0.0071037146262824,0.2770988188683986,0.1932228126749396,-9.597040897607805,14946.0
23.91,2.400000095367432,236.0,22.63707733154297,25.596759796142567,-79.78274709464398,40.45899695347031,281.7926486206054,0.0115433633327484,-0.0127679212018847,-0.7471597194671631,0.6644216775894165,0.0449381274997404,0.0030798646876638,2.8051291643931915,0.0255328062921762,-0.0981206744909286,0.0443771593272686,0.2355095108225941,-0.2241637928411364,-9.859263961315156,14946.0
24.0,2.400000095367432,237.0,22.53190422058105,26.43964767456055,-79.78274692321959,40.45899675739089,282.2137406539917,0.0088269673287868,-0.0115388659760355,-0.7475389242172241,0.6640591025352478,0.0460030763212809,-0.0171587435095433,2.8868024756545765,-0.0863914713263511,-0.094080738723278,-0.0422004908323288,0.2960501929745078,0.0973894697427749,-9.924115430116654,14947.0
24.2,2.400000095367432,250.0,22.54818153381348,26.50326156616211,-79.7827469213783,40.45899658247089,282.9125092697144,0.0069178096018731,-0.011467789299786,-0.7489486932754517,0.6624926328659058,0.0670207773322641,-0.0328036528726102,2.93318170388704,-0.0603348799049854,-0.0148405171930789,-0.0134279858320951,0.2244284889847039,0.1789548024907708,-9.770138361454013,14947.0
24.3,2.299999952316284,254.0,22.52439308166504,26.06591415405273,-79.78274706325256,40.45899654853906,283.2050679397583,0.0068854731507599,-0.0129340458661317,-0.7494510412216187,0.6618977189064026,0.0570593130939445,-0.0406634734549892,2.9248154812608504,-0.0793674886226654,-0.0324329994618892,-0.0270058196038007,0.2134954199753702,0.096301302909851,-9.737253620624545,14948.0
24.5,2.200000047683716,259.0,22.60076713562012,25.47748374938965,-79.78274716146798,40.45899619843175,283.8804047775268,0.0073309154249727,-0.0145403090864419,-0.7490708231925964,0.6622898578643799,0.1048545789813304,-0.0161792445632011,2.970487603412797,-0.0512081421911716,-0.0247337743639946,-0.0622101947665214,0.2603581856377423,-0.1130069259367883,-9.785780832767488,14948.0
24.7,2.200000047683716,262.0,22.509366989135746,26.15338516235352,-79.78274722990491,40.45899573852412,284.5581505966186,0.006069328635931,-0.010387566871941,-0.74815434217453,0.6634156703948975,0.1244675537435678,-0.0062777312719543,2.999163103167469,0.1074136644601822,-0.0072169457562267,0.034518115222454,0.2478781809099019,0.18871979881078,-9.714734823703768,14949.0
24.81,1.8999999761581416,264.0,22.52814865112305,27.099645614624023,-79.7827473556009,40.45899566356547,284.858200378418,0.0061723757535219,-0.0098354211077094,-0.7479694485664368,0.6636315584182739,0.1200074950610921,-0.0275941138972994,3.0012154084029405,0.0958587229251861,-0.0157196708023548,0.0329862907528877,0.2391264156997204,-0.1724104160070419,-9.825352449417116,14949.0
24.9,1.7000000476837158,263.0,22.466798782348643,26.781574249267567,-79.7827474803071,40.458995589606815,285.1588967514038,0.006074777804315,-0.008656270802021,-0.7481178641319275,0.6634816527366638,0.0901045335442744,-0.0249667080784429,3.014896254378104,-0.1193090602755546,-0.0437555164098739,-0.0340884774923324,0.226395821236074,0.1600910269841552,-9.928910146951676,14950.0
25.1,1.600000023841858,268.0,22.52439308166504,26.06591415405273,-79.78274759622835,40.45899538935616,285.8092768859863,0.0034984238445758,-0.0085673322901129,-0.7489052414894104,0.6626124978065491,0.1237303104424696,-0.0364642136927255,3.0521868838179644,0.1324719935655594,0.0310405790805816,0.0746981427073478,0.2213834600709378,-0.2254176003299653,-9.873956844806672,14950.0
25.3,1.7000000476837158,268.0,22.50060272216797,26.081817626953125,-79.78274733324248,40.45899551784032,286.15451747894286,0.0019545988179743,-0.0095323119312524,-0.7492151856422424,0.6622552871704102,0.0662308160034867,0.0015473109069982,3.0537083891514736,-0.1222752705216407,-0.0274713262915611,-0.0108473058789968,0.2195757568068802,0.0858134719636291,-9.922006924152376,14951.0
25.4,1.8999999761581416,264.0,22.55945014953613,25.31049728393555,-79.78274743913937,40.45899544277054,286.76661426544183,-0.0011512571945786,-0.01107326336205,-0.7496991157531738,0.6616852283477783,0.0883698472541783,0.0165847610790796,3.0584701416171294,0.0674925744533538,-0.0104999849572777,0.1175228059291839,0.1697173712030053,0.2141724544577301,-9.862883387804034,14951.0
25.6,1.8999999761581416,263.0,22.47931861877441,26.050010681152344,-79.78274758728249,40.45899542546727,287.3944867324828,-0.0003628441772889,-0.0109846368432044,-0.7502304315567017,0.6610851883888245,0.0744871346833405,0.0165855164693639,3.021945456298954,0.1578035205602646,0.0681913718581199,0.1244808435440063,0.2877861951850355,0.1121412456594407,-9.730114170312882,14952.0
25.7,2.0999999046325684,261.0,22.47180557250977,26.495309829711918,-79.78274778442079,40.458995447884334,287.7160723876953,0.0025692542549222,-0.0095652323216199,-0.7501713633537292,0.6611694097518921,0.0546355146274567,0.0001877350796205,3.0174030036818387,-0.0088643599301576,-0.016545008867979,-0.0084443781524896,0.2551960626617074,-0.0112767025642097,-9.745176597833632,14952.0
25.9,2.0999999046325684,260.0,22.41671562194824,27.354103088378903,-79.78274784004951,40.45899544615916,288.0176356506348,0.0052731456235051,-0.0091609815135598,-0.7501255869865417,0.6612108945846558,0.0219768379594147,0.0137798149622673,3.015976520224981,-0.0354571789503097,0.0139366118237376,-0.0492908172309398,0.1990895068645477,0.0577559731062501,-9.734143486618995,14953.0
26.0,2.0999999046325684,263.0,22.491838455200195,25.97049331665039,-79.78274777504117,40.458995330245045,288.6544058990478,0.0067903725430369,-0.0101691531017422,-0.7495703101158142,0.6618117690086365,0.0275833757909397,0.0446504561378391,3.0444223643465587,-0.037318866699934,-0.0258883945643901,-0.0319608747959136,0.287473277784884,0.0651984005514532,-9.9169455742836,14953.0
26.2,2.0,266.0,22.54692840576172,24.36423492431641,-79.78274780830974,40.45899537940232,289.2873233032226,0.0082486104220151,-0.0092307943850755,-0.7492109537124634,0.6622157692909241,0.0331313971270091,0.0333835146467149,3.060280044162061,0.1932427585124968,0.0375309064984321,0.1046376377344131,0.2102865045703948,0.0884794825315475,-9.906744521856307,14954.0
26.3,2.0999999046325684,272.0,22.525644302368164,25.11965370178223,-79.78274785778856,40.458995368757655,289.5930083465576,0.0082010496407747,-0.008770179003477,-0.7489708662033081,0.6624941825866699,0.013048903061707,0.034704306947677,3.0486529515183016,-0.0667593777179718,-0.0414109490811824,-0.0258219074457883,0.2499617631174624,0.0611840037815272,-9.747331296801567,14954.0
26.41,2.200000047683716,274.0,22.483074188232425,26.26470947265625,-79.78274790456015,40.45899535337119,289.8970568847656,0.0075069298036396,-0.0074846581555902,-0.7488527894020081,0.6626515984535217,0.0220034263173494,0.0406497781248848,3.0364663716599805,-0.0314750783145427,-0.0047660078853368,-0.0451276265084743,0.2148734990693629,0.1458824756741523,-9.659173411130906,14954.0
26.6,2.400000095367432,276.0,22.455530166625977,25.93868637084961,-79.7827479693712,40.45899534591119,290.5259345245361,0.0050444956868886,-0.0052825617603957,-0.7484675049781799,0.6631313562393188,0.0242151656057145,0.0231143280125352,3.0465079421957806,-0.0411752872169017,-0.0113700646907091,-0.0445512607693672,0.2265520698018373,0.2206857593357563,-9.858036046028138,14955.0
26.7,2.400000095367432,277.0,22.491838455200195,25.60471153259277,-79.78274800034923,40.45899538924183,290.8488791656493,0.0023516786750406,-0.0062379669398069,-0.7480981945991516,0.6635545492172241,0.0425960144175783,0.0112676525622476,3.0540495702958297,-0.0394062548875808,0.011261305771768,0.0024323256220668,0.2118179634399712,-0.0260827342467382,-9.87912227511406,14955.0
26.9,2.299999952316284,280.0,22.501855850219727,25.44567680358887,-79.78274806140774,40.45899532934544,291.463440246582,0.0002146571641787,-0.0059107411652803,-0.7470366358757019,0.6647565960884094,0.0647149244466032,0.0224052782390609,3.089313050638777,0.1128678619861602,0.0302128996700048,-0.0518144443631172,0.2626008852012456,0.196552582718432,-9.948334597349168,14956.0
27.1,2.299999952316284,283.0,22.44426155090332,26.20109558105469,-79.78274813658678,40.45899534349197,292.0984118652344,0.0059083118103444,-0.0056089712306857,-0.7473321557044983,0.6644006967544556,0.0295832940145751,0.0289483124066613,3.1022268754260955,-0.0977158397436142,-0.0146000804379582,-0.0339868031442165,0.271188288833946,-0.1118900894746184,-9.960251222848893,14957.0
27.21,2.200000047683716,293.0,22.35787010192871,26.94061088562012,-79.78274808014008,40.458995399348105,292.4255927276611,0.0052918908186256,-0.0060614803805947,-0.7478176951408386,0.6638553738594055,0.035008644722552,0.0480149060882646,3.118862467062314,0.0086960410699248,0.0437152758240699,0.0570759028196334,0.2343322835862637,0.0310673348419368,-10.02685802578926,14957.0
27.3,2.200000047683716,296.0,22.39042282104492,27.41771697998047,-79.78274808876533,40.45899536457463,292.7392924499512,0.0036068046465516,-0.0058794934302568,-0.7484084367752075,0.6632022857666016,0.0482760896123121,0.049881713591887,3.1526882001894063,-0.0371921695768833,-0.0937320813536644,0.0641589313745498,0.2474348888732493,-0.1358991772122681,-10.148704644441604,14957.0
27.5,2.299999952316284,304.0,22.501855850219727,24.74592018127441,-79.7827480719709,40.45899527622037,293.3807433319092,0.0028278920799493,-0.006897852756083,-0.7498581409454346,0.6615566611289978,0.0652544602585556,0.0487453989927862,3.161302977599953,-0.0608858577907085,0.0302556660026311,-0.0399386286735534,0.2272158384136856,0.0803089305572211,-9.88583487868309,14958.0
27.7,2.400000095367432,307.0,22.57697868347168,23.4179744720459,-79.78274807093317,40.45899522173943,293.6966994476318,0.0032005468383431,-0.0090894158929586,-0.7500336170196533,0.6613295078277588,0.0768063839763937,0.0570259492928758,3.1575880764601125,-0.0316043272614479,0.049318641424179,0.0629468858242034,0.1666725250147283,0.0153416137956082,-9.784180449843408,14958.0
27.8,2.5999999046325684,311.0,22.622053146362305,22.805686950683597,-79.78274796689514,40.45899520149735,294.02661163330083,0.0043867561034858,-0.0117253493517637,-0.749841570854187,0.6614990234375,0.0875180261228254,0.068343828602049,3.136094176217516,0.0023009732831269,0.0047327633947134,-0.0511022321879863,0.3334364127740264,0.041247702743858,-9.578668361306187,14959.0
27.9,2.5999999046325684,314.0,22.466798782348643,25.49338722229004,-79.78274794248566,40.4589950862279,294.64795333862304,0.0018227362306788,-0.0161279011517763,-0.7489117980003357,0.6624709367752075,0.0942187728108482,0.0987425115009888,3.074356595809527,-0.0528084672987461,0.0566123388707637,0.0380811169743537,0.2050737300887704,0.0976027195248752,-9.515171107649804,14959.0
28.1,2.5999999046325684,318.0,22.50561141967773,24.642547607421875,-79.78274780229984,40.45899498789241,295.2809127044677,0.0011917448136955,-0.0171042848378419,-0.7471692562103271,0.6644126772880554,0.1306999906521669,0.1032245265184937,3.0270263395353605,0.0435648299753665,-0.0017710909014567,0.0012288048164919,0.2483619831874967,0.1570760564133525,-9.549967303276064,14960.0
28.2,2.700000047683716,319.0,22.445512771606445,26.58278083801269,-79.78274762734377,40.45899492118069,295.6140425872802,0.0008171143126673,-0.014634869992733,-0.7467250227928162,0.6649714112281799,0.1076705918491342,0.1110803947201585,3.037506451924173,-0.0862815827131271,-0.0372126176953315,-0.0954095125198364,0.2426577685028315,0.3167638447880745,-9.658417950868609,14960.0
28.4,2.700000047683716,321.0,22.514375686645508,24.467607498168945,-79.78274756832684,40.45899484399444,296.22511131286615,-0.0033399576786905,-0.0156075982376933,-0.7475811243057251,0.6639787554740906,0.0967278949467111,0.0932397584988421,3.073240857032648,0.0538073405623436,0.0377277620136737,0.0868016481399536,0.2213415428437292,0.1095437662862241,-9.97421203494072,14961.0
28.6,2.799999952316284,320.0,22.538164138793945,24.44375228881836,-79.78274743014082,40.45899483546626,296.5614073944092,-0.0018917069537565,-0.0154838068410754,-0.7479289174079895,0.6635955572128296,0.1100419616598579,0.1039055176831768,3.0960531700160163,0.0431519038975238,-0.0821055099368095,0.0789186656475067,0.2940048552118242,-0.0289818340167403,-9.938577933311462,14961.0
28.71,2.900000095367432,316.0,22.52939987182617,24.35628318786621,-79.78274737339721,40.45899480688816,296.8721240234375,0.0021061000879853,-0.0127444425597786,-0.7484561204910278,0.6630585193634033,0.1017756877309324,0.122462243765117,3.1094785252230763,0.2079599946737289,0.0563069581985473,0.1183271557092666,0.2752492349222302,0.0342374302167445,-9.924191443920137,14961.0
28.8,3.0,314.0,22.62330436706543,22.551231384277344,-79.7827471571645,40.458994807818925,297.517380065918,0.0083820512518286,-0.010408354923129,-0.7487162947654724,0.6627559661865234,0.0454782667411995,0.1473557267692175,3.137596643110085,0.0376603566110134,0.0559415444731712,0.038421981036663,0.3979167295619845,0.0839812560752034,-9.913676980733872,14962.0
29.0,3.0,312.0,22.55319023132324,23.608816146850582,-79.7827469019123,40.45899476829074,298.16122276306146,0.0083096018061041,-0.0174850691109895,-0.7480183243751526,0.6633957028388977,0.0612680965725327,0.1823095058146365,3.112872008507705,-0.001267715357244,0.1026407033205032,-0.0090881511569023,0.4138054051995277,0.1631540543586016,-9.753731074333194,14963.0
29.1,3.0,313.0,22.56320571899414,23.1873722076416,-79.78274681040403,40.45899471403364,298.47306282043456,0.0087624071165919,-0.0210878197103738,-0.7474517822265625,0.663923442363739,0.0880387740600277,0.2000039529794302,3.1148910643967183,-0.0059388075023889,0.0855153426527977,0.0327650681138038,0.3927717645093799,0.1204972365964204,-9.811346029043198,14963.0
29.3,3.0,312.0,22.50686264038086,24.34037971496582,-79.7827465231415,40.45899471943192,299.11489898681634,0.008222023025155,-0.0234884787350893,-0.7462990283966064,0.6651455163955688,0.0985048614990612,0.2218350413624462,3.09427062364576,-0.0594377443194389,-0.0319852456450462,0.0305121708661317,0.4102860391885042,0.1199877339787781,-9.734107233881948,14964.0
29.5,3.0999999046325684,310.0,22.53315734863281,24.08592414855957,-79.78274643855559,40.45899467015495,299.42488319396966,0.0075669642537832,-0.0227632112801074,-0.7458164095878601,0.6657195091247559,0.1075461289897756,0.2171253764124078,3.0884656680217053,0.0618102177977562,0.0378605984151363,-0.0109618445858359,0.4387116568163037,0.180571466255933,-9.74743069946766,14964.0
29.6,3.0999999046325684,308.0,22.40043830871582,25.52519416809082,-79.78274616809979,40.45899462001271,300.0688422393799,0.0049809510819613,-0.0228041727095842,-0.7452476024627686,0.6663792133331299,0.102076473115578,0.2005161667130909,3.0986984230520123,-0.067224234342575,-0.0227978974580764,-0.1191334724426269,0.4493720080330968,0.3740823456645012,-9.818569679260255,14965.0
29.7,3.0999999046325684,304.0,22.515628814697266,24.12568283081055,-79.78274596850072,40.45899468188549,300.3994010162353,0.0058588073588907,-0.0226502176374197,-0.7451531887054443,0.6664829254150391,0.1104727889476181,0.1961648184201663,3.1162468432226365,0.1253568083047866,0.1007464528083801,0.0102322194725275,0.3911456172913313,0.1774770831875503,-9.886075783967971,14965.0
29.9,3.0999999046325684,306.0,22.48432731628418,24.56303024291992,-79.78274582592563,40.458994622151735,301.02286750793456,0.008310510776937,-0.0232276786118745,-0.7455642223358154,0.6659770607948303,0.0836463378765924,0.1933963198945529,3.092753992921194,0.0274097379297018,-0.0079074036329984,-0.0129039958119392,0.4017041904106736,0.1927848927676677,-9.631656998991966,14966.0
30.1,3.0999999046325684,307.0,22.54317283630371,23.537250518798828,-79.78274567014955,40.458994656404016,301.3543952178955,0.0081175547093153,-0.0232469774782657,-0.7460002899169922,0.6654902696609497,0.0867175675778501,0.1890101700493032,3.0741954568816734,0.0244564712047576,-0.0621634349226951,0.1269338428974151,0.3983974803239108,-0.0033118081279098,-9.5717750787735,14966.0
30.2,3.0,310.0,22.55694580078125,23.131710052490234,-79.78274538085789,40.45899465393165,301.9912284088135,0.00802309717983,-0.0208808109164238,-0.7469962835311891,0.6644518375396729,0.0935112544002201,0.1786461439316391,3.0203875313643733,0.0326238498091697,-0.03821512311697,0.0187364537268877,0.3834548841789365,0.2110500778444111,-9.437468628287316,14966.0
30.4,3.0,310.0,22.41045570373535,25.80350685119629,-79.78274533974218,40.45899461624674,302.29282981872564,0.0066627734340727,-0.0195653308182954,-0.7475810050964355,0.6638490557670593,0.0818413714699296,0.1706714694376848,3.0083935674229068,-0.0555722638964653,-0.050695851445198,-0.0994026958942413,0.4156895608082414,0.2607081963121891,-9.600445731282235,14967.0
30.51,3.0,310.0,22.421724319458008,25.5570011138916,-79.78274529791672,40.45899458048776,302.59380943298333,0.0049173915758728,-0.0189366582781076,-0.7479898929595947,0.6634217500686646,0.0778959647247634,0.1594532791259796,3.0056527520645524,-0.0967290475964546,-0.0816625952720642,-0.0967655256390571,0.4264664908871055,0.296862005777657,-9.756285722851754,14967.0
30.6,3.0,310.0,22.419219970703125,25.33435249328613,-79.78274506398922,40.4589945812709,303.23835021972656,0.0040426673367619,-0.0201438162475824,-0.7480454444885254,0.6633294820785522,0.0943563226805444,0.1553155487475419,3.1077139788372534,0.0269929934293031,-0.0171778351068496,0.0817877799272537,0.3205886912718415,0.061544228810817,-10.131842443943023,14968.0
30.8,3.0,309.0,22.485578536987305,24.3721866607666,-79.78274492264462,40.458994625799605,303.878931350708,0.0063670054078102,-0.020687349140644,-0.7478274703025818,0.6635401844978333,0.093251490318858,0.1629117241126536,3.1722487564165336,0.0689947754144668,0.0844152197241783,-0.0784607231616973,0.4928578604757786,0.1023690865002572,-10.218177752494812,14968.0
31.0,3.0,311.0,22.47180557250977,24.29266929626465,-79.78274487481299,40.45899459918824,304.19798309326166,0.0061125820502638,-0.0236713420599699,-0.7472995519638062,0.6640374660491943,0.0803409391495235,0.1696527793591292,3.1903182732677924,-0.0157399792224168,0.0823823511600494,-0.0684256553649902,0.4677275143191218,0.3131494980677962,-9.975154606103898,14969.0
31.1,2.900000095367432,315.0,22.50686264038086,23.720142364501957,-79.78274467733858,40.45899453453875,304.82866317749017,0.0071505852974951,-0.0233380384743213,-0.7452511191368103,0.6663370728492737,0.1254014019337798,0.170012586320366,3.1474104190805385,0.190152108669281,0.0134496372193098,-0.0130246859043836,0.367477294318378,0.2448161219805479,-9.778071863651276,14969.0
31.3,2.900000095367432,315.0,22.47430992126465,24.02230834960937,-79.78274460477282,40.45899460779586,305.1497271728516,0.0109594650566577,-0.0193304494023323,-0.7449794411659241,0.6667172908782959,0.1136827183920758,0.1521663172864258,3.1288590522797257,0.117615669965744,0.0171546246856451,0.0315811745822429,0.3178447391465306,0.1713530018739402,-9.708573612570763,14970.0
31.41,2.900000095367432,313.0,22.52439308166504,23.12375831604004,-79.78274459148042,40.45899452703205,305.7739833068848,0.006110843271017,-0.0217041615396738,-0.7479483485221863,0.6633738279342651,0.0639108202207258,0.1403999117083312,3.11128803850176,-0.114307202398777,-0.0169449634850025,0.0220540463924408,0.3771498315408826,0.0791547358687967,-9.72803665459156,14970.0
31.6,3.0,311.0,22.53065299987793,23.77580451965332,-79.7827445211124,40.458994571214006,306.0978587341308,0.0018708950374275,-0.0267606675624847,-0.7493032813072205,0.6616834402084351,0.0898344233221506,0.1387017248559156,3.0943778701068374,-0.0648193955421447,-0.0340167060494422,0.0444157943129539,0.4524292978271842,0.0490905730985105,-9.615592943429949,14971.0
31.7,3.0999999046325684,307.0,22.44426155090332,24.849292755126957,-79.78274452579642,40.45899460918984,306.7329524230957,0.0057384390383958,-0.0248283483088016,-0.7496620416641235,0.6613301634788513,0.1348672282210906,0.1490061559272831,3.0444974804927742,0.1843501180410385,0.0060521252453327,-0.0025385178159922,0.4971670025959611,0.1776516773924231,-9.5275122410059,14971.0
31.9,3.2000000476837163,307.0,22.56320571899414,22.90906143188477,-79.78274449012436,40.45899456918502,307.34373123168945,0.018966881558299,-0.0184854418039321,-0.746567964553833,0.6647818684577942,0.0501476257805977,0.1633011297346915,3.053768825017612,0.0783859342336654,0.0447055213153362,0.0314647071063518,0.4694162998348474,0.0710088335629552,-9.754832689762116,14972.0
32.0,3.299999952316284,308.0,22.356616973876957,26.081817626953125,-79.78274441900021,40.4589946223906,307.67203552246093,0.0186019893735647,-0.0213476531207561,-0.7454825639724731,0.6659234166145325,0.024649631411964,0.1799123283988808,3.071513249467752,-0.1173560470342636,-0.0047404509969055,-0.0077508077956736,0.5963685244694352,-0.0394377473881468,-9.890644798278808,14972.0
32.1,3.299999952316284,307.0,22.44050407409668,25.135557174682607,-79.78274440204417,40.45899458315818,307.980587310791,0.0122557673603296,-0.0254134312272071,-0.7446306943893433,0.666880190372467,0.0503134560015123,0.1894611162637162,3.0828823635574105,-0.0774929746985435,-0.0460499823093414,0.0188619066029787,0.5323187454789877,0.1524594603851437,-9.87922050833702,14972.0
32.3,3.400000095367432,305.0,22.45052146911621,24.10977935791016,-79.7827443196209,40.458994644662745,308.614979095459,0.0057141776196658,-0.0313011854887008,-0.7442672252655029,0.6671236157417297,0.1309461947391949,0.1719876343915469,3.119054503843398,0.0292831417173147,0.0538091696798801,0.1014919951558113,0.5063512242212892,0.156323976572603,-9.93076839208603,14973.0
32.4,3.5,305.0,22.491838455200195,23.799659729003903,-79.78274431232312,40.4589946071249,308.927536315918,0.0095935929566621,-0.0311431717127561,-0.7444716095924377,0.6668584942817688,0.1390689678494959,0.1807438231775219,3.111129228278706,0.0948881581425666,0.0622975639998912,-0.013034526258707,0.4850709041208029,0.2979104846343398,-9.6965213316679,14973.0
32.61,3.700000047683716,302.0,22.48056983947754,24.39604187011719,-79.78274433660998,40.458994614273045,309.5519259643554,0.0168639253824949,-0.0298596769571304,-0.7448857426643372,0.66631019115448,0.0925050835614909,0.2063872794151795,3.0451314751267,0.0417967438697814,-0.015919491648674,0.0503293015062809,0.6434268794953824,0.0576546975038945,-9.5098478025198,14974.0
32.8,3.799999952316284,300.0,22.41796875,25.20712280273437,-79.78274425278161,40.45899470191716,309.8697131347656,0.0152060352265834,-0.0292056482285261,-0.7450090050697327,0.6662412881851196,0.0831778450075477,0.2161022576437232,3.017453445179084,-0.0003596081223804,0.002714515896514,-0.0682996809482574,0.6463361616432667,0.2105449515022337,-9.39254213154316,14974.0
32.9,3.900000095367432,302.0,22.40419578552246,25.294591903686523,-79.78274424342062,40.458994668398105,310.1698840332031,0.0138198798522353,-0.0278477687388658,-0.7456672191619873,0.6655929684638977,0.0870261177717387,0.2076819898843524,2.9709183728464765,-0.0125604383647441,-0.0259887967258691,-0.0330002382397651,0.6377349074184895,0.2667089744657278,-9.327004199624064,14975.0
33.0,4.0,304.0,22.296518325805664,27.131452560424805,-79.78274410590481,40.45899488497672,310.76627380371093,0.0141297942027449,-0.0321915782988071,-0.7454508543014526,0.6656329035758972,0.0714710306808025,0.1796361136907911,2.918830687313821,-0.0490698367357254,0.0345592871308326,-0.055621962994337,0.5590529097989202,0.2700979110226035,-9.575283408164976,14975.0
33.2,3.900000095367432,307.0,22.2714786529541,27.43362045288086,-79.78274403212261,40.458995221266,311.35573989868163,0.012281272560358,-0.0344546735286712,-0.7454920411109924,0.6655101180076599,0.0725643026829922,0.1898433536746431,2.8911552037393777,0.0324595794081687,-0.1169252172112464,-0.0314084477722644,0.5947945271059871,0.2638285629451275,-9.549225876331333,14976.0
33.3,3.900000095367432,310.0,22.31780433654785,26.42374420166016,-79.78274407133709,40.45899522741039,311.64691192626947,0.0097368201240897,-0.0314478911459445,-0.7453898787498474,0.6658154129981995,0.0729895453745169,0.1552079529369006,2.9200146712442696,0.0174456033855676,-0.0366169810295105,-0.0270506646484136,0.50431069213897,0.3464932087808847,-9.929881954193116,14976.0
33.51,3.900000095367432,310.0,22.324064254760746,26.65434646606445,-79.7827441332134,40.458995238398046,311.9409754943848,0.0082628214731812,-0.0299127418547868,-0.7448883056640625,0.6664671301841736,0.0703043768210256,0.1171719076786932,2.9575463598743394,-0.047121774405241,-0.0251201596111059,-0.0913145020604133,0.5542683890461922,0.3260490770637989,-10.128784350156783,14976.0
33.7,4.0,310.0,22.41546440124512,23.990501403808597,-79.78274396680962,40.45899620877313,312.5542109680176,0.0069772596471011,-0.0275372564792633,-0.7446215152740479,0.6668822169303894,-0.0083358011722758,0.1032746841092209,3.0944761361902384,0.0995337069034576,-0.0026162292342633,0.0314201638102531,0.5968991227447987,0.1197625248134136,-10.423086408376694,14977.0
33.81,4.0,309.0,22.32030868530273,25.10375022888184,-79.78274421162129,40.45899587902545,313.137325592041,0.0032862571533769,-0.0240566059947013,-0.7454544901847839,0.6661141514778137,0.0360033793060626,0.1054330435844231,3.07895106144297,-0.1446687877178192,-0.1748143136501312,-0.0300297923386096,0.5998246674612164,0.2145408473163843,-9.892015385627747,14978.0
34.0,4.0,309.0,22.360374450683597,25.596759796142567,-79.78274424051662,40.45899591900988,313.44603759765624,-0.0022148366551846,-0.0218864735215902,-0.7457635402679443,0.6658474802970886,0.0352106688702041,0.1053986888492283,3.0917722801223864,-0.0541485324501991,-0.0284300036728382,-0.0706489086151123,0.6453780953586102,0.258554648514837,-9.944266104698182,14978.0
34.11,4.0,309.0,22.371641159057614,24.68230628967285,-79.78274460559886,40.45899615486976,313.7345164489746,-0.00299185491167,-0.021879892796278,-0.7457455992698669,0.6658647656440735,0.0620197809008362,0.051990789367959,3.0650068124597203,0.052662581205368,0.1198494359850883,0.0354992523789405,0.3610606694966555,0.2305441283807158,-9.842984143495562,14978.0
34.3,3.900000095367432,310.0,22.50060272216797,23.306650161743164,-79.78274469943544,40.45899633903775,314.3553355407715,0.0093925576657056,-0.0239285510033369,-0.7447850704193115,0.6668092608451843,0.055020228759789,0.1108920077792161,3.0757087414816886,0.0481687225401401,0.0916518568992614,-0.051100805401802,0.5177398826926947,0.3235432527959347,-9.91198947429657,14979.0
34.4,3.900000095367432,310.0,22.499351501464844,22.69436264038086,-79.78274468553026,40.458996383190176,314.97142059326166,0.0155391842126846,-0.0293905455619096,-0.7448001503944397,0.6664589047431946,0.0267044392789129,0.1778685506653322,3.066134391016147,0.0238568298518657,0.1285986900329589,0.0136354630813002,0.6148421810567379,0.1693619518540799,-9.707137536406517,14979.0
34.5,3.900000095367432,311.0,22.42422866821289,24.56303024291992,-79.78274468249907,40.45899659675162,315.27659255981445,0.0164777506142854,-0.032253872603178,-0.7448775768280029,0.6662173271179199,0.0402370689676007,0.1724808231146463,3.018697532899888,-0.0409051105380058,0.0852632820606231,-0.0121271843090653,0.5523506850376726,0.2195808548480272,-9.50553957402706,14980.0
34.7,3.900000095367432,309.0,22.45052146911621,23.64857482910156,-79.78274464576414,40.45899679900709,315.8919337463379,0.0118287717923522,-0.0341961346566677,-0.744943380355835,0.6661457419395447,0.0623537682475763,0.1807554094124552,3.0012804748904616,-0.0971322581171989,-0.110781505703926,-0.1000795736908912,0.607167600877583,0.306365010291338,-9.626766387820243,14980.0
34.8,3.900000095367432,307.0,22.4279842376709,24.11773109436035,-79.78274469595237,40.45899680948912,316.19175369262695,0.0057601202279329,-0.0333308950066566,-0.7455926537513733,0.6655430197715759,0.0674870412291422,0.1496282164094176,2.987043116281181,-0.1160999089479446,-0.0821654126048088,-0.0531377121806144,0.5678170455247165,0.3687391600012779,-9.658127928972243,14981.0
35.0,4.0,304.0,22.22139549255371,27.179162979125977,-79.78274469429499,40.458997018949646,316.80662185668945,-0.0008899969398044,-0.0302703194320201,-0.7465083003044128,0.6646866202354431,0.0823715642720809,0.1121529408457022,2.958938998529632,0.0598375834524631,0.0126517955213785,-0.0224955435842275,0.5429109035432339,0.2247562254220247,-9.615312861800197,14981.0
35.2,4.099999904632568,301.0,22.35787010192871,25.262784957885746,-79.78274472532942,40.45899717792923,317.4236033630371,0.0068671009503304,-0.0192115027457475,-0.7461575269699097,0.6654568314552307,0.0326350351806586,0.0919369336461087,2.9864724055099847,0.1884618401527404,0.0880692452192306,-0.0426996424794197,0.5019115064665676,0.134763063210994,-9.842371355295182,14982.0
35.4,4.099999904632568,301.0,22.124988555908203,29.206865310668945,-79.7827447350105,40.4589972393173,317.72215301513666,0.0148328328505158,-0.018774127587676,-0.7460042834281921,0.6655113101005554,-0.0231723971341794,0.0989170598728051,2.976707049104287,0.0815519541501998,0.1418837159872055,-0.0399446226656436,0.4704386124014855,0.06151650021784,-9.70232878625393,14982.0
35.51,4.099999904632568,302.0,22.352861404418945,25.159412384033203,-79.78274474892831,40.45899748990772,318.33403427124017,0.0194171592593193,-0.0227158013731241,-0.7441250681877136,0.6673716306686401,-0.0448596809949203,0.1716256981605871,3.006780141561181,-0.0972944274544716,-0.1143481284379959,-0.0212785732001066,0.6346670926362277,0.1057141689397394,-9.9677567088604,14983.0
35.7,4.099999904632568,302.0,22.243932723999023,27.179162979125977,-79.78274477854569,40.458997702884616,318.94762451171874,0.0105484565719962,-0.025187749415636,-0.7423549294471741,0.6694501638412476,0.000940073051408,0.1536895857526576,3.06165331365964,-0.1422586143016815,-0.0776094570755958,0.010493891313672,0.5708221123740077,-0.0107093422044999,-10.01748727798462,14983.0
35.8,4.099999904632568,304.0,22.32781982421875,25.69218063354492,-79.78274478851208,40.458997720545376,319.25564224243163,0.0053645656444132,-0.0267119240015745,-0.7421925067901611,0.6696327328681946,0.0339671432319701,0.1564878398448261,3.085692634942686,-0.0407971478998661,-0.0493369996547699,0.19100521504879,0.5474550671875477,0.2229463659971952,-9.947573289871215,14984.0
35.9,4.199999809265137,303.0,22.33407974243164,25.14350891113281,-79.78274478299991,40.45899773050997,319.5646594238281,0.003137914231047,-0.0243132580071687,-0.7427495718002319,0.6691204309463501,0.0743220143229234,0.1552087365370007,3.0835896562911524,0.0195990856736898,-0.1397790610790252,0.1309871971607208,0.5186491247266531,0.2869059882313013,-9.844843558073045,14984.0
36.1,4.300000190734863,302.0,22.483074188232425,23.306650161743164,-79.78274489587889,40.45899790438862,320.1708644104004,0.0084589654579758,-0.0208455212414264,-0.7455835342407227,0.6660324335098267,0.0609096740823605,0.1465713622647857,3.037535034319254,-0.0323343537747859,0.0300813093781471,-0.0121333440765738,0.5277292659133673,0.2121270253323018,-9.626740075349806,14985.0
36.2,4.300000190734863,302.0,22.4279842376709,23.99845314025879,-79.78274486416986,40.45899803573267,320.481361694336,0.0105200335383415,-0.0243918038904666,-0.7473966479301453,0.6638468503952026,0.0503137288645327,0.1684866578470707,3.006548347650264,-0.0634490549564361,0.0006770864711143,0.0173019524663686,0.5899801124632359,0.1251477282028645,-9.493561552762984,14985.0
36.41,4.300000190734863,303.0,22.32781982421875,26.137481689453125,-79.7827447578754,40.45899801302736,321.0781214904785,0.0079152807593345,-0.0329339206218719,-0.7486355304718018,0.6621160507202148,0.0690453568311297,0.2192701247123353,2.943546758662772,-0.025796690955758,0.0228248462080955,-0.0717193931341171,0.6186200670897961,0.2679428100585937,-9.438562057614329,14986.0
36.6,4.300000190734863,303.0,22.40043830871582,24.23700714111328,-79.78274479471608,40.4589981751873,321.3927195739746,0.0065758805721998,-0.0359497405588626,-0.7478064894676208,0.6629102230072021,0.097222628198014,0.2207596327441298,2.9514093265906167,-0.0411567725241184,-0.0201299637556076,-0.1366613060235977,0.6732394201308489,0.3462827821075917,-9.602997456192972,14986.0
36.7,4.400000095367432,303.0,22.356616973876957,25.11170196533203,-79.78274467316828,40.45899826026512,321.9988597106933,0.0110095478594303,-0.0342811979353427,-0.7452970743179321,0.6657596826553345,0.0856432701451549,0.2305588689798663,2.92010560665368,0.1250025779008865,0.0369210019707679,0.07784054428339,0.5832880106940865,0.2255388204194605,-9.40652107000351,14986.0
36.8,4.400000095367432,304.0,22.304031372070312,25.66037368774414,-79.78274463144649,40.45899827675896,322.29019195556634,0.0159579645842313,-0.0318945609033107,-0.7443328499794006,0.6668559312820435,0.0560700717920592,0.2212765052491788,2.8903318767235127,0.0668156296014785,-0.0005138959386385,-0.0430254787206649,0.5476947299391032,0.2649050353467465,-9.43907193481922,14987.0
37.0,4.400000095367432,302.0,22.33783721923828,25.70013236999512,-79.78274456070599,40.458998285907626,322.8979113769531,0.0183019638061523,-0.0300226435065269,-0.7435977458953857,0.6677020788192749,0.0056372474928409,0.2332229857433342,2.930437422640192,-0.0838101431727409,-0.0220672190189361,-0.1698401719331741,0.5973632089421154,0.3346438262611628,-9.780614817738533,14987.0
37.1,4.400000095367432,302.0,22.324064254760746,25.67627716064453,-79.78274453958667,40.4589983082254,323.19139892578124,0.0174534637480974,-0.0291143245995044,-0.7430382370948792,0.6683876514434814,0.0166913329608079,0.2110670386472505,2.9196155142960385,0.03127883374691,-0.083348661661148,0.0339201651513576,0.6054501640051604,-0.0412663772888481,-9.735490685105324,14988.0
37.31,4.400000095367432,300.0,22.24768829345703,26.86109161376953,-79.78274452561863,40.45899850648303,323.7915118408203,0.0172318816184997,-0.0270031504333019,-0.7430819272994995,0.668433427810669,0.0164829168876449,0.1907239907507636,2.9644011565581705,0.075517751276493,-0.0485628359019756,0.0264718402177095,0.6807959961891175,0.0219564066943712,-9.997565814256667,14988.0
37.5,4.400000095367432,299.0,22.297771453857425,25.60471153259277,-79.78274452958514,40.45899852698221,324.0903857421875,0.0162422247231006,-0.0238105431199073,-0.7437760233879089,0.6678072810173035,-0.0014885203015037,0.1839125441453944,3.0046238313839635,-0.0802439302206039,-0.0942597016692161,-0.0722799003124237,0.5254081405699254,0.3838864817842841,-10.06408841729164,14989.0
37.61,4.400000095367432,297.0,22.167558670043945,27.735788345336918,-79.78274457122474,40.45899866554903,324.6989825439453,0.0108344182372093,-0.0207268726080656,-0.7456842064857483,0.6658890247344971,2.1821094983026645e-07,0.149010060070365,3.0904906665452114,-0.0919416174292564,-0.0505785830318927,-0.0976938754320144,0.5735010507702828,0.2604556331411004,-10.231604129076004,14989.0
37.7,4.400000095367432,294.0,22.292762756347656,26.00230026245117,-79.7827446311812,40.4589987258335,324.99148590087884,0.0087982174009084,-0.0218384396284818,-0.7463163137435913,0.6651749014854431,0.0250479321271779,0.1334939561550743,3.087487493560148,0.0087737748399376,0.0801871195435524,0.0538069494068622,0.4619771797209978,0.1428836397640407,-10.103878719806673,14989.0
37.9,4.400000095367432,291.0,22.319055557250977,25.135557174682607,-79.78274462109219,40.45899876615341,325.6138117980957,0.0089545603841543,-0.0234734527766704,-0.7463588714599609,0.6650694012641907,0.0257651813793549,0.150339064771433,3.117058371713174,0.0677687972784042,0.0093064028769731,0.083925113081932,0.5215282571688294,-0.0610267867706716,-9.92333073377609,14990.0
38.1,4.300000190734863,290.0,22.39417839050293,23.67243003845215,-79.78274458143851,40.4589989600031,325.9078028869629,0.0111151728779077,-0.022673362866044,-0.7458100318908691,0.665679931640625,0.0131857377381556,0.145523564320864,3.09076840487175,0.1092096418142318,0.0134719396010041,-0.0375827550888061,0.5331299370154738,0.1252998014912009,-9.921729766130449,14990.0
38.2,4.199999809265137,290.0,22.380407333374023,24.18929672241211,-79.78274456624172,40.45899903191184,326.52747756958007,0.0207291096448898,-0.0159690584987401,-0.7446185946464539,0.6669771075248718,-0.0226443522527209,0.1648395103976579,3.095998810472945,0.1140645965933799,-0.0008643979090265,0.0553153678774833,0.5988054246827961,0.0436326266918331,-9.84713566660881,14991.0
38.4,4.199999809265137,291.0,22.45803451538086,22.82954216003418,-79.782744602204,40.45899919265578,327.13885528564447,0.02119642496109,-0.0171224903315305,-0.7444283962249756,0.6671460866928101,-0.0372060062238792,0.1723804612330511,3.0654015280706424,-0.0264463424682617,0.0056821163743734,-0.0592974312603473,0.5409534019231796,-0.0108913390757516,-9.779959344863892,14992.0
38.5,4.199999809265137,292.0,22.34284400939941,24.29266929626465,-79.78274466987921,40.45899922179265,327.44423706054687,0.0194232556968927,-0.0193617157638072,-0.7440417408943176,0.6675701141357422,-0.011528499409144,0.1738441006271183,3.0449319029207387,-0.0757857337594032,0.0350990854203701,-0.1098715439438819,0.6251726762205363,0.2487340853735805,-9.689673072695731,14992.0
38.6,4.199999809265137,293.0,22.330324172973643,25.06399154663086,-79.7827446584262,40.45899920007285,327.7491915893554,0.0162184536457061,-0.0230772625654935,-0.7436005473136902,0.6680289506912231,0.0173483732054193,0.1875870420561754,3.0415859687523223,-0.0922964587807655,0.0098384032025933,0.1427725255489349,0.6098312634229661,0.0361944476142525,-9.787200536727903,14992.0
38.8,4.300000190734863,293.0,22.42422866821289,22.91701316833496,-79.78274468735276,40.45899925773361,328.36765701293945,0.0122630381956696,-0.0309173297137022,-0.7422365546226501,0.6693121194839478,0.0888262165949302,0.1995031537604701,3.0185277573181786,-0.0149481017142534,0.0257249660789966,0.0593891404569149,0.6755077012628318,0.1632803176715969,-9.538455889821051,14993.0
39.0,4.400000095367432,292.0,22.540668487548828,21.39027214050293,-79.78274465804073,40.45899922289088,328.6680110168457,0.0152254719287157,-0.031303271651268,-0.7420839667320251,0.6694024801254272,0.1082657018616283,0.2191258160169708,2.970921682521257,0.1108350083231926,0.0972326025366783,0.0414529927074909,0.6457484433799983,0.2590658778883517,-9.373235210180283,14993.0
39.11,4.5,293.0,22.38416290283203,23.65652656555176,-79.7827446666129,40.45899917187855,329.2778475952148,0.0170431975275278,-0.0340286381542682,-0.7422230243682861,0.6690714359283447,0.0793507268515762,0.2366262542843654,2.915344070492361,-0.0278870780020952,0.0581467933952808,-0.1335020065307617,0.7506937582790852,0.2678172959201038,-9.491294587254522,14994.0
39.31,4.599999904632568,294.0,22.34910583496093,25.19917106628418,-79.78274457968766,40.45899926089088,329.591240234375,0.0155568299815058,-0.0353904925286769,-0.7420896291732788,0.6691850423812866,0.1046419711887786,0.2552365464327772,2.927436841380442,0.0755030140280723,0.0307605620473623,0.0842022597789764,0.6381103717535734,0.1966981601156294,-9.54972639799118,14994.0
39.4,4.699999809265137,299.0,22.263965606689453,26.01025199890137,-79.78274447767032,40.45899916715821,330.16892654418945,0.0122814355418086,-0.0411135777831077,-0.7423285245895386,0.6686608195304871,0.1279419972906539,0.2613154717105948,2.809229722888925,-0.128078892827034,0.009558186866343,0.0633241236209869,0.6470176546275616,0.209623667858541,-9.13425892174244,14995.0
39.6,4.800000190734863,301.0,22.35787010192871,24.58688545227051,-79.78274450672832,40.45899922657204,330.47877151489257,0.0087713077664375,-0.0441171452403068,-0.7429295182228088,0.6678566932678223,0.143715250703278,0.2814903137302442,2.796269019537833,-0.1630167365074157,-0.0796392038464546,0.0806167423725128,0.7040676221251488,0.2881766978278756,-9.195843551158903,14995.0
39.7,4.900000095367432,302.0,22.192598342895508,27.529041290283203,-79.78274436549722,40.45899904486836,331.06658584594726,0.0132599081844091,-0.0425867214798927,-0.7436858415603638,0.6670397520065308,0.1836047035765181,0.2633637032438644,2.804498878543007,0.2462279349565506,0.1355983167886734,0.0008414397016167,0.7636416864395142,0.3600088650360704,-9.7085443764925,14996.0
39.9,5.0,302.0,22.13625717163086,28.228797912597656,-79.78274431000834,40.45899901112279,331.3496249389648,0.0200570616871118,-0.0401048362255096,-0.7443894743919373,0.6662384271621704,0.1172917277634742,0.2788267591274705,2.8272443641563187,0.0671162009239196,-8.292088750749825e-05,0.1273031830787658,0.7458495593816042,0.1905127195827663,-9.877207896709445,14996.0
40.01,5.099999904632568,302.0,22.302780151367188,25.06399154663086,-79.78274425682052,40.45899899420385,331.63594085693364,0.0211821123957634,-0.0380706153810024,-0.744913637638092,0.6657369136810303,0.0709864449209975,0.2951461008964332,2.8730876330054307,-0.0804241076111793,-0.0832888707518577,-0.0435151867568492,0.8506709133088589,0.016620290223509,-10.166753829717637,14996.0
40.1,5.099999904632568,304.0,22.26772117614746,25.3900146484375,-79.78274406707894,40.45899880511315,332.25565368652343,0.0219617094844579,-0.0323912650346756,-0.744675874710083,0.6662779450416565,0.0685133497916381,0.2858449719983518,2.9710004102162624,-0.0367091186344623,-0.0074978172779083,-0.0138850258663296,0.6944340419769287,0.2396061431989073,-10.0523705971241,14997.0
40.3,5.199999809265137,305.0,22.21138000488281,25.962541580200195,-79.78274400704342,40.45899878380451,332.8486750793457,0.0212564524263143,-0.0366484522819519,-0.7437918186187744,0.6670673489570618,0.0832931805268269,0.2633567767757377,2.976816138023515,-0.0570773482322692,0.0368205346167087,0.1558779031038284,0.6155014546215535,0.1579632617533207,-9.85325302362442,14997.0
40.4,5.199999809265137,306.0,22.299022674560547,25.41386985778809,-79.78274398533837,40.458998726072906,333.1477740478516,0.0195035748183727,-0.0355588756501674,-0.7438615560531616,0.6671020984649658,0.1134317488711081,0.271769237092565,2.9782988259784373,-0.1092486828565597,-0.0587651096284389,-0.0267714168876409,0.7515661628544331,0.3639764201268554,-9.795253906846046,14998.0
40.61,5.300000190734863,306.0,22.223899841308597,26.12157821655273,-79.78274407823646,40.45899863825112,333.7348750305176,0.0110058579593896,-0.0373146012425422,-0.7443294525146484,0.6666785478591919,0.1426862485959272,0.2316675208552209,2.9999809492910345,-0.1331961154937744,0.0283877048641443,-0.1226606667041778,0.6589554031938315,0.4824865809828043,-9.98435929298401,14998.0
40.8,5.300000190734863,304.0,22.243932723999023,26.00230026245117,-79.78274395312759,40.4589984558958,334.3243106079101,0.0066826064139604,-0.045763935893774,-0.7452253699302673,0.6652069091796875,0.19472271607532,0.2639132215817176,2.950254581885672,0.0137058310210704,0.056439496576786,-0.0151000469923019,0.7041906329244375,0.169748653806746,-9.830930693149568,14999.0
40.9,5.300000190734863,302.0,22.435497283935547,23.31460189819336,-79.78274390954495,40.45899842300799,334.62084228515624,0.0109321931377053,-0.0472340285778045,-0.7456048130989075,0.6646223664283752,0.1647126751544645,0.2714755459367415,2.9405847322144543,0.0385591238737106,0.118353009223938,-0.0461052469909191,0.9251212444156408,0.2611684270016849,-9.679939797520635,14999.0
41.0,5.400000095367432,301.0,22.24894142150879,25.914831161499023,-79.78274406063672,40.4589984643016,334.9097102355957,0.0152648724615573,-0.0490734428167343,-0.7452206015586853,0.6648346781730652,0.1248041255429465,0.2696450004318216,2.8881008855792394,0.0703265517950058,0.1027329862117767,-0.1399197280406952,0.8951676397025585,0.2636513192206621,-9.437423604726792,14999.0
41.2,5.5,302.0,22.20261573791504,26.717960357666016,-79.78274402528405,40.45899848176269,335.4954264831543,0.0196848642081022,-0.0428844131529331,-0.7448800206184387,0.6655278205871582,0.0741835175870433,0.3026382359865993,2.863118923899046,0.1079021692276001,-0.0687274783849716,-0.1938035190105438,0.9654792384803296,0.4470416367799044,-9.639284107089043,15000.0
41.4,5.5,301.0,22.326568603515625,24.006404876708984,-79.78274396070928,40.45899854736224,336.0693133544922,0.0300346445292234,-0.032421801239252,-0.7449055314064026,0.6657045483589172,-0.0198540044515906,0.2707346125405368,2.826350659145365,0.0373799875378608,0.05875875800848,-0.0639516040682792,0.8458172126859427,0.3940589924901724,-9.590780868530274,15001.0
41.5,5.599999904632568,301.0,22.26772117614746,25.73989295959473,-79.78274399576891,40.45899861360915,336.35634643554687,0.0319675244390964,-0.0352168902754783,-0.7443003058433533,0.666149377822876,-0.041532707927086,0.2762478018807437,2.791747775339837,-0.0323102846741676,0.0832833126187324,-0.0332044623792171,0.8970228881388903,0.118944206982851,-9.393733209371566,15001.0
41.6,5.699999809265138,300.0,22.3353328704834,24.157489776611328,-79.78274396079185,40.4589986386129,336.6355822753906,0.0316002443432807,-0.039328183978796,-0.7439228296279907,0.6663584709167479,-0.0279711049953337,0.2939320634391677,2.770819032854005,-0.1274778097867965,0.0516388081014156,-0.1697853952646255,0.8936608122289181,0.2603548234887421,-9.480528693795202,15001.0
41.8,5.699999809265138,298.0,22.296518325805664,25.06399154663086,-79.78274398022045,40.45899876600312,336.93057281494134,0.0267265364527702,-0.0441411733627319,-0.7436913847923279,0.6665287017822266,-0.0159694156403449,0.3063495134866229,2.784663412425052,-0.1849491894245148,-0.0719107687473297,-0.1307189166545868,0.8496113978326321,0.3187543100863695,-9.696371058225632,15001.0
41.9,5.699999809265138,296.0,22.1988582611084,26.46350288391113,-79.78274395561455,40.45899882404069,337.4917987060547,0.0279751364141702,-0.0437463894486427,-0.7433463931083679,0.6668882369995117,0.0257727948030272,0.2694303411018897,2.816878909860161,0.0877262651920318,-0.0405018180608749,0.2294518202543259,0.6999867041409016,-0.0282113171741366,-10.000166655778887,15002.0
42.11,5.699999809265138,294.0,22.266469955444336,25.11965370178223,-79.7827440376998,40.45899891829618,338.0735858154297,0.0329053066670894,-0.0321799032390117,-0.7462074160575867,0.6641207337379456,-0.0344499724183758,0.2736074092578686,2.9070420107232247,-0.0525595024228096,-0.2895584106445312,0.1345532983541488,0.8294078790396452,-0.2084654988907277,-10.1294637966156,15003.0
42.3,5.599999904632568,294.0,22.360374450683597,23.537250518798828,-79.78274438586324,40.45899900921189,338.34581787109374,0.0262184161692857,-0.0306613948196172,-0.7467376589775085,0.6638941764831543,-0.0416779142223381,0.2384227970583365,2.9256166872726763,-0.0694162920117378,-0.1195844858884811,-0.0208407863974571,0.999709789082408,0.0656587774213403,-10.137585579156877,15003.0
42.4,5.699999809265138,293.0,22.41045570373535,22.85339736938477,-79.78274442047979,40.458999036061066,338.9365695190429,0.0245781168341636,-0.0358314141631126,-0.7455015778541565,0.665086030960083,0.0178057478185877,0.2284330086159411,2.9507492439368352,-0.0774295255541801,0.1129975616931915,0.0090315993875265,1.047683708444238,-0.045815839972347,-9.85488673567772,15003.0
42.6,5.699999809265138,292.0,22.46053695678711,22.105932235717773,-79.78274455458669,40.45899904376584,339.2112734985352,0.0275341402739286,-0.0424747802317142,-0.7448925375938416,0.6652615070343018,0.0202150031634424,0.2581769484421824,2.8989171712992734,-0.0413533337414264,0.0383180119097232,0.0202901102602481,1.0006404465436936,0.0852750347647816,-9.65523180305958,15004.0
42.7,5.599999904632568,293.0,22.217639923095703,25.67627716064453,-79.78274469623557,40.45899909500362,339.78168518066406,0.031496375799179,-0.0448442809283733,-0.7436586022377014,0.6663098931312561,0.0363997363915567,0.2998573749906306,2.8771993057518195,0.0680385455489158,0.0255789179354906,-0.04187947884202,1.0548818501830102,-0.0302298491075634,-9.66302438735962,15004.0
42.9,5.599999904632568,292.0,22.431739807128903,22.54327964782715,-79.78274471301734,40.45899911269552,340.07302886962884,0.0318277664482593,-0.0420334450900554,-0.7433601021766663,0.6668103933334351,0.0135620111805846,0.301154195379229,2.9194172234547136,-0.020418681204319,-0.0894237458705902,-0.0157397706061601,1.1135877491533757,-0.048272437993437,-10.10503646850586,15005.0
43.01,5.400000095367432,293.0,22.380407333374023,22.479665756225582,-79.78274483508163,40.45899918253877,340.65022308349614,0.0295024774968624,-0.0433586798608303,-0.7405266165733337,0.6699776649475098,0.0153961431183905,0.256980035069239,2.9531815539674646,0.0207104850560426,0.0441432707011699,-0.247538611292839,0.949969279691577,0.1624874535016715,-10.03174045085907,15005.0
43.2,5.400000095367432,294.0,22.362876892089844,23.282794952392567,-79.78274495373806,40.45899929195583,341.235153503418,0.0272003933787345,-0.0479739606380462,-0.7317038178443909,0.679388165473938,0.0529515734502026,0.2546393698690142,2.9668882632423546,0.0775093659758567,-0.0562657564878463,-0.0211355835199356,0.983507008329034,0.3464932453259826,-9.843163068294524,15006.0
43.3,5.300000190734863,296.0,22.304031372070312,24.69820976257324,-79.78274505648271,40.458999299297744,341.53421051025384,0.026621475815773,-0.0421484857797622,-0.7285524010658264,0.6831737160682678,0.0816200307222887,0.2251180468238868,2.9938830557199214,0.0270566139370203,-0.2252091914415359,0.0519815310835838,0.8171606665849686,0.2315452082455158,-10.019523278474807,15006.0
43.4,5.300000190734863,297.0,22.350357055664062,23.96664619445801,-79.78274517432611,40.45899929410075,341.8357012939453,0.0241934116929769,-0.0357926674187183,-0.7287193536758423,0.6834483742713928,0.078125545777388,0.1904329283195397,3.0171587171002656,0.0556267499923706,-0.0590533688664436,0.1156434789299964,0.8182719299197198,0.2698347132280469,-10.018497676849368,15006.0
43.6,5.300000190734863,297.0,22.3741455078125,23.61676788330078,-79.78274563931575,40.45899945062247,342.4185412597656,0.0157586317509412,-0.0361079312860965,-0.7338567972183228,0.6781607866287231,0.0901709858792039,0.1305274687152039,3.0121275609398657,-0.082525260746479,-0.0265804808586835,0.0342114195227623,0.8127169288694859,0.4195666302368045,-9.888524597883224,15007.0
43.7,5.300000190734863,295.0,22.26897430419922,25.24688148498535,-79.78274582513122,40.45899942340079,342.71698791503906,0.0124913062900304,-0.0365981087088584,-0.737136960029602,0.6746359467506409,0.1166043969069678,0.1184285528615668,3.0077051637108587,-0.0916702672839164,-0.0797610208392143,0.2210851907730102,0.7195400125533342,0.1590192323550582,-9.99789910554886,15007.0
44.0,5.300000190734863,298.0,22.449268341064453,22.32858085632324,-79.78274602839535,40.45899935845072,343.32788116455083,0.0087050525471568,-0.0433970652520656,-0.7418845891952515,0.6690652370452881,0.1567140152312766,0.1568324001611373,3.0989092336058675,-0.0846097916364669,0.1703681498765945,-0.0840937793254852,0.9967752908170224,0.4554559993743897,-10.26268441915512,15008.0
44.1,5.300000190734863,299.0,22.28900718688965,24.65049934387207,-79.78274620716319,40.45899928869228,343.63324768066406,0.0085382079705595,-0.0487879998981952,-0.7434500455856323,0.6669549345970154,0.1794856378322787,0.1673301697224614,3.0889034482678253,-0.0422745980322361,0.1664112657308578,-0.1391089409589767,1.0187460574507714,0.6030837227404118,-9.912675937414171,15008.0
44.21,5.300000190734863,302.0,22.33157730102539,22.98857879638672,-79.78274643968594,40.45899925826823,344.25112182617187,0.0101968208327889,-0.050732247531414,-0.7454559206962585,0.6645433306694031,0.1856824971984369,0.2114044998456149,3.0519456705567016,0.0868856012821197,0.0127860680222511,-0.0152836013585329,0.9066933057457208,0.3034103756770491,-9.727741370201109,15009.0
44.3,5.300000190734863,304.0,22.402942657470703,22.59099006652832,-79.78274650408994,40.45899925930741,344.5570147705078,0.0097188400104641,-0.0513326749205589,-0.7455517053604126,0.6643968820571899,0.1584946045586078,0.2213579628399973,3.03605490437842,-0.0143911326304078,0.0836564227938652,-0.1799727827310562,1.0709542380273342,0.3937960505113005,-9.656179636716844,15009.0
44.51,5.300000190734863,306.0,22.32155990600586,24.73796844482422,-79.78274661308497,40.45899935942549,345.1712115478516,0.0159355793148279,-0.052444040775299,-0.7441109418869019,0.6658037304878235,0.1328780590522549,0.2293994562235236,2.955253361706924,0.132316380739212,0.0796463415026664,-0.0444827862083911,0.8266843921691179,0.4552419181913138,-9.3949406594038,15010.0
44.7,5.300000190734863,307.0,22.319055557250977,23.70423889160156,-79.78274668256545,40.4589993510884,345.7934115600586,0.0213951002806425,-0.0479998253285884,-0.7423644661903381,0.6679320931434631,0.1028457031916575,0.235466336817131,2.9645098959368013,0.095257319509983,-0.1015111654996872,-0.0750092342495918,0.7817888125777245,0.1668609698116779,-9.480583072900773,15010.0
44.8,5.400000095367432,309.0,22.290258407592773,24.809534072875977,-79.78274675980718,40.45899936763375,346.09059173583984,0.0246811974793672,-0.0425851680338382,-0.7418138384819031,0.6687971353530884,0.0908426210153994,0.2284787134614105,2.9600781429141483,0.1143248751759529,-0.1210455745458602,0.0435742922127246,0.8542780606448651,0.2357033094763756,-9.669127711057664,15011.0
44.9,5.5,309.0,22.23516845703125,25.73194122314453,-79.78274684007587,40.45899937880928,346.3874743652344,0.0241800583899021,-0.0386610403656959,-0.7418705224990845,0.6689909100532532,0.060633214406124,0.2171466743894532,2.9603053886402413,0.0099676493555307,-0.056328497827053,0.0861149951815605,0.8978808939456941,0.1121714319102466,-9.759018711447718,15011.0
45.1,5.5,309.0,22.087427139282227,27.9345817565918,-79.78274700087259,40.45899916258922,347.021171875,0.0188482198864221,-0.0418156534433364,-0.7416254878044128,0.6692443490028381,0.1177825731850904,0.2068446791686946,3.0068080558431487,0.0203394014388322,0.0013250437332317,0.1105599179863929,0.9071726312488316,0.3339090870693326,-9.842137466669085,15012.0
45.21,5.599999904632568,309.0,22.16254997253418,26.12157821655273,-79.7827470477322,40.45899920350925,347.34349853515624,0.0174715518951416,-0.0433331876993179,-0.7414106726646423,0.6694231033325195,0.1341449177659935,0.229151120472569,3.0480664299689324,-0.0744695514440536,-0.115323469042778,0.0384341143071651,0.934395513162017,0.3096586006879807,-9.993407274484635,15012.0
45.4,5.599999904632568,308.0,22.163801193237305,26.86904335021973,-79.78274713701317,40.45899912440888,347.95954162597656,0.0148678682744503,-0.0447282716631889,-0.7410581111907959,0.6697844862937927,0.159339917197061,0.236793274048484,3.0732187225240213,0.0235062874853611,0.015913201496005,0.0583741404116153,0.9186422371119262,0.3330635065957904,-9.829313353300096,15012.0
45.6,5.599999904632568,306.0,22.34660148620605,23.56110572814941,-79.78274727720847,40.45899910682218,348.59525329589843,0.0153082842007279,-0.0512030757963657,-0.7408145070075989,0.6695802807807922,0.1608658066357842,0.2469327266604214,3.113730119703365,0.000963726604823,-0.0170278549194335,0.1185284927487373,0.8827568513900041,0.2800179316475987,-9.99507490038872,15013.0
45.7,5.599999904632568,306.0,22.366634368896484,22.98857879638672,-79.7827473207347,40.45899910762627,348.9173129272461,0.0186046753078699,-0.0529253631830215,-0.7402343153953552,0.6700044870376587,0.1680845478007686,0.2591103653446253,3.081261746901005,0.0742950960993766,0.1295449584722519,-0.0664625763893127,0.966174837872386,0.4358102684095502,-9.495484117269516,15013.0
45.8,5.599999904632568,306.0,22.25520133972168,24.85724449157715,-79.78274737519918,40.458999094711615,349.2242053222656,0.0230747405439615,-0.0526426583528518,-0.7394999265670776,0.670698344707489,0.1455485126817813,0.2651682904042086,3.0276009856799067,0.0385803207755088,0.0085873957723379,-0.0330501981079578,0.9399730259925128,0.2903862144425511,-9.333265398144723,15014.0
46.0,5.599999904632568,308.0,22.15754127502441,26.837236404418945,-79.78274739328766,40.45899909733213,349.8574069213867,0.0236011501401662,-0.0478732362389564,-0.7395516633987427,0.6709802746772766,0.105996673152908,0.2727829969474526,3.055901652643904,0.0123683894053101,-0.0531310327351093,-0.2519651949405669,1.008830933868885,0.618092794418335,-9.86854115366936,15014.0
46.2,5.599999904632568,307.0,22.330324172973643,24.21315193176269,-79.78274755483542,40.45899909326664,350.4912646484375,0.0177200064063072,-0.0447097904980182,-0.7401996850967407,0.6706650257110596,0.0999865619115745,0.2278593862598524,3.0898365016910088,-0.0274236164987087,0.0039028692990541,0.0222572274506092,0.8780544474720955,0.2231484969332814,-9.974947614669802,15015.0
46.3,5.599999904632568,307.0,22.20512008666992,25.69218063354492,-79.78274763718069,40.45899909765096,350.8002322387695,0.0138250039890408,-0.0453667864203453,-0.7408549785614014,0.6699885129928589,0.1068487651311393,0.2072344506832322,3.0771439796819773,0.018026253208518,-0.0114479279145598,0.0555106736719608,0.8584652517735959,0.2219632297754288,-9.654716078639034,15015.0
46.4,5.599999904632568,307.0,22.350357055664062,22.948820114135746,-79.78274771689897,40.45899910439492,351.1090701293945,0.0132218180224299,-0.0452617742121219,-0.7419202327728271,0.668828010559082,0.1242307671404328,0.19971444230076,3.077322691127052,0.0434858798980712,-0.0290796235203742,0.0890751183032989,0.7977126080542803,0.2621988708525896,-9.644452461004258,15016.0
46.6,5.599999904632568,306.0,22.099946975708008,27.20301818847656,-79.78274790985236,40.458999185261256,351.740654296875,0.0108691742643713,-0.0437642931938171,-0.7439543604850769,0.6667072772979736,0.1107653572370976,0.2032970207015718,3.0601669835881418,-0.0135270385071635,-0.0304492879658937,0.1161459386348724,0.9336920200288296,0.2816466552950442,-9.730818759799003,15016.0
46.7,5.5,306.0,22.14627265930176,26.7497673034668,-79.78274802834315,40.45899921166383,352.07279235839843,0.0110302455723285,-0.0430849120020866,-0.7442410588264465,0.6664288640022278,0.108089747558426,0.1966047958920858,3.098320882637714,0.0089737921953201,-0.1059292331337928,0.1577336639165878,0.8446387063711882,0.0440883349254727,-9.90262223482132,15017.0
46.9,5.5,306.0,22.1888427734375,26.32832336425781,-79.78274811981309,40.45899925849367,352.699280090332,0.0128832459449768,-0.0419302508234977,-0.7435744404792786,0.6672129034996033,0.1062209800359699,0.2075366299635176,3.1504845971593696,0.0746696814894676,0.0934613347053527,-0.0650556534528732,0.9913208618760112,0.4106406728178263,-10.047828480005265,15017.0
47.1,5.5,306.0,22.25520133972168,25.024232864379893,-79.78274811429759,40.45899933013617,353.0251467895508,0.0146505543962121,-0.0440830513834953,-0.7426681518554688,0.6680464744567871,0.0807376528659782,0.2236804165823144,3.160657518571247,-0.0105324890464544,0.1152840033173561,-0.0878381058573722,0.8322070142626763,0.4150073734670877,-9.963996949195865,15018.0
47.2,5.5,306.0,22.2426815032959,24.97652244567871,-79.78274820940152,40.45899946724083,353.66488677978515,0.0174059011042118,-0.0451291613280773,-0.7401425242424011,0.6707081794738771,0.0717978299848025,0.2539335088345631,3.1217808080886367,-0.0721072703599929,-0.0055889352224767,-0.2127469182014465,0.93238253608346,0.5691903006657958,-9.559095391631129,15018.0
47.3,5.5,307.0,22.18132972717285,25.95458984375,-79.78274823153171,40.45899949905081,353.9761050415039,0.0177521146833896,-0.044687982648611,-0.7391534447669983,0.6718184947967529,0.071603085305926,0.2608060163743992,3.0809183065979298,-0.0533892326056957,-0.070253662765026,-0.0436688624322414,0.9722205664962532,0.4073189426958561,-9.506420749425889,15018.0
47.5,5.5,308.0,22.2426815032959,25.07989501953125,-79.78274826567042,40.45899961361333,354.61176330566406,0.0136749977245926,-0.0439162887632846,-0.7386320233345032,0.6725378036499023,0.0864279706179657,0.2528680201525212,3.048914902017005,-0.0327175483107566,0.0170606225728988,0.1497208327054977,0.7904880076646805,0.3221539543569088,-9.445476390123368,15019.0
