time,wind_speed,wind_angle,battery_voltage,battery_current,position_x,position_y,position_z,orientation_x,orientation_y,orientation_z,orientation_w,velocity_x,velocity_y,velocity_z,angular_x,angular_y,angular_z,linear_acceleration_x,linear_acceleration_y,linear_acceleration_z,node_ids
0.0,1.0,345.0,24.40372085571289,-0.0079517737030982,-79.78278097641268,40.45899557969695,269.1271800994873,-0.0145861804485321,0.0032810585107654,-0.9998793005943298,0.004235956352204,0.0124198662899725,-0.0394595439980672,-0.0136856461342814,-0.0033636859152466,0.0012690080329775,-0.0103482287377119,-0.1281596746668219,0.2914779626950621,-9.801125680804253,14934.0
0.1,0.8999999761581421,345.0,24.40622520446777,-0.0079517737030982,-79.78278101114063,40.45899551353572,269.1327275633812,-0.0145795494318008,0.003252028953284,-0.999879002571106,0.0043563772924244,0.0103513996456021,-0.0342643374940039,-0.011749007519333,-0.003393393009901,0.0006715761846862,-0.0080276457592844,-0.1254664562735706,0.2711411822028458,-9.804299549460412,14934.0
0.3,0.8999999761581421,342.0,24.398712158203125,-0.055662415921688,-79.78278102436151,40.45899554683785,269.13160943984985,-0.0146030634641647,0.0032159525435417,-0.9998785257339478,0.0044089243747293,0.0107665604616292,-0.0397351811130932,-0.0117465050855294,0.0020232514943927,0.00493038399145,0.0067546730861067,-0.1264153862837702,0.2743866061605513,-9.803096777200698,14934.0
0.4,0.8000000119209291,342.0,24.40121650695801,-0.0238553211092948,-79.78278106206638,40.45899551540347,269.1375390291214,-0.0146251590922474,0.003154169768095,-0.9998778700828552,0.0045364713296294,0.0094772103588268,-0.0426462944792155,-0.0104330105484379,0.0055069127120077,0.0040453616529703,0.004762555938214,-0.1318104659859091,0.2850940274633467,-9.80142739713192,14934.0
0.6,0.8000000119209291,344.0,24.39620780944824,-0.0636141896247863,-79.78278107327536,40.458995554525536,269.1365671753884,-0.014626458287239,0.0031243844423443,-0.9998775720596312,0.0046062162145972,0.0076264429920637,-0.0475339815787914,-0.0101728934544522,-0.0057024406269192,-0.0011616986012086,-0.0088186766952276,-0.1298764537274837,0.2834418235905469,-9.801157840490342,14934.0
0.7,0.8000000119209291,347.0,24.39370346069336,-0.0397588685154914,-79.78278110409245,40.45899550272377,269.14286005496984,-0.014624023810029,0.0030702780932188,-0.9998772740364076,0.0047242557629942,0.0068467164106538,-0.0446987052769105,-0.0091407285585857,-0.0075855259783566,-0.003874298883602,-0.0067310407757759,-0.1306959227286279,0.2758093250915408,-9.802675777673722,14934.0
0.9,0.8000000119209291,350.0,24.40246772766113,-0.0318070948123931,-79.78278111335895,40.458995544289216,269.14199501276016,-0.0146351912990212,0.0030545194167643,-0.9998769760131836,0.0047593931667506,0.0070495627139063,-0.0502233194217156,-0.0091488546736718,0.0076928050257265,0.0008203507750295,0.0029393739532679,-0.1304280562978237,0.274803110640496,-9.802892709374428,14934.0
1.0,0.8000000119209291,352.0,24.40246772766113,-0.0159035474061965,-79.78278120535806,40.45899547292587,269.1484860777855,-0.0146072609350085,0.00305320112966,-0.999876856803894,0.0048659387975931,0.0144685629535753,-0.0459652515134407,-0.0085468776981541,0.005178936291486,0.0029927887953817,0.0016942420043051,-0.1268757722899317,0.2758627174794674,-9.803749326467514,14934.0
1.2,0.8000000119209291,358.0,24.39996337890625,-0.0318070948123931,-79.78278121845,40.458995399533954,269.15564489364624,-0.0146324774250388,0.0030460627749562,-0.9998762607574464,0.0049270470626652,0.0122692634610537,-0.0417535212046324,-0.0081097248525532,-0.0007344909245148,-0.0006261484231799,0.0054478794336318,-0.1280506606400013,0.2709142371453345,-9.804727565646171,14934.0
1.3,0.8000000119209291,357.0,24.3974609375,-0.0715659633278846,-79.78278126548476,40.45899533302133,269.1622790694237,-0.0146165629848837,0.0030197056476026,-0.9998759627342224,0.0050428789108991,0.0140746384580985,-0.0335292130156468,-0.0081425139839385,0.0018111374229192,0.0030508374329656,0.0076073734089732,-0.1319075480382889,0.2843546835891902,-9.801018676757812,14934.0
1.5,0.8000000119209291,359.0,24.39620780944824,-0.0318070948123931,-79.78278128240092,40.45899536550507,269.1615344285965,-0.0146217439323663,0.0029795733280479,-0.9998758435249328,0.0050758882425725,0.0132326168981401,-0.0387939679440722,-0.0079563121343768,0.0016804588958621,-0.0010981557425111,-0.0069683766923844,-0.1293188120797276,0.2906978344917297,-9.80074093401432,14934.0
1.6,0.8000000119209291,6.0,24.40372085571289,-0.0159035474061965,-79.7827812989587,40.458995401274606,269.16080832481384,-0.0146289533004164,0.0029537789523601,-0.9998754262924194,0.0051381420344114,0.0132824164527124,-0.0441371173907944,-0.0079605923931431,0.0053018182516098,0.0031630822923034,0.0069254823029041,-0.1266563372500241,0.2707415250129998,-9.80274243593216,14934.0
1.8,0.8000000119209291,6.0,24.39370346069336,-0.0318070948123931,-79.78278134063254,40.458995365655625,269.16797173023224,-0.0146647617220878,0.0029122112318873,-0.9998743534088136,0.0052686594426631,0.0143593763158243,-0.046619569073375,-0.0080381269103037,0.0032411362044513,0.0003541337500791,0.0088902739807963,-0.1259262118767947,0.2740991241484881,-9.80132039308548,14934.0
1.9,0.8999999761581421,7.0,24.38994789123535,-0.1033730581402778,-79.78278138034737,40.458995264638936,269.1756526231766,-0.0146644217893481,0.002911307150498,-0.9998738765716552,0.0053693074733018,0.0153731071870546,-0.0351895452395771,-0.0081627697988468,0.0073754666373133,0.0001192741037812,0.003491468494758,-0.1311694558337331,0.288054509293288,-9.800421091318134,14934.0
2.1,0.8999999761581421,7.0,24.398712158203125,-0.0874695107340812,-79.78278139834714,40.45899529742277,269.17492228746414,-0.0146620627492666,0.0029017969500273,-0.9998735189437866,0.0054386942647397,0.013573061706928,-0.0402521763532318,-0.0078488287679088,-0.0062167132273316,0.0002778540947474,-0.0070999325253069,-0.1260875128023326,0.2808392279036343,-9.801722681522367,14934.0
2.2,1.0,6.0,24.38744354248047,-0.1033730581402778,-79.78278140648416,40.458995263549625,269.1827259063721,-0.0146683380007743,0.0028636150527745,-0.9998728036880492,0.0055722994729876,0.0110076158289213,-0.0439137398347582,-0.0076218634552915,-0.0033233971334993,-0.0020218859426677,0.0006447571795433,-0.1307337651774287,0.2785079064778984,-9.802107428312302,14934.0
2.4,0.8999999761581421,3.0,24.40121650695801,-0.0159035474061965,-79.78278141211929,40.45899514631584,269.1935717463493,-0.0146570401266217,0.0028735287487506,-0.9998726844787598,0.0056302365846931,0.0147993383908037,-0.028203188873391,-0.0037089300874675,0.0035651489160954,0.0020558957476168,0.0003845510364044,-0.1300799825135618,0.2820373589359224,-9.801171873807908,14934.0
2.51,0.8999999761581421,356.0,24.39620780944824,-0.0238553211092948,-79.78278142941258,40.45899517397205,269.1932770013809,-0.0146672185510396,0.0028447429649531,-0.9998721480369568,0.005705433897674,0.0138150186015236,-0.0336701088884138,-0.0035266245647797,-0.0010039312765002,-0.0022830688394606,0.0042227548547089,-0.1273998746741563,0.2702241012454033,-9.803321310281753,14934.0
2.7,0.8000000119209291,356.0,24.40121650695801,-0.0079517737030982,-79.78278143595143,40.45899511624623,269.2035170197487,-0.0146778682246804,0.0028173984028398,-0.9998714327812196,0.0058175646699965,0.0112277211998027,-0.0323519840529793,-0.0013029755046637,0.0009190583368763,-0.0007441373891197,0.0057447007857263,-0.128811602666974,0.288924775980413,-9.800320519208908,14934.0
2.8,0.8999999761581421,346.0,24.39996337890625,-0.0397588685154914,-79.78278146236754,40.45899503414363,269.21378535032267,-0.014672877267003,0.0027940771542489,-0.9998708963394164,0.0059340400621294,0.0145359326851552,-0.0246700550756725,-0.0001251101221101,0.0053244051523506,0.0037164292298257,0.0087141916155815,-0.1323300002329051,0.2909086814336479,-9.799998337626455,14934.0
3.0,0.8999999761581421,342.0,24.40246772766113,-0.0159035474061965,-79.78278147898445,40.458995058567936,269.2138482928276,-0.0146688604727387,0.0027621760964393,-0.9998706579208374,0.005999335553497,0.0128943594967853,-0.0299382890059686,0.0003202105849381,-0.0050363326445221,-0.0010047147516161,-0.0128702921792864,-0.1315433761384338,0.2900730960443616,-9.800872496366502,14934.0
3.11,0.8999999761581421,338.0,24.40372085571289,0.0,-79.78278148310882,40.45899500441063,269.22399306297297,-0.0146742304787039,0.0027374979108572,-0.9998696446418762,0.0061622187495231,0.0104441795084816,-0.0298754460732037,0.0008636274918483,-0.0073650637641549,-0.0003487752110231,-0.0087176924571394,-0.1277124448958784,0.2720746536366641,-9.803863931894304,14934.0
3.3,0.8999999761581421,337.0,24.40121650695801,-0.0238553211092948,-79.78278149605467,40.45899503380775,269.2241256833076,-0.0146814072504639,0.0026995546650141,-0.9998693466186525,0.006203182041645,0.0106943256582938,-0.0357373374075906,0.0008057143932881,0.0044478997588157,0.0034663998521864,0.0018228199332952,-0.1292734413407743,0.2770432155020535,-9.801970603466035,14934.0
3.4,0.8000000119209291,338.0,24.40121650695801,-0.0238553211092948,-79.78278150015515,40.45899499856951,269.2345829606056,-0.0146648222580552,0.002684568753466,-0.9998689889907836,0.0063096531666815,0.0087887338806514,-0.0376309359628482,0.0013026843100934,0.0045532207004725,0.0021009726915508,0.000522987334989,-0.1303136061877012,0.2776539571769536,-9.803297921419144,14934.0
3.6,0.8999999761581421,336.0,24.40372085571289,-0.0079517737030982,-79.78278151057691,40.45899503326214,269.2347732782364,-0.0146695468574762,0.0026718354783952,-0.9998685121536256,0.0063856495544314,0.0075802752507244,-0.0429852718871242,0.0014592278994455,-0.0040660575032234,0.0016701373970136,0.0040305186994373,-0.1271191991865635,0.2729092340357602,-9.803255821466449,14934.0
3.7,0.8999999761581421,334.0,24.40246772766113,-0.0159035474061965,-79.78278151049452,40.45899499285096,269.24532943964005,-0.0146693270653486,0.0026332575362175,-0.9998677372932434,0.0065183918923139,0.0071069923224288,-0.0420941969830937,0.00167310077352,0.0019649777095764,0.0014640617882832,0.0060618487186729,-0.1292044167872518,0.2865061117708683,-9.800205329060557,14934.0
3.9,0.8999999761581421,331.0,24.398712158203125,-0.0238553211092948,-79.78278152390162,40.45899488951175,269.2540140748024,-0.0146589633077383,0.0026550295297056,-0.9998674988746644,0.0065738195553421,0.0110126311297061,-0.0285457801011742,-0.002418964521934,-0.0058848280459642,-0.0015372586203739,-0.0121427346020936,-0.1322372213657945,0.2892512333393097,-9.80048658013344,14934.0
4.02,0.8999999761581421,332.0,24.398712158203125,-0.0238553211092948,-79.78278155071374,40.4589949500733,269.2536469101906,-0.0146587118506431,0.0026268118526786,-0.9998666644096376,0.0067060464061796,0.009606980141025,-0.0399477314311108,-0.0021333154792952,-0.0058360225521028,-0.0022858267184346,-0.0091548031195998,-0.1260390540026128,0.2753009462356568,-9.802157129645348,14934.0
4.2,0.8999999761581421,329.0,24.40246772766113,-0.0079517737030982,-79.78278153878101,40.45899488670288,269.26375931501394,-0.0146703626960515,0.0025986500550061,-0.9998661875724792,0.0067587178200483,0.0095103645501942,-0.0376620900205749,-0.001008252391853,0.0067908763885498,0.0032130084000527,0.0042003164999186,-0.1293441195599735,0.274627913441509,-9.801634388566017,14934.0
4.3,1.100000023841858,325.0,24.40246772766113,-0.0238553211092948,-79.78278153583338,40.45899483762344,269.27246850728994,-0.0146689554676413,0.0025854564737528,-0.9998654127120972,0.0068773040547966,0.0083420685074409,-0.0314978547909882,-0.0036737963740217,0.0004283510497771,0.0003650011203717,-0.0020223616156727,-0.1265895693562924,0.2744180714897811,-9.802212093472482,14934.0
4.5,1.100000023841858,324.0,24.40246772766113,-0.0238553211092948,-79.78278154561889,40.45899486840957,269.2721529006958,-0.0146742770448327,0.0025592260062694,-0.9998648166656494,0.006965790875256,0.0073532861291682,-0.0371577633769488,-0.0035223687906102,-0.0035059058573096,0.0032484238035976,0.0030454883817583,-0.1269751749560237,0.2715869775786996,-9.802404466867449,14934.0
4.6,1.2000000476837158,318.0,24.40121650695801,-0.0079517737030982,-79.78278154282846,40.45899482977863,269.2805761694908,-0.0146578587591648,0.0025210508611053,-0.9998642802238464,0.0070920712314546,0.007111408549357,-0.0369160219174355,-0.0050105476542125,0.004697666503489,0.0033602674957364,0.0080431625247001,-0.1310080087278038,0.2895723185688257,-9.799233521819117,14934.0
4.8,1.2000000476837158,316.0,24.398712158203125,-0.0238553211092948,-79.78278155122445,40.45899486554728,269.2801278233528,-0.0146612888202071,0.0024981645401567,-0.9998638033866882,0.0071573443710803,0.0056204200368722,-0.0426073334170522,-0.0047633793047476,-0.0033756890334188,-0.0021704465616494,-0.0118858059868216,-0.1306000740732997,0.2917459661699832,-9.798782116770743,14934.0
4.9,1.2999999523162842,312.0,24.39996337890625,-0.0238553211092948,-79.78278154468839,40.458994797048994,269.2904565930366,-0.0146704874932765,0.0025010262615978,-0.999862790107727,0.0072752903215587,0.0055158462530333,-0.0356303616731014,-0.001745094754402,-0.0045587355270981,-0.000100142780866,-0.0122574064880609,-0.1260597659368068,0.2707216262072325,-9.803070464730265,14934.0
5.1,1.2999999523162842,305.0,24.40622520446777,0.0079517737030982,-79.7827815524231,40.45899483048425,269.29032456874853,-0.0146686090156435,0.0024799858219921,-0.999862551689148,0.0073205051012337,0.0061045815849336,-0.0417302050323713,-0.0017430502170141,0.0075389221310615,0.0028094637673348,0.0085907680913805,-0.1281743657961487,0.2709834901057184,-9.803262253403664,14934.0
5.2,1.2999999523162842,302.0,24.408727645874023,0.0477106422185897,-79.78278155548733,40.45899477079126,269.2987374663353,-0.0146789597347378,0.0024759527295827,-0.9998619556427002,0.0073811756446957,0.007986526652979,-0.0384330811435787,-0.0033168572882191,-0.0045137861743569,-0.0023958042729645,-0.0080490512773394,-0.1333498734142631,0.2833163825422525,-9.801053760051726,14934.0
5.4,1.2999999523162842,296.0,24.40121650695801,-0.0079517737030982,-79.78278157096749,40.45899475495591,269.3068309426308,-0.0146829793229699,0.002472773194313,-0.999860942363739,0.0075143175199627,0.0101133290269933,-0.0408030100822635,-0.0046422932545214,-0.0099114999175071,-0.0021980232559144,-0.0082780783995985,-0.1303587393835187,0.2822964636795223,-9.801908038258553,14934.0
5.5,1.2999999523162842,289.0,24.398712158203125,-0.0318070948123931,-79.78278159689197,40.45899483706621,269.3060225844383,-0.0146828731521964,0.0024631298147141,-0.9998599290847778,0.0076499795541167,0.0088749105153331,-0.05225761774552,-0.0043429727199729,-0.0090675400570034,-0.001877112314105,-0.0050634541548788,-0.1280529995262622,0.2721501923538744,-9.802284014225007,14934.0
5.7,1.2999999523162842,292.0,24.40372085571289,0.0,-79.78278158441746,40.45899473147068,269.31405144929886,-0.014676728285849,0.0024634639266878,-0.9998596906661988,0.0076917014084756,0.0088625133543116,-0.0360636779049949,-0.0058784786382591,0.0060697877779603,0.0043796296231448,0.0016526745166629,-0.1308110854681581,0.2777757254429162,-9.802699751257895,14934.0
5.81,1.2000000476837158,300.0,24.3974609375,-0.0238553211092948,-79.7827816049906,40.45899468902657,269.32197505235666,-0.0146724916994571,0.0024787688162177,-0.9998589754104614,0.0077933599241077,0.0118132882478834,-0.0338077386690093,-0.00673244977083,0.0039589367806911,-0.0022279405966401,-0.0023283450864255,-0.1285937390662729,0.275568894892931,-9.802274073958396,14934.0
6.0,1.100000023841858,294.0,24.40246772766113,0.0,-79.78278161924703,40.4589947220008,269.3213562965393,-0.0146851921454072,0.002444002777338,-0.9998583793640136,0.0078540937975049,0.0110046616466639,-0.039744269503593,-0.0066920633622434,0.0035202100407332,0.0001078777058864,0.0082782339304685,-0.1250749851856381,0.2705181796476245,-9.802844762206078,14934.0
6.1,1.0,299.0,24.39996337890625,-0.0079517737030982,-79.78278164186396,40.45899465051409,269.3306645751,-0.0146884489804506,0.0024703661911189,-0.999857485294342,0.007949442602694,0.013906832153071,-0.0294349705454349,-0.0036081489065301,0.0053262612782418,0.0026397572364658,0.00473437551409,-0.1318316530063748,0.2891002289950847,-9.79914932191372,14934.0
6.3,0.8999999761581421,301.0,24.40121650695801,-0.0238553211092948,-79.7827816580442,40.458994679304816,269.3303698301316,-0.014680340886116,0.0024414372164756,-0.9998572468757628,0.0080018648877739,0.0122307506687245,-0.0349791369988174,-0.0034356893869378,-0.0056107686832547,0.0010467506945133,-0.0106420144438743,-0.1322924592811614,0.2853268380090594,-9.799684926867483,14934.0
6.4,0.8999999761581421,310.0,24.3974609375,-0.0079517737030982,-79.78278165786493,40.458994666061656,269.3384119272232,-0.0147254671901464,0.0024296971969306,-0.9998557567596436,0.008114717900753,0.0100142500397705,-0.0409204688836808,-0.0048546796582911,-0.0021070907823741,-0.0007756830891594,0.0026933571789413,-0.1304305413644761,0.2766332343220711,-9.80071637570858,14934.0
6.6,0.8000000119209291,312.0,24.40246772766113,-0.0079517737030982,-79.78278167051114,40.458994703316215,269.3379864096641,-0.0147102093324065,0.0024334858171641,-0.9998555183410645,0.0081690084189176,0.0092119413449884,-0.0462321416271651,-0.0046899413060069,-0.0017817246261984,0.0029635094106197,-0.0076547139324247,-0.1289214206859469,0.2885184858553111,-9.800769000649453,14934.0
6.7,0.699999988079071,320.0,24.40121650695801,0.0079517737030982,-79.78278166715097,40.458994654728265,269.3457384705544,-0.0147415921092033,0.0024192766286432,-0.9998540878295898,0.0082919895648956,0.0070633789327251,-0.0409534566502876,-0.0056406584360232,-0.0048130573704838,-0.0010002327617257,-0.0080732991918921,-0.1260680616740137,0.2706912937760353,-9.802333715558053,14934.0
6.9,0.699999988079071,328.0,24.38368797302246,-0.0238553211092948,-79.78278165254748,40.45899458366561,269.3544515967369,-0.0147432042285799,0.0024527877103537,-0.9998535513877868,0.008344224654138,0.0078483507217147,-0.0344961891321825,-0.0062906566535591,0.0023718518204987,0.0045957802794873,0.0050972653552889,-0.1278785789106041,0.2783317042887211,-9.802051879763605,14934.0
7.0,0.699999988079071,335.0,24.39119911193848,-0.0238553211092948,-79.7827816703662,40.458994654032615,269.35330909490585,-0.0147473625838756,0.0024510414805263,-0.9998525977134703,0.0084552932530641,0.0061284849470436,-0.0457075476819804,-0.0060023815699596,0.0037183007225394,0.0006789056933484,0.0027586000505834,-0.1301885579992086,0.2749870969355106,-9.802826051115993,14934.0
7.2,0.6000000238418579,331.0,24.398712158203125,0.0477106422185897,-79.78278168768459,40.45899459783335,269.36187714338297,-0.0147190559655427,0.002465141005814,-0.9998524785041808,0.0085040880367159,0.0113807125771866,-0.041328801496952,-0.0065777338347191,-0.0053442399948835,0.0003712768957484,0.0067856516689062,-0.127201160704717,0.270803066957742,-9.802857041358948,14934.0
7.3,0.699999988079071,332.0,24.392452239990234,0.0795177370309829,-79.78278168993093,40.4589945412845,269.36951559782034,-0.0147132184356451,0.002490654354915,-0.9998515248298644,0.0086222989484667,0.0095019156055803,-0.0293247778917569,-0.0074524327181589,0.0022377003915607,0.0030033541843295,0.008227321319282,-0.1289628536906093,0.2867200833186507,-9.800532188415527,14934.0
7.5,0.699999988079071,330.0,24.39119911193848,0.055662415921688,-79.78278170132526,40.45899457005289,269.36882066726685,-0.0147016253322362,0.0024782272521406,-0.9998512268066406,0.00867754034698,0.0082893083953145,-0.034815333326294,-0.0072897925838453,-0.0016782693564891,-5.102225986775011e-05,-0.0092787640169262,-0.1333490602858364,0.2884175117500127,-9.798572786450388,14934.0
7.61,0.8000000119209291,340.0,24.39495658874512,0.0954212844371795,-79.7827816626538,40.45899457861931,269.37522447109217,-0.0147313475608825,0.0024690208956599,-0.9998498558998108,0.0087873935699462,0.0006146520392786,-0.0450358427940546,-0.0094826708220273,-0.0039139650762081,-0.0010600796667858,-0.0113797821104526,-0.1272799976170063,0.2700394388660788,-9.802988018989565,14934.0
7.8,0.8999999761581421,338.0,24.37993049621582,0.1669872552156448,-79.78278166473079,40.45899462189588,269.37429809570307,-0.0147455912083387,0.0024524049367755,-0.9998493194580078,0.0088330814614892,0.0008806786418771,-0.0509060230721912,-0.0094857362086107,0.0062487074173986,0.0028603852260857,0.0031056655570864,-0.1286323306895792,0.2731237354874611,-9.803008484244348,14934.0
7.91,1.0,348.0,24.386192321777344,0.0636141896247863,-79.78278155043756,40.458994573761686,269.38440680503845,-0.0147836497053504,0.0024469634518027,-0.9998478293418884,0.0089377667754888,-0.0144949248520581,-0.0433264699777618,-0.0038266268265092,0.0025807996280491,0.0043566208332777,0.0006095836288295,-0.1278120028786361,0.2795064830034971,-9.803149986863136,14934.0
8.1,1.100000023841858,349.0,24.39370346069336,0.0715659633278846,-79.78278153395841,40.45899461380402,269.3840193748474,-0.0147689981386065,0.0024540091399103,-0.9998473525047302,0.0090067023411393,-0.0155644648289024,-0.048593420625763,-0.0036286209735401,-0.0006135774310678,0.000305293535348,0.0057217297144234,-0.1265079184714704,0.2707739039696753,-9.8031102257967,14934.0
8.2,1.100000023841858,351.0,24.39370346069336,0.0715659633278846,-79.78278153299787,40.45899460431744,269.3915432691574,-0.0147815877571702,0.0024418656248599,-0.9998463988304138,0.0091063324362039,-0.0078791312848453,-0.0494927360868665,-0.0046277628610329,0.004355049226433,0.0002835000341292,0.0090912031009793,-0.1330970452912152,0.2884457793831825,-9.7993767786026,14934.0
8.41,1.2000000476837158,349.0,24.392452239990234,0.0874695107340812,-79.78278154377003,40.45899453891105,269.39953601360315,-0.0147755546495318,0.0024873961228877,-0.9998456835746764,0.0091723091900348,0.0004311486409249,-0.038934368689784,-0.005740021945331,-0.007297127507627,0.0004890743875876,-0.0084540843963623,-0.1301218540593982,0.2863144510053098,-9.79960189640522,14934.0
8.5,1.2999999523162842,350.0,24.39370346069336,0.0477106422185897,-79.78278154688898,40.45899461685247,269.3984533548355,-0.0147585067898035,0.0024632040876895,-0.9998449683189392,0.0092907389625906,-0.0008022385801415,-0.0496740699088181,-0.0054418394584561,-0.00394879700616,0.0014930467586964,0.0004836133157368,-0.1312219894118607,0.2773291991651058,-9.801075979471207,14934.0
8.7,1.399999976158142,352.0,24.3974609375,0.055662415921688,-79.7827815328568,40.45899454831174,269.4063664674759,-0.0147583512589335,0.0024673766456544,-0.999844253063202,0.0093631390482187,0.0014645197578665,-0.041292209808713,-0.0060547778591314,-3.839841610897564e-06,0.0039855814538896,-0.007013417314738,-0.1306893902923911,0.2866103566624225,-9.800115866661072,14934.0
8.8,1.399999976158142,353.0,24.392452239990234,0.055662415921688,-79.78278151857674,40.45899450422151,269.4138836860657,-0.0147620402276515,0.002496114000678,-0.9998428225517272,0.0094994530081748,0.0023883964846484,-0.0363249074611446,-0.0064000499680859,-0.0097444504499435,-0.0019453025888651,-0.0138231255114078,-0.1268476325646043,0.2702795401588082,-9.802703259587286,14934.0
9.0,1.600000023841858,355.0,24.39495658874512,0.0715659633278846,-79.78278152255731,40.45899453945466,269.41327261924744,-0.0147813577204942,0.0024731855373829,-0.9998420476913452,0.009564715437591,0.0027139801554447,-0.042023521281447,-0.0063576088794921,0.0052426462061703,0.0041745202615857,0.0052213966846466,-0.1282441486604511,0.2725751570239663,-9.80276933312416,14934.0
9.1,1.5,355.0,24.39620780944824,0.0954212844371795,-79.78278150427434,40.45899451974499,269.42004156112665,-0.0147755537182092,0.0024899807758629,-0.9998409748077391,0.009679464623332,0.0025603922822063,-0.0427492523568864,-0.0063466633134801,0.0048047937452793,0.0002708344836719,0.0023065137211233,-0.1289270486310124,0.2795873390324414,-9.802225542068484,14934.0
9.3,1.5,352.0,24.39620780944824,0.0874695107340812,-79.78278150757873,40.45899456056751,269.41944766044617,-0.0147897060960531,0.002473690547049,-0.9998400807380676,0.0097496872767806,0.0012591024357327,-0.0479426920513125,-0.006109685890694,-0.0024177872110158,0.0020592559594661,0.0028571074362844,-0.1247565220668912,0.2731326524913311,-9.803247635364531,14934.0
9.41,1.399999976158142,350.0,24.39370346069336,0.055662415921688,-79.78278148917131,40.45899444960765,269.4288147687912,-0.0147822182625532,0.0025402975734323,-0.9998388290405272,0.0098692718893289,0.0044080244697216,-0.0279955733321663,-0.0022996553642384,0.0037798262201249,0.0022697167005389,0.0068333577364683,-0.1316684517357498,0.2895407253317535,-9.800077859759332,14934.0
9.6,1.5,345.0,24.39495658874512,0.0795177370309829,-79.7827814944529,40.45899447476317,269.42863476276403,-0.0147609198465943,0.0025444561615586,-0.9998385310173036,0.0099298041313886,0.0027527466552023,-0.0324799107284011,-0.0019050079664971,-0.0070719462819397,-0.0013053502188995,-0.0122986650094389,-0.1317227486148476,0.2877827782183885,-9.80009364724159,14934.0
9.7,1.399999976158142,343.0,24.37867927551269,0.055662415921688,-79.78278146754259,40.45899441349326,269.435653924942,-0.0147644318640232,0.0025428854860365,-0.9998378753662108,0.0099960602819919,0.0045519171506442,-0.0307663479981225,-0.0037180068754466,0.0088409483432769,0.0035830168053507,0.00603914167732,-0.128523764340207,0.272178313806653,-9.803028364777566,14934.0
9.9,1.399999976158142,347.0,24.39370346069336,0.0715659633278846,-79.78278146564294,40.45899436509773,269.442261338234,-0.0147616146132349,0.0025506154634058,-0.999836564064026,0.0101247569546103,0.0084298977798079,-0.0299961596866964,-0.0050291518041903,0.0025361087173223,0.0031182111706584,-0.0014260141178965,-0.1306944791972637,0.2811864611506462,-9.80178407728672,14934.0
10.01,1.5,343.0,24.39370346069336,0.0636141896247863,-79.78278148518405,40.45899442633814,269.4413838386536,-0.0147615410387516,0.0025325973983854,-0.99983549118042,0.0102404346689581,0.0064307142507885,-0.0400005789997129,-0.0045319226037079,0.0005013163317926,0.0014393009478226,-0.0106683494523167,-0.1279504357092082,0.272356270160526,-9.80252608895302,14934.0
10.2,1.399999976158142,347.0,24.398712158203125,0.0238553211092948,-79.78278146853151,40.45899436969636,269.44780433177954,-0.0147493937984108,0.0025315810926258,-0.9998348951339722,0.0103112496435642,0.0091133161575534,-0.0375559493507286,-0.0053947014948973,0.004690108820796,0.0003542105259839,0.0063033006154,-0.1259379245806485,0.2699948721192777,-9.803950470685962,14934.0
10.31,1.399999976158142,346.0,24.39370346069336,-0.0159035474061965,-79.78278144643099,40.45899434939899,269.45343470573425,-0.014740920625627,0.0025412428658455,-0.9998337030410768,0.0104397973045706,0.0080587036144887,-0.0392734117587748,-0.0061369951879705,0.0050914660096168,0.0054157082922756,0.0075078569352626,-0.1310661611147225,0.2898674933239817,-9.799016590118413,14934.0
10.5,1.399999976158142,348.0,24.398712158203125,-0.0159035474061965,-79.78278145589836,40.45899438679975,269.4528847932816,-0.0147569319233298,0.0025138948112726,-0.9998329281806946,0.0104984026402235,0.0060775651413804,-0.0440906216678158,-0.0057605069126688,-0.0041178748942911,-0.0039899214170873,-0.0100964168086648,-0.1301110732555389,0.2817018749378622,-9.802046617269516,14934.0
10.6,1.2999999523162842,352.0,24.40121650695801,-0.0079517737030982,-79.78278143098376,40.4589942979616,269.45799958705896,-0.0147715415805578,0.0025864811614155,-0.9998310804367064,0.0106306541711092,0.0060947190117648,-0.0294281788404038,-0.0069875295819558,-0.0033243810757994,-0.0015693134628236,0.0025489795953035,-0.128043598299846,0.2768887211009861,-9.8027535456419,14934.0
10.8,1.2999999523162842,352.0,24.40246772766113,-0.0159035474061965,-79.78278143909796,40.45899432667329,269.457345366478,-0.014761246740818,0.0025696174707263,-0.9998308420181274,0.0106732742860913,0.0057190052239069,-0.0345242056471051,-0.0067361572190522,0.0046867555938661,0.0035458740312606,-0.0052133495919406,-0.1298361627571284,0.2849092554487288,-9.80186652302742,14934.0
10.9,1.2999999523162842,353.0,24.39996337890625,-0.0079517737030982,-79.78278143327843,40.45899429163418,269.4632649421692,-0.0147068705409765,0.0025810918305069,-0.9998303055763244,0.0107993269339203,0.0081379266033386,-0.0378341021737382,-0.0068365422207587,-0.0028660921379923,0.0021267011761665,-0.0116423359140753,-0.1279531948640942,0.2710777399130166,-9.803148232698437,14934.0
11.1,1.2000000476837158,356.0,24.3974609375,-0.0079517737030982,-79.78278144438298,40.458994326048014,269.4626317024231,-0.01471693161875,0.0026093039195984,-0.999829351902008,0.0108643732964992,0.0082533146670893,-0.042699782051609,-0.0068072248136671,0.0028677671216428,0.0026985388249158,0.0066937925294041,-0.125081362305209,0.2704542805440724,-9.8031236743927,14934.0
11.21,1.100000023841858,357.0,24.40121650695801,-0.0079517737030982,-79.78278144011409,40.45899429030272,269.4679758548737,-0.0146851334720849,0.0026112860068678,-0.999828577041626,0.0109713012352585,0.0098004464323665,-0.0431893821548616,-0.0070578367805952,0.0027210903353989,0.0033713884185999,0.0039834361523389,-0.1324464603234082,0.2904307629168033,-9.799901273846627,14934.0
11.4,1.0,356.0,24.40121650695801,0.0,-79.78278140231174,40.45899421544276,269.47397434711456,-0.0146852973848581,0.0026697854045778,-0.99982750415802,0.01105638127774,0.0077685960250909,-0.0358960542364246,-0.0070538559475501,-0.0063371723517775,0.000610502960626,-0.0083412854000926,-0.1311192702781409,0.2870897187106312,-9.80072631597519,14934.0
11.5,1.0,355.0,24.39495658874512,-0.0159035474061965,-79.78278142330862,40.458994285978505,269.4726845026016,-0.0146648343652486,0.0026768185198307,-0.9998265504837036,0.0111700072884559,0.0066053447451225,-0.0450350934991799,-0.0065708461172082,-0.0087360963225364,-0.0001201581908389,-0.0036450373008847,-0.1302792263869196,0.273489442281425,-9.802030245065689,14934.0
11.7,0.8999999761581421,355.0,24.3974609375,-0.0238553211092948,-79.78278138359433,40.458994167427136,269.47867143154144,-0.014652551151812,0.0027074820827692,-0.9998260140419006,0.01122522726655,0.0070473896786847,-0.030089656484739,-0.0073507087389159,0.0063539328984916,0.0016695315716788,0.0020128830801695,-0.1314895543456077,0.2826193578913808,-9.800921612977982,14934.0
11.8,0.8000000119209291,353.0,24.39119911193848,-0.0159035474061965,-79.78278136498406,40.45899411793425,269.4840956926346,-0.0146349752321839,0.0027375491335988,-0.99982488155365,0.0113371107727289,0.0094712245923877,-0.0324135401367689,-0.0073145769755408,-0.0007186655420809,-0.0009719263762235,-0.0075457408092916,-0.1278090701345354,0.2697711613029241,-9.803432992100715,14934.0
12.0,0.699999988079071,350.0,24.38368797302246,-0.1272283792495727,-79.78278137728175,40.45899414909713,269.4834260940552,-0.0146488910540938,0.0027242475189268,-0.9998239278793336,0.0114093730226159,0.0095627708549986,-0.0371589949724515,-0.007152247468083,0.0020376043394207,0.0007623444544151,0.0054435906931757,-0.126955248741433,0.2703837667778134,-9.80254187643528,14934.0
12.11,0.6000000238418579,348.0,24.398712158203125,0.0,-79.78278138926794,40.45899418239318,269.4827847480774,-0.0146578159183263,0.0027343039400875,-0.999823033809662,0.0114691797643899,0.0083048453763901,-0.041191336243814,-0.0066827710842088,-0.0062222410924732,0.000345253793057,-0.0110737662762403,-0.1322991378977895,0.2922893552295864,-9.800279003977776,14934.0
12.3,0.6000000238418579,345.0,24.40998077392578,0.0238553211092948,-79.78278137562788,40.45899413539989,269.48813593387604,-0.0146712083369493,0.0027357384096831,-0.9998214840888976,0.0115890549495816,0.0095164624269004,-0.0411390173397812,-0.0066510225125808,-0.005379787646234,-0.0023287874646484,-0.0124813532456755,-0.131981761995703,0.288170466888696,-9.800887699127196,14934.0
12.4,0.6000000238418579,346.0,24.39370346069336,-0.0079517737030982,-79.78278135540012,40.45899404169956,269.49351906776434,-0.0146636897698044,0.0027606112416833,-0.9998198747634888,0.0117294713854789,0.012268890183155,-0.030808885885233,-0.0072440172227154,-0.0067826500162482,-0.0026165486779063,-0.006913567893207,-0.1299829095974564,0.2734271877072751,-9.803209628462792,14934.0
12.6,0.6000000238418579,346.0,24.398712158203125,-0.0079517737030982,-79.78278137137903,40.45899406872545,269.4928606748581,-0.0146617731079459,0.0027839713729918,-0.9998192787170408,0.0117784794420003,0.0124725603103702,-0.0349590840185385,-0.0070852874902504,0.0025268455501645,0.0009862631559371,-0.0002970663190353,-0.131091322414577,0.2813446466065944,-9.802393941879274,14934.0
12.71,0.699999988079071,338.0,24.3974609375,-0.0238553211092948,-79.78278132954566,40.45899394248889,269.5036668777466,-0.014678468927741,0.0028230145107954,-0.9998173713684082,0.0119094774127006,0.0094794835897944,-0.0220340776905817,0.0018390275758941,-0.002115509705618,3.887355342158117e-05,-0.006164810154587,-0.1261200744844973,0.2708542118221521,-9.802551231980324,14934.0
12.9,0.699999988079071,339.0,24.398712158203125,-0.0079517737030982,-79.78278127824835,40.45899385172051,269.5127273797989,-0.0146899474784731,0.002856244565919,-0.9998161792755128,0.0119885029271245,0.0088642232610241,-0.0197574872157801,0.0058865268492127,0.0026396950706839,0.0007402696064673,0.0052342754788696,-0.1282515216339379,0.2690184053778649,-9.802607365250587,14934.0
13.0,0.8000000119209291,331.0,24.398712158203125,-0.0079517737030982,-79.78278128847299,40.4589938710631,269.513372540474,-0.014689746312797,0.002848679665476,-0.9998155832290648,0.012037955224514,0.0074237993631784,-0.023727933504229,0.0063324069494568,-0.0075633847154676,-0.0013269970659166,-0.0095056099817156,-0.1317708967812359,0.2894588825851679,-9.799214226007464,14934.0
13.2,0.8000000119209291,328.0,24.39620780944824,-0.0238553211092948,-79.7827812699223,40.45899379454257,269.52261459827423,-0.0146682355552911,0.0028859553858637,-0.9998141527175904,0.0121706370264291,0.0101984567215865,-0.0227348527360642,0.0083609915977575,-0.0070428485050797,-0.0007887277170084,-0.0088585931807756,-0.128166874051094,0.2722210167534649,-9.804020052552223,14934.0
13.3,0.8999999761581421,324.0,24.3974609375,-0.0238553211092948,-79.78278123516414,40.45899370381272,269.53255093097687,-0.0146768623962998,0.0029204527381807,-0.9998123049736024,0.0123030161485075,0.0088924741797395,-0.0153331456861937,0.0098359353630448,-0.0017927171429619,-0.0017122608842328,0.0035424695815891,-0.1300641584862023,0.2782247367873788,-9.801496978998182,14934.0
13.5,1.0,317.0,24.398712158203125,-0.0238553211092948,-79.78278124580496,40.45899371927809,269.53358054161066,-0.0146774062886834,0.0029026821721345,-0.9998116493225098,0.012362802401185,0.0085880171578152,-0.0195101667870514,0.0101049398596318,0.0002081681304844,-0.0012102294713258,-0.0068869390524923,-0.1309307889360934,0.2867230617441237,-9.801709817647934,14934.0
13.6,1.0,313.0,24.39996337890625,-0.0079517737030982,-79.7827811885292,40.458993628669134,269.5420216321945,-0.0146914133802056,0.0029558688402175,-0.9998100399971008,0.0124672790989279,0.0028078619747554,-0.0166136387108844,0.0068086820160962,-0.0076477290131151,-0.0022864528000354,-0.0128177506849169,-0.1274949010647833,0.2716792904958129,-9.803426560163498,14934.0
13.8,1.0,311.0,24.392452239990234,-0.0238553211092948,-79.78278119244004,40.458993645422616,269.54273283481604,-0.0146942175924777,0.0029575210064649,-0.9998092651367188,0.0125239724293351,0.003312805825064,-0.0207582015336165,0.0070267700211075,0.0055785584263503,0.0034844153560698,0.0060837748460471,-0.1261810225713998,0.2687302290089428,-9.80503045141697,14934.0
13.9,1.0,306.0,24.38869667053223,-0.0159035474061965,-79.7827811436924,40.45899354783394,269.55047488212585,-0.0146956406533718,0.0029935976490378,-0.9998081922531128,0.0125949783250689,0.0042653955864358,-0.0182187937629147,0.004802200495635,-0.002463137730956,-0.0041398941539227,-0.0130350915715098,-0.1333077095076441,0.2901495849341154,-9.80021585404873,14934.0
14.1,1.0,300.0,24.39620780944824,-0.0477106422185897,-79.78278115447151,40.45899358595779,269.5515118837357,-0.0147058935835957,0.0030125356279313,-0.9998064041137696,0.0127229345962405,0.0029036187161457,-0.0255684209901949,0.0052172955700731,-0.0084851533174514,-0.0030291252769529,-0.0115118147805333,-0.1304543413594365,0.2888373783789575,-9.799285562038422,14934.0
14.21,0.8999999761581421,298.0,24.39620780944824,-0.0238553211092948,-79.78278111294627,40.4589935118891,269.55942749977106,-0.0147059457376599,0.0030445680022239,-0.9998048543930054,0.0128380507230758,0.0033689154510373,-0.0245407364186074,0.0045423726955218,-0.0065957508049905,0.0011912143090739,-0.0101885581389069,-0.1270953078288585,0.2711062085442245,-9.804049873352051,14934.0
14.4,0.8999999761581421,298.0,24.3974609375,-0.0318070948123931,-79.78278106074173,40.45899341157482,269.56710827350616,-0.0146976094692945,0.0031015556305646,-0.9998040199279784,0.0128961717709898,0.0060571045426029,-0.0168347026067927,0.0030573268126706,0.0035179178230464,0.0011519615072757,0.0035720136947929,-0.1270111079234629,0.2759056214243173,-9.803188578486443,14934.0
14.5,0.8000000119209291,303.0,24.39370346069336,-0.055662415921688,-79.78278107348143,40.45899344567506,269.5678507089615,-0.0147075839340686,0.0031276978552341,-0.999802589416504,0.0129876025021076,0.004580054090651,-0.0236437884213149,0.0036965246928476,0.0031409917864948,0.0009921416640281,-0.0022393236868083,-0.131144504668191,0.2797898354195058,-9.80250854730606,14934.0
14.7,0.8000000119209291,300.0,24.39119911193848,-0.055662415921688,-79.78278103385286,40.45899337583717,269.5741844177246,-0.0146908881142735,0.0031468998640775,-0.9998022317886353,0.0130355050787329,0.0081492507490607,-0.0255562071351331,-0.0001683785494883,-0.0007494422025047,-0.0007639148388989,0.0057359305210411,-0.1270247575175017,0.2726162519864738,-9.804186698198318,14934.0
14.8,0.8999999761581421,298.0,24.38869667053223,-0.0238553211092948,-79.78278104398808,40.45899340024553,269.5742287635803,-0.0147002842277288,0.0031273099593818,-0.999801516532898,0.0130821391940116,0.007309962205395,-0.0289864308042614,0.0002423198807089,-0.005677587352693,-0.0001198187601403,-0.0079630641266703,-0.1298333122394979,0.2903087936528027,-9.801043819785116,14934.0
15.0,0.8999999761581421,294.0,24.3974609375,-0.0318070948123931,-79.78278101376759,40.45899332530336,269.5804979801178,-0.0146991563960909,0.0031658762600272,-0.9997997879981996,0.0132023440673947,0.0099124926690773,-0.0267765055222407,-0.0026625249085232,-0.0052193878218531,-0.0006395767559297,-0.0079168435186147,-0.1322110916208476,0.2884486847184598,-9.800912842154505,14934.0
15.1,0.8999999761581421,300.0,24.39996337890625,0.0079517737030982,-79.78278098013502,40.45899326952479,269.58825719356537,-0.0147022129967808,0.0032061855308711,-0.9997979402542114,0.0133327655494213,0.0110887537972316,-0.0268485754698891,-0.0010356693681387,-0.0065807574428617,-0.0060834903270006,-0.0094825802370905,-0.1278373286314308,0.2763100112043321,-9.802861134409904,14934.0
15.3,0.8999999761581421,304.0,24.39620780944824,-0.0159035474061965,-79.78278099434586,40.4589932951116,269.5882173776626,-0.0146943805739283,0.0031945852097123,-0.999797523021698,0.013377659022808,0.0114860832283879,-0.0304927108367634,-0.0008329021303727,0.0076141841709613,0.0034128881525248,0.0036944893654435,-0.1299249399360269,0.2747796486876905,-9.802286937832832,14934.0
15.41,0.8999999761581421,313.0,24.3974609375,-0.0079517737030982,-79.7827809168972,40.45899320542522,269.59627532958984,-0.0147071052342653,0.0032510126475244,-0.999795377254486,0.0135092204436659,0.0044149250284579,-0.0218001028510937,0.0005969443422361,0.0063990079797804,0.0018763414118438,2.1696832845918838e-05,-0.1268342844676226,0.2807202370651066,-9.80191973268986,14934.0
15.6,1.0,315.0,24.40246772766113,-0.0159035474061965,-79.78278092257608,40.458993224041706,269.5963848829269,-0.0146864810958504,0.0032788391690701,-0.9997946619987488,0.0135742360725998,0.0031627955121942,-0.0244427135952167,0.0010519909776148,-0.0030166681390255,-0.0046445098705589,-0.0037873089313507,-0.1292489013075828,0.2777216935157776,-9.803400832414628,14934.0
15.7,1.0,325.0,24.39996337890625,-0.0079517737030982,-79.7827808922702,40.45899316073172,269.60490465164185,-0.0146819911897182,0.0033017985988408,-0.9997930526733398,0.0136890783905982,0.0077893519659072,-0.0247605335997067,0.0017283230059779,-0.0037378268316388,-0.0011752698337659,0.0020091319456696,-0.1286391006689518,0.2773925683647394,-9.801922656297684,14934.0
15.9,1.0,324.0,24.386192321777344,-0.0318070948123931,-79.78278084299778,40.45899306448389,269.61322832107544,-0.0146670248359441,0.0033545128535479,-0.9997923970222472,0.0137388436123728,0.0124198222826127,-0.0199177517460636,0.0016372055803481,0.0030844337306916,-0.0021165208891034,0.0038110034074634,-0.1305981554556638,0.2816365323029459,-9.80186886191368,14934.0
16.0,1.100000023841858,323.0,24.39620780944824,-0.0238553211092948,-79.78278087188768,40.45899310342027,269.6137282848358,-0.0146578848361969,0.0033564663026481,-0.9997906684875488,0.0138730481266975,0.0111749430668565,-0.0256410686496094,0.0023988096302236,0.0012304979609325,0.0034121526405215,-0.0039266385138034,-0.1260571620985865,0.2738213996775448,-9.804054551124572,14934.0
16.2,1.100000023841858,323.0,24.39996337890625,-0.0159035474061965,-79.78278080771663,40.45899301782124,269.6217384338379,-0.0146826999261975,0.0033828066661953,-0.9997892379760742,0.0139475641772151,0.0096980769244827,-0.0211981751660551,0.0025066233049945,-0.0029352260753512,-0.001688725547865,0.0037785689346492,-0.1294074613507837,0.2714680781029165,-9.804266805052755,14934.0
16.31,1.0,323.0,24.3974609375,-0.0159035474061965,-79.78278073880534,40.45899296149409,269.62910604476934,-0.0146946003660559,0.0034139745403081,-0.9997876286506652,0.0140435611829161,0.0047612206652059,-0.0211512240455188,-0.0002965569139076,1.5901554434094578e-05,-0.0022791258525103,0.0073926928453147,-0.1335099043976515,0.2871645996160805,-9.80082981169224,14934.0
16.5,0.8999999761581421,326.0,24.3974609375,-0.0238553211092948,-79.78278074483876,40.45899298171068,269.6291257143021,-0.0147073082625865,0.0033951546065509,-0.9997867941856384,0.014092712663114,0.0039458583553687,-0.0239527971589434,0.0001046597955976,-0.000245348928729,0.0006498255534097,-0.0080131534487009,-0.1287779263593256,0.2889962581917644,-9.801538494229318,14934.0
16.6,1.0,330.0,24.36115074157715,0.7633702754974365,-79.7827807099803,40.458992919708265,269.63765144348145,-0.0147024681791663,0.0034261522814631,-0.9997854232788086,0.0141880800947546,0.0085116668848184,-0.0219312128029742,0.0012894299881818,-0.0002848010917659,-0.002403607359156,-0.0082152383401989,-0.1244384518079459,0.2713445191271603,-9.804384918808935,14934.0
16.8,1.0,331.0,24.37492370605469,0.278312087059021,-79.78278072079294,40.45899294065512,269.63782250881195,-0.0146963912993669,0.0034225729759782,-0.9997838139533995,0.0143086416646838,0.0085435436459259,-0.0249248897543549,0.0014864074663861,0.0026792513672262,-0.002804848132655,0.0038080480881035,-0.1320996564812958,0.2716185890883208,-9.801405762434008,14934.0
16.9,1.0,333.0,24.37867927551269,0.2862638533115387,-79.78278069523924,40.45899284987146,269.6463493108749,-0.0146642951294779,0.0034734830260276,-0.9997823238372804,0.0144327618181705,0.0115289690406752,-0.0166986165285761,0.0019011061111167,-0.0020422074012458,-0.0002584424219094,-0.0028805178590118,-0.1309044033754617,0.2811170802824199,-9.802331961393357,14934.0
17.1,1.0,330.0,24.37993049621582,0.3021674156188965,-79.78278071007374,40.45899286450349,269.6466137170792,-0.0146440854296088,0.0034987702965736,-0.9997825622558594,0.0144314346835017,0.0120847063486356,-0.0193440658611495,0.0023630702947556,0.0033142098691314,-0.0007076257024891,-0.0002865727001335,-0.1253579173330217,0.2881686579063535,-9.801351968050003,14934.0
17.2,1.2999999523162842,328.0,24.36991500854492,0.3021674156188965,-79.78278065565264,40.45899282300189,269.65350341796875,-0.0146703217178583,0.0034845387563109,-0.9997803568840028,0.0145591273903846,0.009243421228194,-0.0229437138403834,0.000847640043404,0.0021181707270443,0.00089955778094,-0.0083559658378362,-0.1276676406059414,0.2750643349997699,-9.804879593253135,14934.0
17.4,1.2999999523162842,328.0,24.372419357299805,0.3498780429363251,-79.78278060372024,40.45899273937415,269.659767985344,-0.0146514438092708,0.0035501457750797,-0.9997789859771729,0.0146570140495896,0.0125827054006991,-0.0149940894813794,-0.0027923801219713,-0.0011883542174473,0.0009997884044423,0.0116633055731654,-0.1307348523940891,0.2697806813009083,-9.806280001401902,14934.0
17.5,1.2999999523162842,320.0,24.3686637878418,0.3896369338035584,-79.78278063392649,40.458992768032495,269.65937900543213,-0.0146804153919219,0.0035315102431923,-0.9997774362564088,0.0147367408499121,0.0118407947793897,-0.0190873439526087,-0.0019170509776017,-0.0003138994507025,0.0039855171926319,0.0108476523309946,-0.1293810026999563,0.2799053910188377,-9.800550899505618,14934.0
17.7,1.2999999523162842,321.0,24.21466064453125,17.382577896118164,-79.78278056099127,40.45899270529015,269.6660519838333,-0.0146687533706426,0.003530035726726,-0.9997771978378296,0.0147643545642495,0.0091749656750915,-0.0180237410220732,-0.0034550508139497,-0.0055875601246953,-0.0011178584536537,-0.0167407728731632,-0.1244766231626272,0.2863174659758806,-9.800618727207183,14934.0
17.8,1.399999976158142,316.0,24.1144962310791,3.4908287525177,-79.7827805233029,40.458992662473456,269.6706315279007,-0.0144252916797995,0.0033542073797434,-0.9997796416282654,0.0148792685940861,0.0113571970760507,-0.0188733521504046,-0.0080132543014267,0.0122987702488899,0.0374098978936672,0.0016827462241053,-0.1302727304957807,0.2441798170097172,-9.815534974336623,14934.0
18.0,1.399999976158142,320.0,24.372419357299805,0.2306014448404312,-79.78278053644244,40.458992678620255,269.66975498199463,-0.0144816357642412,0.0034060783218592,-0.9997771382331848,0.0149825746193528,0.0135984856528445,-0.021585435647253,-0.009414889142489,0.0180056113749742,-0.0094397189095616,0.0005867965519428,-0.1465615292731672,0.2823074089363217,-9.803994324803352,14934.0
18.1,1.399999976158142,322.0,24.26599502563477,19.394376754760746,-79.78278048442853,40.45899264684088,269.6753932237625,-0.0144072175025939,0.0033663210924714,-0.9997771978378296,0.0150579335168004,0.0128222925936519,-0.022391525895537,-0.0067829623249984,0.0201729442924261,-0.0113409115001559,-0.0090104965493083,-0.1226357369497418,0.2843506819009781,-9.80172618985176,14934.0
18.3,1.5,323.0,24.34988212585449,0.5407206416130066,-79.78278049547676,40.45899266742086,269.674661397934,-0.0144111197441816,0.0033162487670779,-0.999775230884552,0.0151955187320709,0.0040905934252847,-0.0234471110022355,-0.0081664807003939,-0.0499720610678196,0.0262710750102996,0.011004383675754,-0.1052857416216284,0.3198864772170782,-9.801022185087202,14934.0
18.4,1.399999976158142,325.0,24.36991500854492,0.2306014448404312,-79.78278047824527,40.45899260724024,269.68241834640503,-0.0143637787550687,0.0034150821156799,-0.9997758865356444,0.0151764955371618,0.016556080775244,-0.0209568213344859,-0.0031190686212673,0.0026326549705117,0.0091037433594465,-0.008882725611329,-0.1178837230615318,0.2615615060739219,-9.79560415506363,14934.0
18.6,1.399999976158142,326.0,24.329849243164062,1.2722837924957275,-79.78278051918757,40.458992644220366,269.6818656921387,-0.0143953086808323,0.0034677500370889,-0.999773383140564,0.0152953006327152,0.0152315652667248,-0.0232814483222169,-0.0030806456784264,-0.0079737864434719,-0.0060028526932001,-0.0002953805378638,-0.1238659545779228,0.2693872733227909,-9.798880934715273,14934.0
18.7,1.2000000476837158,329.0,24.17209053039551,3.6657676696777344,-79.78278046583355,40.45899261555371,269.68745470047,-0.0143879130482673,0.0034518910106271,-0.999771773815155,0.0154137052595615,0.0141436505003756,-0.0251347583623033,-0.0038944796166634,0.0129597950726747,0.0098443012684583,-0.0040169637650251,-0.1282695383671671,0.3087627707049251,-9.805754336714744,14934.0
18.9,1.100000023841858,323.0,24.05189323425293,5.685518264770508,-79.78278039959369,40.45899256604379,269.6932636499405,-0.0143702384084463,0.0034628384746611,-0.9997718930244446,0.0154180908575654,0.0123797314348132,-0.020642157433389,-0.0053406193385817,0.0158504918217659,0.0041167475283145,-0.0148571645841002,-0.1134421323705464,0.2528312476538122,-9.811438415050509,14934.0
19.0,1.0,333.0,23.97551918029785,6.7908148765563965,-79.78278042628052,40.45899260441952,269.69243013858795,-0.0140971839427948,0.0033513407688587,-0.99977445602417,0.0155263189226388,0.0072755342770395,-0.0274437142151496,-0.0061850574015137,-0.0064196465536952,-0.0386120490729808,-0.0386817343533039,-0.1240327738132328,0.2958429457247257,-9.819164925813675,14934.0
19.2,1.0,340.0,23.83403778076172,9.359237670898438,-79.78278037637742,40.458992557410674,269.6981852054596,-0.0138471135869622,0.0034184730611741,-0.9997775554656982,0.0155429420992732,0.008861037166977,-0.0184837607448963,-0.0003555417645671,-0.1459410637617111,-0.1301241815090179,0.0774833112955093,-0.1935502932965755,0.1791848538815975,-9.760569977760316,14934.0
19.3,0.8999999761581421,341.0,23.74138641357422,11.052966117858888,-79.78278035033252,40.45899253389806,269.70416116714483,-0.0127772698178887,0.0034120483323931,-0.9997887015342712,0.0157402567565441,0.0153515689744645,-0.0229695122406609,-0.0041336277810179,-0.0200170539319515,0.0096303233876824,0.0091659566387534,-0.0495067486725747,0.1754046655073762,-9.873213078975676,14934.0
19.5,0.8000000119209291,343.0,23.54105758666992,13.573678016662598,-79.78278037477784,40.45899255307626,269.70388972759247,-0.012141085229814,0.003292633453384,-0.9997994303703308,0.0155857913196086,0.0197230315086791,-0.0218464661112727,-0.0014372225072787,0.0338539667427539,-0.0147098880261182,0.0530272051692009,-0.0416786653781309,0.1843741298653185,-9.842089519500735,14934.0
19.61,0.8000000119209291,349.0,23.42586898803711,15.458248138427734,-79.78278034840108,40.45899248642249,269.71080565452576,-0.0099114635959267,0.0032685061451047,-0.9998228549957277,0.0156653337180614,0.0221443293316718,-0.0072244049941053,0.0060039950285247,0.0313060730695724,-0.0024507734924554,0.0103575438261032,-0.1372954192198813,0.2583681771531701,-9.813287304639816,14934.0
19.8,1.100000023841858,347.0,23.248077392578125,18.853656768798828,-79.78278037338961,40.4589924972416,269.71140432357794,-0.0086030093953013,0.0029545263387262,-0.9998372197151184,0.0155844846740365,0.0167646363562426,-0.0126975752129048,0.0053923459473439,0.0095206629484891,0.027070702984929,-0.0341159366071224,-0.1036752631142735,0.2440747315809131,-9.792422100305556,14934.0
19.9,1.100000023841858,341.0,23.152921676635746,20.37244415283203,-79.78278030384166,40.45899248509775,269.7181346416473,-0.010159745812416,0.004049283452332,-0.9998167157173156,0.0157174710184335,-0.0119804247139165,-0.0022691472845414,0.0239706894418603,-0.0817792937159538,-0.0012894377578049,-0.0110193295404315,0.0044527826271951,0.1897418555617332,-9.83764563560486,14934.0
20.1,1.100000023841858,345.0,22.88873863220215,24.56303024291992,-79.7827802800251,40.458992485498975,269.7212886810304,-0.0150456437841057,0.0055372593924403,-0.9997362494468688,0.0164461024105548,-0.0319692670003088,0.0087693217783405,0.0357983429405228,-0.0275732036679983,0.0100161898881196,-0.0436110310256481,-0.0217481567384675,-0.0592129804752767,-9.944317560195923,14934.0
20.2,1.399999976158142,337.0,22.76854133605957,26.272661209106445,-79.78278028266436,40.45899242965948,269.720800280571,-0.0201677698642015,0.0053680394776165,-0.999548316001892,0.0216266084462404,-0.0392286007806519,0.0272378108053167,0.0442619596769308,0.0155076524242758,0.0600090213119983,-0.15235535800457,0.0385077797155827,0.125692962789908,-10.065252013206482,14934.0
20.41,1.5,340.0,22.51813125610352,28.276508331298828,-79.78278005831041,40.458992187369645,269.74295318126684,-0.0186765510588884,-0.0063438899815082,-0.998791754245758,0.0450131855905056,-0.0893620370140965,0.0457897485753285,0.1891450758474945,0.1456781178712844,0.1583539098501205,-0.2369116544723511,0.1056970110163092,0.0704731646552681,-10.682398728132249,14934.0
20.51,1.7000000476837158,347.0,22.96887016296387,22.948820114135746,-79.78277992572137,40.45899213115602,269.76690530776983,-0.0103933168575167,-0.0059579438529908,-0.9984732866287231,0.0539218336343765,-0.1029633889578798,0.0900513088439217,0.3044303770728083,0.1078590452671051,-0.0826018899679184,-0.2400943338871002,0.1891709114983678,0.1519289991538971,-10.794764671325684,14934.0
20.6,1.7000000476837158,348.0,22.96010589599609,22.50352096557617,-79.78277978337749,40.45899205889248,269.7992612123489,-0.0009263856336474,-0.0016353387618437,-0.998266577720642,0.0588243976235389,-0.1134340090613997,0.0961914292849827,0.3451954379548577,0.0593111924827098,-0.0925001204013824,-0.2079287767410278,0.0968036883696913,0.0895811893232166,-10.316773502826694,14934.0
20.8,1.7999999523162842,348.0,22.943828582763672,22.48761749267578,-79.78277882755049,40.45899183887049,269.86972308158875,0.0087050860747694,-0.0080162854865193,-0.9984185695648192,0.0549584999680519,-0.0769023381911642,0.0875361690904342,0.1163296507427236,-0.0671858564019203,0.1012134477496147,0.0097636952996253,0.263979658652097,0.1478652482293546,-9.34212860763073,14934.0
21.0,1.8999999761581416,356.0,22.76478576660156,25.80350685119629,-79.78277874638684,40.45899176700094,269.8783746957779,0.0073573966510593,-0.0123456250876188,-0.9986204504966736,0.050504270941019,-0.054002113583694,0.0873771885283327,0.0545942967936513,-0.0824928283691406,0.1081743985414505,0.0762082189321518,0.1641372271254658,0.1700164014659822,-9.135393281579018,14934.0
21.1,2.0999999046325684,358.0,22.862445831298828,23.736045837402344,-79.78277868757372,40.45899168852564,269.88226056098944,0.0042039356194436,-0.0144108943641185,-0.9987695813179016,0.047266386449337,-0.0326854787284492,0.0934824430608988,0.0262636591894696,-0.0875162705779075,0.1209268942475318,-0.0391495712101459,0.2276197531074285,0.1040836728550493,-9.470634620189667,14934.0
21.3,2.0999999046325684,353.0,22.622053146362305,27.57675170898437,-79.78277857441256,40.45899143524547,269.91765832901,-0.0055287783034145,-0.018986452370882,-0.9988656044006348,0.0433179773390293,-0.0228886808015759,0.0907010468820071,0.0321923742398731,-0.0865048170089721,-0.0482693314552307,0.0415541380643844,0.3407570171356201,-0.1098305722139776,-9.683174477219582,14934.0
21.4,1.8999999761581416,357.0,22.73348426818848,25.056039810180664,-79.78277820166358,40.45899129232868,269.9549989700317,-0.0068647628650069,-0.0175449606031179,-0.9989299178123474,0.0422387421131134,-0.0355455207126663,0.1004272506181937,0.0774742584900421,0.0858494341373443,0.0307194422930479,0.0202670246362686,0.3360374004766345,0.0955456599220633,-10.008255693912506,14934.0
21.6,1.8999999761581416,357.0,22.728477478027344,25.461580276489247,-79.78277809050483,40.4589911367074,269.97704410552984,-0.000274467485724,-0.0170349963009357,-0.9989580512046814,0.0423386804759502,-0.0427495358067402,0.0868294226401491,0.1248549367494647,0.059378083795309,0.0522406622767448,-0.0146400677040219,0.1946073602512479,0.2361754538677633,-9.962035793066024,14934.0
21.72,1.7000000476837158,354.0,22.74475288391113,26.15338516235352,-79.782777958556,40.45899095544252,270.0041753053665,0.0018730337033048,-0.0167250074446201,-0.9989523887634276,0.0425552390515804,-0.0419327864620661,0.087071235461704,0.1468112593378925,0.0016163237160071,-0.0410008169710636,-0.0624742098152637,0.235771813262254,-0.0875643567368388,-10.016274565458296,14935.0
21.91,1.7999999523162842,354.0,22.794836044311523,23.74399757385254,-79.78277774421234,40.45899070161083,270.046592593193,-0.0001497414923505,-0.0185087118297815,-0.998892605304718,0.0432550199329853,-0.0467420602026723,0.1077777217057707,0.1739088531921918,-0.1602578610181808,-0.0866432040929794,-0.1473267376422882,0.2328610875830054,0.1728452478535473,-9.933041789531709,14935.0
22.01,1.7000000476837158,351.0,22.6959228515625,25.42182159423828,-79.78277769324583,40.45899061794739,270.06418240070343,-0.0012250439031049,-0.0159800127148628,-0.998896062374115,0.044157724827528,-0.0212826193056386,0.1012238164304598,0.1690941807578069,0.1231432184576988,-0.0377928763628006,0.0511636361479759,0.3691344317793847,-0.0305256177205592,-9.89702294111252,14935.0
22.2,1.7000000476837158,348.0,23.37328338623047,15.633187294006348,-79.78277736358021,40.458990463326906,270.11275255680084,-0.0017803094815462,-0.0106887463480234,-0.9989330172538756,0.0448934324085712,-0.0460521894625418,0.0974309909664862,0.1639806449140236,0.1173651665449142,0.0763250738382339,0.1339120119810104,0.2765298665128648,-0.0007149408850818,-9.728303287625314,14935.0
22.3,1.7000000476837158,340.0,22.667125701904297,26.471454620361328,-79.78277728877937,40.45899038125714,270.1247305870056,-0.0005892401677556,-0.0107395574450492,-0.998954176902771,0.0444406904280185,-0.0507424235291532,0.0924643450887091,0.0607537856858593,0.0265307314693927,0.0511310659348964,0.0412626788020134,0.0770599799975752,0.054509836519137,-9.020032979249956,14935.0
22.5,1.7999999523162842,341.0,22.446765899658203,29.40566062927246,-79.78277726642429,40.45899019062914,270.15914440155035,0.0040699797682464,-0.0216486304998397,-0.998946487903595,0.0402571074664592,-0.0195760775077138,0.1040550240901947,0.0454144026019925,0.0512894429266452,0.1136361882090568,0.091145172715187,0.184109415449202,-0.0286296626133844,-9.747560507655145,14935.0
22.61,1.7000000476837158,339.0,22.30778694152832,30.80517196655273,-79.78277722614025,40.45899010290236,270.1663224697113,0.004652596078813,-0.0242759194225072,-0.9990024566650392,0.0371907576918602,-0.0262548667475312,0.0952957506915764,0.0951349573868441,-0.0665267333388328,-0.0781469196081161,0.0837502107024192,0.3631256137043238,-0.0738205402996391,-10.214096395969392,14935.0
22.8,1.600000023841858,341.0,22.09243392944336,35.528526306152344,-79.78277714631459,40.45898995551804,270.2025849819184,0.0027668955735862,-0.0229951199144125,-0.9991588592529296,0.0338425189256668,-0.0183466054250216,0.1077822604320475,0.2088368852011012,-0.0054553844965994,-0.0065552326850593,0.0572741068899631,0.3771926258504391,0.1200596730038523,-11.00276533484459,14935.0
22.9,1.7000000476837158,340.0,21.92340850830078,38.74899291992188,-79.78277701608464,40.4589897596936,270.2728642225265,0.00064708373975,-0.0180464833974838,-0.9993869066238404,0.0299972221255302,-0.0090662191659512,0.1014480449228175,0.4823602800347177,0.1370035707950592,-0.0238695368170738,-0.0454778932034969,0.3462462735548615,0.2272162221372128,-11.525356725454332,14935.0
23.1,1.7000000476837158,339.0,21.81447982788086,39.46465301513672,-79.78277698703576,40.45898963435759,270.4178547859192,0.0057704821228981,-0.0209245402365922,-0.9993484020233154,0.028840847313404,-0.0181335545116522,0.0923157834042281,0.9783607607537776,0.0275070462375879,0.0491334199905395,-0.0300980508327484,0.3957531501352787,-0.1258237394224852,-12.357983862161634,14935.0
23.22,1.7999999523162842,338.0,21.885847091674805,39.40103912353516,-79.782776915192,40.45898950691907,270.5369181632996,0.0054304329678416,-0.0222502518445253,-0.9993225932121276,0.0288056563585996,-0.0123518908917735,0.0953939934708454,1.2270954727555785,-0.0403101667761802,0.0445282757282257,-0.0082275802269577,0.3498177894204855,-0.071904526501894,-12.393078850507736,14935.0
23.4,1.7999999523162842,339.0,21.690526962280277,40.08489227294922,-79.78277685879766,40.458989379873465,270.8401727676392,0.0051323832012712,-0.0215221922844648,-0.9992328882217408,0.0323122628033161,-0.0059765830623233,0.0973041753389099,1.7102334243827289,-0.0189798865467309,0.0069053978659212,-0.0403341576457023,0.2894810654595494,-0.1206508173700422,-12.438698827028274,14935.0
23.51,2.0,341.0,21.72808837890625,41.22994613647461,-79.78277687714791,40.45898935676664,271.02470564842224,0.0016585853882133,-0.018646340817213,-0.9992102980613708,0.0350479409098625,0.0040824647075069,0.1041004421463126,1.972429856025348,-0.0572683438658714,-0.0348143838346004,-0.0665544494986534,0.3232145661860705,0.0335775262489914,-12.442895958423614,14936.0
23.71,2.0999999046325684,344.0,21.809471130371094,38.892127990722656,-79.78277688529387,40.45898930355087,271.4743709564209,-0.0044045420363545,-0.012125133536756,-0.9991808533668518,0.0383585095405578,0.0371005175318126,0.1019868983454912,2.4490048910407203,-0.0407321341335773,-0.0696946680545806,-0.0713721141219139,0.2932814815454185,0.0092753605311736,-12.377573204040528,14936.0
23.8,2.200000047683716,342.0,21.37626266479492,33.564437866210945,-79.78277690886186,40.45898927643547,271.73066401481634,-0.0066370121203362,-0.0108522288501262,-0.9991729259490968,0.038622822612524,0.0555921575473364,0.1025673025281459,2.667924561843046,0.0712198615074157,-0.0343906134366989,-0.0623314455151557,0.3977538115158677,0.2369030850380659,-12.05470048069954,14936.0
24.0,2.299999952316284,340.0,21.52024841308593,31.73552894592285,-79.78277681945211,40.45898921936194,272.3168561458588,-0.0113777462393045,-0.016064167022705,-0.9991406798362732,0.0364760644733905,0.0531237591213353,0.1230310295785225,2.9552133839970973,0.0656608566641807,0.0198785401880741,0.0973235741257667,0.4353318199887872,0.1435842915158719,-11.068976866006851,14937.0
24.1,2.700000047683716,342.0,21.51523971557617,32.27624893188477,-79.7827766784258,40.458989070633024,272.9863977432251,-0.0107978992164134,-0.0188616383820772,-0.9992293715476992,0.0326858051121234,0.0442936990067699,0.1824454671326355,3.1027117164177374,0.0234860088676214,0.0195823181420564,-0.0243154261261224,0.5063449750095607,0.2436932921223342,-10.573838152885436,14937.0
24.3,2.700000047683716,338.0,21.855796813964844,35.88635635375977,-79.782776613629,40.45898901648434,273.30008792877203,-0.0105399647727608,-0.0226937904953956,-0.9991971254348756,0.0312894433736801,0.0091719522551184,0.1784741510732483,3.1693210034438737,-0.0603705309331417,0.1094382405281066,-0.0098312841728329,0.3186619971692562,0.0528088540770113,-10.443971493244172,14938.0
24.4,2.799999952316284,342.0,22.13249969482422,31.75143241882324,-79.78277653062948,40.45898894495296,273.6315426826477,-0.0139492722228169,-0.0262218788266182,-0.999086618423462,0.0307215526700019,-0.0046782367229344,0.1994244824345276,3.2567038300354416,-0.0659442096948623,-0.0121061839163303,0.0440383218228817,0.4795170725136996,0.0053284077392891,-10.65233117580414,14938.0
24.6,2.900000095367432,346.0,22.17256546020508,31.20276069641113,-79.78277629475505,40.45898886777422,274.2954473495484,-0.0173034872859716,-0.0229774117469787,-0.9990938305854796,0.0313735082745552,0.0020609837822923,0.2114069424252508,3.3551045907515262,0.0746582001447677,-0.0195782147347927,0.0413798987865448,0.5268716986477375,0.0889542490337044,-10.249040526151658,14939.0
24.71,3.0,350.0,22.299022674560547,27.83916091918945,-79.78277613446218,40.45898888862767,274.62799167633057,-0.0166698526591062,-0.0219209343194961,-0.999101459980011,0.0322163552045822,-0.007689626264248,0.1786849323555943,3.3633228813383567,0.096631608903408,0.0824558958411216,0.0951797664165496,0.230964561458677,0.0470217002928257,-9.992488092184066,14939.0
24.8,3.0999999046325684,352.0,22.246437072753903,30.336017608642567,-79.78277596886655,40.45898887794169,274.96477222442627,-0.01276037376374,-0.0252972394227981,-0.999059557914734,0.0328229255974292,-0.0270755828421686,0.1567373842545487,3.359798164110628,0.1080380156636238,0.1780384331941604,-0.0215495973825454,0.3294591366872192,0.1306800621561706,-9.77387297809124,14939.0
25.0,3.0999999046325684,355.0,22.151281356811523,30.75746154785156,-79.78277543163361,40.45898885460191,275.95086669921875,-0.0068063982762396,-0.0311982035636901,-0.9989189505577089,0.0337822474539279,-0.0996887488823747,0.1799246307493746,3.2757689550409337,0.0484504885971546,-0.072242870926857,-0.0300063453614711,0.3626224607974291,0.1088907236605882,-9.509447268247603,14940.0
25.2,3.0999999046325684,0.0,22.24768829345703,28.7218074798584,-79.78277538683912,40.458988812796775,276.2527279853821,-0.0029076179489493,-0.0294375456869602,-0.9989992380142212,0.0335497893393039,-0.1037925711148367,0.1527635323543484,3.2446112316811875,0.0466188117861747,-0.1356919407844543,-0.0151135828346014,0.3622112188115716,0.0810068505629897,-9.775045929551125,14941.0
25.3,3.0,6.0,22.20261573791504,31.26637458801269,-79.78277521085651,40.45898887842746,276.5769100189209,-0.0010873606661334,-0.0280402470380067,-0.9990530610084534,0.0332515910267829,-0.1285238460418822,0.115217061873982,3.231446571049853,-0.0256321802735328,-0.0935266762971878,0.0227082762867212,0.3250303459167481,0.0850559743121266,-9.668800266981128,14941.0
25.5,3.0999999046325684,9.0,22.18508720397949,29.453371047973643,-79.78277520359808,40.45898880778335,277.1757402420044,-0.0027948836795985,-0.0246613137423992,-0.9991444945335388,0.033081728965044,-0.1043762094087467,0.0660582798281109,3.1282258654442683,-0.0481487959623336,-0.0783947631716728,-0.0638872236013412,0.2738112766854465,0.2334087158739567,-9.482105687856675,14942.0
25.61,3.0,11.0,22.197607040405277,30.542762756347656,-79.78277508123475,40.45898890682521,277.4869041442871,-0.0036064353771507,-0.0234928522258996,-0.999168574810028,0.0331270359456539,-0.0850596749991452,0.0411331265864679,3.0976227106762053,0.0344550013542175,0.0053116604685783,0.07613355666399,0.2325766388140619,0.1231659058202058,-9.489860265254976,14942.0
25.8,2.900000095367432,10.0,22.32155990600586,27.68807601928711,-79.78277529761348,40.45898906744247,278.0482587814331,-0.0020631810184568,-0.0233945418149232,-0.9991700649261476,0.0332807339727878,-0.0327772530015051,-0.0003182773287251,2.975839157103515,0.0210302509367466,-0.0599789395928382,0.0418834052979946,0.2859780899249017,-0.0364807419106364,-9.4069233584404,14943.0
25.91,3.0,11.0,22.02732849121093,32.78516387939453,-79.78277514129591,40.45898883901791,278.76151466369635,0.0025675103534013,-0.024156441912055,-0.9991752505302428,0.0325407907366752,-0.0237224183426066,0.012599773819624,2.9632874127101583,-0.0187769699841737,-0.0095816049724817,-0.1258993595838546,0.242434678953141,0.2179082588106393,-9.357276989221573,14943.0
26.11,3.0,12.0,22.262714385986328,28.18903923034668,-79.7827751354092,40.45898896140866,279.0579395294189,0.0038178695831447,-0.0258915927261114,-0.9991349577903748,0.0323162302374839,-0.0210658544298378,0.0029661696366032,2.976872218867169,0.0149008706212043,0.0480966567993164,0.0039682374335825,0.2370046804100275,0.0602526656677946,-9.852053174972532,14944.0
26.21,3.0,14.0,22.32781982421875,28.849035263061523,-79.7827750800127,40.45898894476132,279.4559774398804,0.0032367659732699,-0.026490869000554,-0.9991245269775392,0.0322174131870269,-0.0277723766042153,0.0191851415145715,3.027590841471957,-0.0348537229001522,0.0343694984912872,-0.0360810533165931,0.3580688685178757,0.2139731557667255,-9.75603019952774,14944.0
26.31,3.0999999046325684,14.0,22.081167221069336,31.31408500671387,-79.78277509372707,40.4589890731553,279.75630855560297,0.0020623051095753,-0.0252484697848558,-0.9991558194160458,0.0323428064584732,0.004694025968947,0.0098386650923432,2.98658872555548,0.0888272672891616,-0.0195021983236074,0.0197546258568763,0.3970728301629424,0.0325238031707704,-9.541313424110411,14944.0
26.51,3.0,13.0,22.180078506469727,29.38975715637207,-79.7827750214603,40.45898925997653,280.72278118133545,-0.0004383400082588,-0.0236630532890558,-0.9991891384124756,0.0325725562870502,0.0262726199306116,-0.0322460598795734,2.988007072507648,0.0013959923526272,-0.0339842662215232,0.0642610266804695,0.2795559650659561,-0.0677077742619439,-9.721667282581327,14945.0
26.7,3.0,11.0,22.123735427856445,30.28035545349121,-79.78277488127236,40.4589892499089,281.0752124786377,-3.5892568121198565e-05,-0.0225193686783313,-0.999203324317932,0.032950259745121,0.0358744713182937,-0.0238341518667978,2.9978640703210138,-0.0035256126429885,-0.0284587182104587,-0.0015838420949876,0.3734173710644245,0.0751882086088881,-9.683464499115944,14946.0
26.81,3.0999999046325684,8.0,22.12248420715332,30.66204071044922,-79.78277493356141,40.45898940332917,281.3745822906494,0.0006654836470261,-0.0208789240568876,-0.9992283582687378,0.0332611054182052,0.0435143004704947,-0.0417308076715648,2.998161912652506,0.0112665556371212,-0.107185773551464,0.0251864232122898,0.3544027373939753,0.0091565204411745,-9.752973859906197,14946.0
27.0,3.0,8.0,21.978498458862305,32.48299789428711,-79.7827749574688,40.458989879981296,282.00002479553217,0.0016616396605968,-0.0198591351509094,-0.9992405772209167,0.0334843173623085,0.0316899857616798,-0.104506056516141,3.026679114359564,-0.0424680672585964,0.0014177565462887,0.0434286892414093,0.3297846073284745,0.1171364671736955,-9.91506861805916,14947.0
27.1,3.0,8.0,22.043603897094727,32.07745742797852,-79.78277502584811,40.45899007959426,282.3035631179809,0.0012099588057026,-0.0186448730528354,-0.9992870092391968,0.0328083783388137,0.0388121093091645,-0.1057582502359542,3.0570898239152973,-0.0749745890498161,-0.0590783841907978,-0.0022524606902152,0.3301988094672561,0.1496188099309802,-10.046474264860151,14947.0
27.3,3.0,8.0,22.21388435363769,27.86301612854004,-79.7827749760418,40.4589905634992,282.9249830245972,-0.0036266185343265,-0.0153922364115715,-0.9993932843208312,0.0310327410697937,0.0530516454099282,-0.1391402467445548,3.0820053505903764,0.027205379679799,-0.0175253208726644,-0.0074100657366216,0.3041140698082745,0.055448999851942,-9.92573861718178,14947.0
27.41,3.0999999046325684,6.0,22.061134338378903,30.8608341217041,-79.78277526533455,40.45899094156813,283.5414667129517,-0.0038264573086053,-0.0153225054964423,-0.999399185180664,0.0308544561266899,0.0857654954481063,-0.1302454039939439,3.022040618213992,-0.0623277239501476,-0.0419197529554367,-0.0397279225289821,0.2330651919543744,-0.044701780937612,-9.626255341172216,14948.0
27.6,3.0999999046325684,6.0,22.038597106933597,31.17095375061035,-79.78277535470706,40.45899113649725,283.84151268005365,-0.0050247595645487,-0.0149248959496617,-0.999385952949524,0.0313006229698658,0.0856613719321393,-0.1272713005010047,2.9902850679634163,-0.0802029222249984,-0.1289812326431274,-0.1435901671648025,0.3437871904671192,0.2077194855362177,-9.539032425284386,14948.0
27.71,3.0999999046325684,8.0,22.03734397888184,31.783241271972656,-79.78277551703431,40.45899117338399,284.1543550491333,-0.0050166980363428,-0.0142205348238348,-0.9993721842765808,0.0320607125759124,0.1165420033093582,-0.1058178473014766,2.986129755698032,-0.0825723186135292,-0.0375187061727047,-0.0578481294214725,0.266287170946598,0.1818595347739756,-9.60231859445572,14949.0
27.9,3.0999999046325684,8.0,21.915895462036133,32.23649215698242,-79.78277597179972,40.4589913544932,284.77343368530273,-0.0079538868740201,-0.0134573793038725,-0.9993523955345154,0.0324100852012634,0.1432397276632906,-0.0783227421116277,2.990097881389124,-0.0543915778398513,-0.0356766767799854,-0.0254314001649618,0.2908856580220163,0.2672479781135917,-9.78406818330288,14949.0
28.0,3.0999999046325684,9.0,22.163801193237305,28.87289047241211,-79.78277624911591,40.458991613101865,285.3738822937012,-0.005131762009114,-0.0152113167569041,-0.999376118183136,0.0314586237072944,0.1435112693368037,-0.0617665321104029,3.0016277215428167,-0.0569108761847019,0.0461219102144241,-0.0912508517503738,0.3116166139394045,0.2526066780276597,-9.899001638889311,14950.0
28.2,3.2000000476837163,6.0,22.043603897094727,30.41553497314453,-79.78277687865945,40.45899144544542,285.70708084106445,-0.0051339589990675,-0.0171590112149715,-0.9993470907211304,0.0313794687390327,0.1648478226169707,-0.0011242133306237,3.02559615001518,-0.0504099354147911,0.0609034113585949,-0.1814072281122208,0.2953235850669444,0.2890732221677899,-9.761055296659473,14950.0
28.3,3.2000000476837163,8.0,22.02231979370117,30.646137237548828,-79.7827770458661,40.45899152018508,286.00939750671387,-0.0055606882087886,-0.0188787337392568,-0.9992874264717102,0.0322072245180606,0.1697152667980474,0.0092609544300258,3.017315831915254,-0.0072965589351952,-0.01624565012753,-0.1005938649177551,0.2688815074414015,0.1608257296308875,-9.705880969762804,14951.0
28.5,3.2000000476837163,7.0,21.912139892578125,32.69769287109375,-79.78277772303926,40.45899138441965,286.64328384399414,-0.0055827903561294,-0.0173938274383544,-0.9992418885231018,0.0343788005411624,0.1956755947223741,0.0520023895948591,3.0022497156060965,-0.0818583369255065,-0.0433455482125282,-0.0704863369464874,0.2544646308012306,0.169005180336535,-9.632911811470986,14951.0
28.6,3.299999952316284,10.0,21.80696678161621,34.62997436523437,-79.78277792585084,40.458991428788686,286.94379806518555,-0.0046424623578786,-0.015718936920166,-0.9992460012435912,0.0351974517107009,0.1994250600308119,0.0395325208710156,3.009155624995393,-0.0567678175866603,-0.0532888807356357,-0.0492219366133212,0.3117396978288889,0.1884588485397398,-9.863124293088914,14951.0
28.8,3.400000095367432,9.0,21.875829696655277,32.75335693359375,-79.78277830734422,40.45899121185096,287.6064357757568,-0.0061660604551434,-0.0140004158020019,-0.9992271065711976,0.0362112671136856,0.1939943816753784,0.0705505394102721,3.1174125764014327,0.0169205795973539,-0.0153789371252059,-0.0046089948154985,0.3273724481463432,0.1251897276565432,-10.073146923780444,14952.0
28.9,3.2000000476837163,11.0,22.004791259765625,30.70975112915039,-79.78277877357773,40.45899098565186,287.9355087280273,-0.0077095860615372,-0.0125317517668008,-0.9992239475250244,0.0365399755537509,0.219231073242154,0.1012402684685096,3.138424200310713,-0.0521194599568843,-0.0659754574298858,-0.0370866507291793,0.3203296596184373,0.245234252717346,-9.99266000032425,14952.0
29.1,3.2000000476837163,11.0,21.829504013061523,33.747329711914055,-79.7827791954774,40.45899092116717,288.56349945068365,-0.0079463263973593,-0.0117303114384412,-0.9992484450340272,0.0360822640359401,0.2327365479726439,0.1051475597273072,3.1259546682709134,-0.0705525204539299,-0.0040165982209146,-0.1153983399271965,0.2421813483349979,0.2276506702601909,-9.691075235009194,14953.0
29.2,3.2000000476837163,14.0,21.96597671508789,31.13119506835937,-79.78277920206122,40.45899098721601,288.8799839019776,-0.0075433105230331,-0.0126912565901875,-0.9992603659629822,0.0355098843574523,0.197603474156322,0.0771295421090463,3.129199285706477,-0.0577807873487472,-0.0472672916948795,-0.0370068624615669,0.3140109756588936,0.1561929075792432,-9.931855974197386,14953.0
29.4,3.2000000476837163,12.0,22.131248474121094,27.79940223693848,-79.78277946979016,40.45899093922673,289.5035877227783,-0.0066248183138668,-0.0139847109094262,-0.999309539794922,0.0337783135473728,0.1874540849122113,0.0944653038958497,3.1329499553324327,0.0579406321048736,-0.0186239313334226,0.0910969078540802,0.3506166287139058,0.1101820995099842,-9.877900207042693,14954.0
29.5,3.0999999046325684,13.0,22.18759155273437,27.60855865478516,-79.78277962920076,40.45899091813067,289.81663703918457,-0.0071938228793442,-0.0132830692455172,-0.9993433952331544,0.0329343415796756,0.1907760097554069,0.1024605833947714,3.1109681398419906,0.0575196333229541,0.0500765927135944,0.066530592739582,0.2916971419192851,0.0420373235363513,-9.573300617337226,14954.0
29.6,3.0999999046325684,15.0,22.243932723999023,26.50326156616211,-79.78277978787386,40.45899089375896,290.1253318786621,-0.0089078294113278,-0.0133803253993392,-0.9993504881858826,0.0322540998458862,0.1804301563988764,0.1016515888521392,3.0550622043364,-0.0949202924966812,0.0277747362852096,-0.0041105868294835,0.2722557894140482,0.1311036107037216,-9.30603725373745,14955.0
29.81,3.0,21.0,22.253950119018555,26.00230026245117,-79.78278041160044,40.45899063689801,291.0403118133545,-0.0119540328159928,-0.0166737474501132,-0.9992998838424684,0.0312864184379577,0.182377402461957,0.1254706572365194,2.812687940479815,-0.2033515721559524,-0.0237922389060258,-0.1513307243585586,0.2855558661371469,-0.0065760619472712,-8.84188176691532,14956.0
30.0,3.0,19.0,22.28274726867676,25.294591903686523,-79.78278055897637,40.458990594246906,291.3164253234863,-0.0134447226300835,-0.0174578931182622,-0.9992560148239136,0.0316535122692585,0.1942567007590178,0.128817165723803,2.6988261803124853,-0.0028392672538757,0.0009007370099425,0.0576377883553505,0.2658597394824028,0.0208396958559751,-8.694975151419639,14956.0
30.11,3.0,23.0,22.37038993835449,23.60086441040039,-79.78278069751781,40.45899055082664,291.58126258850103,-0.0148117756471037,-0.0175276026129722,-0.9992263913154602,0.0319378599524498,0.1929733857776796,0.128916102360566,2.5844162710214014,-0.0026379153132438,0.0174467656761407,0.0035010469146072,0.2638540714234114,0.0810847829841077,-8.6643983066082,14956.0
30.21,2.900000095367432,23.0,22.486831665039062,22.41604995727539,-79.78278079725463,40.45899043844553,291.8582687377929,-0.0155402151867747,-0.0174882970750331,-0.9991963505744934,0.0325472429394722,0.1851612068442684,0.1278604327654026,2.49042054713283,0.0330625101923942,-0.038369346410036,0.0272526983171701,0.3104177885502577,0.1345926168747246,-8.569198619127274,14956.0
30.41,2.799999952316284,26.0,22.34409713745117,25.024232864379893,-79.78278113002477,40.45899027627647,292.56205177307135,-0.0139613999053835,-0.0192097667604684,-0.9991660118103028,0.0332170128822326,0.1545115420986131,0.121729339460455,2.1406293166730084,0.1052139028906822,0.027649899944663,0.0826708003878593,0.2463863734714687,0.1436864807456732,-8.546841205358506,14957.0
30.6,2.799999952316284,26.0,22.3353328704834,24.12568283081055,-79.78278121575259,40.45899023468925,292.772403717041,-0.013569408096373,-0.018699400126934,-0.9991831183433532,0.0331579633057117,0.1353634798398562,0.1165493135062796,2.053727372111161,0.0115989418700337,0.0538337305188179,-0.0235136672854423,0.2667097053676844,0.241146482527256,-8.851940732002259,14957.0
30.7,2.799999952316284,27.0,22.37038993835449,24.26086235046387,-79.78278126521053,40.45899010891417,292.9976463317871,-0.0130146611481904,-0.019576447084546,-0.9991679191589355,0.0333290658891201,0.1190932470417985,0.1127646336924857,1.997635680724858,0.047779269516468,0.0383476726710796,0.0278640389442443,0.2579127338714898,0.1609024560637772,-8.892940823435783,14957.0
30.9,2.700000047683716,26.0,22.292762756347656,24.94471549987793,-79.78278138724883,40.45898999706555,293.41341972351074,-0.0100604323670268,-0.0234889779239892,-0.9991143941879272,0.0334301702678203,0.0974121741924961,0.1117500944228613,1.8486088265108087,0.0459227822721004,0.0610357671976089,0.0007772204698994,0.2774546219408512,0.1852397005073726,-8.807569136023524,14958.0
31.0,2.700000047683716,30.0,22.38541412353516,24.42784881591797,-79.78278144451563,40.45898996897108,293.59432792663574,-0.0078960712999105,-0.0244208518415689,-0.9991143345832824,0.0333450958132743,0.0868670892375571,0.1039797170965202,1.762624210215332,0.0265884473919868,0.0665147751569747,0.0676302909851074,0.2771738094091415,0.1197224257048219,-8.911670624613762,14958.0
31.2,2.5999999046325684,31.0,22.340341567993164,24.41989707946777,-79.78278150564256,40.45898986289596,293.9706020355225,-0.0064397575333714,-0.0229026582092046,-0.9991523623466492,0.0335937514901161,0.0690855899862594,0.0952947872943163,1.6634936427133051,-0.0345309898257255,-0.0566727146506309,-0.0678414702415466,0.3560886358469725,0.2529243097454309,-9.112260527014731,14958.0
31.3,2.5,32.0,22.297771453857425,24.332427978515625,-79.78278156610384,40.45898985095232,294.1339988708496,-0.0066465456038713,-0.0204157996922731,-0.9991935491561892,0.033930204808712,0.0754837131389144,0.080023407038119,1.5995339369770731,-0.0549117363989353,-0.1373727470636367,-0.0531886480748653,0.2930735216662288,0.2598973154090345,-9.125099843144415,14959.0
31.5,2.5,32.0,23.265605926513672,5.868409156799316,-79.78278161181755,40.45898975497594,294.47650909423834,-0.0051639284938573,-0.0159668046981096,-0.999258816242218,0.0346453934907913,0.0888572039749451,0.0677670080444804,1.5033531771911794,0.0327777564525604,-0.0486900098621845,0.0444614775478839,0.2162155081517994,0.1499555090535432,-8.960960313677786,14959.0
31.61,2.299999952316284,32.0,22.633319854736328,20.66666030883789,-79.78278169805355,40.45898973400976,294.6176414489746,-0.0032260310836136,-0.0144574996083974,-0.9992177486419678,0.0366682149469852,0.0918176180719167,0.0605902269665628,1.2716914680301663,0.0755805447697639,-0.0049912896938622,-0.166050374507904,0.3154925870150328,0.1442465526424348,-7.680508378744125,14959.0
31.8,2.299999952316284,32.0,22.483074188232425,22.948820114135746,-79.78278181433902,40.45898962252668,294.8332633972168,0.0023394585587084,-0.0129639832302927,-0.9945738911628724,0.1031955331563949,0.0602825659885924,0.0455513035318121,0.830922080004168,0.0354107432067394,0.0747585818171501,-0.9936057329177856,0.1116045352164656,0.0033528574090451,-7.741599503159523,14959.0
31.9,2.200000047683716,35.0,22.4279842376709,24.07001876831055,-79.78278190953517,40.45898972015254,294.8602485656738,0.0031155061442404,-0.0140526872128248,-0.987494170665741,0.1569976657629013,0.0689799646857158,0.0265303428621672,0.6747140149398684,0.0130833219736814,-0.0256032850593328,-1.164731502532959,0.2640319364145398,-0.021457371963188,-8.281163021922113,14959.0
32.1,2.200000047683716,37.0,22.300275802612305,24.865196228027344,-79.78278211943996,40.45898967308706,294.9756145477295,0.0035175755620002,-0.0150355417281389,-0.9586207270622252,0.2842671275138855,0.1133569919340298,-0.0125127091534536,0.4983765896305185,0.0590114258229732,0.019645731896162,-1.378901720046997,0.0917614150419831,0.1441445095930248,-8.962913868427277,14959.0
32.21,2.200000047683716,27.0,22.325315475463867,25.22302627563477,-79.78278246365433,40.45898985923733,294.97322654724115,0.0026550099719315,-0.0140766594558954,-0.9067991375923156,0.4213195145130157,0.1274625547429447,-0.0861686920000678,0.3814337118998889,-0.0205273237079382,0.0163218490779399,-1.4913595914840698,0.1457090600486844,0.2467903429828585,-9.24749025285244,14959.0
32.4,2.200000047683716,20.0,22.220144271850582,27.19506645202637,-79.78278252258845,40.45899000233448,294.9225406646728,0.0022909948602318,-0.0110679408535361,-0.8724480867385864,0.488576203584671,0.126573317643055,-0.1233308041246418,0.3407586006232674,0.0495341755449771,-0.0488552972674369,-1.4576923847198486,-0.0154711387585848,0.173090154826641,-9.56537354707718,14959.0
32.51,2.0999999046325684,30.0,22.310291290283203,24.252910614013672,-79.7827827492289,40.458989992736505,294.9559803009033,0.0020887681748718,-0.0077743143774569,-0.8327505588531494,0.5535898208618164,0.1243022444882392,-0.1600268091349367,0.3379740540701503,0.0652319192886352,-0.0498255342245101,-1.5280159711837769,0.0082800319511443,0.099772995840758,-9.74053449332714,14959.0
32.7,2.0999999046325684,35.0,22.256452560424805,26.535070419311523,-79.78278300723474,40.45899009292974,294.9342632293701,0.002966386731714,-0.0016061406349763,-0.7390674948692322,0.6736229062080383,0.0898185627041937,-0.2132730070855052,0.3196542508767602,0.0360433645546436,-0.0228233560919761,-1.541088342666626,-0.1060460532456636,0.2808162958547473,-9.808974398374556,14959.0
32.8,2.0999999046325684,20.0,22.28274726867676,24.865196228027344,-79.78278329231621,40.45899004762755,294.9662055969238,0.0040795281529426,0.0019439599709585,-0.6895163655281067,0.7242560982704163,0.0983420265509832,-0.2357161754036506,0.3235844603731259,0.1730036437511444,-0.1014332622289657,-1.1708598136901855,-0.0260396795533597,-0.0420419739000499,-9.89773864030838,14959.0
32.91,2.0,14.0,22.08993148803711,28.18903923034668,-79.78278358157073,40.4589899697027,294.99853515625,0.0047868154942989,0.0073337205685675,-0.6452885866165161,0.7638887166976929,0.0825145216155002,-0.2427932720750912,0.3283663015874318,-0.0360089465975761,-0.1253848671913147,-1.152780532836914,0.0430569043569266,0.4016938116028905,-9.84597090125084,14959.0
33.1,2.0,29.0,22.20512008666992,32.45914077758789,-79.78278352786211,40.45898983639622,295.0300464630127,0.0026950237806886,0.01776909455657,-0.583666980266571,0.8117942810058594,0.1280736712636911,-0.2245442015169738,0.4009754074145122,0.0709768012166023,0.033695962280035,-0.3950581848621368,-0.058033450897783,0.1711974842101335,-10.092571374177927,14960.0
33.3,2.0,36.0,22.192598342895508,26.82928466796875,-79.78278370233228,40.45898966085733,295.0397644042969,-0.0204017516225576,0.0129835531115531,-0.560050368309021,0.828105628490448,0.1485148575759255,-0.1049147549024254,0.4777664723880548,-0.2320686429738998,-0.5243766903877258,-0.1809742450714112,0.3889909183233977,0.3443036457896233,-10.221197254657747,14960.0
33.41,2.0,35.0,22.133752822875977,28.87289047241211,-79.78278409960524,40.45898964847407,294.92959785461426,-0.0477670319378376,0.0249869413673877,-0.5572834014892578,0.8285706639289856,0.191294826257639,-0.0590718792392056,0.4395607494703281,0.0028222452383488,-0.7239090204238892,0.1208111122250557,0.140902977688238,0.2085514346882701,-10.111123420000077,14959.0
33.6,2.0999999046325684,32.0,22.15503692626953,26.67820167541504,-79.7827837295509,40.45898938909193,295.0237827301025,-0.0870216116309166,0.0582426004111766,-0.5610743165016174,0.8211156129837036,0.2016373081409092,0.1683660995108468,0.5378011722448828,0.0570191591978073,-0.3313613831996918,0.056434266269207,-0.2479345882683993,0.1205644887126982,-10.213704632520676,14960.0
33.7,2.0999999046325684,42.0,22.165054321289062,27.25868034362793,-79.78278303941852,40.4589897936952,294.98358917236334,-0.1002616584300994,0.075827307999134,-0.5697655081748962,0.8121362328529358,0.1721401228937339,0.5297558563172791,0.5969980143827038,0.0433369912207126,-0.1176772490143776,0.0971125587821006,-0.2646919591538608,-0.03387047175318,-10.113780394792556,14959.0
33.9,2.200000047683716,46.0,22.05612564086914,28.7218074798584,-79.78278246047445,40.458990187745606,294.9357624053955,-0.1054195314645767,0.0777419358491897,-0.5742171406745911,0.8081569671630859,0.140279074996404,0.7339457027823486,0.6197641698899761,-0.109257735311985,-0.1349681317806244,0.0988918915390968,-0.140194011926651,-0.0490211191400885,-10.084472980499267,14959.0
34.0,2.400000095367432,43.0,21.90713119506836,31.0914363861084,-79.78278130021076,40.45899036036396,294.9773788452148,-0.1110278144478798,0.0788737535476684,-0.5779763460159302,0.8046086430549622,0.1312516392603538,0.9738718890091924,0.7008599004567053,-0.1649903208017349,-0.1775159388780594,0.0689642205834388,-0.1930553082190454,0.0662805557157844,-10.212842752933502,14959.0
34.2,2.5,46.0,21.9309196472168,30.39963150024414,-79.78277847559545,40.458991275970135,294.9847335815429,-0.1209185272455215,0.0790651738643646,-0.5823121666908264,0.8000250458717346,0.094879117457144,1.4335135664938163,0.9096851090508982,-0.0864677801728248,-0.1262094229459762,0.1419560760259628,-0.3028311358764767,-0.0917147286795079,-10.458037555217745,14959.0
34.31,2.799999952316284,49.0,22.253950119018555,25.127605438232425,-79.78277645910548,40.45899169974947,295.03413581848145,-0.1254412084817886,0.0783462598919868,-0.5824845433235168,0.7992736101150513,0.0888808578860772,1.6866949014420791,1.0329133126794798,-0.0181730091571807,-0.0791339799761772,-0.0804442167282104,-0.2709896662272513,0.0425186955649405,-10.4897598695755,14960.0
34.5,3.0,51.0,22.133752822875977,27.823257446289062,-79.7827718429337,40.45899320622568,295.0609760284424,-0.1350730508565902,0.0800626873970031,-0.5792686939239502,0.7998707294464111,0.0345378879656322,2.16592590637484,1.1139369760241822,-0.0169044882059097,-0.1646231412887573,0.0588403902947902,-0.5063068219274283,-0.1498773299530148,-9.702683712244037,14960.0
34.6,3.400000095367432,50.0,21.902122497558597,30.55866622924805,-79.78276900698606,40.4589939068288,295.0999450683594,-0.1385666728019714,0.082576036453247,-0.5768912434577942,0.8007354140281677,0.022278879514488,2.4194037049800268,1.1732254291539637,-0.0596314780414104,-0.1912047863006592,-0.0873953253030777,-0.4956774609535933,0.0574175198189914,-9.7076930218935,14960.0
34.8,3.5999999046325684,48.0,22.0673942565918,28.1572322845459,-79.78276306575192,40.45899609494603,295.10644149780273,-0.1416501551866531,0.088497094810009,-0.5723104476928711,0.8028475642204285,-0.018463409625662,2.8837511911057567,1.347453840626362,0.0325460024178028,-0.0694103315472602,0.1931586861610413,-0.6313531831651926,-0.0920524602010846,-10.121948955059052,14960.0
34.9,4.099999904632568,49.0,22.083669662475582,27.32229423522949,-79.78276015093188,40.45899770777213,295.0768203735352,-0.1438683271408081,0.0913975089788436,-0.5702533721923828,0.8035916686058044,-0.085184793110771,3.095540750194525,1.403341259713868,-0.0079070357605814,-0.0596587806940078,-0.0494080819189548,-0.6319786890596152,0.0139845983823761,-10.11559069275856,14960.0
35.0,4.400000095367432,49.0,22.193851470947266,26.43964767456055,-79.78275626448408,40.45899883353957,295.10640525817865,-0.148273080587387,0.0932346954941749,-0.5682379007339478,0.8040075898170471,-0.0838845233495778,3.3522865634286747,1.495195188660971,-0.0764465034008026,-0.1377858519554138,-0.0804419666528701,-0.7528740388154984,0.0763606849825009,-9.85334657907486,14960.0
35.2,4.900000095367432,48.0,22.17381858825684,26.41579246520996,-79.78274360973552,40.45900360854172,295.1124687194824,-0.1516974717378616,0.0907757654786109,-0.566017746925354,0.8052153587341309,-0.1401915782656967,4.066681408123411,1.6802857369635855,0.0812695324420929,0.0200335159897804,0.1580200940370559,-0.956782528460026,-0.2016876257769763,-9.777732140421868,14960.0
35.4,5.099999904632568,47.0,22.05988121032715,26.964466094970703,-79.7827391511392,40.45900590785171,295.0862522125244,-0.1496695429086685,0.0903489962220192,-0.5661498308181763,0.8055498600006104,-0.21830423252339,4.297303509092959,1.703346780960863,0.0331300050020217,0.0487670041620731,0.0019402948673814,-0.8337555762380362,-0.0151682803966105,-9.728529574871065,14960.0
35.51,5.699999809265138,47.0,22.101198196411133,27.47337913513184,-79.78273399068969,40.45900756620257,295.09493446350103,-0.147344559431076,0.0907217264175415,-0.5665079951286316,0.8056848049163818,-0.2367602704630504,4.54390262669841,1.7420915203494802,-0.0190933905541896,0.0549657233059406,-0.0704344063997268,-0.9416795358806848,0.122456346200779,-9.708115190863609,14960.0
35.7,6.0,47.0,22.151281356811523,26.43964767456055,-79.7827235033967,40.45901196964383,295.0796337127685,-0.1429523527622223,0.0951988846063614,-0.5664736032485962,0.8059836030006409,-0.3149490200780968,4.969049730106414,1.7980253004432278,0.1375273764133453,0.0275508072227239,0.0748666524887085,-1.2339042976498604,0.2224821336194873,-9.46383313894272,14960.0
35.8,6.5,48.0,22.05362129211425,27.751691818237305,-79.78271764986398,40.45901389408483,295.07720184326166,-0.1398161053657531,0.0966933965682983,-0.566865086555481,0.8060806393623352,-0.3191641815393211,5.18919105699184,1.8184755500197127,0.0740365609526634,0.0836014375090599,-0.1702457219362259,-1.046972687020898,0.2500557571090758,-9.505342522859571,14960.0
35.9,6.800000190734862,47.0,22.17381858825684,26.58278083801269,-79.78271188606638,40.45901685571413,295.0637512207031,-0.1380336284637451,0.093337282538414,-0.5670276284217834,0.8066688179969788,-0.4002898214280676,5.388933700170231,1.8565268567090447,-0.0403578281402587,0.0769143253564834,-0.0780653357505798,-0.9130063252151012,0.1426520169340074,-9.625298736691477,14960.0
36.1,7.199999809265138,48.0,22.107460021972656,26.04205894470215,-79.78269910884697,40.45902114466049,295.0441684722901,-0.1425487250089645,0.086993008852005,-0.5661035776138306,0.8072415590286255,-0.3898607285302744,5.807568412070749,1.9033120965896209,-0.0668430253863334,0.0511978976428508,0.1168143823742866,-1.3717126455903057,0.1633105221949518,-9.852131527662277,14960.0
36.3,7.5,48.0,22.054872512817383,27.425668716430664,-79.78268582841494,40.45902674773447,295.0234088897705,-0.1454628854990005,0.0909792482852935,-0.5644700527191162,0.8074261546134949,-0.4478947473235353,6.195506312989418,2.0206970146002,0.000442596967332,-0.139570951461792,0.2052396982908249,-1.337501610070467,-0.1696696798503399,-9.635797412395476,14960.0
36.41,7.900000095367432,50.0,22.104955673217773,25.61266326904297,-79.78267869290455,40.45902918966225,295.00825881958013,-0.1492003351449966,0.0931886285543441,-0.5639528036117554,0.8068534135818481,-0.4600905504017967,6.373608009229589,2.126875441848748,-0.0015290770679712,-0.1307543814182281,0.0181879270821809,-1.4558062778413297,0.1228300472348928,-9.682979764938356,14960.0
36.6,8.100000381469728,50.0,21.756885528564453,34.876480102539055,-79.78266413537462,40.45903520589776,294.9821891784668,-0.1542220711708068,0.1004189625382423,-0.5639669895172119,0.8050297498703003,-0.5247253532215325,6.732860713685246,2.3412332664124067,0.1062847375869751,-0.0328094586730003,0.1357213854789734,-1.7458692508935931,0.0473713272437453,-9.491712078452109,14959.0
36.71,8.5,49.0,21.924659729003903,30.61433029174805,-79.7826485329213,40.45904164925934,294.94055747985834,-0.1509766727685928,0.0966755896806716,-0.566046416759491,0.8046435713768005,-0.6246963579677114,7.109809626359277,2.5894577159031247,0.0300317201763391,0.1767566502094268,-0.1412773430347442,-1.5619399662315847,0.1481342932395637,-9.983351233005523,14959.0
36.9,8.699999809265138,49.0,22.04610824584961,28.25265312194824,-79.78264103075738,40.45904566409087,294.9311180114746,-0.148279458284378,0.0925900340080261,-0.5666130185127258,0.805226743221283,-0.7451137442960908,7.29076979040849,2.628048304317093,-0.034251682460308,0.0660701692104339,-0.0456401631236076,-1.3813365778326991,0.0765444108936935,-10.11504573225975,14959.0
37.0,9.100000381469728,48.0,21.870820999145508,31.560590744018555,-79.78263264571275,40.45904870412488,294.9199848175049,-0.1471944749355316,0.0896571651101112,-0.5671228766441345,0.8053987622261047,-0.7592549791916294,7.489586994613657,2.635400200660685,-0.0736182183027267,0.0438199490308761,-0.1089065819978714,-1.4265497343242168,-0.0243177110888063,-9.947952189445497,14959.0
37.2,9.300000190734863,50.0,22.02482414245605,28.483253479003903,-79.7826157654813,40.459056022453616,294.8746681213379,-0.1501528322696685,0.0816382393240928,-0.5664597749710083,0.8061716556549072,-0.8722822737222541,7.817744314726102,2.7401541734203256,-0.0540177673101425,0.0195178352296352,0.1644903123378753,-1.905343433171511,0.1707721175439656,-10.14850350022316,14959.0
37.3,9.699999809265137,49.0,22.02231979370117,26.76567077636719,-79.78260684516293,40.459059344763496,294.8686408996582,-0.1518306136131286,0.0829377770423889,-0.5660600662231445,0.8060054779052734,-0.8697260403590367,7.975675852014276,2.8134688123972422,0.0234453864395618,-0.1395476460456848,0.2349396795034409,-1.723804197907448,-0.1090749657712876,-10.082772610187533,14959.0
37.5,9.800000190734863,50.0,21.99101829528809,29.039878845214844,-79.78258858556745,40.45906710262412,294.796968460083,-0.1574181765317917,0.0934297889471054,-0.5635038018226624,0.8055768013000488,-0.9324852561084276,8.273269755166325,3.012900644213784,0.0405917651951313,-0.0709906592965126,-0.1176153570413589,-1.7121866574883462,0.2542868023552001,-9.792354857325556,14959.0
37.61,10.199999809265137,49.0,21.96722984313965,28.79337310791016,-79.78256962111111,40.459075258904456,294.7236995697021,-0.1569521874189376,0.0977746024727821,-0.56263267993927,0.8057609796524048,-1.031769887617778,8.558948318300661,3.2503954632796,-0.1548625826835632,0.0397658683359622,-0.1371048241853714,-1.731497818082571,0.4357670355588198,-9.95953084588051,14959.0
37.8,10.300000190734863,48.0,22.04986572265625,28.10951995849609,-79.78255981971104,40.45907900985196,294.7131977081299,-0.15996915102005,0.0948686450719833,-0.5614628195762634,0.8063308596611023,-1.017476158032968,8.73282726884779,3.302491914954369,-0.0431461222469806,-0.1842883080244065,-0.0751206502318382,-1.865985532253981,0.2454414634220302,-9.694560760259629,14959.0
37.91,10.600000381469728,47.0,22.052370071411133,26.495309829711918,-79.78254987128977,40.45908368421321,294.6529731750488,-0.1627895534038543,0.0968586876988411,-0.5608119964599609,0.8059825897216797,-1.048873116618889,8.892614698136613,3.360103357468041,0.039667785167694,-0.0690548941493034,-0.1835134476423263,-1.8235790392756464,0.2952439350262284,-9.698738011121751,14959.0
38.1,10.699999809265137,47.0,21.61415100097656,35.282020568847656,-79.78252937039639,40.45909160603303,294.6190776824951,-0.166222333908081,0.1022541224956512,-0.5618323683738708,0.8039022088050842,-1.0864258848949822,9.199488455957018,3.5660742547509265,0.000532948761247,0.0311342403292655,0.1186973303556442,-2.009388057589531,0.1037539538461715,-9.411873026490213,14959.0
38.2,11.0,47.0,21.6817626953125,32.80106735229492,-79.7825186089059,40.45909639413769,294.5649337768555,-0.1580607891082763,0.0976061895489692,-0.5632205009460449,0.8051537871360779,-1.161661945554349,9.320195651205823,3.687814315595064,0.0792014449834823,0.2869643867015838,0.0915823131799698,-2.072555966824293,0.0539217802137136,-9.916257941722868,14959.0
38.4,11.100000381469728,48.0,21.89711570739746,30.45529365539551,-79.78249703155092,40.45910542371046,294.50350761413574,-0.1279139220714569,0.081086941063404,-0.5660121440887451,0.8103660941123962,-1.2307725660506046,9.744669746678031,3.3595958758491675,0.0597702674567699,0.3410083055496216,-0.1453545093536377,-1.6377114026248456,0.0760897990129888,-10.274457203149796,14959.0
38.5,11.399999618530272,49.0,21.910886764526367,27.60060691833496,-79.78248608577795,40.45910968965523,294.4977149963379,-0.1155909672379493,0.0771180912852287,-0.5673542022705078,0.811665415763855,-1.228083252139638,9.920148070095475,3.0965535589015563,0.0837366580963134,0.3560055494308472,0.1601267009973526,-1.8739267820119856,0.0596072975127026,-10.297977043390272,14959.0
38.7,11.5,49.0,22.071149826049805,26.06591415405273,-79.78246368152412,40.4591189416649,294.43193435668945,-0.0935233458876609,0.0639530718326568,-0.5691770911216736,0.8143714070320129,-1.2946883713212722,10.157507660208664,2.584845944692296,-0.1014717742800712,0.1379849314689636,-0.0910691767930984,-1.8152511423826216,0.1856793197616935,-9.787936701178554,14959.0
38.8,11.600000381469728,55.0,22.22890853881836,23.52134704589844,-79.78245258971934,40.45912327153237,294.4308567047118,-0.0881208330392837,0.0590468570590019,-0.5691834092140198,0.8153394460678101,-1.275210411467665,10.217039930097982,2.3611174127191665,-0.0222073327749967,0.0887630730867385,0.09126016497612,-2.1066145361959934,-0.0651326878974214,-9.775049437880517,14959.0
39.0,11.699999809265137,58.0,22.256452560424805,23.529298782348643,-79.7824297278288,40.45913256521247,294.3664093017578,-0.0821441560983657,0.0470692813396453,-0.5689277052879333,0.8169199228286743,-1.2748760642466583,10.30638308426784,2.0246135974631,-6.728838343406096e-05,-0.0363868065178394,0.0995025262236595,-1.9566933886706832,0.1919791099056601,-9.54656890153885,14959.0
39.11,11.899999618530272,58.0,22.18258285522461,25.35820770263672,-79.78240680117516,40.45914189516096,294.3159503936768,-0.0817046985030174,0.0494046173989772,-0.5688129067420961,0.8169060945510864,-1.293681076442219,10.345375464995822,1.8377302742549844,0.0540175102651119,-0.0206132922321558,0.1211526989936828,-2.129876221865416,-0.093959164135158,-9.313491284251214,14959.0
39.3,11.899999618530272,58.0,22.165054321289062,24.9924259185791,-79.7823957238971,40.45914627876538,294.3014678955078,-0.0809941887855529,0.0536215342581272,-0.5690217018127441,0.8165653944015503,-1.289190233034248,10.317243581373248,1.847031172307412,0.1905491799116134,0.0042660408653318,-0.3005701005458832,-2.0993809457123285,0.3597869997471571,-9.370077129006386,14959.0
39.41,12.0,60.0,22.23141288757324,24.66640281677246,-79.78238389455758,40.45915099489152,294.27442932128906,-0.080525130033493,0.0553212873637676,-0.5697012543678284,0.8160243630409241,-1.3097172086724145,10.346048284066704,1.8735650164029864,-0.0189892537891864,0.0396470017731189,0.0179328192025423,-1.8672863915562632,-0.0463298833183944,-9.35304711341858,14959.0
39.6,12.0,59.0,22.260210037231445,23.306650161743164,-79.78236179212679,40.45915975490341,294.23497200012207,-0.0784402638673782,0.0466050654649734,-0.5711413025856018,0.8157650828361511,-1.3505663009790625,10.278996963515212,1.8119412368625705,-0.0490031950175762,0.0850775465369224,0.0088509591296315,-2.2999005353450777,-0.061903859982267,-9.529318445920945,14959.0
39.7,12.199999809265137,59.0,22.087427139282227,26.16133689880371,-79.78233920347805,40.45916891291417,294.1809711456299,-0.0725245028734207,0.030692808330059,-0.5712546110153198,0.8169862031936646,-1.3786076479430485,10.257518542923458,1.5935571464802276,-0.1056960225105285,0.1282119005918502,0.02010003849864,-2.253839824944735,-0.0610337303392589,-9.51206915974617,14959.0
39.9,12.199999809265137,59.0,22.41421127319336,19.736303329467773,-79.78232768405694,40.45917346751161,294.12827301025385,-0.0654779747128486,0.0223545581102371,-0.5707290172576904,0.8182183504104614,-1.3449317961599612,10.230972749430885,1.4968277253191538,-0.0367873087525367,0.3029077649116516,0.015512921847403,-1.8058016033470632,0.0919872089289128,-9.896994874477386,14959.0
40.0,12.100000381469728,64.0,22.36162567138672,21.54135513305664,-79.78231685535225,40.45917782143489,294.1138343811035,-0.0567994154989719,0.0128479721024632,-0.5709323883056641,0.8189291954040527,-1.3571354286009023,10.159407563207685,1.260772658408332,0.0493980534374713,0.282011479139328,-0.1386687010526657,-2.27300831347704,0.1653292185813188,-9.474370990991591,14959.0
40.2,12.100000381469728,68.0,22.34409713745117,22.2331600189209,-79.78229499214014,40.45918662772053,294.0503807067871,-0.0265543609857559,-0.0014925053110346,-0.5714027881622314,0.8202387690544128,-1.3863205237009573,10.024823261867809,0.6510600600755245,0.2191666960716248,0.121076300740242,0.226140484213829,-1.6141192030906677,-0.1005297534540295,-9.749055055975914,14959.0
40.31,12.0,69.0,22.118728637695312,26.479406356811523,-79.78228454283926,40.45919091870877,294.0358409881592,-0.0096476711332798,-0.0002516770618967,-0.5719087719917297,0.8202605247497559,-1.409227837069442,9.884378210887483,0.3168814442758799,0.2453660368919373,0.1506141126155853,0.0153352385386824,-1.8373197036981583,-0.0478990932740271,-9.747554660439492,14959.0
40.5,12.0,69.0,22.39417839050293,20.94497299194336,-79.78226363416327,40.45919957792839,293.98789215087885,0.0148415621370077,-0.0037301522679626,-0.5727260112762451,0.8196040987968445,-1.411922262379408,9.560064893305716,-0.1350558328452583,-0.0602046810090541,0.1140070706605911,-0.103776216506958,-1.4004590195417406,-0.0269842972420156,-10.358880472183229,14958.0
40.61,11.800000190734863,78.0,22.277738571166992,23.974597930908203,-79.782243575323,40.45920803573526,293.923282623291,0.005940640810877,0.0044537307694554,-0.5706246495246887,0.8211774826049805,-1.330584399383696,9.236326882312868,-0.2317790529747583,0.0819849967956543,-0.3105946183204651,0.1083039715886116,-1.7935240584611891,0.2147908888757229,-9.927436648607255,14958.0
40.8,11.800000190734863,83.0,22.429235458374023,20.96087646484375,-79.78223397221495,40.45921201051957,293.9223709106445,-0.0060901097021996,0.0136596551164984,-0.5697841644287109,0.8216583132743835,-1.2835402820018986,9.096197060261549,-0.0876631720857394,0.0924761071801185,-0.4437641501426697,0.1850487887859344,-1.6293725422024727,-0.0358470316417515,-9.653075349926947,14958.0
40.9,11.600000381469728,83.0,22.37289428710937,21.620872497558597,-79.78222405109311,40.45921626449224,293.8605785369873,-0.0220562312752008,0.0230594165623188,-0.5685630440711975,0.8220206499099731,-1.2194977723554794,9.025723198966002,0.1223848967776231,-0.0638294741511344,-0.4489060938358307,0.1373191326856613,-1.4669944864511493,-0.1561922497674822,-9.46491428911686,14958.0
41.1,11.5,83.0,22.425479888916016,20.54738426208496,-79.78220537022267,40.45922392430887,293.8285923004151,-0.0465631410479545,0.0312187727540731,-0.5645976066589355,0.8234602808952332,-1.1370184981482976,8.812725761719634,0.5752067864943414,-0.1001400053501129,-0.1217559203505516,0.1951346546411514,-1.546614560186863,-0.2106052326411009,-8.873616360425949,14958.0
41.2,11.300000190734863,73.0,22.3741455078125,22.0025577545166,-79.78219572420906,40.45922791257679,293.7335014343262,-0.0486858896911144,0.0317166969180107,-0.5630968809127808,0.8243456482887268,-1.0526132169562896,8.748632896934463,0.6304724321313537,-0.0102953696623444,0.0668070241808891,0.0985046401619911,-1.8732435348629952,0.1084921993687749,-8.637770086526869,14958.0
41.4,11.199999809265137,67.0,22.299022674560547,21.98665428161621,-79.78217746299453,40.45923534506118,293.64665031433105,-0.0524456240236759,0.0225420240312814,-0.5632184147834778,0.8243339657783508,-1.0285481069909093,8.665582694552112,0.5018309774726263,-0.1440291106700897,0.0731771886348724,-0.0970476195216178,-1.704975724965334,0.1526650448329747,-8.965892440080642,14958.0
41.5,11.0,67.0,22.24768829345703,24.02230834960937,-79.78216825237782,40.45923926144506,293.5457553863525,-0.0565705820918083,0.0182437319308519,-0.5636703372001648,0.8238584995269775,-1.0436349251114698,8.628583479445133,0.4679454200633006,-0.1840709149837494,0.0275903549045324,-0.0891345143318176,-1.524244721084833,0.0473491717781871,-9.245087631940844,14958.0
41.7,11.0,67.0,22.319055557250977,23.00448226928711,-79.78215017308459,40.45924678644259,293.39333152771,-0.0676852464675903,0.0212761331349611,-0.5642176270484924,0.8225719928741455,-1.0956922474180022,8.546105335900798,0.5494660137158224,0.0035860997159034,-0.0853705257177352,0.0345148406922817,-1.2898982580006124,-0.0414875116758048,-9.48779912173748,14958.0
41.81,10.699999809265137,68.0,22.08617401123047,26.12157821655273,-79.78214127436517,40.45925049741157,293.33537864685064,-0.0728588178753852,0.0239325538277626,-0.5642817616462708,0.8220127820968628,-1.143953023249962,8.510478836376528,0.6116404792502689,0.0076927924528717,-0.0749318599700927,0.2808218896389008,-1.5457943420112137,0.0191645370936021,-9.4569503813982,14958.0
42.0,10.600000381469728,67.0,22.272729873657227,23.1953239440918,-79.78212350359615,40.45925792472581,293.1813869476318,-0.0742845386266708,0.032615203410387,-0.5647313594818115,0.8212774991989136,-1.1825756983939322,8.466148331257905,0.7964515299725696,0.0570760332047939,-0.1041685193777084,0.057386141270399,-1.5902407823503018,0.0377106808824464,-9.865263204574584,14958.0
42.1,10.399999618530272,67.0,22.12749290466309,26.511213302612305,-79.7821146614545,40.45926167667815,293.1252059936524,-0.0772065818309784,0.0384834930300712,-0.564954400062561,0.8206001520156859,-1.2153234378353508,8.484161914616983,0.8325111099744362,0.0170026067644357,-0.0899161100387573,-0.1696823686361313,-1.1696162080764771,0.0124170969100669,-9.778547827005386,14958.0
42.3,10.300000190734863,67.0,22.129995346069336,25.04808807373047,-79.78209679983725,40.4592689628523,292.9894371032715,-0.0909133926033973,0.0476473420858383,-0.5645235180854797,0.8190102577209473,-1.2397698029746556,8.50381838099282,1.106806135644632,-0.0583737790584564,-0.2049463987350464,-0.1531493365764618,-1.4767021800577642,0.2346402856707573,-9.779414969086648,14957.0
42.4,10.199999809265137,64.0,22.02983283996582,28.03000259399414,-79.78208786648756,40.45927277105799,292.9380893707276,-0.098395936191082,0.0514702200889587,-0.5639486908912659,0.8183097839355469,-1.2548863594352873,8.541398102596931,1.2825313708155122,-0.0499722734093666,-0.112145110964775,-0.1366322636604309,-1.618661174029112,0.0735978527460247,-9.979487392902373,14957.0
42.6,10.100000381469728,59.0,21.86330986022949,29.81915283203125,-79.7820699137972,40.459279968291725,292.81351852416987,-0.1108339801430702,0.0624859109520912,-0.5622851848602295,0.8170966506004333,-1.2412135056076128,8.618306252116527,1.6636465955692523,-0.1334451138973236,-0.2498863190412521,0.0022890716791152,-1.6173022811114788,0.2287828739359975,-10.129480168819429,14957.0
42.71,10.0,59.0,21.884593963623047,29.707826614379893,-79.7820609310207,40.45928359210667,292.7270622253418,-0.119294561445713,0.0672761499881744,-0.5609150528907776,0.8164662718772888,-1.212079258874352,8.655994525580319,1.8923971154552344,-0.057647481560707,0.0002517116663511,-0.1192548722028732,-1.358117284476757,0.0998439481481909,-10.396382174491883,14957.0
42.9,9.899999618530272,59.0,21.70805549621582,32.872634887695305,-79.7820425247188,40.45929125379555,292.60100364685064,-0.132385104894638,0.0788715183734893,-0.5585641860961914,0.815021276473999,-1.1753794472273322,8.803786718664911,2.375505401741276,0.0725501999258995,-0.10373405367136,-0.0819591283798217,-1.6370759564638138,0.0595856856554746,-10.37311493396759,14957.0
43.0,9.899999618530272,56.0,21.66548538208008,33.02371597290039,-79.7820231829949,40.45929932068029,292.55515098571783,-0.1358294785022735,0.0842417702078819,-0.5567371845245361,0.8151671886444092,-1.1824874127445382,9.016422029145252,2.790501254586093,0.0987057387828826,-0.0367712117731571,-0.0310876127332448,-1.7439425933361057,0.0748646063357591,-10.290580315589905,14957.0
43.2,9.899999618530272,54.0,21.716819763183597,31.62420463562012,-79.78201380934611,40.45930324955156,292.46221160888666,-0.1311288625001907,0.0815765932202339,-0.5571355223655701,0.8159354329109192,-1.160388148227309,9.081925067702551,2.9086178783719667,0.0600348971784114,0.2140591442584991,-0.0404396653175354,-1.9689298568665985,0.1881989763490856,-10.60161125779152,14957.0
43.3,9.899999618530272,54.0,21.76439666748047,30.98806381225586,-79.7820037842885,40.45930739474486,292.4565315246582,-0.1189648583531379,0.0730368867516517,-0.5580908060073853,0.81795334815979,-1.1798486206727794,9.201023762336272,2.9565921579881933,-0.0205776412039995,0.2867856323719025,-0.1934855878353119,-1.873005114644766,0.2471652956865728,-10.80037449002266,14957.0
43.5,10.0,54.0,22.052370071411133,26.43169593811035,-79.78198388429773,40.45931584690064,292.3894863128661,-0.0901349782943725,0.0571195855736732,-0.5598509311676025,0.8216934800148009,-1.1784502121482645,9.48586306883776,2.4965714863095574,0.109467975795269,0.2569760680198669,0.0440149940550327,-1.7721020530164242,0.0021663751266896,-10.345317270755768,14957.0
43.6,10.100000381469728,58.0,22.05612564086914,26.034107208251957,-79.78197362096589,40.4593200956688,292.40234375,-0.0816813707351684,0.0590006932616233,-0.5598564743995667,0.8224402666091919,-1.1933936169837347,9.600890014564824,2.2263180003278817,0.1731663644313812,0.0037387222982943,-0.0099892802536487,-1.4238692244887352,-0.1342982917930931,-10.028581784963608,14957.0
43.7,10.199999809265137,60.0,22.01981544494629,25.57290458679199,-79.78196371859836,40.45932448164361,292.3309230804444,-0.0788385421037674,0.0618639253079891,-0.5602814555168152,0.8222178220748901,-1.232400533621334,9.624990034730931,2.04834555334852,-0.0281537864357233,0.133121982216835,0.0713352635502815,-1.5568758389353754,0.0296677124127745,-9.844941791296003,14957.0
43.91,10.399999618530272,61.0,22.14752578735352,24.28471755981445,-79.78194339413945,40.45933316705754,292.2609958648682,-0.0771514475345611,0.0648095980286598,-0.5622871518135071,0.8207805156707764,-1.2561262911079356,9.647162194044377,1.9758864730703016,0.091828666627407,-0.0497931279242038,0.0937516018748283,-1.6560754604637624,-0.1038302417378872,-9.723101019859314,14957.0
44.1,10.399999618530272,61.0,21.88709831237793,28.825180053710927,-79.78192278202447,40.45934170609253,292.2653427124024,-0.0777411758899688,0.0639773458242416,-0.5631842017173767,0.8201748728752136,-1.2978103619404322,9.675197584847162,1.95098600555032,-0.0385884158313274,-0.0038362862542271,0.0141500998288393,-2.089432346820832,-0.1137439126521349,-9.453788207173348,14957.0
44.2,10.600000381469728,60.0,22.09243392944336,25.87507247924805,-79.78191274041627,40.45934608475011,292.23579788208013,-0.0784195438027381,0.0615794733166694,-0.5638255476951599,0.8198531866073608,-1.3014826238523065,9.672400192644687,1.9490209539776748,-0.0740016549825668,-0.0178268663585186,-0.0473026409745216,-1.8682349561154843,-0.0922734392713755,-9.734348723888395,14957.0
44.4,10.699999809265137,63.0,22.34910583496093,21.223283767700195,-79.7818916605678,40.45935481502932,292.2366981506348,-0.0735505744814872,0.0611245930194854,-0.5650205612182617,0.8195156455039978,-1.3110342080406356,9.713310902718316,1.9466406437777048,0.0471630506217479,0.1448354572057724,-0.1005342155694961,-1.6685044482350349,0.0734690632531419,-9.727523269057274,14957.0
44.5,10.800000190734863,63.0,22.07991409301757,25.73194122314453,-79.78188128794824,40.4593590818329,292.23733139038086,-0.0700308084487915,0.062860257923603,-0.5648680925369263,0.819797694683075,-1.3053358397853605,9.735025705445327,1.8465900002781617,0.0733033046126365,0.0781400576233863,-0.2089151740074157,-1.75457970187068,-0.0292596338619478,-9.274715473651888,14957.0
44.7,10.899999618530272,64.0,22.22640419006348,23.441829681396484,-79.78186036128247,40.45936761928764,292.23629188537603,-0.0679043978452682,0.0627453252673149,-0.5640050172805786,0.8205793499946594,-1.2763258510694062,9.752876710408213,1.779284625361962,-0.1077626720070838,0.1240696012973785,-0.2738759815692901,-1.6417196689546107,-0.3527751649171114,-9.50772935628891,14957.0
44.8,11.0,64.0,22.243932723999023,23.55315399169922,-79.78184996554606,40.45937185002038,292.23586654663086,-0.070698395371437,0.0599557533860206,-0.563395619392395,0.8209704756736755,-1.2451210562889503,9.755383722888896,1.7661886504911584,-0.1191932186484336,-0.0120606636628508,-0.1147320866584777,-1.6432645033299924,0.1682228776998818,-9.69471571147442,14957.0
45.0,11.0,65.0,22.382909774780277,20.762081146240234,-79.7818288921739,40.45938029733236,292.24450874328613,-0.0696164220571518,0.0620786249637603,-0.5617244839668274,0.8220494985580444,-1.1689224112314085,9.760184091138584,1.7571660884799063,-0.0528823547065258,-0.0550686828792095,0.0212574154138565,-1.7984412744641305,-0.3266129679232836,-9.347840752601623,14957.0
45.11,11.100000381469728,65.0,22.31154441833496,21.946895599365234,-79.78181848033668,40.45938448502055,292.237886428833,-0.0717736184597015,0.0595664344727993,-0.5605380535125732,0.8228593468666077,-1.1359124869525763,9.753599876888916,1.6984260990925462,-0.0651821196079254,0.0967875719070434,0.2017243951559066,-1.8136839424073696,-0.3762137654051185,-9.179209976792336,14957.0
45.3,11.100000381469728,65.0,22.19635581970215,23.75990104675293,-79.7817974296316,40.45939292786661,292.23674392700195,-0.0696315243840217,0.058714609593153,-0.5597332715988159,0.8236520886421204,-1.043497407765596,9.785804881445005,1.5929909789260406,0.0962619930505752,0.1165976524353027,0.2059593349695205,-1.6104386731982232,-0.1795815509185195,-9.151687717437744,14957.0
45.42,11.0,64.0,21.91965103149414,29.69987487792969,-79.78178680020838,40.45939711071101,292.2270050048828,-0.0705144703388214,0.0579013936221599,-0.5595753788948059,0.8237418532371521,-1.0390269998003892,9.78863640571271,1.5496337589716789,0.0246231574565172,0.014816116541624,0.1294770091772079,-1.9528386117517949,-0.4024076835438609,-8.967823190689089,14957.0
45.6,11.0,65.0,22.22890853881836,23.282794952392567,-79.78176599677238,40.45940539529192,292.1855792999268,-0.0656353086233139,0.0449909903109073,-0.5597080588340759,0.8248604536056519,-1.0250717531672937,9.765523919300724,1.5427777923318984,-0.1130750477313995,0.1092714145779609,-0.1586555242538452,-2.0151583823561667,-0.0878229224402457,-9.497145895957948,14957.0
45.7,11.0,65.0,22.113719940185547,24.849292755126957,-79.78175541394259,40.459409512418674,292.1848793029785,-0.066941037774086,0.0401904098689556,-0.559325098991394,0.8252630829811096,-1.0077128202623715,9.782776484762168,1.4329471625669297,-0.1364691853523254,0.0210667960345745,-0.1851778030395508,-1.6493653419613838,-0.092890146933496,-9.671198794841764,14957.0
45.9,11.0,65.0,22.21263122558593,23.82351493835449,-79.78173434191966,40.45941766367485,292.177677154541,-0.0765070542693138,0.0441936068236827,-0.5585064888000488,0.8247812986373901,-0.9638133586254942,9.777340743103984,1.4618810753501454,0.0114100612699985,-0.2117544263601303,-0.0491424016654491,-1.4578244443237782,-0.1002219249587506,-9.330618363618852,14957.0
46.0,10.899999618530272,69.0,22.02983283996582,26.209047317504893,-79.78171359245293,40.45942592784996,292.1404571533203,-0.0847456008195877,0.0565693937242031,-0.5589044094085693,0.8229483366012573,-1.0176687826627442,9.715323469167402,1.7350075478778646,0.0571238212287426,0.0261455196887254,-0.071147933602333,-1.7675843480229378,0.1066564477421343,-9.18318023622036,14957.0
46.2,10.899999618530272,66.0,22.18132972717285,23.974597930908203,-79.78170284231847,40.4594300303766,292.14043235778814,-0.0798264592885971,0.0561289973556995,-0.5591484904289246,0.8233045339584351,-1.0269374344849882,9.726606731327935,1.8125776425208435,-0.0403176471590995,-0.0716219916939735,-0.1103606298565864,-1.9804229977726937,0.0075051388330757,-9.17287568807602,14957.0
46.3,10.899999618530272,66.0,22.007295608520508,27.7039794921875,-79.78169243039129,40.45943418055111,292.11878776550293,-0.081687219440937,0.0543032474815845,-0.559508204460144,0.8230000138282776,-1.0360011877493172,9.771575765585055,1.6972452276171208,-0.1357375383377075,-0.1151016876101493,-0.0479891113936901,-1.7283552320301534,-0.2197810123488307,-9.349905989170075,14957.0
46.5,10.899999618530272,66.0,22.18508720397949,23.8076114654541,-79.78167145713208,40.45944251391357,292.0971584320068,-0.0806950852274894,0.0462806485593318,-0.5594077110290527,0.8236561417579651,-1.0558710463720873,9.75058925219443,1.818775190539036,-0.1203291788697242,0.1380874812602996,-0.1249114573001861,-1.6829915097355843,0.1144664731901139,-10.051550817489623,14957.0
46.6,10.899999618530272,66.0,22.084922790527344,25.87507247924805,-79.78166104646421,40.45944669174239,292.0865650177002,-0.078526385128498,0.0431288816034793,-0.559370756149292,0.8240618705749512,-1.0603789318339245,9.767907323151633,1.7599483514172118,-0.025315461680293,-0.0075359377078711,0.1559236943721771,-1.8868451817333705,-0.0898051376827061,-9.983851754665377,14957.0
46.8,11.0,68.0,22.12749290466309,25.779651641845703,-79.78164014165598,40.45945507409248,292.06813812255865,-0.0771459117531776,0.0490220598876476,-0.5598233342170715,0.8235552310943604,-1.068604654666374,9.7690644445579,1.7172961082798015,0.1773878335952758,-0.188077911734581,0.1174942851066589,-1.88216770157218,-0.0077461720257997,-9.682465794682503,14957.0
46.9,11.100000381469728,68.0,21.970985412597656,27.12350082397461,-79.78162955216997,40.45945934436575,292.0484714508057,-0.076922133564949,0.0563809536397457,-0.5606702566146851,0.8225284814834595,-1.087508335113258,9.75508189992107,1.7673818527494063,0.2040590345859528,0.0208273436874151,0.1063067317008972,-1.970255566835404,-0.1558678572066128,-9.799051088690758,14957.0
47.1,11.100000381469728,68.0,22.276485443115234,22.37629127502441,-79.78160878552303,40.45946776766484,292.0482635498047,-0.0766904130578041,0.0605118609964847,-0.5621447563171387,0.82124924659729,-1.1649306802959585,9.717308557078194,1.9036644851429207,0.0835176259279251,-0.1008923277258873,-0.0812399983406066,-1.6399450390040875,-0.0807370198331773,-9.829648983478547,14957.0
47.21,11.199999809265137,68.0,21.978498458862305,27.05988693237305,-79.78159844420563,40.45947205796601,292.0121898651123,-0.0769485011696815,0.0623883977532386,-0.561639130115509,0.8214306235313416,-1.1690342259099644,9.694989899723838,1.881336136347008,0.0851104035973548,-0.0512454472482204,-0.0439355932176113,-2.0924384003877643,-0.2518998958356678,-9.4248199313879,14957.0
47.4,11.199999809265137,68.0,22.09493827819824,26.11362648010254,-79.78157763663201,40.45948054712017,291.9804592132568,-0.0775498077273368,0.0581031031906604,-0.5592923760414124,0.8232873678207397,-1.138292198316804,9.675538133498492,1.9095975479680969,-0.0737706646323204,0.0413297675549984,-0.0436442978680133,-2.3732515168190003,-0.2190751803293824,-9.59076800465584,14956.0
