time,wind_speed,wind_angle,battery_voltage,battery_current,position_x,position_y,position_z,orientation_x,orientation_y,orientation_z,orientation_w,velocity_x,velocity_y,velocity_z,angular_x,angular_y,angular_z,linear_acceleration_x,linear_acceleration_y,linear_acceleration_z,node_ids
0.0,2.299999952316284,43.0,23.5886344909668,-0.0159035474061965,-79.7828020150427,40.45898285139017,267.71271772146224,0.0006828961195424,-0.0038275127299129,0.9583006501197816,0.2857355177402496,0.0019442845301645,-0.0197824446384489,-0.009345624163335,0.0032797963358461,0.0026087907608598,0.000398650590796,-0.1041314007528126,0.0296252333046868,-9.805298838615418,14932.0
0.1,2.200000047683716,49.0,23.58487892150879,-0.0159035474061965,-79.78280193819441,40.45898283831958,267.70452008605,0.0006978380843065,-0.0038101554382592,0.958331286907196,0.2856329381465912,-0.0004180621877217,-0.022505389641736,-0.0101445548664352,-0.0031732192728668,-1.0750609362730756e-05,-0.0082006184384226,-0.1008880690019577,0.03887557414826,-9.804472627043724,14932.0
0.3,2.200000047683716,47.0,23.587383270263672,-0.0079517737030982,-79.782801911389,40.458982821135066,267.696541736126,0.0006946541834622,-0.0038027532864362,0.9583612084388732,0.2855327129364013,0.0053878950310518,-0.0184791936727869,-0.0106002031952221,-0.0062410421669483,-0.0025546122342348,-0.0050529367290437,-0.0986059007328003,0.0157789638277608,-9.808913002610206,14932.0
0.4,2.200000047683716,46.0,23.5886344909668,-0.0079517737030982,-79.78280190483294,40.45898283869532,267.69549007177346,0.0006666707340627,-0.0037968312390148,0.9583715200424194,0.2854982912540436,0.0055314402509986,-0.0219606533089839,-0.0107365374645865,0.0055632437579333,0.005573424976319,0.001801238511689,-0.1048278041370213,0.0224452202185057,-9.80728513777256,14932.0
0.6,2.299999952316284,50.0,23.589887619018555,-0.0079517737030982,-79.78280182328874,40.45898283317237,267.6877534782886,0.0006896176491864,-0.0038038070779293,0.9583979249000548,0.2854093611240387,0.0020692658830067,-0.0250291927676077,-0.0110184838410372,-0.0011067135492339,0.0017281065229326,-0.0091325556859374,-0.1025917009636759,0.0167048076144419,-9.80657294690609,14932.0
0.7,2.200000047683716,44.0,23.59239196777344,0.0079517737030982,-79.78280177130203,40.45898280489983,267.67956156492227,0.0006892867386341,-0.0038304587360471,0.9584091901779176,0.2853711247444153,0.0048644356766133,-0.0204625064696932,-0.0146219278122333,0.0047363927587866,0.0020784714724868,0.0028168533463031,-0.1000282998941838,0.0175691699841991,-9.806721466183664,14932.0
0.9,2.200000047683716,44.0,23.57486343383789,-0.0238553211092948,-79.78280174916748,40.45898284332576,267.6766726768017,0.0006871222285553,-0.0038197964895516,0.9584280848503112,0.2853080034255981,0.0030728619564944,-0.0266565805448118,-0.0147365756987308,0.0102196224033832,2.251560363220051e-05,-0.0008313037687912,-0.1029767218418419,0.0328348727594129,-9.804667339324954,14932.0
1.0,2.0999999046325684,40.0,23.58613204956055,-0.0079517737030982,-79.78280170023767,40.45898282523047,267.6679163074493,0.0007027350366115,-0.0038233660161495,0.9584441781044006,0.2852539718151092,0.0065096090101875,-0.0247800723575272,-0.017387673856945,-0.0013182511320337,0.0006693455507047,0.0039053792133927,-0.1029306293372065,0.0176182820275425,-9.806502195596694,14932.0
1.21,2.0,40.0,23.59113883972168,0.0,-79.782801689326,40.45898284814312,267.6661996638775,0.0006861750734969,-0.0037952496204525,0.9584563970565796,0.2852132618427277,0.0051363411211289,-0.0279559583771525,-0.0172267090959997,-0.0016869052778929,0.00049309321912,-0.0070258001796901,-0.1054649131000042,0.0400150731392204,-9.805892915725709,14932.0
1.3,2.200000047683716,40.0,23.587383270263672,-0.0238553211092948,-79.78280160447808,40.45898285454422,267.65520525932305,0.0006723799160681,-0.0037970023695379,0.9584815502166748,0.2851284742355347,0.0042251763167948,-0.0299075789005319,-0.0191459191213465,-0.0024223315995186,-0.0011129678459838,-0.006297665182501,-0.1021303921937942,0.0284709746623411,-9.805723346471789,14932.0
1.5,2.299999952316284,42.0,23.587383270263672,-0.0238553211092948,-79.7828015810483,40.45898282059992,267.64440281152724,0.0006561457994394,-0.0038412685971707,0.9585050344467164,0.2850491404533386,0.0067521760145107,-0.0174980247481506,-0.0199187778424226,-0.0033717839978635,-0.0034957483876496,0.0064019435085356,-0.1017007406149059,0.030326565708965,-9.806535524725914,14932.0
1.6,2.299999952316284,46.0,23.58613204956055,-0.0159035474061965,-79.78280157517145,40.458982838557226,267.642418692112,0.0006418617558665,-0.0038124993443489,0.9585205912590028,0.2849973440170288,0.0059355069348994,-0.0208465370769445,-0.0200077289463456,-0.0020261225290596,0.0021005973685532,-0.0086923968046903,-0.1021103015262633,0.0390982205886393,-9.804101328849791,14932.0
1.8,2.400000095367432,49.0,23.58487892150879,0.0079517737030982,-79.78280148791512,40.45898283410944,267.6329760050773,0.0006543050985783,-0.0038016461767256,0.9585453271865844,0.2849141955375671,0.0023466463105169,-0.022674019680365,-0.0171518241573454,-0.0088500613346695,0.0012451821239665,-0.0096731958910822,-0.1023543770983815,0.0167962388810701,-9.806664748191832,14932.0
1.9,2.700000047683716,48.0,23.598651885986328,0.0397588685154914,-79.78280147652247,40.45898285325853,267.63126640975474,0.000650941801723,-0.0038225254975259,0.9585503935813904,0.2848966717720032,0.0030382033222015,-0.0259787782534743,-0.0173942174702433,0.0051959496922791,0.0041585406288504,0.0063083986751735,-0.104263922413811,0.0214529408700764,-9.805970683693888,14932.0
2.1,2.799999952316284,53.0,23.589887619018555,0.0079517737030982,-79.78280144301179,40.45898284542989,267.61917565226554,0.0006429591448977,-0.0038287076167762,0.9585761427879332,0.2848098874092102,0.0068608967269737,-0.0213497277520264,-0.0191566231163021,-0.0013054159935563,-0.000148008679389,-0.0071571986190974,-0.1038222474977374,0.0200701794354245,-9.806608030200003,14932.0
2.2,2.900000095367432,50.0,23.587383270263672,0.0,-79.78280135699819,40.45898281820391,267.6089506840706,0.0006416657124646,-0.0038395083975046,0.9585914611816406,0.284758448600769,0.0048407931622394,-0.0197356081181829,-0.0205212565643849,0.009800236672163,0.0030045364983379,0.0034784500021487,-0.0977398732770234,0.0184377989941276,-9.806602182984353,14932.0
2.41,2.900000095367432,48.0,23.58613204956055,-0.0159035474061965,-79.78280134682264,40.45898283632146,267.6069111472368,0.0006218003691174,-0.0038315053097903,0.9585976004600524,0.2847377359867096,0.0028296966204521,-0.0229225747622058,-0.0205658074929195,-0.0075011583976447,-0.0024603710044175,-0.0043476689606904,-0.1022863209899515,0.0289191957190632,-9.805400580167769,14932.0
2.6,2.900000095367432,50.0,23.59113883972168,-0.0079517737030982,-79.78280126784287,40.45898284311145,267.59498235046857,0.0006245759432204,-0.0038614245131611,0.9586211442947388,0.284658282995224,0.0038599834172346,-0.0235730115364544,-0.021121495120317,-0.000704861828126,0.0003390757774468,0.0052862325683236,-0.1019856370612979,0.0132873304781969,-9.807230173945428,14932.0
2.71,3.0,55.0,23.587383270263672,-0.0159035474061965,-79.78280121444683,40.45898283080725,267.5844291841984,0.000607859226875,-0.0038801913615316,0.9586411118507384,0.2845908403396606,0.0070639600648594,-0.0146360227383082,-0.0175229805157666,0.0088308611884713,0.0021492890082299,0.0045948424376547,-0.1065912421513348,0.0401785804750397,-9.80408203303814,14932.0
2.8,3.299999952316284,60.0,23.582374572753903,-0.0238553211092948,-79.78280121011805,40.458982846236246,267.58270017266267,0.0006005881587043,-0.0038599635008722,0.9586551785469056,0.2845434248447418,0.0051638818165513,-0.0176136167295657,-0.0173644051961082,-0.0051391199231147,-9.39505043788813e-05,-0.0066772326827049,-0.1023932154010981,0.0284998087445274,-9.805550268888474,14932.0
3.01,3.0,58.0,23.583627700805664,-0.0159035474061965,-79.7828011626607,40.4589828283585,267.57646239757537,0.0005825927364639,-0.0038817913737148,0.9586763978004456,0.2844720184803009,0.0087597212012228,-0.0094601298601237,-0.0050780388959705,-0.0041745700873434,-0.0019026766531169,0.0018127869116142,-0.10260273758322,0.0276640497660264,-9.806695153713228,14932.0
3.1,2.700000047683716,52.0,23.58487892150879,-0.0079517737030982,-79.78280116396232,40.458982840948,267.5759551024437,0.0005729978438466,-0.0038949227891862,0.9586891531944276,0.2844287455081939,0.007569085510163,-0.0126572870460993,-0.0052145052157774,-0.0028538685292005,-0.0006219840724952,-0.0104078613221645,-0.1043741241563111,0.0391796065215021,-9.802506793141363,14932.0
3.3,2.5,49.0,23.583627700805664,0.055662415921688,-79.78280114641123,40.458982798054826,267.58000403106206,0.0005363015225157,-0.0039429641328752,0.9587156772613524,0.2843387424945831,0.0103476847757176,0.000905464245492,0.0220926893354315,-0.0079675028100609,-0.0040728789754211,-0.001629680278711,-0.1043400458525866,0.0204002410545945,-9.806971727013588,14932.0
3.5,2.299999952316284,41.0,23.5886344909668,-0.0159035474061965,-79.78280115738903,40.45898280317157,267.5822103714944,0.0005375354667194,-0.0039259861223399,0.9587261080741882,0.2843036353588104,0.0102207149162936,-0.0019451608134554,0.0220611712167042,0.0033181337639689,0.0002440049429424,-0.0044318069703876,-0.1012763789389282,0.0317615706450305,-9.80570931315422,14932.0
3.6,2.0999999046325684,39.0,23.58613204956055,0.0,-79.78280110712149,40.45898278155174,267.58556100189685,0.0005461428081616,-0.0039372639730572,0.9587503671646118,0.2842215895652771,0.0085480179939222,0.0009934763147346,0.0373466312064593,-0.0039441967383027,-0.0018645353848114,-0.0065154954791069,-0.1001411968376487,0.0160194614063948,-9.80806281745434,14932.0
3.71,2.200000047683716,34.0,23.57736778259277,0.0477106422185897,-79.78280098302696,40.458982757324826,267.58326565682887,0.0005598812713287,-0.0039703329093754,0.9587621092796326,0.2841818034648895,-0.001432438706041,0.0007262532749837,0.0471794922706441,0.0067778695374727,-9.028088243212552e-05,0.0040939799509942,-0.1018351443484425,0.0241143741644918,-9.807464647293092,14932.0
3.91,2.0999999046325684,35.0,23.576114654541016,0.055662415921688,-79.7828009764462,40.45898275600223,267.5927233344316,0.0005373016465455,-0.0039749112911522,0.9587825536727904,0.2841127514839172,-0.0037406995089574,-0.0042768116520501,0.0473779396028825,-0.001264217426069,-0.0017479176167398,-0.0067674019373953,-0.1033461288269609,0.0148232718324288,-9.80712901711464,14932.0
4.0,2.200000047683716,36.0,23.579870223999023,0.0636141896247863,-79.78280088529344,40.45898275491541,267.58707370817655,0.0005433054757304,-0.0039590629749,0.9587905406951904,0.2840860784053802,-0.0005395677664869,-0.0049335406085945,0.0473182080676321,0.0067018829286098,0.0024408411700278,0.0068832281976938,-0.1001911813952028,0.016369759873487,-9.80779326081276,14932.0
4.2,2.299999952316284,40.0,23.582374572753903,0.2146978974342346,-79.78280087980524,40.45898275853524,267.59181656897067,0.0005497457459568,-0.0039513143710792,0.9588024020195008,0.284045934677124,-0.0026909919698622,-0.0075249091413748,0.0474783074621178,-0.008445986546576,-0.0043763895519077,-0.0079072099179029,-0.1030453261267394,0.0305608266382478,-9.805217562317848,14932.0
4.3,2.400000095367432,34.0,23.579870223999023,0.0874695107340812,-79.7828007537507,40.45898276644292,267.58815051078795,0.0005354888853617,-0.0039460575208067,0.9588299393653872,0.2839532792568207,-0.0042115647889104,-0.0113220864750761,0.043395795246864,-0.0059955329634249,0.0007669703336432,-0.0027815930079668,-0.102733230991289,0.0206351392390206,-9.805795267224314,14932.0
4.5,2.299999952316284,33.0,23.57486343383789,0.0874695107340812,-79.78280062766413,40.4589827663424,267.5820044523477,0.0005264140199869,-0.003950941376388,0.9588549733161926,0.2838685512542725,-0.0063448959355376,-0.0116727537648201,0.0359694834965027,0.0026067495346069,0.0034446145873516,0.0040522464551031,-0.1036511250771582,0.0351864927029237,-9.803837619423868,14932.0
4.6,2.5999999046325684,30.0,23.57110595703125,0.0397588685154914,-79.78280061243916,40.458982772710094,267.58560734450816,0.0005258945748209,-0.0039374832995235,0.9588631391525269,0.2838412225246429,-0.0077000522157611,-0.0146056427546119,0.0359550954425886,-0.0037113495636731,-2.6143621653318405e-05,-0.0101223047822713,-0.1039922827016562,0.0419059210689738,-9.803768622279168,14932.0
4.8,2.700000047683716,29.0,23.582374572753903,0.0954212844371795,-79.78280052100452,40.45898280453456,267.57439308822154,0.0005190749070607,-0.0039290776476264,0.958879828453064,0.2837847471237182,-0.0007561626010128,-0.0153498902701797,0.0233585869739695,-0.007148799020797,-0.0020527597516775,-0.0117527013644576,-0.1005142948776483,0.0171978695061989,-9.807078146338462,14932.0
4.9,2.799999952316284,26.0,23.57736778259277,0.0477106422185897,-79.78280051104409,40.45898281651027,267.5767346268892,0.0005153674283064,-0.003932885825634,0.9588897824287416,0.2837512195110321,0.0002107922581911,-0.0182954447082447,0.0232335264515824,0.0070653059519827,0.0031376245897263,0.0051760282367467,-0.099818339170888,0.0180610955518204,-9.808215429782868,14932.0
5.1,2.799999952316284,26.0,23.583627700805664,0.0795177370309829,-79.78280041258802,40.45898283187581,267.5653270131349,0.000497369444929,-0.0039627188816666,0.9589133262634276,0.2836710214614868,0.0016857450583101,-0.0144114615862216,0.0162391467066284,0.0068675391376018,0.0004667210159823,0.006317098159343,-0.1030287894699722,0.0274437924614176,-9.806595751047135,14932.0
5.2,2.700000047683716,28.0,23.579870223999023,0.0874695107340812,-79.7828002913408,40.458982843373256,267.5529237782955,0.0005027811275795,-0.0039918120019137,0.9589264392852784,0.2836262881755829,-0.0014308542293354,-0.0128586280571705,0.0130535604854795,-0.0045094480738043,-0.0041092578321695,-0.0012989328242838,-0.1030588660854846,0.0229863092210143,-9.806665917634962,14932.0
5.4,2.5999999046325684,36.0,23.583627700805664,0.0795177370309829,-79.78280026893637,40.458982864779856,267.5555297678709,0.0004989258595742,-0.0040177465416491,0.9589453935623168,0.2835619747638702,-0.002255801458767,-0.0182442802011127,0.0129183505236821,0.0010652954224497,-0.0035920923110097,0.0048288577236235,-0.1036363974027335,0.0301731973537243,-9.80611920297146,14932.0
5.5,2.5,36.0,23.58487892150879,0.0715659633278846,-79.7828001542825,40.458982905997246,267.5420241898298,0.0004876668099313,-0.0040050568059086,0.9589493870735168,0.2835487723350525,0.0008924819478651,-0.0214952449773805,0.0074371583640305,-0.0006640224019065,0.0013881827471777,-0.0006973314448259,-0.0995454843342304,0.0357451530452817,-9.805730947852137,14932.0
5.71,2.5999999046325684,37.0,23.5786190032959,0.0636141896247863,-79.78280014024118,40.45898292348986,267.5427813625336,0.0004919446655549,-0.0040199612267315,0.9589694142341614,0.2834808528423309,0.0006017669396275,-0.024349134482451,0.007351969816807,-5.536162279895507e-05,-0.0006354036158882,0.0050468035042285,-0.103027245439589,0.0138348628382664,-9.807868105173114,14932.0
5.8,2.5999999046325684,34.0,23.58112335205078,0.0715659633278846,-79.78280000345798,40.458982968768304,267.52990687847137,0.000462917931145,-0.0040189926512539,0.9589856266975404,0.2834258079528809,0.0005565951851094,-0.0248099590214058,0.0038773736886478,0.0018804532010108,0.0006807381869293,0.008511790074408,-0.099187844870612,0.0171866707177832,-9.80671211063862,14932.0
6.0,2.400000095367432,38.0,23.58112335205078,0.0874695107340812,-79.7827999138116,40.458983014052656,267.51462344288825,0.0004421571502462,-0.0040446077473461,0.9590077996253968,0.2833506762981415,0.0081502554602638,-0.0191915634807099,-0.0030060697934673,0.0084437374025583,0.0053055766038596,0.0039854911155998,-0.1029506286419928,0.0378666233830154,-9.805000630617142,14932.0
6.1,2.299999952316284,37.0,23.58613204956055,0.0079517737030982,-79.78279990772248,40.45898303292544,267.5143494105339,0.0004484944802243,-0.0040465043857693,0.9590172171592712,0.2833186686038971,0.0060604020763768,-0.0215348410568792,-0.0028411433491383,-0.0078801559284329,-0.0036805681884288,-0.0067141749896109,-0.1015009211562574,0.0310585366096347,-9.805920397639277,14932.0
6.3,2.200000047683716,36.0,23.58487892150879,0.0795177370309829,-79.78279973985691,40.45898307415477,267.498267481327,0.0004550321900751,-0.0040307878516614,0.9590465426445008,0.2832197248935699,-9.091072277060828e-05,-0.0246690577248038,-0.0071073345702725,-0.0075449766591191,-0.0013318373821675,0.0012416538083925,-0.0998931378498673,0.0220023073372431,-9.807144804596902,14932.0
6.4,2.0999999046325684,34.0,23.582374572753903,0.0636141896247863,-79.78279972390331,40.458983093563255,267.49756212741136,0.0004381583712529,-0.0040228888392448,0.9590535759925842,0.2831958830356598,9.690641527312024e-05,-0.0273046829995999,-0.0073742509192511,0.00252455053851,6.741828838130459e-05,0.0042395242489874,-0.1018779752030968,0.0276994551136158,-9.806271815299988,14932.0
6.6,2.0999999046325684,40.0,23.57736778259277,0.0238553211092948,-79.78279957992194,40.458983145896966,267.4825864082575,0.0004144088597968,-0.0040215030312538,0.9590773582458496,0.2831154763698578,-0.0011272940791186,-0.0291155390944389,-0.0092953049335751,-0.0030826465226709,-0.0008297159220091,-0.0054310280829668,-0.1011247167829424,0.0149675804295111,-9.806494009494784,14932.0
6.7,2.200000047683716,37.0,23.5886344909668,0.0079517737030982,-79.78279949221506,40.45898318344515,267.4682823142409,0.0004069745773449,-0.0040491106919944,0.9590891003608704,0.2830754220485687,0.0081847695627094,-0.0239618454945988,-0.0107964437724012,0.0035803848877549,-0.0002446897851768,0.0071215899661183,-0.0988133855257183,0.0142744740983471,-9.807808463573457,14932.0
6.9,2.200000047683716,37.0,23.587383270263672,-0.0318070948123931,-79.78279947372816,40.458983230310814,267.46615189522504,0.0004122097743675,-0.0040443483740091,0.959111750125885,0.2829985320568085,0.0074373349540545,-0.0290685438295582,-0.0111766786856047,0.0078138643875718,-3.5721892345463864e-05,0.0053571476601064,-0.1032903061900288,0.0382635990763083,-9.804624069929122,14932.0
7.0,2.0999999046325684,29.0,23.587383270263672,0.0159035474061965,-79.78279936315234,40.45898323978732,267.44962021917104,0.0003991649718955,-0.0040591792203485,0.95912504196167,0.2829533517360687,0.0047761918193903,-0.0204320673068916,-0.0156824853188776,-0.0080339619889855,-0.0041487566195428,-0.0104131251573562,-0.1032151329237967,0.0326287766802124,-9.805531557798384,14932.0
7.2,2.0999999046325684,28.0,23.58613204956055,0.0079517737030982,-79.78279923356347,40.45898328954404,267.4316521047056,0.0003981748304795,-0.0040577515028417,0.9591417908668518,0.2828965485095978,0.0056685307566999,-0.0198140815522041,-0.0188882492087391,-0.0090715046972036,-0.0045211529359221,-0.0029770333785563,-0.102313483133912,0.0211027429020032,-9.807749991416932,14932.0
7.3,2.0999999046325684,31.0,23.587383270263672,-0.0079517737030982,-79.78279922590886,40.45898330859033,267.4297642840445,0.000388312357245,-0.0040592877194285,0.9591507911682128,0.282865971326828,0.0058129827338062,-0.0224122748565683,-0.0191108762969123,0.0056858723983168,-0.0003136974701192,0.002301943488419,-0.1008658769913017,0.0333840793417766,-9.80511523604393,14932.0
7.5,2.0,31.0,23.5886344909668,-0.0079517737030982,-79.78279909770663,40.45898335180436,267.41153821744024,0.000383391714422,-0.0040671993046998,0.9591639041900636,0.2828214466571808,0.005915399253404,-0.0207524447411822,-0.0211784210418575,-0.003530683228746,0.0004010498523712,-0.0093864575028419,-0.1001648871973157,0.016483479081653,-9.80706879079342,14932.0
7.6,2.0,34.0,23.583627700805664,-0.0079517737030982,-79.78279908958875,40.45898337155879,267.40943239092826,0.0003759718965739,-0.0040603848174214,0.9591728448867798,0.2827914357185364,0.0063498773469012,-0.0232772127831869,-0.0213714630271804,0.0065370267257094,0.0005455538048408,0.0062278597615659,-0.099117230605334,0.0154081418621353,-9.807144219875337,14932.0
7.8,1.8999999761581416,33.0,23.587383270263672,-0.0079517737030982,-79.78279895726364,40.45898341590661,267.39189616287126,0.0003471127129159,-0.0040964819490909,0.9591895937919616,0.2827338874340057,0.0068019432460917,-0.0235589712201178,-0.0225907379211842,0.0071899690665304,-0.0016648053424432,0.0072742719203233,-0.1027750477194786,0.0340323870931752,-9.80459015607834,14932.0
7.9,1.8999999761581416,36.0,23.58112335205078,-0.0397588685154914,-79.78279894775261,40.45898343692485,267.38966669443994,0.0003547004889696,-0.0041050123982131,0.9592015743255616,0.2826931774616241,0.0051887760908695,-0.0257971025572599,-0.0225094980048264,-0.0002067783207166,-0.0035710800439119,0.0028582962695509,-0.1014066165313124,0.0198322091787122,-9.807630123496056,14932.0
8.1,1.7999999523162842,39.0,23.5886344909668,0.0,-79.78279878454661,40.45898348396296,267.372247467041,0.0003591994172893,-0.0040981383062899,0.9592174291610718,0.2826394736766815,0.0036057754982634,-0.0267429551517445,-0.0234256996144299,0.001669307006523,0.0009846189059317,0.0050362395122647,-0.1024669999536126,0.0365601224312558,-9.805358480215071,14932.0
8.2,1.7999999523162842,42.0,23.59113883972168,0.0238553211092948,-79.7827986500434,40.458983522139285,267.3569074536115,0.0003326663572806,-0.0041130753234028,0.9592258334159852,0.2826108038425445,0.0069018584533486,-0.0245457712638702,-0.0237279823643165,-0.0058435499668121,-0.0004827289958484,-0.0139078656211495,-0.1039909579418599,0.0382904688594862,-9.804466779828072,14932.0
8.4,1.7999999523162842,41.0,23.587383270263672,-0.0238553211092948,-79.78279862986432,40.45898356989397,267.352174064368,0.0003367647295817,-0.0041100136004388,0.9592517614364624,0.2825228571891785,0.0061448740530007,-0.029514212221701,-0.0239278277584725,-0.0069556697271764,-0.0016231061890721,-0.0048180054873228,-0.1027831607311964,0.0165155702456831,-9.807007395029068,14932.0
8.5,1.7000000476837158,43.0,23.587383270263672,0.0,-79.78279848567476,40.458983589673096,267.33526978105306,0.0003336690133437,-0.0041303564794361,0.9592601656913756,0.2824939489364624,0.0073547001539157,-0.0243133527892178,-0.027781825397186,0.0069978302344679,0.0038977090734988,-0.0006080760504119,-0.1013625522796064,0.0291438475716859,-9.806055468320848,14932.0
8.7,1.7999999523162842,46.0,23.587383270263672,0.0,-79.78279833157924,40.458983627855055,267.31734622478484,0.0003282277320977,-0.0041486099362373,0.9592852592468262,0.2824084162712097,0.0049829666647287,-0.0209586287649266,-0.0296137050778992,-0.0037389022763818,-0.0001889971172204,-0.0108196176588535,-0.1016427618172019,0.0156369575718417,-9.80693839788437,14932.0
8.8,1.7000000476837158,54.0,23.587383270263672,-0.0159035474061965,-79.78279832250459,40.45898364737008,267.3143982237577,0.0003333829517941,-0.0041511012241244,0.9592955112457277,0.2823736071586609,0.005674831403047,-0.023338640416613,-0.0297586631567037,0.0056801596656441,0.0039078672416508,0.0025276839733123,-0.0997226823773235,0.0196791331842541,-9.808158127069474,14932.0
9.0,1.7999999523162842,58.0,23.589887619018555,0.0,-79.78279815018357,40.45898369084512,267.29786718845367,0.0003633643791545,-0.00415641348809,0.9593154788017272,0.2823054790496826,0.0030861291767278,-0.0236183589294156,-0.0278291318414499,0.0063191023655235,0.001815716153942,-0.0003907026548404,-0.1033659545425325,0.0291360223526135,-9.806537278890607,14932.0
9.1,1.7999999523162842,58.0,23.5886344909668,0.0079517737030982,-79.78279813688731,40.45898371104372,267.2950917726755,0.0003617287729866,-0.0041577010415494,0.9593331813812256,0.2822456955909729,0.0023446565753205,-0.0260059680110148,-0.0280536483003917,-0.000449578044936,0.001487590256147,0.0056926114484667,-0.1019660032074898,0.016821632013889,-9.806670010685922,14932.0
9.3,1.7000000476837158,60.0,23.58613204956055,-0.0079517737030982,-79.78279800504427,40.458983770851546,267.2766175290942,0.0003340614784974,-0.004158217459917,0.9593576788902284,0.2821624279022217,0.0099520695370697,-0.0245729614050647,-0.0305346527277794,0.0058894245885312,-0.0007131338352337,0.0045592528767883,-0.1047229379788041,0.0386338328942656,-9.804859712719916,14932.0
9.4,2.0999999046325684,66.0,23.58487892150879,0.0079517737030982,-79.78279799819903,40.45898379448816,267.2735854259133,0.0003366533201187,-0.0041604433208704,0.9593676328659058,0.2821284532546997,0.0087410152370443,-0.0267521454221707,-0.0305928737839838,-0.0033814304042607,-0.005060183815658,-0.0003129902470391,-0.1027967829164117,0.0214708182751201,-9.80635543048382,14932.0
9.6,1.8999999761581416,64.0,23.5886344909668,-0.0159035474061965,-79.78279783596105,40.458983838424,267.2579145824909,0.0003240802907384,-0.0041645201854407,0.9593899846076964,0.2820523679256439,0.0085044297186273,-0.0243997688702656,-0.0284286984666683,0.0034696063958108,9.946764293999877e-06,0.0032583940774202,-0.1048838369082659,0.0334215883165597,-9.803920649886132,14932.0
9.7,2.400000095367432,68.0,23.58613204956055,0.0079517737030982,-79.78279768010906,40.45898386249459,267.2454926466942,0.0003004499885719,-0.0041809733957052,0.9594045877456664,0.2820025086402893,0.007446941820044,-0.0216961358584429,-0.027103702839668,-0.0004906231188215,-0.0026769174728542,-0.0088815381750464,-0.1035762624442577,0.0303512610588222,-9.804942158460618,14932.0
9.9,2.700000047683716,67.0,23.58112335205078,-0.0318070948123931,-79.78279766511187,40.45898390627129,267.24006373643874,0.0002777567715384,-0.0041752154938876,0.9594245553016664,0.2819344401359558,0.0074864709193867,-0.0264195253764987,-0.0276396470161319,0.0026568027678877,0.0007384524797089,0.0021111315581947,-0.1026067209988832,0.0292519022896885,-9.804902982115744,14932.0
10.0,2.700000047683716,70.0,23.576114654541016,-0.0159035474061965,-79.78279749816177,40.45898393089957,267.22777595579623,0.0002811513550113,-0.0041607897728681,0.95943421125412,0.2819019556045532,0.0042053361149105,-0.0240551253880917,-0.0262582781556,-0.0058924127370119,-0.0017484897980466,-0.0085658058524131,-0.1050988865364343,0.0343900105683133,-9.804108345508576,14932.0
10.2,2.700000047683716,69.0,23.5886344909668,0.0079517737030982,-79.78279731902501,40.458983979064094,267.2145190632343,0.0002699966134969,-0.0041602086275815,0.959455668926239,0.2818289995193481,0.0026189234053081,-0.023230704470601,-0.0216767061219005,-0.0002178456343244,-0.0008841367671266,0.0023724387865513,-0.1022860012203455,0.023005655282177,-9.806060730814934,14932.0
10.31,2.799999952316284,64.0,23.5886344909668,-0.0238553211092948,-79.78279730583205,40.45898399909334,267.2123542225361,0.0002541788271628,-0.0041682152077555,0.9594610929489136,0.2818104326725006,0.0020233550166903,-0.0256644101787449,-0.0219537748200019,-0.0029291885439306,0.0002650810638442,-0.0050049233250319,-0.1001359800249338,0.0387435367098078,-9.803120750784872,14932.0
10.5,2.799999952316284,65.0,23.583627700805664,0.0,-79.78279715191854,40.45898401994036,267.20019570946687,0.000240056484472,-0.0042044110596179,0.9594868421554564,0.281722217798233,0.0023151857627893,-0.0174774449988814,-0.0181545996598771,-0.0026128871832042,-0.0034551667049527,-0.0004182276315987,-0.1023916165530681,0.0202725935960188,-9.805974192023278,14932.0
10.6,2.5999999046325684,62.0,23.58487892150879,0.0238553211092948,-79.78279714251187,40.45898403552516,267.1983830875158,0.0002313085860805,-0.0042008184827864,0.959490954875946,0.2817081212997436,0.0022559067092701,-0.0198556697860579,-0.0183539130635703,-0.0018277580384165,-0.0005654887063428,-0.0035334965214133,-0.1029127953294664,0.037289763581939,-9.804907075166703,14932.0
10.8,2.700000047683716,64.0,23.58613204956055,-0.0159035474061965,-79.7827969619932,40.45898408541432,267.1858643090725,0.0002370776783209,-0.0042080208659172,0.9595229625701904,0.2815990149974823,0.0005807583757848,-0.0224162561067968,-0.0173428323735918,-0.007970692589879,-0.002869812073186,-0.007455036509782,-0.1017342159245163,0.0151971795747522,-9.807554694414142,14932.0
10.9,3.299999952316284,59.0,23.57361030578613,-0.0715659633278846,-79.7827969488027,40.45898410356273,267.18413099110126,0.0002238952438347,-0.0042118113487958,0.9595258235931396,0.2815891802310944,0.0013218046159866,-0.0246533898621723,-0.0176534097481553,0.0053293071687221,0.0002310909476364,0.0005598408170044,-0.1014326000958681,0.027487345081754,-9.805679492354392,14932.0
11.1,3.0999999046325684,55.0,23.583627700805664,-0.0159035474061965,-79.78279679662458,40.45898413771624,267.172198767066,0.000230405217735,-0.0042246165685355,0.9595473408699036,0.2815157175064087,0.0011206870097083,-0.019482134014558,-0.0161500519352794,-0.0029088847804814,-0.0023673565592616,-0.010692324489355,-0.100667692925781,0.0168274506786838,-9.805636222958563,14932.0
11.2,3.5999999046325684,65.0,23.5886344909668,-0.0079517737030982,-79.78279662866642,40.45898417582868,267.161621311903,0.0002359456702833,-0.0042190463282167,0.9595549702644348,0.2814897894859314,0.0017455123633722,-0.019196492079171,-0.0151624357688311,0.0079748732969164,0.0013015144504606,0.0038846048992127,-0.101344709135592,0.0199357711337506,-9.806851859092712,14932.0
11.4,3.2000000476837163,61.0,23.583627700805664,-0.0159035474061965,-79.78279660318984,40.45898420887378,267.15861418306827,0.0002218328154413,-0.0042215147987008,0.9595792293548584,0.2814070582389831,0.0003641931591069,-0.0238258538431364,-0.0154039209378907,0.0019255395745858,0.0005295129376463,0.0001642083516344,-0.1029878498241305,0.0226063041575253,-9.806380573511122,14932.0
11.5,2.799999952316284,57.0,23.58487892150879,-0.0159035474061965,-79.78279648673329,40.45898422827957,267.1478167718649,0.0002231960679637,-0.0042645074427127,0.9595896005630492,0.2813710272312164,0.0055561928903025,-0.013840377478096,-0.0144453142627498,0.0009656491456553,-4.733028617920354e-05,0.0055124913342297,-0.0993191879522055,0.0167542759724892,-9.807076976895331,14932.0
11.71,2.900000095367432,56.0,23.59113883972168,-0.0159035474061965,-79.78279648225835,40.45898424210163,267.14637647032737,0.0002145361650036,-0.0042632869444787,0.959598183631897,0.281341552734375,0.0042604824267364,-0.0158072609051753,-0.0145195764147874,-0.0077831810340285,-0.0001842566416598,-0.0098952976986765,-0.1031767879799008,0.0386992394831031,-9.804423510432244,14932.0
11.81,2.799999952316284,53.0,23.58112335205078,-0.0238553211092948,-79.78279630070105,40.45898430152997,267.13431424856185,0.0002397997450316,-0.0042604091577231,0.9596233367919922,0.2812558710575104,0.0004232306597623,-0.0204087894898819,-0.0143995995645608,-0.0051702540367841,-0.0042408625595271,-0.0007314459071494,-0.1019257853273302,0.0194711961457505,-9.806471205353738,14932.0
12.01,2.700000047683716,57.0,23.58613204956055,-0.0079517737030982,-79.78279628817113,40.45898431792288,267.13287825345986,0.0002272335696034,-0.0042739249765872,0.9596303701400756,0.2812315821647644,0.0002904829726976,-0.0226707753251744,-0.0145859362650025,0.0009827265748754,-0.0018983774352818,0.0010691192001104,-0.10294133705087,0.0355796425812877,-9.805226917862893,14932.0
12.11,2.799999952316284,54.0,23.58613204956055,-0.0159035474061965,-79.7827961760915,40.45898437954284,267.11852009058,0.0002348373673157,-0.0042823180556297,0.9596501588821412,0.2811639904975891,0.0059098867715082,-0.0192391358897807,-0.0176794611114172,-0.0044086435809731,-0.0041072941385209,-0.0116224735975265,-0.1038554578553885,0.0367901258566416,-9.804993029236794,14932.0
12.3,2.799999952316284,51.0,23.589887619018555,-0.0079517737030982,-79.78279604097692,40.45898445992098,267.1041536426544,0.0002404443075647,-0.0042894473299384,0.9596781134605408,0.2810684442520141,0.0090649066725725,-0.0219663747045116,-0.0199846891944812,-0.0009459809516556,-0.0041591227054595,0.0013133935863152,-0.1008224796876311,0.0222150409198366,-9.805567225813864,14932.0
12.4,2.200000047683716,51.0,23.583627700805664,-0.0238553211092948,-79.78279603572334,40.45898448156108,267.1021649634838,0.0002224148483946,-0.0042822458781301,0.9596835374832152,0.2810500562191009,0.0084969793761104,-0.0240261958248543,-0.0201765248038842,-0.0030118720605969,0.0017140853451564,-0.0058696023188531,-0.1040495671425014,0.0389778227638453,-9.8031388771534,14932.0
12.6,2.200000047683716,55.0,23.583627700805664,-0.0159035474061965,-79.78279587589851,40.458984525992896,267.0877569711208,0.0002590762160252,-0.0042805951088666,0.959706723690033,0.2809708714485168,0.0029535121870096,-0.0208336304707276,-0.0215377756803072,-0.0072316383011639,-0.0013883855426684,-0.0002071026392513,-0.1006301885191351,0.0192675074748694,-9.806652469038964,14932.0
12.7,1.7999999523162842,53.0,23.5886344909668,-0.0079517737030982,-79.78279576767754,40.4589846026966,267.0742804503441,0.0002508034522179,-0.0042632496915757,0.9597107768058776,0.2809573709964752,0.0104286362916975,-0.0225626737072207,-0.0247946742348874,0.0013888754183426,-0.0005333156441338,0.0019835580606013,-0.1032318705786019,0.0325961624644696,-9.806146684885023,14932.0
12.9,1.600000023841858,55.0,23.56609916687012,0.2942156493663788,-79.7827957564958,40.45898464951839,267.06933311581605,0.00026174573577,-0.0042519299313426,0.9597261548042296,0.2809052169322967,0.0089855921526947,-0.026631118122975,-0.0251496722018027,-0.0075072417967021,-0.0019129867432639,-0.0063726706430315,-0.1005847812350839,0.0152200191188603,-9.807662283182143,14932.0
13.0,1.600000023841858,52.0,23.517269134521484,1.2404767274856567,-79.7827956421815,40.458984701717526,267.05545450210565,0.0002762743388302,-0.0042548491619527,0.9597420692443848,0.2808505892753601,0.0128917385001939,-0.0234088821553713,-0.0283526127631163,0.0129699977114796,0.0064909174107015,0.0234626196324825,-0.0959080685209483,0.0243436581082642,-9.807827759385107,14932.0
13.21,1.5,55.0,23.569854736328125,0.3021674156188965,-79.78279563635944,40.4589847240844,267.052663872242,0.0002851544995792,-0.0042492486536502,0.9597410559654236,0.2808541953563689,0.0089051662612431,-0.0238222891096705,-0.0280510573609714,-0.0064982771873474,-0.0052916477434337,-0.0133773703128099,-0.1077142912801355,0.0130747465020976,-9.807086917161945,14932.0
13.3,1.399999976158142,55.0,23.57110595703125,0.3021674156188965,-79.78279560348528,40.45898471793357,267.0446769988537,0.0002413323090877,-0.0043218452483415,0.9597502946853638,0.2808214724063873,0.014882919217249,-0.0017636645357681,-0.0119976429034738,0.0035441305954009,0.0005089315818622,-0.0059009362012147,-0.10123067015782,0.0181747565162368,-9.80578064918518,14932.0
13.5,1.399999976158142,57.0,23.56860160827637,0.2862638533115387,-79.7827956162046,40.45898472572852,267.0434685444832,0.0002297538740094,-0.0043255747295916,0.959786057472229,0.2806992530822754,0.0137682960180103,-0.0032962646622169,-0.0121335274749354,-0.0068169985897839,-0.0046297996304929,-8.350732969120145e-05,-0.1127725256793201,0.0427464902959764,-9.805328659415244,14932.0
13.6,1.600000023841858,57.0,23.56735038757324,0.3021674156188965,-79.78279555781593,40.458984747262335,267.0386034345627,0.0002609119983389,-0.0043626516126096,0.9598175883293152,0.2805905640125275,0.0128994319718624,0.0055504186281084,0.0037577279211,0.0004103188693989,-0.0022006859071552,0.0018665973329916,-0.1078727416880428,0.0135355824697762,-9.805919228196144,14932.0
13.8,1.5,58.0,23.56609916687012,0.3737333714962005,-79.78279543737598,40.458984809246495,267.031510720253,0.0003053308173548,-0.004317280370742,0.9598284363746644,0.2805543839931488,0.0073880736671769,-0.0004917974380151,0.0111517111380819,0.0030482860747724,-0.0025144682731479,0.0003039579314645,-0.103255423894152,0.0369392823893576,-9.800833320021631,14932.0
13.9,1.600000023841858,57.0,23.56234169006348,0.3816851377487183,-79.78279544398158,40.45898481382728,267.03261915802955,0.0003138883330393,-0.0043146423995494,0.9598271250724792,0.280558705329895,0.0074536200297046,-0.0033167545509184,0.0110849567267945,-0.0021918364800512,0.0020765978842973,-0.0008764910744503,-0.1009508808888495,0.0222931583505123,-9.803681498765943,14932.0
14.1,1.7999999523162842,54.0,22.63958168029785,11.752721786499023,-79.78279534316945,40.45898488461928,267.02367205381387,0.0001141930915764,-0.0044527500867843,0.9598338603973388,0.2805339395999908,0.0072281625179088,-0.0038434959252214,0.0125022176603236,-0.0035446947440505,0.0174528956413269,0.0287785194814205,-0.094433172326535,0.0289370708400383,-9.801971772909164,14932.0
14.31,1.8999999761581416,58.0,23.54606628417969,0.2942156493663788,-79.78279526154519,40.45898496800654,267.0116798377037,0.0001005713711492,-0.004436157643795,0.9598382711410522,0.2805190086364746,0.0184626738034771,-0.007838181842637,0.0098927202113605,0.0274283662438392,0.0177038852125406,0.0159843415021896,-0.1190269085392356,-0.1153400472085923,-9.804455085396768,14932.0
14.4,1.7999999523162842,55.0,23.56484603881836,0.2226496636867523,-79.78279527594823,40.45898499176258,267.013654807806,0.0001763113832566,-0.0044118142686784,0.9598565101623536,0.2804568111896515,0.0098835053631729,-0.0093043980906026,0.0091849997383597,-0.0068591302260756,-0.0140923885628581,-0.0164266526699066,-0.0917105077207088,0.1195411346107721,-9.809708808660508,14932.0
14.5,2.0,54.0,23.12287330627441,5.542386531829834,-79.78279513716295,40.45898504550976,266.99881110548966,9.3703500169795e-05,-0.0044516106136143,0.9598686099052428,0.2804148197174072,0.0055803445533263,-0.0105282969871246,0.0047408909701025,-0.0110438289120793,-0.0082326233386993,0.0097096366807818,-0.1206643664650619,0.0527026631589978,-9.810321596860886,14931.0
14.7,2.0999999046325684,54.0,23.56109046936035,0.3101191818714142,-79.78279503127085,40.458985117475656,266.9841617143154,0.000138866220368,-0.0044424971565604,0.9598976969718932,0.2803155183792114,0.0018716755854642,-0.0117595511418397,0.0016755203123142,0.0226622149348258,0.0371603965759277,-0.0014669492375105,-0.1234959537349641,0.0804056197497993,-9.801919147968292,14931.0
14.8,2.400000095367432,52.0,23.56484603881836,0.2385532110929489,-79.7827950229084,40.45898512654786,266.98435861825936,0.0002080291887978,-0.0043998868204653,0.9598997235298156,0.2803093492984772,-0.0007173136344149,-0.01600043531039,0.0014679297943797,0.0023974115028977,0.0149846812710165,0.0021876264363527,-0.1064167849905789,0.0148977347533218,-9.801532647013664,14931.0
15.0,2.5999999046325684,47.0,23.45466613769531,2.9819152355194087,-79.78279490951118,40.4589852196289,266.9717371559143,0.0002559795393608,-0.0043961252085864,0.9599244594573976,0.2802242934703827,-0.0005274842165596,-0.0164720151015137,0.0004031911049332,0.0044787186197936,0.0029482261743396,0.0062461365014314,-0.0958668730594217,0.0081748974148649,-9.814338634014131,14931.0
15.1,2.700000047683716,54.0,23.36451911926269,4.5643181800842285,-79.78279489841727,40.458985232679616,266.97178445219987,0.0002017351071117,-0.0044413818977773,0.9599406123161316,0.2801684439182281,-0.000408224675765,-0.0170533756075083,0.0007163423544587,-0.0106058940291404,-0.0131682232022285,-0.0027070399373769,-0.1325668033305555,0.0354002952296286,-9.81079989910126,14931.0
15.3,2.700000047683716,58.0,23.27061462402344,6.425033092498777,-79.78279481019301,40.45898530681407,266.9563390111923,9.358706302009524e-05,-0.0045059854164719,0.959949553012848,0.2801368236541748,-0.0011598093800666,-0.0140112016371417,-0.00508680023703,-0.0117401089519262,-0.0458711832761764,-0.0006213613087311,-0.0805405899323523,0.0314044268243014,-9.80288276910782,14931.0
15.4,2.700000047683716,58.0,23.208011627197266,7.307680130004883,-79.782794802449,40.458985318585945,266.9558600580692,-0.00010899254994,-0.004573356360197,0.9599650502204896,0.2800825536251068,0.0044010913044599,-0.0136541848891783,-0.0039591830360845,0.0044144322164356,0.0289039704948663,-0.0290138144046068,-0.1235890340991318,0.0138080079015344,-9.78118609070778,14931.0
15.61,2.799999952316284,63.0,23.069034576416016,9.71706771850586,-79.7827947172282,40.45898541662083,266.9412956929207,-0.0004581094253808,-0.0045871217735111,0.9599830508232116,0.2800203263759613,0.0040630820583149,-0.0154776690466177,-0.0072105009803996,0.0236917529255151,-0.0693061798810958,0.1260410249233245,-0.1251992293819785,0.0143272657762281,-9.796932057738305,14931.0
15.7,2.700000047683716,65.0,23.00142288208008,11.045014381408691,-79.78279461984816,40.458985469352434,266.92634675860404,-0.0005922460695728,-0.0046279900707304,0.9599975943565368,0.2799693048000336,0.0107643453445841,-0.0109491814458291,-0.0089965080533403,0.0625848174095153,-0.0396765395998954,0.0186031740158796,-0.0728361706808209,0.0864874092489481,-9.822341133356096,14931.0
15.91,2.799999952316284,57.0,22.831144332885746,14.058735847473145,-79.78279461408442,40.458985503325856,266.9247933423519,-0.0017813090234994,-0.0045030927285552,0.960053324699402,0.2797754108905792,0.0111778864957082,-0.0254754544322594,-0.0031302765125833,0.0527235530316829,0.02595841512084,-0.0018113882979378,-0.2239901853539049,0.1604289412312209,-9.771889017820357,14931.0
16.0,2.799999952316284,57.0,22.72972869873047,16.062583923339847,-79.78279450323032,40.45898556249279,266.9123036062717,-0.0026502520777285,-0.0036003065761178,0.9600428342819214,0.279817670583725,0.0002460579058964,-0.019345029805933,-7.791656409812858e-06,0.0021802347619086,0.0126265464350581,-0.0211509503424167,-0.0602607832476496,-0.1322318949177861,-9.885960009098053,14931.0
16.2,2.700000047683716,62.0,22.55694580078125,19.08425712585449,-79.78279443426428,40.45898566550244,266.8999443149566,-0.0049665141850709,-0.0012392394710332,0.9601338505744934,0.279494047164917,0.0048000715116541,-0.0213468070772602,-0.0092192999371568,0.0041527128778398,0.0436378307640552,-0.0607613548636436,-0.0435814315779134,-0.0256416234956122,-9.85081239581108,14931.0
16.3,2.400000095367432,61.0,22.45803451538086,20.8256950378418,-79.78279442523565,40.45898568509879,266.8993952071666,-0.0048268921673297,0.0002652128168847,0.9602333307266236,0.2791571617126465,0.0157502957358068,-0.0249500990749976,-0.0014910387798562,0.067005954682827,0.0520933307707309,-0.0092297587543725,-0.1508358987327665,-0.1154108259268105,-9.80489011824131,14931.0
16.5,2.400000095367432,64.0,22.2526969909668,24.3801383972168,-79.78279442223995,40.458985704363954,266.89976576924323,-0.0038351111579686,0.0009014187380671,0.9606364965438844,0.2777805328369141,0.0108585292052129,-0.0169461968792131,0.0163104708264007,-0.0459234379231929,0.0565799288451671,0.0020375670865178,0.0020133745064958,-0.2340100289136172,-9.962239276170733,14931.0
16.61,2.0999999046325684,54.0,22.12248420715332,26.050010681152344,-79.78279449662966,40.45898574251103,266.8897968029976,0.0010140597587451,-0.0094035184010863,0.9615820050239564,0.2743552327156067,0.0273982742159592,0.0771850966817068,0.1074828136239387,-0.1472544372081756,-0.1331915557384491,-0.0249444637447595,0.1906949151679873,-0.0898282615933567,-10.437980436086654,14931.0
16.8,2.200000047683716,49.0,22.336584091186523,21.01653861999512,-79.7827946647881,40.45898605982016,266.8939970231056,-0.0058177853934466,-0.012491307221353,0.9617197513580322,0.2736881971359253,0.0886967069608393,0.1336667611893632,0.2805961319445395,0.1019385606050491,0.0693121328949928,0.1152345091104507,0.1625863262638449,0.4485031483322382,-10.755167326927186,14931.0
16.9,2.0999999046325684,37.0,22.316551208496094,21.47774124145508,-79.78279484026119,40.458985975738585,266.92366055607795,-0.0012585542863234,-0.0062920791096985,0.962011218070984,0.27293461561203,0.0701228170251039,0.1765076777770207,0.3095647161309069,-0.1388565301895141,0.0739934146404266,0.0809466317296028,0.3051254736632109,-0.1013787965755909,-10.225492619276046,14931.0
17.11,2.200000047683716,41.0,22.30778694152832,22.535327911376957,-79.78279535231611,40.45898577690393,266.9565047121048,0.0153615605086088,0.0088155530393123,0.9626118540763856,0.2703050971031189,0.0934013049548715,0.2217935057394416,0.2329163114535677,-0.0322934053838253,0.1669081449508667,-0.1161645203828811,0.2169141773320734,0.0616970969550311,-9.772752651572226,14931.0
17.2,2.5,33.0,22.299022674560547,23.17942047119141,-79.78279574270202,40.45898562117179,266.95091784954064,0.0195166580379009,0.0172723624855279,0.9626260995864868,0.2695773243904114,0.0903646771077452,0.1894162495789284,0.1248921925833246,0.0379996635019779,0.1938817650079727,-0.0043945796787738,0.3099895896390081,0.1303699770011007,-9.433865574002269,14931.0
17.41,3.0,31.0,22.22264862060547,22.972675323486328,-79.78279614017525,40.45898541749629,266.9743457829952,0.0106271868571639,0.0221409536898136,0.9625054597854614,0.2701486647129059,0.0907872531182224,0.1836539984344014,0.0991915740193633,0.1155323460698127,-0.0389864705502986,0.0007765776827,0.4348910495638848,0.2139984267018735,-9.535846277475358,14931.0
17.5,3.700000047683716,36.0,22.276485443115234,21.056297302246094,-79.78279635784625,40.45898532941794,266.9836478030681,0.0065113478340208,0.0167785696685314,0.96274334192276,0.2698173224925995,0.0829350268719708,0.1775345022033027,0.1009129004837112,-0.0250319149345159,-0.0122550642117857,0.0086555955931544,0.2584823440387845,0.1340843567904085,-9.722392337322235,14931.0
17.71,4.099999904632568,36.0,22.217639923095703,23.4179744720459,-79.78279655235089,40.458985234844405,266.9938988184929,0.0077979853376746,0.0130815468728542,0.9628442525863647,0.2696278989315033,0.0885679917629589,0.1706623126493486,0.0944674507225517,-0.0622708536684513,0.0237323679029941,0.0363755822181701,0.2139890711568296,0.1560017401725054,-9.74616243839264,14931.0
17.8,4.699999809265137,37.0,22.26772117614746,22.185449600219727,-79.78279711171706,40.45898502104036,267.02148054003715,0.0148970717564225,0.0111813517287373,0.96231609582901,0.2712947130203247,0.1070610658642474,0.2083760823018307,0.1356325792135549,-0.1104786098003387,0.114423431456089,-0.0307828597724437,0.2835233557038009,0.1557887553423643,-9.90760172367096,14932.0
18.0,4.800000190734863,32.0,22.28900718688965,22.614845275878903,-79.78279747104925,40.458984751833725,267.0473671352863,0.019276387989521,0.0172824058681726,0.9618126749992372,0.2724814713001251,0.1074767543698655,0.2482056919270933,0.1194593682054421,0.0303843859583139,-0.0467152148485183,0.1237835511565208,0.3999930758401752,0.2331860465928912,-9.883431673049929,14932.0
18.1,5.0,32.0,22.17632293701172,24.38809013366699,-79.78279771185743,40.45898461168076,267.058564761877,0.018448082730174,0.016294065862894,0.9615899920463562,0.2733840644359589,0.0928035528118553,0.2549543987942182,0.0832123499010128,0.0211101565510034,-0.0886896699666976,0.0208887569606304,0.4880018209666014,0.0984890477824956,-9.536827440261842,14932.0
18.3,5.099999904632568,32.0,22.206371307373047,22.12978744506836,-79.7827981295333,40.45898431021649,267.098520348072,0.0150161664932966,0.0227918568998575,0.961277425289154,0.2742277681827545,0.0775856760875455,0.2440822266928889,0.1738779384209533,0.0262775979936122,0.0817150920629501,-0.0487798452377319,0.3843450131267309,0.2108698191493749,-9.900972150564192,14932.0
18.4,5.400000095367432,35.0,22.20261573791504,22.90906143188477,-79.78279833921295,40.45898416338827,267.11660165548324,0.0165874436497688,0.0246224198490381,0.9615129828453064,0.2731510996818542,0.0711285681580861,0.2458420081233716,0.1568322764691568,-0.0426433943212032,-0.0016816077986732,-0.0705103799700737,0.5653968829661608,0.0673289340734481,-9.713588184714318,14932.0
18.6,5.400000095367432,37.0,22.09619140625,25.74784469604492,-79.78279872765194,40.45898389811374,267.1442212408781,0.016558825969696,0.0197656508535146,0.9623324275016784,0.2706499993801117,0.0679761846281972,0.2395241849388404,0.154133589714424,0.0370517075061798,-0.0360952019691467,-0.0099940886721014,0.5041149200499058,0.1899897775053978,-9.654085748791696,14932.0
18.7,5.5,34.0,22.052370071411133,25.54904937744141,-79.78279886254656,40.45898374400158,267.15996968209737,0.0146070420742034,0.0177687350660562,0.9626491665840148,0.2697731852531433,0.0577766587028843,0.238701154476452,0.2032569511786449,0.0509921684861183,-0.0267725046724081,-0.0683221518993377,0.4813803608715535,0.2351088303700089,-10.140995675325394,14932.0
18.9,5.199999809265137,34.0,22.283998489379886,22.86134910583496,-79.78279923682076,40.45898344196565,267.1963529533149,0.0141588952392339,0.0221744813024997,0.9630104303359984,0.2681770622730255,0.045073117150544,0.2205354273657296,0.057532153326866,-0.0235544200986623,0.1684889048337936,-0.0844728648662567,0.3881904710456729,0.1606353662163019,-9.633773106336594,14932.0
19.0,4.400000095367432,27.0,22.02231979370117,27.12350082397461,-79.78279955377127,40.45898328467997,267.1861799305677,0.0160799976438283,0.0294369664043188,0.9630554914474488,0.267206072807312,0.0649159621786024,0.2444342610825511,0.0053603871352632,-0.0114476848393678,0.1656532138586044,0.0400581508874893,0.526645849943161,-0.007051888257265,-9.1767541462183,14932.0
19.2,4.199999809265137,26.0,21.849536895751957,29.31818962097168,-79.78279975803815,40.45898288459749,267.215670312047,0.0176517385989427,0.0337519571185112,0.9628077745437622,0.2674891948699951,0.0466390119202713,0.2300757568773993,0.1525340823491784,0.0257826726883649,0.023207638412714,0.0271630175411701,0.5440476022660733,-0.095534157352522,-9.878952705860137,14932.0
19.3,3.799999952316284,23.0,21.79444694519043,29.49312973022461,-79.7827999189782,40.45898273789246,267.23820553183555,0.0205357521772384,0.0308888424187898,0.9623384475708008,0.2693117856979369,0.0223500538782031,0.2197251585236416,0.2669681463672904,-0.1923622041940689,-0.0120217632502317,-0.0716782733798027,0.5591940835118294,0.2836433698050677,-10.76063096523285,14932.0
19.5,3.299999952316284,27.0,21.606639862060547,33.5723876953125,-79.78280005840698,40.4589826028129,267.27298741996293,0.0222053918987512,0.0262075383216142,0.9619628787040708,0.2710121572017669,0.0359195446334979,0.2090657594169001,0.4026981234588263,0.0646595954895019,-0.1296734362840652,0.0071701887063682,0.549254365079105,0.2004442336410284,-11.060490217208862,14932.0
19.61,3.299999952316284,26.0,21.527759552001957,34.51865005493164,-79.78280019948718,40.45898244206453,267.3512630148232,0.0184856336563825,0.0213564280420541,0.9618048071861268,0.2722750604152679,-0.0014306959877841,0.2001972639495416,0.7256435976506157,0.0006196043104864,-0.0556681007146835,-0.0704977661371231,0.4178198841959238,0.3100585867837072,-11.717934772968292,14932.0
19.81,3.299999952316284,27.0,21.50271797180176,34.60612106323242,-79.7828002936477,40.45898219878832,267.52772756874555,0.0185205955058336,0.0297781657427549,0.961453914642334,0.2727207541465759,0.0147255358213385,0.2012344286018019,1.1673624773180302,0.0886586457490921,0.1175303980708122,0.072245642542839,0.4877453109249473,0.1261169590149075,-12.114751385450363,14932.0
19.9,3.0999999046325684,28.0,21.455141067504886,36.20442581176758,-79.78280034912936,40.45898208665984,267.65589390158647,0.0204407908022403,0.0290859583765268,0.9615116119384766,0.2724547684192657,0.0054991526544458,0.2121102722179491,1.3790463965848432,0.0184286516159772,0.0222491677850484,-0.0050860722549259,0.7095543569326401,0.0373576049879193,-12.048046349287036,14932.0
20.11,3.2000000476837163,27.0,21.28360939025879,38.35140609741211,-79.78280040155805,40.458982036095634,267.78318996191024,0.0228288602083921,0.0250324998050928,0.9617668986320496,0.2717659771442413,0.0076359740642106,0.2103365807673088,1.5991146746057563,0.0510225109755992,-0.0236547533422708,0.0081913853064179,0.5560538363456726,0.098297405289486,-12.216807518005371,14932.0
20.21,3.2000000476837163,27.0,21.34996795654297,37.29381942749024,-79.78280048783839,40.45898194581781,268.1053069925308,0.0186864882707595,0.0184874311089515,0.962397277355194,0.2703711092472076,0.0070424856534739,0.1951564325845173,2.086648214903613,-0.0135337244719266,-0.0214936975389719,-0.1979775726795196,0.595328414440155,0.4854388036206365,-12.437697783708575,14933.0
20.4,3.2000000476837163,28.0,21.33369255065918,37.17454147338867,-79.78280046583241,40.45898175302053,268.574147233963,0.0198930315673351,0.0180622860789299,0.962984561920166,0.2682140469551086,-0.0107987031528804,0.1938040593465428,2.5857054376725177,-0.0354909487068653,0.1129369810223579,0.0922182723879814,0.5349110719934106,0.2061556477099656,-12.349225902557372,14933.0
20.6,3.2000000476837163,28.0,21.53902816772461,33.58034133911133,-79.78280057091358,40.45898184202346,268.7299031114578,0.0230384282767772,0.0196857750415802,0.9628967046737672,0.2681636810302734,0.010948966434383,0.1917249103829942,2.6906983881995155,-0.0070883454754948,0.0771035179495811,0.0324978977441787,0.4177960202470422,0.0087996438564732,-11.841512167453766,14933.0
20.7,3.0999999046325684,29.0,21.461400985717773,24.761823654174805,-79.78280063767478,40.45898179533781,269.18202126979827,0.0242039337754249,0.0173552557826042,0.9628512859344482,0.2683849930763245,0.0340067364231929,0.205723451350974,2.8415254624293675,0.0948420017957687,0.0499196089804172,-0.0274304840713739,0.5495052837207913,0.1117718660831451,-11.42068688750267,14934.0
20.9,3.299999952316284,31.0,20.934288024902344,31.55263900756836,-79.78280058228252,40.458981704815606,269.46864939689635,0.0222103931009769,0.0168445333838462,0.9629065990447998,0.268391340970993,0.0090688633372341,0.1967374951864342,2.87912218550246,0.0094107668846845,-0.0540394708514213,-0.1439649164676666,0.5001765279471875,0.2018645588681102,-10.378598452806472,14934.0
21.01,3.299999952316284,28.0,21.30364227294922,35.782981872558594,-79.78280050995768,40.458981604837774,269.75882793426507,0.0223936587572097,0.0169871840626001,0.96271550655365,0.2690518200397491,-0.0231795302837076,0.1921336541431176,2.9193436754614592,-0.0041965353302657,0.0648426711559295,-0.0404823310673236,0.4678344087302685,0.3440266339480877,-10.294661672115328,14934.0
21.11,3.299999952316284,27.0,21.57909393310547,31.47312164306641,-79.78280054928004,40.45898158085247,270.2363216972351,0.0276182163506746,0.0196130480617284,0.9623326063156128,0.269756555557251,-0.0315639907689217,0.1873040353561154,2.9822820496460585,-0.1146294772624969,0.0340009592473506,-0.0587101951241493,0.4301913499832153,0.2286251452937722,-10.480882626771928,14935.0
21.31,3.5,26.0,21.61540412902832,30.908544540405277,-79.78280061779101,40.45898152698809,270.4903562164306,0.0282285008579492,0.0189338456839323,0.962258756160736,0.2700053751468658,-0.0323636498642898,0.2064483628920058,2.9909339058750244,-0.0593472607433795,-0.0245650503784418,-0.1542953103780746,0.5260695702955127,0.3981241229921579,-10.330070071220398,14935.0
21.4,3.5,24.0,21.739356994628903,27.990243911743164,-79.78280048690674,40.45898141656803,270.79205037117003,0.0240244753658771,0.0173375587910413,0.9625173807144164,0.2695972323417664,-0.0291851291109696,0.2016582835869573,3.0407786735916966,0.1640069484710693,-0.0786266475915908,0.0357346981763839,0.5565428828448058,0.260464001968503,-10.361068500280382,14935.0
21.6,3.5,25.0,21.756885528564453,28.07771301269531,-79.78280012505918,40.458981042268206,271.7054660415649,0.0128617892041802,0.0273998286575078,0.9629158973693848,0.2680984437465668,-0.1328728866758919,0.1937679753163724,3.0294911538000173,0.0358945280313491,0.1673195213079452,-0.0400315895676612,0.5150982933863998,0.1215038987249136,-9.865333371162414,14936.0
21.7,3.5999999046325684,24.0,21.71807098388672,28.98421669006348,-79.78279996512244,40.458980937230976,272.006775150299,0.0155429327860474,0.0298834536224603,0.96248060464859,0.2692520618438721,-0.1525598956499191,0.2023911963334432,2.9885061489615907,-0.115237683057785,0.0272051431238651,-0.0577195696532726,0.3155836208537221,0.082747731115669,-9.412855943441391,14937.0
21.9,3.5999999046325684,23.0,21.82073974609375,27.00422477722168,-79.78279996424824,40.45898084764827,272.24948049545293,0.0154905337840318,0.0308682397007942,0.962010383605957,0.2708198130130768,-0.1181800420543632,0.1922714362348175,2.8892326298606585,0.1446079313755035,0.0410945303738117,0.0179429873824119,0.4832039977982641,0.2305126082338393,-9.466298909783363,14937.0
22.01,3.5999999046325684,21.0,21.83325958251953,26.94061088562012,-79.78279964329009,40.45898058541246,272.94972873687743,0.0075023155659437,0.0306392218917608,0.9611667394638062,0.2741597294807434,-0.1413223264870221,0.173905746040107,2.8452184859936813,0.0925707519054412,-0.0551194287836551,0.0417624451220035,0.3408564928919077,0.0660295502794906,-9.341892964839936,14937.0
22.21,3.5999999046325684,24.0,21.74812126159668,26.12952995300293,-79.78279947069994,40.45898053191183,273.23280168533324,0.0038562342524528,0.0319425724446773,0.9605861902236938,0.2761140465736389,-0.1515544356370369,0.1415040410686854,2.8091547795511542,0.1161388382315635,-0.0150116235017776,0.0450457036495208,0.4477907381951809,0.0617936628079041,-9.424429337382318,14938.0
22.3,3.5999999046325684,23.0,21.815731048583984,27.823257446289062,-79.78279927628525,40.45898011080533,273.6538388824464,0.0034940843470394,0.0330001153051853,0.9598961472511292,0.2783852517604828,-0.1938536634682164,0.1654644857695205,2.859905727468228,-0.0505013056099414,-0.0050432854332029,0.0763431191444397,0.4486833156645298,0.0510252020554617,-9.343292788267137,14938.0
22.51,3.5999999046325684,23.0,21.799455642700195,27.11554908752441,-79.78279894501586,40.45898001251447,274.217013130188,0.0011396922636777,0.0361104272305965,0.95902019739151,0.2810248434543609,-0.1424168278574937,0.1401354851292888,2.770357937923885,0.077126145362854,0.0076573248952627,0.039651546627283,0.4650483201071621,0.1613618096709251,-9.448488290905953,14939.0
22.6,3.700000047683716,24.0,21.64795684814453,28.268556594848643,-79.78279841890328,40.45897964980679,274.88118053436284,0.0074729388579726,0.0316012725234031,0.9596675038337708,0.2792561054229736,-0.1765985423903062,0.1063752315297986,2.7843118615599693,-0.1970188021659851,0.0161929633468389,-0.0142501592636108,0.4124470604583621,-0.1587114495411515,-9.633005951642993,14939.0
22.71,3.700000047683716,20.0,21.76815414428711,27.55289649963379,-79.78279792991037,40.45897928236547,275.26202417373656,0.0163767002522945,0.0287341885268688,0.9606213569641112,0.2758857011795044,-0.1635147181582099,0.101002447861879,2.81358247840489,-0.2050454765558242,-0.0313218906521797,-0.0869851186871528,0.3372845384851098,0.2306348150409758,-9.513154987692834,14940.0
23.0,3.700000047683716,16.0,21.725584030151367,28.1572322845459,-79.78279752669026,40.45897929881528,275.81867385864257,0.0055744461715221,0.0275201592594385,0.9632668495178224,0.2670742571353912,-0.0997881600723548,0.0577592756767104,2.76662749155443,0.2192031741142273,-0.0914009436964988,-0.1704460382461548,0.4139510739594697,0.1336485656350851,-9.575573430061342,14940.0
23.11,3.5,13.0,21.637939453125,29.175058364868164,-79.7827970472393,40.45897916855135,276.47272373199456,-0.0143831130117177,0.0317668914794921,0.9642009735107422,0.2628698945045471,-0.2077120561352007,0.0234393462303833,2.7810767694594865,0.0814199745655059,0.0224193055182695,0.0310108996927738,0.3377887511998415,0.0614135983586311,-9.592427444458009,14941.0
23.3,3.5,8.0,21.626672744750977,30.407583236694336,-79.78279693900112,40.45897899833732,276.8511636352539,-0.0166511815041303,0.0339080765843391,0.963973581790924,0.2633023560047149,-0.2384255332011692,0.0297911557914749,2.838146840745259,-0.0458074286580085,-0.0443036034703254,-0.0567393824458122,0.3106993319839239,-0.1400118346139788,-9.666799934506416,14941.0
23.4,3.5,10.0,21.685518264770508,27.632413864135746,-79.78279676867021,40.45897906079853,277.13456130981444,-0.0153296729549765,0.0342226698994636,0.9635742902755736,0.2647989690303802,-0.2125653215959942,0.0137776580521931,2.8211307667657723,0.0040029310621321,0.0509028583765029,0.0869985073804855,0.3536385428532958,-0.1265723566152155,-9.699740223884582,14942.0
23.5,3.400000095367432,7.0,21.61289978027344,30.48710060119629,-79.78279658568042,40.45897884002361,277.804599533081,-0.008917436003685,0.0298728439956903,0.9631189107894896,0.2672640383243561,-0.122610392614171,0.0279464964609761,2.872167088671908,-0.0082442518323659,-0.0653222799301147,0.0003130069235339,0.4080198045819998,-0.1710015111230314,-9.649800909161568,14942.0
23.7,3.400000095367432,4.0,21.576589584350582,29.779394149780277,-79.78279650492367,40.45897897877761,278.45824600219726,-0.0080539267510175,0.0270390138030052,0.962996244430542,0.2680342495441437,-0.0609689850867195,0.006456783564293,2.9167594524670863,0.0275716837495565,-0.0576342530548572,0.1117031127214431,0.3589315155521036,0.2310013989172876,-9.624752606749537,14943.0
23.9,3.400000095367432,359.0,21.577842712402344,30.69384765625,-79.78279644970569,40.45897910712864,278.7491176223755,-0.0070088701322674,0.0248970612883567,0.9626764059066772,0.2694164216518402,-0.0270666691589748,-0.0147924186157732,2.9021033163884256,0.0986250340938568,0.0144283063709735,0.185306966304779,0.416701969653368,-0.3426119732111693,-9.683122437000277,14943.0
24.0,3.400000095367432,353.0,21.597875595092773,30.789268493652344,-79.78279640967078,40.458979251241615,279.0386340713501,-0.0064437766559422,0.0240707043558359,0.9623007774353028,0.2708441019058227,-0.0219173131011585,-0.0263719007278185,2.9037871711131875,-0.1069651618599891,0.0289695411920547,-0.140048936009407,0.2863283015973866,0.1253641117271036,-9.75582964003086,14944.0
24.11,3.400000095367432,351.0,21.58159828186035,30.821075439453125,-79.78279632549494,40.458979302157466,279.69147373199456,-0.0052996277809143,0.0254286061972379,0.9617719650268556,0.2726172506809234,0.012477590201603,-0.0135531764115038,2.9837095971701606,0.0523583218455314,0.0648668855428695,-0.0471026897430419,0.4467625418677926,-0.0565663205366581,-9.886232489347456,14944.0
24.2,3.299999952316284,350.0,21.66924095153809,27.751691818237305,-79.78279641998644,40.45897952508565,280.0096423721313,-0.0070695867761969,0.0252635013312101,0.9617658257484436,0.2726139724254608,0.0476088044263723,-0.0068377097876103,3.019251986964443,0.1242763921618461,-0.0306222196668386,0.0348612740635871,0.5062727984413505,-0.1673317803069949,-9.972324553728104,14945.0
24.31,3.299999952316284,350.0,21.76439666748047,26.495309829711918,-79.78279645336372,40.458979691425405,280.311456451416,-0.0094010727480053,0.0227566175162792,0.9618418216705322,0.2724963128566742,0.0403404099923889,-0.0026482326737597,3.0272473822118933,-0.0723978504538536,-0.066823624074459,-0.0959491580724716,0.3993598954752088,0.0222321417415514,-9.870692929029463,14945.0
24.5,3.299999952316284,350.0,21.540281295776367,31.20276069641113,-79.7827966357028,40.45897998067685,280.9157416915893,-0.005775733385235,0.0210888125002384,0.9620322585105896,0.2720586955547333,0.0694025130467494,-0.0091767240483599,3.0109753592223365,-0.0524454526603221,-0.0121559854596853,-0.0536988973617553,0.419091470874846,-0.0928453883249312,-9.757410727143288,14945.0
24.7,3.299999952316284,350.0,21.500215530395508,31.28227806091309,-79.78279673066089,40.45898014255412,281.21769596099847,-0.0025385427288711,0.0199845675379037,0.9621381163597108,0.2718170583248138,0.0915247567208088,0.0096060280341222,3.044484174071958,-0.1129370108246803,-0.0008932902128435,-0.0426070280373096,0.3794098900258541,0.0605697857541963,-10.006592745780944,14946.0
24.8,3.299999952316284,349.0,21.536523818969727,29.707826614379893,-79.78279688480069,40.45898040065472,281.5203979110717,-0.0005281039630062,0.0190899353474378,0.962319016456604,0.2712519466876984,0.1438958643045387,0.0128301634609688,3.077757363244835,0.0700659751892089,-0.0302709676325321,0.0624235719442367,0.5231624077633024,-0.315879453420639,-10.157289526462556,14946.0
25.0,3.400000095367432,351.0,21.522750854492188,30.39963150024414,-79.78279759026573,40.45898075773829,282.43824745178216,0.0019578065257519,0.0253112241625785,0.9631052613258362,0.2679252028465271,0.1851506717111793,0.071179836472747,3.1124463045118254,0.0872418656945228,0.0397819131612777,0.0022339581046253,0.3769026039540768,-0.0707331373449415,-9.999094276428226,14947.0
25.11,3.400000095367432,349.0,21.64294815063477,28.04590606689453,-79.78279775495834,40.45898089892083,282.75023723602294,0.0015572828706353,0.0240171570330858,0.9631910920143129,0.2677381634712219,0.1622887983013711,0.0931367978971202,3.1259096806399573,-0.0579347573220729,0.0123554803431034,-0.0255937650799751,0.4529834311455488,0.024133770475164,-9.913571730852128,14947.0
25.21,3.400000095367432,347.0,21.629175186157227,29.09554100036621,-79.78279816135338,40.45898109738726,283.048875579834,0.002980418736115,0.0230232644826173,0.9630537629127502,0.2683068811893463,0.1972611921062016,0.080825976486372,3.085621150075288,-0.0009141815826296,-0.0097201559692621,0.116882286965847,0.3259098036959768,-0.3319478943943977,-9.683961512446404,14948.0
25.4,3.400000095367432,340.0,21.619159698486328,27.886871337890625,-79.78279849589308,40.45898140123765,283.66065002441405,0.0052879927679896,0.0243691205978393,0.9622370004653932,0.2710685431957245,0.166472569414148,0.0732378825363258,3.034305863370664,-0.0816522091627121,0.0200451593846082,-0.0831025689840316,0.421603909805417,0.1018650930561125,-9.528524978756906,14948.0
25.6,3.400000095367432,339.0,21.55906105041504,29.26252746582031,-79.78279881264788,40.458981813229656,284.2679040527344,0.0012406110763549,0.020230047404766,0.961661159992218,0.273490697145462,0.1697406183931998,0.0369647856366981,2.9642720197339925,0.1239578202366828,0.0154724838212132,0.1146372258663177,0.2819220408797264,-0.1370139397401362,-9.431045461893085,14949.0
25.8,3.5,337.0,21.47642517089844,31.07553291320801,-79.78279898611153,40.45898186572301,284.57811904907226,0.0006449440843425,0.0155890397727489,0.961405336856842,0.2746934592723846,0.1275973295688152,0.0368294280417063,2.952881852114956,-0.0798625126481056,-0.1212517246603965,0.1232602521777153,0.3702686088904738,-0.3970084011554718,-9.424708834290504,14949.0
25.9,3.5999999046325684,337.0,21.401302337646484,32.85673141479492,-79.78279908828135,40.45898199224044,284.8719384765625,-0.0005159878055565,0.0114507749676704,0.961282193660736,0.2753273844718933,0.1175591284630302,0.0247007413463535,2.932699430836865,-0.0029159258119761,-0.1064183861017227,-0.0561077371239662,0.488179649412632,-0.1024384856410324,-9.614759130477903,14949.0
26.01,3.5999999046325684,338.0,21.560312271118164,30.272403717041016,-79.78279946636253,40.45898224001772,285.4815747833252,-0.0036294420715421,0.0135059626772999,0.9615398049354552,0.2743094861507416,0.1111306853993367,0.0362574252021966,3.012544830319541,0.0901848375797271,0.0594459697604179,0.018232038244605,0.4586417451873422,-0.3016889371164143,-10.026190273761747,14950.0
26.2,3.5999999046325684,338.0,21.54904556274414,29.397708892822266,-79.78279959125511,40.45898231273349,285.78375411987304,-0.0037359243724495,0.0179269053041934,0.9618178009986876,0.273077517747879,0.0811384078474973,0.0688371688019355,3.0332673513931625,-0.0715270191431045,0.0906386449933052,-0.0439142696559429,0.4145865201205015,-0.21989391842857,-10.005829099416731,14950.0
26.3,3.700000047683716,337.0,21.56532096862793,29.80324935913086,-79.78279973243983,40.458982406227314,286.0912015533446,-0.0019477799069136,0.0216358248144388,0.9620848894119264,0.271884024143219,0.0649289627964739,0.098826199826355,3.062602489901477,-0.0706769824028015,0.008212593384087,-0.1105940639972686,0.4408647477999329,-0.1369632608257234,-10.019543159008029,14951.0
26.5,3.5999999046325684,336.0,21.455141067504886,32.40348052978516,-79.78279997150247,40.45898251032203,286.7043817138672,0.0039387620054185,0.0258812010288238,0.9626298546791076,0.2695525586605072,0.0843459855462358,0.1435956447606334,3.0564489267618846,0.0335513986647129,0.0384946465492248,0.0782338753342628,0.4136096331104636,-0.2893805664405227,-9.783374118804932,14951.0
26.6,3.5999999046325684,334.0,21.461400985717773,29.914573669433597,-79.78279992368276,40.45898263855887,287.0047929382324,0.0048919757828116,0.0269797556102275,0.9627019166946412,0.2691713273525238,0.0691570544626358,0.1263209456603005,3.0263835144176605,0.0639532655477523,0.0034697777591645,0.0772977843880653,0.4794944510981441,-0.3805423129722476,-9.6736142796278,14952.0
26.81,3.5999999046325684,333.0,21.566574096679688,29.175058364868164,-79.78280026140142,40.45898275363118,287.61973739624017,0.0039589363150298,0.020602248609066,0.9624979496002196,0.2704765200614929,0.0629490966061927,0.1408152942154639,3.04907712170678,0.0063729868270456,-0.1227543652057647,-0.0760590657591819,0.5189175850152971,-0.1192469465732574,-9.825975762605667,14952.0
26.9,3.5999999046325684,337.0,21.490198135375977,30.240596771240234,-79.7828003772285,40.45898283609521,288.22794700622563,0.0012786806328222,0.018847556784749,0.9624764919281006,0.2707069516181946,0.0320898511450365,0.1034280272836024,3.0361067803051127,-0.0714784860610961,-0.0100281499326229,-0.0435717962682247,0.4030854854732752,-0.1922068955004215,-9.775510783195497,14953.0
27.1,3.5999999046325684,339.0,21.6091423034668,27.87891960144043,-79.78280058278523,40.4589828068271,288.5292070007324,0.0016073202714323,0.0193559471517801,0.96235990524292,0.2710836827754974,0.0239422505144603,0.1286281410535083,3.0314869870789285,-0.0644358992576599,-0.0733963772654533,-0.0113612217828631,0.4351538088172674,-0.1096731907501816,-9.724785017967225,14953.0
27.2,3.5999999046325684,342.0,21.39629364013672,32.2682991027832,-79.78280064532885,40.45898281973329,288.8316438293457,0.0011271700495854,0.0205101072788238,0.9622769355773926,0.2712956666946411,0.0394626712895578,0.1296905596789543,3.0092780358517803,0.1305122077465057,0.0644722506403923,0.0706862658262252,0.4476611127331853,-0.1241088150255382,-9.620286503434182,14953.0
27.4,3.5,342.0,21.53026390075684,27.3620548248291,-79.78280084398007,40.45898286214487,289.73758865356444,0.0042988215573132,0.0214792676270008,0.962029755115509,0.2720643281936645,0.0227175002434613,0.1378094389007298,3.0177517329813672,0.1202626302838325,0.0266715697944164,0.1194544360041618,0.4250085972994566,-0.1513262060377747,-9.84616035103798,14954.0
27.5,3.5,341.0,21.45764541625977,31.918420791625977,-79.7828009918608,40.45898289412487,290.03554512023925,0.0042420108802616,0.0213399473577737,0.961984157562256,0.2722372114658356,0.0229298426362995,0.1409492705742821,2.9991196907823268,-0.0502989403903484,0.0384363383054733,-0.1146983280777931,0.4042251078039408,-0.013856462133117,-9.63854384958744,14955.0
27.7,3.5,342.0,21.596622467041016,28.594579696655277,-79.7828010313895,40.458982900969744,290.3359906768799,0.0042030294425785,0.0208286605775356,0.9620214104652404,0.2721458971500397,0.0097627377910736,0.1414316128431462,3.0060530319720145,-0.0797817036509513,-0.0622590072453022,-0.0364485420286655,0.4358384081348777,-0.0430351554555818,-9.8271697640419,14955.0
27.8,3.400000095367432,342.0,21.4426212310791,31.4810733795166,-79.78280115739649,40.458982878672366,290.9353120422363,0.005662138108164,0.019504677504301,0.9624450206756592,0.2707160711288452,0.0028904282460924,0.1398264036527336,3.008768214351785,-0.085894726216793,0.0061545753851532,-0.0489709302783012,0.3503742250800133,-0.1098019574023783,-9.76017587542534,14955.0
28.0,3.400000095367432,342.0,21.41632652282715,31.194808959960927,-79.78280117375127,40.45898287258675,291.2366502380371,0.0051617105491459,0.0202252715826034,0.9625255465507508,0.2703866958618164,0.0045224909021901,0.1354857287478474,3.0140969650842284,-0.0155205707997083,-0.0361477248370647,-0.1344785243272781,0.3928763565793634,-0.0195024513406679,-9.813673220872882,14956.0
28.1,3.400000095367432,341.0,21.5452880859375,28.554821014404297,-79.78280133001999,40.458982862663376,291.5390832519531,0.0046670166775584,0.0205920208245515,0.962526559829712,0.2703641951084137,-0.0044327285425564,0.1466540297525319,3.0263630685666385,-0.0624928958714008,0.0256599802523851,-0.0498203635215759,0.3832115303725005,0.1030322064366191,-9.842550280094148,14956.0
28.3,3.5,343.0,21.334943771362305,34.20058059692383,-79.78280141859034,40.45898282585944,292.43708396911614,0.0032712365500628,0.0216223336756229,0.9625346660614014,0.2702755331993103,-0.0091559337264426,0.1473042951926464,2.9920478799109094,0.0412797555327415,-0.1006340757012367,0.0133389523252844,0.424567644149065,0.0394478384032845,-9.634203461408616,14957.0
28.5,3.5,342.0,21.56907844543457,27.71988296508789,-79.78280140863365,40.45898281660877,292.737840423584,0.0004017728206235,0.0198315158486366,0.9624949097633362,0.2705736756324768,-0.034877021437295,0.1283531993641054,3.016189259531977,-0.0199038106948137,-0.0290211644023656,0.0040749981999397,0.387057938463986,-0.1438472791761159,-9.980198414325717,14957.0
28.6,3.400000095367432,346.0,21.554052352905277,28.24470138549805,-79.78280144649342,40.45898282919076,293.03633476257323,0.0004690696368925,0.0189908146858215,0.9624770283699036,0.2706976532936096,-0.0571517983080118,0.1091904679548909,3.027376609898776,-0.1019482240080833,-0.0639281943440437,-0.0476737171411514,0.3337956876307726,-0.0377179236640222,-9.827278522253035,14958.0
28.7,3.400000095367432,346.0,21.477678298950195,30.733606338500977,-79.78280139089458,40.45898282800504,293.6364915466308,0.0030277273617684,0.0229773018509149,0.9624235033988952,0.2705623209476471,-0.047512395604911,0.1018316659319312,2.9757888750257484,-0.0204328205436468,0.1094151362776756,0.0550269931554794,0.3892016373574734,-0.1239054598286748,-9.606253185868264,14958.0
28.9,3.400000095367432,346.0,21.443872451782227,29.707826614379893,-79.78280144904879,40.45898277558918,293.9312188720703,0.0041796960867941,0.0240677017718553,0.9624032974243164,0.2705238163471222,-0.0384628343061671,0.1276118785163269,2.9771065622896145,0.0110040651634335,-0.052529938519001,0.0721770003437995,0.4391397460922599,-0.2949548633024097,-9.75372288823128,14958.0
29.0,3.400000095367432,348.0,21.49270248413086,29.898670196533203,-79.7828014180417,40.45898277354624,294.2292687988281,0.0038275064434856,0.0236965753138065,0.9623546004295348,0.2707353234291077,-0.0474600996303345,0.1257441807484035,2.9796058171374056,-0.0590639188885688,-0.0163786262273788,-0.0561583004891872,0.405824796371162,0.0134384204749949,-9.841686061620711,14959.0
29.2,3.400000095367432,348.0,21.50522232055664,29.874814987182607,-79.78280140170203,40.45898273661468,294.82623268127435,0.0026883538812398,0.0214848723262548,0.9624109268188475,0.2707332968711853,-0.0302107650583903,0.1130370359841467,2.985678037353172,0.1214720159769058,-0.012370808981359,0.0648520141839981,0.4487326880916953,-0.1345400284789502,-9.775075165629389,14959.0
29.3,3.400000095367432,349.0,21.42634391784668,32.23649215698242,-79.78280142829985,40.45898270272714,295.42153144836425,0.0027168116066604,0.0203504748642444,0.9623936414718628,0.2708817720413208,-0.0374953198035988,0.1064711985651762,3.0034198338048794,-0.0422786511480808,-0.0598894469439983,-0.0065452991984784,0.3483124237507582,-0.1862256324291229,-9.868923561573029,14960.0
29.51,3.400000095367432,349.0,21.272340774536133,33.53263092041016,-79.78280139589367,40.45898270946414,295.7231996154785,0.0035344252828508,0.0215177591890096,0.962253749370575,0.2712790668010712,-0.0441924249935962,0.0990677722852961,3.026477660750692,-0.0527296550571918,0.0446423515677452,-0.0769343674182891,0.3856403906643391,0.0599941684864461,-9.996747204065324,14960.0
29.6,3.299999952316284,350.0,21.41006660461425,30.98806381225586,-79.78280150878554,40.45898276126403,296.02634216308587,0.0048926877789199,0.0219905134290456,0.96212500333786,0.2716764509677887,-0.0279796862923814,0.1101068865739308,3.0699632415397726,-0.0926369801163673,-0.0445048473775386,-0.0198571626096963,0.3681942725926638,0.0522387048695236,-10.141097416877749,14961.0
29.8,3.299999952316284,349.0,21.493953704833984,28.95240974426269,-79.78280131686041,40.45898268481356,296.9493768310547,0.0060814353637397,0.0211614612489938,0.96176677942276,0.2729836106300354,-0.0561195346612869,0.0976929824867992,3.164371383677964,-0.0168394837528467,0.0652837380766868,0.035831943154335,0.4356726030260325,-0.0013846206665039,-10.238457065820697,14961.0
30.0,3.299999952316284,348.0,21.38001823425293,30.75746154785156,-79.7828012358454,40.45898269100599,297.26627708435063,0.0067233042791485,0.0219759531319141,0.9616161584854126,0.2734341919422149,-0.0501774765017535,0.0931137831061362,3.1616564990767784,0.0524164661765098,0.0140847573056817,0.0895389840006828,0.3413014294579625,-0.2553184339217841,-9.805771878361703,14962.0
30.1,3.2000000476837163,347.0,21.646705627441406,26.11362648010254,-79.78280126273928,40.45898269391729,297.5655229187012,0.0054611163213849,0.023219384253025,0.9614344239234924,0.2739979028701782,-0.0465288516413731,0.0922434709011606,3.1269100632640296,0.0879625454545021,-0.0190029423683881,0.0024518580175936,0.3867757737636566,-0.2165157444030046,-9.75326622068882,14962.0
30.2,3.2000000476837163,347.0,21.37626266479492,31.13914680480957,-79.78280109217691,40.45898270997204,298.18617225646966,-0.0014001771342009,0.0231716409325599,0.9613938331604004,0.2741953134536743,-0.0744976259909162,0.0743607364260519,3.0988217386422345,0.1127958819270134,-0.0253235884010791,0.0608762167394161,0.3418240974470973,-0.1354382338933646,-9.700148359537128,14963.0
30.3,3.2000000476837163,350.0,21.45889663696289,29.898670196533203,-79.78280099596594,40.45898274208516,298.4963166809082,-0.0038583686109632,0.0215373244136571,0.9616203308105468,0.2735097408294678,-0.0815191263016974,0.058940165178069,3.1005222395744085,0.1138209700584411,-0.0167871415615081,0.1370888352394104,0.4129623828828335,-0.3329817552119494,-9.826870386600495,14963.0
30.5,3.0999999046325684,349.0,21.477678298950195,29.49312973022461,-79.7828009056532,40.45898277974525,298.8065278625488,-0.0038776039145886,0.0197028219699859,0.9617438912391664,0.2732135951519012,-0.1119214686820211,0.0480112874772718,3.0984301212019885,-0.1581018418073654,-0.0658574849367141,-0.0654906034469604,0.2997710138373077,0.0263585172593593,-9.718054288029672,14963.0
30.71,3.0999999046325684,347.0,21.56532096862793,27.32229423522949,-79.78280093949327,40.45898271593715,299.42652679443364,0.0021791947074234,0.0175481867045164,0.9615101218223572,0.274200290441513,-0.0463604143362526,0.0526274269321085,3.0799625928493617,0.0053494344465434,0.0440150946378707,0.0845287665724754,0.3719944876804948,-0.1984713099896908,-9.720821775197985,14964.0
30.8,3.0999999046325684,343.0,21.468914031982425,29.175058364868164,-79.7828009022217,40.45898266736442,299.7403276062012,0.0024900150019675,0.0168893933296203,0.9614588618278505,0.2744185030460357,-0.0548283652805057,0.0671880245786577,3.0911736345783263,-0.1499882936477661,-0.0561641529202461,-0.1476374268531799,0.2744937381148338,0.185919384509325,-9.68738271832466,14964.0
30.91,3.0999999046325684,344.0,21.58535385131836,27.44157218933105,-79.78280080454961,40.45898270727733,300.357282409668,-0.0004946357221342,0.0163563583046197,0.9618179202079772,0.2732005715370178,-0.02917922399784,0.0638825576123345,3.082746763857497,0.1263377368450164,0.003300707321614,0.1313928514719009,0.4174151837825775,-0.3174706635251641,-9.81671026468277,14965.0
31.1,3.0999999046325684,344.0,21.48018264770508,29.78734588623047,-79.78280076945967,40.458982697591736,300.9780099487305,-0.0003306040016468,0.0199390985071659,0.9622068405151368,0.2715884745121002,-0.0556022805739502,0.0801209233380402,3.0704141778991483,0.0069052609615027,0.063462495803833,0.001784011372365,0.3916545443236828,-0.2078198931924998,-9.711488449573515,14965.0
31.3,3.0999999046325684,344.0,21.50397109985352,29.07963752746582,-79.78280081955822,40.458982620900656,301.29019332885736,0.0012202782090753,0.0200567469000816,0.9624451994895936,0.2707315385341644,-0.043032055748138,0.1131551490279875,3.0936650048533187,-0.0262925066053867,-0.0567443929612636,-0.0348220095038414,0.4942752255499363,-0.2413075185008347,-9.861257861852646,14966.0
31.41,3.0999999046325684,342.0,21.52901268005371,27.77554702758789,-79.78280079993262,40.45898262058329,301.5998056030273,0.0033135274425148,0.0196580421179533,0.9625121951103208,0.2705048024654388,-0.0497086829278854,0.111373103404412,3.093287558507439,-0.0738796219229698,0.057969968765974,-0.1043818145990371,0.3460763388499617,0.0417320623341947,-9.767512376904488,14966.0
31.6,3.0,344.0,21.49145126342773,29.81915283203125,-79.78280072608295,40.45898255362504,302.5317628479004,0.0026254055555909,0.022887410596013,0.9621917009353638,0.2713973224163055,-0.0469553786541148,0.1143963518074554,3.0634159568802737,0.0285268891602754,-0.0475594289600849,-0.0453732199966907,0.3479932388663292,-0.2722406049259007,-9.647653226852418,14967.0
31.7,3.0,343.0,21.451385498046875,29.69987487792969,-79.78280073146767,40.45898248587719,302.8434884643554,0.0023430783767253,0.0238335318863391,0.962031364440918,0.2718862593173981,-0.0610098386987088,0.1162092348362256,3.0655543119630337,0.0632616057991981,0.021813416853547,0.0821526870131492,0.4091205429285765,-0.0998088739905506,-9.697812396883965,14967.0
31.9,3.0,340.0,21.475173950195312,29.365901947021484,-79.78280067577985,40.45898248538645,303.15035415649413,0.0018218080513179,0.0241704955697059,0.9619606137275696,0.2721108496189117,-0.0642185046178164,0.1168468526402,3.061913288984096,0.051376599818468,0.0661423504352569,-0.0323017351329326,0.3873799373209477,-0.0223866133019328,-9.711629367470742,14968.0
32.0,3.0,335.0,21.557809829711918,27.44157218933105,-79.78280067400185,40.45898240880111,303.7729318237305,-0.0005001995014026,0.0235688239336013,0.9620048999786376,0.2720127999782562,-0.0681495644903471,0.1063936295881536,3.080672578506728,0.0229429081082344,-0.079343743622303,-0.0429201275110244,0.3795652432367206,-0.1691073969751596,-9.792115706205369,14968.0
32.2,3.0,336.0,21.4426212310791,29.827104568481445,-79.78280061120746,40.458982424984015,304.08057952880864,-0.0028040525503456,0.0205622762441635,0.9618775844573976,0.2726920545101166,-0.0879754504430345,0.0919238080511904,3.069823663308831,-0.0189298875629901,-0.0879254862666129,-0.0031926124356687,0.3588442093133927,-0.0295901271700859,-9.725277353525165,14969.0
32.3,3.0,336.0,21.51774406433105,28.45939826965332,-79.78280080867609,40.458982413942685,304.4013116455078,-0.0059331818483769,0.0169863663613796,0.9616320729255676,0.2737516760826111,-0.0643149345786133,0.0889087487765039,3.0742394220544296,0.0126439668238163,-0.059674110263586,-0.0256394892930984,0.2548121564090252,0.0292111727781593,-9.779680432677267,14969.0
32.5,3.0,335.0,21.522750854492188,28.332170486450195,-79.78280077580783,40.458982453872096,305.0191094970703,-0.008305337280035,0.0137374922633171,0.9611132740974426,0.2756876647472381,-0.0751929368819604,0.0534354064029456,3.1024291151899432,-0.0961341857910156,0.0004722041485365,-0.0728810578584671,0.2741977593675256,-0.0835210619308054,-9.93783767580986,14970.0
32.6,3.0,336.0,21.48393821716309,28.46735000610352,-79.78280104698558,40.4589823095526,305.3428781127929,-0.0061657358892261,0.0143820103257894,0.9609783291816713,0.2761807739734649,-0.0491948755985493,0.0865841888456287,3.1316107052899187,-0.1025745421648025,0.0007788738003,-0.0387158468365669,0.1917577745206654,0.013043315433897,-9.868715400695804,14970.0
32.8,3.0,334.0,21.46515655517578,29.26252746582031,-79.78280098066561,40.458982245644656,305.9813020324707,-0.0018688529962673,0.0198329426348209,0.9609934091567992,0.2758531272411346,-0.0353413571919117,0.0993871523056025,3.1191705099028253,-0.0903025642037391,0.0849373266100883,-0.0808746442198753,0.3385545537248254,0.0976595014706254,-9.748039979338646,14970.0
32.9,3.0,334.0,21.427595138549805,30.137222290039062,-79.78280104314923,40.458982263674585,306.60434509277337,-0.0011561281280592,0.0200890991836786,0.9608712196350098,0.2762637436389923,-0.0008710929562503,0.1214220759852585,3.1047713278674083,0.0954596921801567,0.0589944384992122,0.083637811243534,0.370820293687284,-0.2502051717415452,-9.777988833189012,14971.0
33.1,2.900000095367432,334.0,21.50522232055664,28.13337707519531,-79.78280095240176,40.458982169850046,306.92598510742187,-5.514465738087893e-05,0.018743434920907,0.9607887864112854,0.2766474187374115,-0.0395060598530106,0.1110917152792726,3.1352104282652222,-0.1591088026762008,-0.064306803047657,-0.0947439149022102,0.2583771672472358,-0.0514349228516221,-9.93351775288582,14971.0
33.21,3.0,333.0,21.48268699645996,29.1193962097168,-79.78280095750918,40.45898218380255,307.2403695678712,0.0019844037014991,0.018009103834629,0.9605523347854614,0.2775087356567383,-0.0319817379675963,0.0985973084825114,3.144155349493281,-0.0605575367808342,0.0189399421215057,0.0191478226333856,0.3210055612027645,-0.0085287944320589,-9.899315049648283,14972.0
33.4,3.0,334.0,21.471418380737305,29.04783058166504,-79.78280089034865,40.45898214322492,307.8690087890625,0.000747887592297,0.0186654739081859,0.9608085751533508,0.2765827476978302,-0.0137444332357171,0.0998026094129865,3.1304798140390373,0.0257702879607677,-0.0753331929445266,-0.0640257969498634,0.4116046959534288,-0.150311257308349,-9.846393070220948,14972.0
33.5,3.0,339.0,21.55280113220215,28.8887939453125,-79.7828009516663,40.45898212859388,308.5022256469726,-0.0017989946063607,0.0200094580650329,0.9616686105728148,0.2734772861003876,-0.019280711023903,0.0947450774365845,3.1474187353311582,0.0131854610517621,0.0032975557260215,0.0271982233971357,0.310865173637867,-0.2922740976512432,-9.83625282883644,14973.0
33.7,3.0,340.0,21.48644256591797,28.76156616210937,-79.78280095976544,40.458982155010005,308.81712509155267,-0.0017429940635338,0.0220409613102674,0.9618435502052308,0.272705465555191,-0.0269007638226965,0.0965743743974972,3.1495360280493694,-0.0334218963980674,-0.0184971988201141,-0.0729426518082618,0.4279421088472009,0.0020612988341599,-9.835980348587038,14973.0
33.8,2.900000095367432,346.0,21.294878005981445,30.94035148620605,-79.78280081514579,40.458982083788726,309.1373384094238,0.0001051479121088,0.0223038848489522,0.9618097543716432,0.2728087604045868,-0.0534993015510036,0.0950647844323229,3.147572034529041,-0.0606603324413299,0.0798863172531127,-0.0509859956800937,0.3644413103163242,0.0237215691804885,-9.783030887246133,14974.0
34.0,2.900000095367432,344.0,21.50522232055664,28.69795227050781,-79.7828007593595,40.458982141957065,309.7705819702148,0.003069418715313,0.020829452201724,0.9618772864341736,0.2726699411869049,-0.0188483098570582,0.0893578040261098,3.178255392388835,0.0331990420818328,-0.0685238316655159,-0.0262459889054298,0.3918081068247557,0.0128099407232366,-9.917903348207474,14974.0
34.1,2.900000095367432,348.0,21.433856964111328,29.35795021057129,-79.78280058455934,40.45898214441915,310.0966508483886,0.0006776129011996,0.0205185208469629,0.9619693160057068,0.2723851799964905,-0.034285204686843,0.0702850111208222,3.1760149005946987,0.0482167862355709,0.0714100301265716,-0.024775231257081,0.3871166664361954,0.1147746488638222,-9.798336558938027,14975.0
34.3,2.900000095367432,349.0,21.481433868408203,28.92060089111328,-79.78280043793194,40.45898214789749,310.7421281433105,0.00147036020644,0.0188471209257841,0.9621985554695128,0.2716921865940094,-0.0519995065689887,0.0586733006459187,3.202336455197648,0.0696745365858078,0.0377917699515819,-0.0415270552039146,0.4360586654394865,-0.0712781800702214,-9.921054997444154,14975.0
34.4,2.900000095367432,353.0,21.584102630615234,26.320371627807607,-79.7828003209747,40.45898221311226,311.38250900268554,0.0048354687169194,0.0201393272727727,0.9622325301170348,0.2714397609233856,-0.0503316403555472,0.0713456540895677,3.192732851128648,-0.1404140889644622,-0.0005749138654209,-0.1094136759638786,0.3901590458303689,0.2144048995524645,-9.67897149860859,14976.0
34.6,2.900000095367432,351.0,21.4426212310791,28.610483169555664,-79.78280049421542,40.45898220799893,311.7066590881348,0.0052045662887394,0.0209972653537988,0.9623137116432192,0.2710801661014557,0.0087150603533172,0.10064532855349,3.166688248470391,0.0430961288511753,0.0150485401973128,0.0599496737122535,0.4173805755749345,-0.2010329386219382,-9.632161028981209,14976.0
34.71,2.900000095367432,354.0,21.58660697937012,26.84518814086914,-79.78280047722777,40.45898223390204,312.0231568908692,0.0053950939327478,0.021414453163743,0.962441623210907,0.2705892026424408,-0.0039753339477549,0.1057616844963877,3.1638735739677726,-0.0233880598098039,-0.0730434879660606,-0.0034614608157426,0.4246769505366683,-0.0646452996321022,-9.75761713385582,14977.0
34.9,2.900000095367432,356.0,21.497711181640625,28.849035263061523,-79.78280077272453,40.45898216646511,312.6528680419922,0.0018539679003879,0.0203850604593753,0.9624781608581544,0.270586371421814,0.0278914215279446,0.1243288755709422,3.1092909946392453,0.0087421610951423,-0.0238519757986068,-0.0497835651040077,0.4996621191501618,-0.0399547006376087,-9.530858017802238,14977.0
35.0,2.900000095367432,357.0,21.521499633789062,28.22084617614746,-79.7828009393389,40.458982202466935,313.2765138244629,0.0051678968593478,0.0193905085325241,0.9618291258811952,0.2729142308235168,0.0172812089560101,0.1102958113751731,3.0734224551898777,-0.1523884981870651,-0.0143788298591971,-0.0632154494524002,0.3433584433794022,0.0562288950802758,-9.59411495089531,14978.0
35.2,2.900000095367432,358.0,21.48894691467285,28.14132881164551,-79.78280097913112,40.4589822328795,313.5832727050781,0.0077721709385514,0.0200557261705398,0.9614746570587158,0.274050772190094,0.039919399790916,0.1110827353559071,3.0563878964082782,-0.0294023100286722,0.103322334587574,-0.0098652513697743,0.3877236439660192,0.1602795265987515,-9.612435446977615,14978.0
35.3,2.900000095367432,0.0,21.427595138549805,29.98613929748535,-79.78280120128225,40.4589822247164,314.20834899902337,0.0079176696017384,0.023259462788701,0.9611071944236756,0.2750807404518127,0.0587159896384789,0.1371709394129033,3.0432860232026324,0.0653126537799835,0.011070636101067,0.01905557513237,0.4021868780627847,-0.0421143971476703,-9.658596875667572,14979.0
35.5,2.900000095367432,359.0,21.4138240814209,29.055782318115234,-79.78280124176383,40.45898224938795,314.5124604797363,0.0065274345688521,0.0237076207995414,0.9611198902130128,0.2750346958637237,0.0578580664924935,0.139745800649522,3.0282996643118025,0.1177999377250671,-0.0132329547777771,0.0754787176847457,0.4556340105459094,-0.2185807251557708,-9.616844247579577,14979.0
35.6,3.0,358.0,21.45889663696289,28.67409706115723,-79.78280132375534,40.458982225803545,314.8253915405273,0.004573296289891,0.0227285828441381,0.9611093997955322,0.2751934230327606,0.0191459584118078,0.1391104622623325,3.03188316050378,-0.0625082552433013,-0.0460602492094039,-0.0355068333446979,0.4365220938250423,0.2125180761516094,-9.671494663953784,14979.0
35.81,3.0,1.0,21.363740921020508,29.683971405029297,-79.78280146905146,40.45898217518661,315.4391648864746,0.00257218349725,0.0199905354529619,0.9613505005836488,0.2745888233184814,0.0339477798566394,0.1239833338543286,3.031359408806704,0.0244151372462511,-0.0642312914133071,-0.0637335181236267,0.4417224977910519,-0.1486487385816872,-9.7338674980402,14980.0
35.9,3.0,3.0,21.50522232055664,28.713855743408203,-79.78280151012234,40.45898219874853,315.7421586608886,0.0017071635229513,0.0200236029922962,0.9614354968070984,0.2742956280708313,0.0311377587945235,0.1140677554097769,3.0280844216588667,0.0957232043147087,0.1006742119789123,-0.0143773984163999,0.3693788819387555,-0.0139591127447783,-9.78997737944126,14980.0
36.1,3.0,3.0,21.461400985717773,29.55674362182617,-79.78280163321519,40.458982208775225,316.34889007568364,0.0028749140910804,0.0215504895895719,0.9615059494972228,0.2739230096340179,0.016483181592551,0.1180550494619357,3.014361045192545,-0.0587541908025741,-0.0450905412435531,0.0056081493385136,0.395486370921135,-0.05619231343735,-9.708387086391449,14981.0
36.2,3.0,358.0,21.41006660461425,29.739633560180664,-79.78280179306651,40.45898222627108,316.950372467041,0.005487740971148,0.0214761402457952,0.9615510106086732,0.2737303972244263,0.0311283304653262,0.1299774559033985,2.99318431920568,-0.1043105125427246,-0.014911170117557,-0.1335001140832901,0.4194829785078764,0.2380629533529281,-9.693350971341133,14981.0
36.4,3.0,358.0,21.566574096679688,27.10759735107422,-79.78280184293294,40.45898225474907,317.25040603637694,0.0045578214339911,0.020737862214446,0.9616703987121582,0.2733849883079529,0.048565231831635,0.1270632518522041,3.006767805844061,0.0266392230987548,-0.0271314550191164,0.0794445648789405,0.3963294663280249,-0.0603902808018028,-9.919738204479216,14982.0
36.5,3.0,358.0,21.51523971557617,27.163259506225582,-79.78280189086378,40.45898228390593,317.55167556762694,0.0036898772232234,0.0203475393354892,0.961816132068634,0.2729141116142273,0.0619959335990597,0.1187758241771718,3.004722875932055,0.1511265337467193,0.0390052050352096,0.1224683970212936,0.4978399074822665,-0.2556598016805947,-9.817095011472704,14982.0
36.7,3.0,359.0,21.272340774536133,32.125167846679695,-79.78280210429715,40.4589822838952,318.44745040893554,0.004677727818489,0.0203860364854335,0.961780607700348,0.2730215787887573,0.0259094729513287,0.1177243628157586,2.966631099940083,-0.1088512241840362,-0.0313857235014438,-0.0949514731764793,0.4066709250211716,0.0391061782836914,-9.579268285632132,14983.0
36.8,3.0,1.0,21.41006660461425,29.206865310668945,-79.78280214461714,40.458982312546965,318.7452104187012,0.0056589082814753,0.0208789817988872,0.9615864753723145,0.273648738861084,0.0415871959562226,0.1154347494084689,2.9835135125840324,0.0585530363023281,0.0110554555431008,-0.0161520633846521,0.5027508377283811,0.0372168058622628,-9.92714077949524,14983.0
37.0,3.0999999046325684,358.0,21.39629364013672,30.121318817138672,-79.78280218477354,40.45898234098711,319.0444619750976,0.0051232301630079,0.0213919132947921,0.9614537954330444,0.2740855813026428,0.043513063551987,0.1207896481892735,2.995824789408505,0.0531348101794719,0.0781157538294792,-0.0879878997802734,0.4394359441101551,0.1240701137669384,-9.920562661886215,14984.0
37.1,3.0999999046325684,359.0,21.48268699645996,27.24277687072754,-79.78280229943346,40.45898232158172,319.3436486816406,0.0041578114032745,0.0219554994255304,0.9613725543022156,0.2743421792984009,0.038687557689806,0.1268912566732976,3.007290916701592,-0.0306280050426721,-0.026050828397274,0.0169335026293993,0.418612583912909,-0.2026731191575528,-9.952524712085726,14984.0
37.31,3.0999999046325684,0.0,21.49145126342773,27.89482307434082,-79.78280240334009,40.45898235622624,319.93934417724614,0.0050168759189546,0.021730987355113,0.9611642360687256,0.2750746011734009,0.0364713713144178,0.127409921124415,2.989565899165904,-0.0243024099618196,0.054284531623125,-0.0261671338230371,0.4127535276487471,0.0437500004097819,-9.765802651047707,14984.0
37.4,3.0999999046325684,3.0,21.401302337646484,29.89071846008301,-79.78280244302874,40.458982387152965,320.2378709411621,0.0065838126465678,0.020818380638957,0.961178719997406,0.2750613689422607,0.0361037532226093,0.1231024809264751,2.9764938020626466,-0.0847657322883606,-0.1173846796154976,-0.0441570058465004,0.3153999817371368,-0.1200443240627646,-9.656259158849718,14985.0
37.6,3.0999999046325684,3.0,21.42634391784668,28.05385780334473,-79.78280264820293,40.45898241278286,320.8278367614746,0.0081856725737452,0.0193522721529006,0.9611259698867798,0.2753098309040069,0.0624418991291567,0.1193796837222024,2.96072139290534,-0.0426427498459816,0.0189850609749555,0.0207705628126859,0.4367707832157612,-0.0250632310844957,-9.790406565070152,14985.0
37.7,3.0999999046325684,4.0,21.48894691467285,28.11747169494629,-79.78280277907851,40.45898245686861,321.4210565185547,0.0056734555400907,0.0195685997605323,0.9610429406166076,0.2756474614143372,0.0765654480431625,0.1019187411703167,2.9560829206650974,0.1565008908510208,0.0727213025093078,0.071583516895771,0.425857539921999,-0.1501884657796472,-9.770900253653528,14986.0
37.9,3.0999999046325684,5.0,21.332439422607425,31.14709854125977,-79.7828028178791,40.45898249141288,321.7170236206054,0.0057813352905213,0.019509008154273,0.9610433578491212,0.2756476700305939,0.032706626898481,0.1071157443392825,2.9631975080654653,-0.1566904634237289,0.0240050852298736,-0.1849562376737594,0.3496774562448263,0.1819381980970502,-9.81360188484192,14986.0
38.0,3.0999999046325684,6.0,21.43635940551757,28.5468692779541,-79.7828028511111,40.45898252305177,322.01408935546874,0.007139372639358,0.0188645832240581,0.9610917568206788,0.2754918932914734,0.0479485922830763,0.1060203983769425,2.9811945396016224,0.0364832356572151,0.0032668581698089,-0.0323436632752418,0.4475806038826704,-0.0272771696560084,-9.968301669359208,14987.0
38.2,3.0,3.0,21.37375831604004,30.463245391845703,-79.78280298707371,40.458982505341616,322.90768218994134,0.0073734410107135,0.0183090902864933,0.9615476131439208,0.2739283740520477,0.0513067565390615,0.1079786922560628,2.9832085878584365,0.1260124146938324,-0.0001227583416039,0.0449139513075351,0.250253630541265,0.0236808579415082,-9.826900792121886,14987.0
38.3,3.0,2.0,21.461400985717773,29.43746757507324,-79.78280300186209,40.45898251982727,323.2069833374024,0.0052257948555052,0.0181590616703033,0.9618093371391296,0.2730672955513,0.0311708189846709,0.1118795294924594,2.995041964445058,0.0479673855006694,0.0270995236933231,0.0590579994022846,0.4569357103854418,-0.0628668964002281,-9.88410293340683,14988.0
38.5,3.0,2.0,21.47266960144043,28.70590400695801,-79.78280301481206,40.4589825299506,323.50746322631835,0.00370630226098,0.0175040662288665,0.9619923830032348,0.2724897861480713,0.0031609573030152,0.1168945092745506,3.0125827880812586,-0.1088872253894806,-0.0907154157757759,-0.0614521466195583,0.3017584276199341,0.07710313975811,-9.866826750040056,14988.0
38.6,3.0,0.0,21.40631103515625,28.864938735961918,-79.78280304341145,40.45898257999661,324.1016938781738,0.0061623770743608,0.0183910299092531,0.9619773626327516,0.2724396288394928,0.0050065619961934,0.0905681509201974,2.9983093108160177,-0.033107541501522,0.0433048941195011,0.083985723555088,0.3560374727100134,-0.1451361516863107,-9.852684674263,14989.0
38.8,3.0,3.0,21.361236572265625,30.009994506835927,-79.78280313600884,40.45898263534094,324.3949258422852,0.0073787160217761,0.019282853230834,0.9618035554885864,0.2729612290859222,0.0145314226594879,0.1008147427473654,2.9875967228452014,-0.0875189527869224,-0.0011907588923349,-0.1192371472716331,0.3761919114366174,0.2004489296860993,-9.736031552553175,14989.0
38.9,2.900000095367432,1.0,21.411319732666016,28.642290115356445,-79.78280314366282,40.45898265815133,324.6933038330078,0.0062429620884358,0.0182038769125938,0.961659014225006,0.2735720276832581,0.0360080694189294,0.1045083749211523,2.980303699910131,0.0975844115018844,-0.0359105318784713,0.0424863919615745,0.4239078589528799,-0.1279692016169429,-9.792334976792336,14989.0
39.1,2.900000095367432,0.0,21.401302337646484,30.18493461608887,-79.78280320278286,40.45898265606128,325.2914178466797,0.0051894700154662,0.0173147711902856,0.9612808823585508,0.2749769389629364,-0.0013393205976416,0.0910567841463017,2.970263631486488,-0.0986887514591217,0.0254993308335542,-0.0760227367281913,0.2739972364157438,0.1984178810566664,-9.630788687467575,14990.0
39.2,2.900000095367432,356.0,21.53276824951172,27.40181350708008,-79.78280320013228,40.45898266869668,325.89030242919915,0.0057084392756223,0.0176297631114721,0.9611987471580504,0.2752339839935303,0.0118081110152144,0.0971374552003655,2.936710725664609,0.017627852037549,-0.0353145487606525,-0.0345419161021709,0.4372360023111105,0.0194881667755544,-9.578565450310707,14990.0
39.4,2.799999952316284,0.0,21.3700008392334,28.77746963500977,-79.78280319783569,40.458982678395145,326.183583984375,0.0046954243443906,0.017570374533534,0.961392104625702,0.274580717086792,0.0117117620161478,0.0957127381701488,2.9300708815281737,0.0911052078008651,0.0728746354579925,0.0544325336813926,0.4046473498642445,-0.1986981088668108,-9.74216294288635,14991.0
39.5,2.799999952316284,359.0,21.430099487304688,29.151203155517567,-79.7828032086067,40.4589826202764,326.7836320495605,0.0057259025052189,0.0172076188027858,0.9617459774017334,0.2733420729637146,-0.0020164492431579,0.1060829549175974,2.956772876288076,0.0757713466882705,-0.0157059133052825,0.0682696104049682,0.3449262646213174,-0.238334172796458,-9.780942261815072,14991.0
39.7,2.799999952316284,358.0,21.31616401672364,30.8608341217041,-79.78280319092264,40.45898261440415,327.07914138793944,0.0067398101091384,0.0160427466034889,0.9618175625801086,0.2731378972530365,-0.0113759109523205,0.103614652514789,2.9494816029051,-0.0087588373571634,-0.0408313125371933,-0.0323536172509193,0.3754362319037318,-0.0905013217963278,-9.760551266670229,14992.0
39.8,2.799999952316284,354.0,21.25731658935547,31.13914680480957,-79.7828031979829,40.45898252586323,327.6789872741698,0.0080481627956032,0.017385508865118,0.9617348313331604,0.2733114361763,0.0016400993162553,0.1184417823411752,2.9922257771565857,0.0723009780049324,0.0135924527421593,0.0696558132767677,0.3242762743681669,-0.1259393589757383,-9.987250156402588,14992.0
40.0,2.799999952316284,355.0,21.35622978210449,29.84300804138184,-79.78280317250115,40.45898250610115,327.979913482666,0.0066598048433661,0.0182218067348003,0.9614635705947876,0.2742470800876617,-0.0087389782740833,0.1198136619197592,3.021883708591929,0.0854239463806152,0.0210310444235801,0.1481526494026184,0.3858094117417932,-0.2763115643709898,-10.097278382778168,14992.0
40.1,2.900000095367432,356.0,21.337448120117188,29.85095977783203,-79.7828031138761,40.458982431577546,328.5880868530273,0.006993047427386,0.020478218793869,0.9606688618659972,0.2768523097038269,-0.044791771094391,0.1221242147047761,3.0494018953087365,0.0205992776900529,0.0019269401673227,0.0485812239348888,0.3792183937132359,0.0461907287221402,-9.99389493227005,14993.0
40.3,2.900000095367432,356.0,21.29988670349121,30.176982879638672,-79.78280306282387,40.45898236191948,328.8929879760741,0.0061299698427319,0.0203945431858301,0.9604623913764954,0.277594119310379,-0.0313021474522827,0.1295357609971169,3.045098669696418,0.0632430016994476,0.0067229210399091,0.1084300503134727,0.3059286618232727,-0.0960964859090745,-9.90513887643814,14993.0
40.4,2.900000095367432,358.0,21.390033721923828,27.807353973388672,-79.78280301455409,40.458982344945376,329.19809127807616,0.0055228634737432,0.019643273204565,0.9604640603065492,0.2776555120944977,-0.0428694548673876,0.1205456696437131,3.05462787168698,-0.0129527887329459,-0.0280938874930143,-0.0152091467753052,0.3338897912576795,-0.0677294911863282,-9.907504659891131,14994.0
40.6,2.900000095367432,1.0,21.477678298950195,29.55674362182617,-79.78280296589479,40.45898228904804,329.8101327514648,0.0045115761458873,0.0184272956103086,0.9607431888580322,0.2767900228500366,-0.0203599243265343,0.1059490763026885,3.027227099976918,0.1283838897943496,-0.0077956318855285,0.1157056540250778,0.4617543277144433,-0.2770053730532527,-9.696306738853457,14994.0
40.8,3.0,0.0,21.41883087158203,27.9345817565918,-79.78280286602826,40.458982229954906,330.4220216369629,0.0045565976761281,0.0183241423219442,0.9609821438789368,0.2759652733802795,-0.0413821952257714,0.0978671226896154,2.99670163640294,0.0146414525806903,-0.0144662018865346,0.053938154131174,0.3306724704802036,-0.1865900966897607,-9.597000551819802,14995.0
40.9,3.0,1.0,21.324928283691406,29.326141357421875,-79.78280281542244,40.45898222302517,330.7209489440918,0.0048452145420014,0.0185373686254024,0.9610787630081176,0.2756094336509705,-0.0493274942942154,0.0955619718921965,2.9800467091882545,-0.04000224173069,-0.0498479716479778,-0.0603904873132705,0.4002598185092211,0.0739985423348844,-9.638913393616678,14995.0
41.0,3.0999999046325684,2.0,21.471418380737305,27.3063907623291,-79.78280268873033,40.45898215785294,331.33100296020507,0.0038210400380194,0.0173995103687047,0.961271584033966,0.275026798248291,-0.045816490711634,0.099980798374104,2.9797551571705987,-0.0129826767370104,-0.0792304724454879,-0.0212780088186264,0.2675708723254502,-0.0522364482097327,-9.672104528546331,14996.0
41.2,3.0999999046325684,6.0,21.35247230529785,30.256500244140625,-79.78280263820518,40.45898214936381,331.62769866943364,0.0017767790704965,0.0176598522812128,0.9612922072410583,0.2749586999416351,-0.0421752373570906,0.0877095791731492,2.950057077227556,0.0959367901086807,0.0121778780594468,-0.0339915342628955,0.3804566147178412,0.037810417022556,-9.58185567855835,14996.0
41.3,3.0999999046325684,8.0,21.475173950195312,27.59265518188477,-79.7828026212009,40.45898212618681,331.9401376342773,0.0007204201538115,0.0182700287550687,0.961338222026825,0.2747628390789032,-0.044021222640049,0.0849584676333388,2.959802316910526,0.0306754931807518,0.0407873541116714,0.0196171216666698,0.3338751366734505,-0.112881064619869,-9.626611436605453,14996.0
41.5,3.0999999046325684,9.0,21.34996795654297,29.00012016296387,-79.78280255490743,40.45898213468587,332.52930999755864,0.0023490337189286,0.0190770775079727,0.961340069770813,0.2746922671794891,-0.0247958906415162,0.0822742579215113,2.925566956463708,0.0775331780314445,0.0109434472396969,0.1171181201934814,0.3938696888834238,-0.2106565785035491,-9.655194380879404,14997.0
41.6,3.0999999046325684,9.0,21.314910888671875,29.98613929748535,-79.78280250834017,40.45898211151377,332.84209228515624,0.003458485007286,0.0193620957434177,0.9613410830497742,0.2746571898460388,-0.0342176922361981,0.0918089291869077,2.951972226049365,-0.0680531933903694,0.0056704524904489,-0.045971792191267,0.3060682458244264,0.0495669019035995,-9.737836003303528,14997.0
41.8,3.0,8.0,21.256065368652344,31.36179542541504,-79.78280246519715,40.45898208172976,333.4475457763672,0.0031766828615218,0.0186872016638517,0.96122407913208,0.2751164138317108,-0.0012848234139927,0.0893413182742847,2.9648283629546714,0.1563637107610702,0.0597812831401825,0.1073413267731666,0.3579286084324121,-0.1742281326279044,-9.790466206669809,14998.0
41.9,3.0,8.0,21.40005111694336,29.739633560180664,-79.78280242005475,40.45898210859583,334.04125762939447,0.0038355959113687,0.0162901468575,0.9611101150512696,0.2756580412387848,-0.0260152520344072,0.0872355457372875,2.975838453343448,-0.0722865462303161,-0.1123122349381446,-0.0914636477828025,0.3995625745877624,0.0648390389000997,-9.87978417992592,14999.0
42.1,3.0,6.0,21.473920822143555,28.523012161254893,-79.78280238199058,40.45898212078182,334.64816833496087,0.0066199307329952,0.0135536985471844,0.9611343145370485,0.275668740272522,0.013914744314566,0.0658825058936262,3.0011208176821897,0.0495582930743694,-0.0337327979505062,0.0715309605002403,0.3338316114619374,0.1615810619853437,-9.984990792274475,14999.0
42.3,3.0,6.0,21.288618087768555,31.03577423095703,-79.78280244723692,40.45898214259784,334.9487130737305,0.0057515916414558,0.0144426235929131,0.961136281490326,0.2756365239620209,0.0110439069985966,0.0588035338311966,2.9901597673114253,-0.0466717630624771,0.0068986741825938,-0.0911119431257248,0.2561878600716591,0.1142485639080405,-9.810665413141251,14999.0
42.41,2.900000095367432,7.0,21.288618087768555,29.683971405029297,-79.78280243230398,40.4589821647256,335.24792266845697,0.0046110274270176,0.0155006675049662,0.9611138701438904,0.2756785154342651,0.0006263294046575,0.0667099344141344,2.996751870184371,-0.0163938235491514,0.0018940813606604,-0.0128544364124536,0.2463531357049942,0.1673461242578924,-9.8493634557724,15000.0
42.5,2.900000095367432,6.0,21.282358169555664,31.26637458801269,-79.78280240164553,40.45898215818942,335.8568017578125,0.0021242932416498,0.016288423910737,0.9611899256706238,0.275398313999176,-0.000644881288532,0.0775081460386811,3.040374450729208,0.0114496992900967,0.0291867554187774,0.08393195271492,0.2636281679011881,-0.1263455211929977,-10.04308171033859,15000.0
42.71,2.900000095367432,5.0,21.45764541625977,26.55892562866211,-79.78280239349567,40.458982179335216,336.16211486816405,0.0016809098888188,0.0167316291481256,0.9612696170806884,0.2750961780548096,-0.0048813658728973,0.0747297693529232,3.062689911423946,-0.0025524769444018,-0.0173538532108068,0.0063669397495687,0.326719496883452,-0.1210228556022048,-10.027006545066833,15001.0
42.8,2.799999952316284,2.0,21.51398658752441,25.962541580200195,-79.78280240298325,40.458982251872655,336.4635598754884,0.0018497477285563,0.0166086740791797,0.961354672908783,0.2748055458068848,-0.0070606987639419,0.0716096416631661,3.0417119041117737,-0.1214114129543304,-0.059668306261301,-0.0704151764512062,0.2459442143328488,0.1219352039694786,-9.825565288066862,15001.0
43.0,2.799999952316284,0.0,21.789438247680664,21.58906555175781,-79.78280241788873,40.45898232980554,337.06303192138665,0.0009436679538339,0.0159268826246261,0.9613843560218812,0.27474644780159,0.0205512630048398,0.0587037001032542,2.924569654062278,0.0385309569537639,0.0097295613959431,-0.0234376974403858,0.3072903687134385,-0.0750472495984286,-9.09855114519596,15002.0
43.1,2.700000047683716,357.0,21.7744140625,20.507625579833984,-79.78280239060955,40.458982401157,337.6364114379884,0.0032991881016641,0.0163035858422517,0.9611831903457642,0.2754092812538147,0.0158426662076647,0.0444262113952945,2.653596029599809,-0.040950633585453,0.0079393116757273,0.0006115023861639,0.2323122898489237,-0.0090725146816112,-8.323612053394317,15002.0
43.3,2.700000047683716,357.0,21.8132266998291,21.461837768554688,-79.7828023466618,40.45898240595972,337.91361785888665,0.0056240772828459,0.0168146677315235,0.9609692692756652,0.2760865986347198,0.0224302064451263,0.0410165350040802,2.5129552726445503,-0.0420013293623924,0.0407641865313053,-0.0007748360512778,0.2152509916573763,0.0345439065434038,-8.227218364477158,15002.0
43.4,2.5999999046325684,353.0,21.670494079589844,23.839418411254893,-79.78280234939162,40.458982451835325,338.15671325683587,0.0073682074435055,0.0177818108350038,0.9607834815979004,0.2766309976577759,0.0253969506418645,0.0397896293636478,2.3475894536058344,-0.0535133071243763,-0.0096360696479678,-0.0007428903481923,0.250505060814321,0.0199658203404396,-8.167584366202355,15003.0
43.6,2.5,354.0,21.70805549621582,23.06014442443848,-79.78280226904816,40.45898253279023,338.82638336181634,0.0080327270552515,0.0177482217550277,0.9605475664138794,0.2774326205253601,0.0159251697905084,0.0255523034330506,1.990064871937831,0.0180534366518259,-0.0549106709659099,0.0092336181551218,0.3365468391403556,0.1762692128866911,-8.543287852406502,15003.0
43.8,2.400000095367432,354.0,21.656721115112305,23.86327362060547,-79.7828021991822,40.45898250833385,339.06316162109374,0.0048990133218467,0.0178005788475275,0.9605634808540344,0.2774474620819092,0.0020147890640737,0.0246080841921363,1.9314166774547767,0.0259737595915794,-0.0354877598583698,-0.0259630363434553,0.2737864260189236,0.0174251366173848,-8.760751065015793,15004.0
43.91,2.400000095367432,354.0,21.70304679870605,22.996530532836918,-79.7828021610485,40.458982547134426,339.25212646484374,0.0015692360466346,0.0180989503860473,0.9605726003646852,0.2774353623390198,-0.0073485194324227,0.010555266960475,1.8514296787628617,0.0490254200994968,-0.000503292074427,-0.0118033802136778,0.2595208460837602,-0.0156628086604177,-8.959732983112337,15004.0
44.01,2.299999952316284,357.0,21.61540412902832,24.69025802612305,-79.7828020338536,40.45898257285504,339.66330505371087,-0.0029377010650932,0.0191249195486307,0.9604281187057496,0.2778553664684296,-0.0279006657433402,0.0028997721036369,1.7570240749922557,0.0066821640357375,-0.0744068324565887,0.025941414758563,0.2661128142848611,0.0446770170656964,-9.000118532180787,15004.0
44.2,2.299999952316284,357.0,21.626672744750977,24.2052001953125,-79.78280200486817,40.4589826235064,339.8355538940429,-0.0053958795033395,0.0193385779857635,0.960318684577942,0.2781816720962524,-0.0134971215247708,-0.0007438427313206,1.6939132374833472,0.0179848242551088,-0.0704486072063446,-0.0247711334377527,0.2303740474954248,0.0487523756269365,-9.101279456019403,15004.0
44.3,2.200000047683716,359.0,21.696786880493164,24.42784881591797,-79.78280189742432,40.45898256829828,340.09197021484374,-0.0074376109987497,0.0192232076078653,0.96021169424057,0.2785117328166961,-0.0188384254476811,0.0083183624344316,1.739441505556961,0.014488173648715,-0.0440479889512062,0.0102183828130364,0.2628453170880675,-0.1059746167156845,-9.292997962832452,15005.0
44.5,2.200000047683716,0.0,21.622915267944336,23.96664619445801,-79.78280189777148,40.45898268684214,340.42879272460937,-0.006171160377562,0.019165251404047,0.9599831104278564,0.2793332934379577,0.0088544420685519,-0.00490113126555,1.6264454824994272,-0.0741817280650138,0.0079680448397994,-0.0579305291175842,0.3095682246610522,0.1201560881081968,-9.218023794293403,15005.0
44.6,2.0999999046325684,0.0,21.67424964904785,22.91701316833496,-79.78280182293706,40.45898261919052,340.88236785888665,-0.0036194457206875,0.0198419708758592,0.9601115584373474,0.2788890600204468,0.0299384522177864,0.017607975439054,1.626284704966261,-0.0541733317077159,-0.0142276603728532,-0.0546826384961605,0.2887217862345278,-0.0225296508148312,-9.239123471975327,15005.0
44.81,2.0999999046325684,0.0,22.6859073638916,3.3954074382781982,-79.7828020295315,40.45898245076112,341.142698059082,-0.0016504079103469,0.01844765804708,0.9604185223579408,0.277944803237915,0.0451356335363441,0.0517541077474504,1.6470744581671533,-0.0444443449378013,-0.0159970056265592,-0.0422503948211669,0.2880065986700356,-0.0412496898835524,-9.159342307448387,15006.0
44.91,2.0,359.0,21.93467712402344,20.698467254638672,-79.78280215336575,40.45898254089303,341.437131652832,0.0049306927248835,0.0180404931306839,0.964531183242798,0.2633055746555328,0.0407978025037624,0.0166403039680242,1.2011457758126485,-0.0271063204854726,0.0475055575370788,-0.5568029284477234,0.1451101498492062,-0.3193297491967678,-7.256933737993243,15006.0
45.11,1.8999999761581416,0.0,21.81072425842285,20.69051551818848,-79.78280216166776,40.45898255765362,341.5876748657226,0.0072279744781553,0.0177498385310173,0.9741634130477904,0.2250299006700516,0.0310696411443354,0.013550727447378,1.0060625969574992,0.0130297252908349,-0.0798355862498283,-0.8967669010162354,0.2201849087700248,-0.2583808400295675,-7.426884815096855,15006.0
45.21,1.7999999523162842,354.0,21.76189422607422,21.533403396606445,-79.78280216937551,40.45898258894065,341.6790292358398,0.004882997367531,0.0143585670739412,0.9845337867736816,0.1745376139879226,0.028117308658306,-0.003478322135436,0.8332971824129457,0.1420686393976211,-0.0700218975543975,-1.1265695095062256,0.2230321738868952,-0.099868561271578,-7.977222413420677,15006.0
45.4,1.7999999523162842,346.0,21.7844295501709,22.718217849731445,-79.78280217108481,40.45898263993944,341.81352020263665,-0.0025420954916626,0.0110952537506818,0.9988479018211364,0.0466203317046165,-0.0113633564434416,-0.0343338000877835,0.6243521360290464,0.0613179467618465,0.007795431651175,-1.400186538696289,0.1700474099814891,-0.0342599008837714,-8.767903963923455,15006.0
45.5,1.7000000476837158,349.0,21.74686813354492,22.90110969543457,-79.78280217233137,40.45898268189932,341.8712289428712,0.0046788891777396,-0.0100315473973751,-0.9996851086616516,0.0225201416760683,-0.0172337975737328,-0.0362970183076944,0.5455818285274877,0.0199014320969581,0.0071469913236796,-1.4388093948364258,0.0826567612309008,-0.078115475513041,-8.93382513999939,15006.0
45.6,1.7000000476837158,351.0,21.63919258117676,24.483510971069336,-79.78280218866941,40.45898273094493,341.9517877197265,0.0097157629206776,-0.0107200788334012,-0.9843135476112366,0.1758342087268829,-0.0010856863712327,-0.0407586331537466,0.4541496123831602,0.0291982796043157,0.0284110065549612,-1.5922584533691406,0.1702721623331308,0.1678667274489999,-9.377239968180657,15006.0
45.81,1.5,332.0,21.679258346557614,23.72809410095215,-79.78280233697677,40.4589827113624,342.02416778564447,0.0138834388926625,-0.0088522247970104,-0.9439510107040404,0.3296747207641601,0.0468402999586361,-0.0475064167719788,0.4445636865062358,0.0280767232179641,0.0144164469093084,-1.6646857261657717,0.154433937203139,0.2399862853065133,-9.638583610653876,15007.0
46.0,1.5,322.0,21.64795684814453,23.68833541870117,-79.78280252296787,40.45898258715778,342.1321084594726,0.0178950410336256,-0.0066151190549135,-0.8803077936172485,0.4740191698074341,0.1078488074824304,-0.0704044230646313,0.4824138479248744,0.0836970582604408,-0.0682749897241592,-1.5139725208282468,0.1781626326777041,0.0891200084611773,-9.731768347620962,15007.0
46.1,1.399999976158142,332.0,21.564069747924805,26.320371627807607,-79.78280270729563,40.4589825477175,342.18014312744134,0.0191178359091281,-0.0039795385673642,-0.8404961824417114,0.5414655208587646,0.1394255936385875,-0.0952226152994754,0.4933515591200221,0.1154492050409317,-0.0861277803778648,-1.5688068866729736,0.1640039106085896,0.0536151942517608,-9.8884392285347,15007.0
46.31,1.2999999523162842,339.0,21.649208068847656,23.72809410095215,-79.7828026569435,40.458982365788906,342.2071282958984,0.0202412120997905,-0.0012850726488977,-0.7952569723129272,0.6059331893920898,0.1646750471681763,-0.1089687156191325,0.5492116517586936,0.1164777502417564,0.0167815200984478,-1.55524480342865,0.1964595023542642,0.185540521480143,-10.096045789718628,15007.0
46.4,1.2999999523162842,329.0,21.630428314208984,24.451704025268555,-79.7828031383837,40.45898208267064,342.32281280517583,0.0208806227892637,0.0050790072418749,-0.6953609585762024,0.7183393239974976,0.2237183812952911,-0.1784430782809361,0.6136907245692312,0.1018841490149498,-0.0944743603467941,-1.3117482662200928,0.1189350889809429,0.0349699127487838,-10.052008069753647,15007.0
46.61,1.2999999523162842,319.0,21.679258346557614,23.46568489074707,-79.78280332307857,40.45898192808512,342.2499139404297,0.0207954477518796,0.0076217683963477,-0.6490381956100464,0.7604334354400635,0.257459506441512,-0.2124260064817237,0.5649441237928631,0.0864561721682548,-0.0337661243975162,-1.1126762628555298,0.1243421189300716,0.3285562169551849,-9.920679606199265,15007.0
46.7,1.2000000476837158,335.0,21.634183883666992,25.382062911987305,-79.7828035737199,40.45898164786296,342.3049600219726,0.0201859548687934,0.0098123215138912,-0.6099465489387512,0.7921246886253357,0.2926429323801094,-0.2473053961941492,0.5635769184074956,0.0579289533197879,-0.0518921799957752,-0.8828578591346741,0.2014702738076448,0.2182000714167953,-9.858355304002762,15007.0
46.9,1.2999999523162842,343.0,21.481433868408203,25.42977333068848,-79.78280417990617,40.45898138798899,342.2799737548828,0.0144497966393828,0.0096224565058946,-0.5644893646240234,0.8252577781677246,0.3133880816327896,-0.2719669570840396,0.4749927404676093,-0.079562522470951,-0.2658767998218536,-0.2958959639072418,0.7362259194999934,0.095411941409111,-9.740274292230607,15007.0
47.0,1.2999999523162842,343.0,21.610395431518555,25.39796638488769,-79.78280432058371,40.45898102539597,342.32739807128905,-0.0130570596083998,0.0179597083479166,-0.5536895990371704,0.8324270248413086,0.3443515344735412,-0.1963714475207964,0.4979917574899418,-0.0685954168438911,-0.8628078699111938,-0.2184827476739883,0.8411289882659913,0.4717507275938988,-9.965548800230025,15007.0
47.2,1.2000000476837158,337.0,21.470165252685547,27.807353973388672,-79.78280443267631,40.45898049467277,342.32800842285155,-0.0778627842664718,0.0587460622191429,-0.5486412644386292,0.830348789691925,0.4097704319624175,-0.0653469075411189,0.4938853741151243,0.0704112574458122,-0.4407508373260498,0.0832556933164596,-0.1253423856664449,0.1840761959552765,-10.209664206504822,15007.0
47.3,1.2999999523162842,349.0,21.475173950195312,28.18903923034668,-79.78280370100772,40.45898021809732,342.34574676513665,-0.093958593904972,0.0748339146375656,-0.5567387938499451,0.8219572305679321,0.432387833606056,0.2927508518428915,0.6417626263207625,-0.0005399225046858,-0.0156367477029562,0.1607557833194732,-0.1888107047416269,-0.0828056550957262,-10.5342431473732,15007.0
47.5,1.2999999523162842,355.0,21.52525520324707,26.20109558105469,-79.78280288849516,40.45898003482707,342.40272308349614,-0.0949572846293449,0.0721828266978263,-0.5620667338371277,0.8184460401535034,0.4403416338139386,0.5248621911152727,0.7463139083448777,-0.0824256762862205,0.0126253701746463,0.0599569305777549,-0.0553548870887607,0.0614289610041305,-10.513761520385742,15007.0
47.6,1.5,357.0,21.54153251647949,25.98639678955078,-79.78280051165267,40.458980154125705,342.4374520874024,-0.1005878299474716,0.0647099092602729,-0.5693346858024597,0.8133590817451477,0.4382160694669625,1.0099772540051086,0.8484587749373536,-0.0971510410308838,-0.1230558902025222,-0.0196816623210906,-0.0006880151422228,0.0244767005369067,-10.286272087097167,15007.0
