time,wind_speed,wind_angle,battery_voltage,battery_current,position_x,position_y,position_z,orientation_x,orientation_y,orientation_z,orientation_w,velocity_x,velocity_y,velocity_z,angular_x,angular_y,angular_z,linear_acceleration_x,linear_acceleration_y,linear_acceleration_z,node_ids
0.0,0.3000000119209289,153.0,24.37492370605469,-0.0397588685154914,-79.78278947434602,40.45903155685161,268.9535392076969,-0.007622895296663,0.0178331509232521,-0.9995039701461792,0.0248148348182439,-0.0024531389073512,-0.0246122587192313,0.0093942597275632,0.0056583653204143,-0.0009066866477951,0.0057318364270031,-0.3887952193245292,0.1268164413236081,-9.803717166781428,14933.0
0.11,0.3000000119209289,152.0,24.36741065979004,-0.0477106422185897,-79.78278948943002,40.45903149585397,268.96281558287143,-0.007612885441631,0.017852034419775,-0.9995025396347046,0.0248630382120609,0.0012485645637653,-0.0216549407915968,0.0062326482704561,-0.0056792460381984,0.0015847750473767,-0.0014695841819047,-0.3866686966270209,0.1273341848608106,-9.804814689159391,14933.0
0.3,0.3000000119209289,150.0,24.34863090515137,-0.1113248318433761,-79.78278949218206,40.4590315155486,268.9635323585272,-0.007582486141473,0.0178713612258434,-0.999501645565033,0.0248927790671587,0.0006077667140982,-0.0247762772969937,0.006520521121951,-0.0006205489626154,0.0025532741565257,-0.0075060534290969,-0.3866234537959099,0.1403186489827931,-9.802671684622766,14933.0
0.41,0.3000000119209289,150.0,24.35238647460937,-0.1113248318433761,-79.78278949923987,40.45903147290965,268.97609055054187,-0.0075642811134457,0.0178650524467229,-0.9994991421699524,0.0250057112425565,0.0020296002379605,-0.0219715036502151,0.0086716469373201,-0.0053235376253724,-0.0014014559565111,-0.0063675637356936,-0.3866651517525315,0.133464369205758,-9.801993992328644,14933.0
0.6,0.2000000029802322,149.0,24.359899520874023,-0.1113248318433761,-79.78278950370289,40.459031492618585,268.9770557285546,-0.007549007423222,0.0178814101964235,-0.9994978308677672,0.0250480826944112,0.0020776484056278,-0.0250815835007867,0.0089113625776674,0.0029552606865763,0.0008980162092484,0.0012522133765742,-0.386531469784677,0.1352974439039826,-9.802317928075787,14933.0
0.71,0.2000000029802322,148.0,24.351133346557607,-0.1431319266557693,-79.78278948730515,40.45903146495675,268.988024339199,-0.0075828917324543,0.0179060064256191,-0.999495267868042,0.0251241903752088,-0.0011233254235932,-0.025122810951346,0.0064103521869936,-0.0026235324330627,-0.0017427357379347,-0.0110188079997897,-0.3904182236641645,0.1446825722046196,-9.801531477570537,14933.0
0.9,0.2000000029802322,149.0,24.354890823364247,-0.1431319266557693,-79.78278947423588,40.45903141669321,268.9989682884216,-0.0075811734423041,0.0179058462381362,-0.9994940757751464,0.025171810761094,-0.0009182524885325,-0.0216182532405939,0.0045765418096438,0.0091125778853893,0.0025093690492212,0.0079282838851213,-0.3887045143917203,0.123392649879679,-9.805686509013176,14933.0
1.0,0.2000000029802322,149.0,24.34487342834473,-0.1192766055464744,-79.78278947196607,40.45903146020367,269.0001517386436,-0.007585144136101,0.0178969372063875,-0.9994919300079346,0.0252603963017463,-0.0029098082098823,-0.0279201145732091,0.0054530233618839,0.0064995754510164,-0.0010508217383176,0.0017482447437942,-0.3900048620626331,0.1361750013381242,-9.803868609666823,14934.0
1.21,0.2000000029802322,151.0,24.356142044067383,-0.1113248318433761,-79.78278950538152,40.45903138556425,269.0109380633831,-0.0075743738561868,0.017914243042469,-0.9994900226593018,0.0253274291753768,0.0071821766906058,-0.0185318344965759,0.0039281212012718,0.0021051142830401,0.0007698631961829,0.0003925331693608,-0.3869611670449376,0.1245546652190387,-9.804348081350328,14934.0
1.3,0.2000000029802322,152.0,24.36490631103516,-0.0954212844371795,-79.78278951243864,40.4590313642275,269.02386582654714,-0.0075727184303104,0.0179019197821617,-0.9994876980781556,0.0254265777766704,0.0071545754663916,-0.0211041512827037,0.0066387515575062,0.0072535839863121,0.0025478182360529,0.006108159199357,-0.386766345128417,0.122829572148621,-9.804069753885267,14934.0
1.5,0.2000000029802322,155.0,24.362401962280277,-0.1033730581402778,-79.78278952085553,40.459031384054725,269.0246476979256,-0.0075771822594106,0.0178918577730655,-0.9994865655899048,0.0254810098558664,0.0052429204694692,-0.0241659317560202,0.0071626638477659,-0.0042533320374786,-0.0003467397182248,-0.0064506120979785,-0.389239936619997,0.1311789849679917,-9.803507836461067,14934.0
1.6,0.2000000029802322,157.0,24.358646392822266,-0.1113248318433761,-79.78278951066879,40.459031359381015,269.03694946330785,-0.0075992392376065,0.0178929455578327,-0.9994841217994692,0.0255687218159437,0.0021356548549119,-0.0238967195050922,0.0053735464506194,-0.0008723129285499,0.0016737936530262,0.0045643993653357,-0.3862097632884979,0.1232679580058902,-9.804549810290338,14934.0
1.8,0.2000000029802322,156.0,24.36115074157715,-0.1192766055464744,-79.7827895141055,40.45903138076621,269.03760270041226,-0.0076054623350501,0.0178907793015241,-0.999483287334442,0.0255999714136123,0.0007704380664233,-0.0268140321946485,0.0058427682183441,-0.0049787838943302,-0.0007185722352005,-0.0105759892612695,-0.390258009955287,0.1427412600629031,-9.802076438069344,14934.0
1.91,0.2000000029802322,156.0,24.359899520874023,-0.1033730581402778,-79.7827895172024,40.45903133360928,269.04955743265145,-0.0076125683262944,0.0179108157753944,-0.9994792342185974,0.0257392730563879,0.0028014959318966,-0.0206170650700779,0.004546099899604,-0.0077090132981538,-0.0014666982460767,-0.0013386361533775,-0.390231258943677,0.1334012010041624,-9.803338267207144,14934.0
2.1,0.2000000029802322,155.0,24.358646392822266,-0.0954212844371795,-79.78278952254998,40.45903135239061,269.05010104191297,-0.007584448903799,0.0179203785955905,-0.9994781613349916,0.0257826540619134,0.0029793952522282,-0.0237478736972804,0.0046731614018829,0.0031163615640252,-0.0002245422801934,0.0042296503670513,-0.3899480344355107,0.1333665562514215,-9.802279336452484,14934.0
2.2,0.2000000029802322,154.0,24.351133346557607,-0.1351801604032516,-79.78278952441413,40.459031323821705,269.06238766771554,-0.0075745787471532,0.0179393552243709,-0.9994751811027528,0.0258899591863155,0.0032362013252869,-0.0244997736524363,0.0042397176527659,-0.0025581468362361,-0.0011147848563268,-0.01039610337466,-0.3894702438265085,0.1440073101595044,-9.802310326695444,14934.0
2.4,0.2000000029802322,147.0,24.351133346557607,-0.1192766055464744,-79.78278953956347,40.45903128527857,269.0754633547068,-0.0075786747038364,0.0179561059921979,-0.9994729161262512,0.0259625669568777,0.0087699638590513,-0.0229083799763729,0.0068834602629469,0.0068488088436424,0.0037580817006528,0.0065065422095358,-0.3861898827552796,0.1225618062168359,-9.804805333614349,14934.0
2.5,0.2000000029802322,142.0,24.356142044067383,-0.0954212844371795,-79.78278956053946,40.45903132952467,269.0771211759448,-0.0075736897997558,0.0179579518735408,-0.9994701743125916,0.0260677635669708,0.0071192095395745,-0.0288582865151713,0.0075181913738115,0.0038527022115886,0.0033991385716944,0.0031692164484411,-0.3895201278850437,0.1302284104283899,-9.80290615797043,14934.0
2.7,0.2000000029802322,132.0,24.358646392822266,-0.1192766055464744,-79.78278951513202,40.45903128355406,269.09044531372194,-0.0076197059825062,0.0179686583578586,-0.9994673728942872,0.0261540357023477,-0.0020483759938147,-0.0238228752355515,0.0096472395270018,-0.0027621535118669,-0.003098965389654,-0.0015017430996522,-0.3870088583976031,0.1247041712142527,-9.804693651795388,14934.0
2.8,0.2000000029802322,124.0,24.359899520874023,-0.1113248318433761,-79.78278950656316,40.45903125968074,269.1023848914802,-0.007643864955753,0.0179860331118106,-0.9994645714759828,0.0262433644384145,0.0005040560463864,-0.0239257521288939,0.0048623681028995,0.0025182459503412,0.0017437655478715,0.005493433214724,-0.387898877710104,0.1228190106153488,-9.804651551842689,14934.0
3.0,0.2000000029802322,107.0,24.362401962280277,-0.0954212844371795,-79.78278950754644,40.45903128228843,269.1029839442372,-0.0076389997266232,0.0179642401635646,-0.9994636178016664,0.0262944288551807,-0.0014614829189386,-0.0267506447573711,0.0053187645233847,-0.00637923553586,-0.0024523511528968,-0.0084959873929619,-0.3892745813727379,0.1387034652940929,-9.801968264579774,14934.0
3.1,0.3000000119209289,101.0,24.358646392822266,-0.1033730581402778,-79.78278951220551,40.45903120167116,269.1183586270809,-0.0076127294450998,0.0180119853466749,-0.9994604587554932,0.0263899285346269,0.0028174212246116,-0.0145396232039663,0.0094285400078929,-0.0024701913353055,-0.0004076833138242,0.0024444130249321,-0.3887452987208962,0.1259141611307859,-9.805394732952116,14934.0
3.3,0.3000000119209289,91.0,24.354890823364247,-0.1033730581402778,-79.78278951631398,40.45903121467901,269.11937888909875,-0.0076072625815868,0.0180097557604312,-0.9994599223136902,0.0264166593551635,0.0021531424621475,-0.0173691335469698,0.0098035042761067,0.0015366735169664,0.000555295671802,-0.0016652285121381,-0.3883507578447461,0.1412759386841207,-9.802977494001391,14934.0
3.41,0.3000000119209289,86.0,24.354890823364247,-0.0954212844371795,-79.7827895161824,40.45903118790754,269.1341584298089,-0.0076335808262228,0.0179880615323781,-0.9994578361511228,0.0265005137771368,0.0021895233858023,-0.0206796110306826,0.0114506773391604,-0.0101818041875958,-0.0014555131783708,-0.0072831544093787,-0.38917729832232,0.1383057175856083,-9.803812476396564,14934.0
3.6,0.3000000119209289,80.0,24.36115074157715,-0.0795177370309829,-79.78278952078314,40.45903120624335,269.1354053869173,-0.007640472613275,0.0179821532219648,-0.9994567632675172,0.026543453335762,0.0024458864370756,-0.0236238706825662,0.0117441849299074,0.0069990176707506,0.0005830670706927,0.0056389821693301,-0.3867955446615816,0.1271753050480038,-9.80448549091816,14934.0
3.7,0.3000000119209289,75.0,24.356142044067383,-0.1351801604032516,-79.78278950089603,40.45903117530649,269.14873412356525,-0.0076157799921929,0.0179706923663616,-0.9994550347328186,0.0266218800097704,-0.0009567086525402,-0.0248583161092356,0.0096858583259413,-0.0012444987660273,0.0042014606297016,-0.0075319185853004,-0.3897783190011978,0.1422459095343947,-9.80202264368534,14934.0
3.91,0.4000000059604645,61.0,24.36490631103516,-0.1033730581402778,-79.78278947807028,40.45903109574236,269.1611744399443,-0.0076422337442636,0.0179814305156469,-0.9994533658027648,0.0266712196171283,-0.0012268365917812,-0.0159723377530837,0.0068858038349492,0.0044255508109927,0.0009759711683727,0.004581409972161,-0.3858113851770759,0.1227227965090424,-9.805637392401696,14934.0
4.01,0.4000000059604645,57.0,24.362401962280277,-0.0795177370309829,-79.78278947471198,40.459031128571134,269.1627919190824,-0.0076396255753934,0.0179904885590076,-0.9994507431983948,0.0267623737454414,-0.0029188064409487,-0.0218976203443369,0.0078721904218813,0.0062542455270886,0.0039207255467772,0.0066034444607794,-0.3894618019089103,0.127647440303117,-9.804524667263031,14934.0
4.2,0.4000000059604645,54.0,24.356142044067383,-0.1113248318433761,-79.78278947503944,40.45903104131282,269.1781467964201,-0.0076331379823386,0.017992939800024,-0.9994494318962096,0.0268118511885404,0.0012247485966014,-0.0151632476039968,0.0104574018039069,-0.0062940036877989,-0.0010992537718266,-0.0015861352439969,-0.3882598701864481,0.1275348539929837,-9.804094896912575,14934.0
4.31,0.4000000059604645,57.0,24.35238647460937,-0.1113248318433761,-79.78278944829074,40.459031011726935,269.19225934532284,-0.0076631647534668,0.0179964695125818,-0.9994473457336426,0.0268781501799821,-0.0005499930094546,-0.0209979675221733,0.0088595878601755,0.000568997929804,0.0014002745738252,0.0058382889255881,-0.3872766243293881,0.1227528457157314,-9.804624654650686,14934.0
4.5,0.3000000119209289,62.0,24.36741065979004,-0.0477106422185897,-79.78278944800263,40.45903103168292,269.1932503768504,-0.0076542468741536,0.0179761759936809,-0.9994467496871948,0.0269161388278007,-0.0022408711858485,-0.0239194070589427,0.0094139216336764,-0.0059343557804822,-0.0003709869342856,-0.0103806359693408,-0.3899642604589462,0.1412773456703871,-9.802455337643623,14934.0
4.6,0.4000000059604645,59.0,24.356142044067383,-0.1033730581402778,-79.78278944366242,40.459030945572096,269.20658164110785,-0.007624149788171,0.0180130582302808,-0.9994439482688904,0.0270056929439306,0.0021496839850193,-0.0124790606118857,0.0066012818933788,-0.0058496594429016,0.0001366888463962,-0.0040044276975095,-0.3878376646712423,0.1294241715967655,-9.804655644893646,14934.0
4.8,0.3000000119209289,52.0,24.36115074157715,-0.1192766055464744,-79.78278944721029,40.45903095670413,269.2073118725121,-0.0076083466410636,0.0180091988295316,-0.9994431138038636,0.0270429011434316,0.0019535398974156,-0.0153318655426408,0.006967375321743,0.0008762151119299,0.0035175236407667,-4.559459193842486e-05,-0.3897137072682381,0.1360587879270315,-9.803203196525574,14934.0
4.9,0.3000000119209289,50.0,24.351133346557607,-0.0954212844371795,-79.7827894405323,40.45903089020656,269.2214086354971,-0.0076184021309018,0.0180193725973367,-0.9994401931762696,0.0271396692842245,0.0026923897519697,-0.014596318453195,0.0062335680180745,-0.0069402810186147,0.0009697651257738,-0.0103632258251309,-0.3888422163203359,0.1430493352375924,-9.80325640618801,14934.0
5.1,0.3000000119209289,43.0,24.36741065979004,-0.0715659633278846,-79.78278944500778,40.45903090338959,269.22210574907064,-0.0076226266101002,0.0180355496704578,-0.999438226222992,0.0272027533501386,0.0028607035739046,-0.0174186731951613,0.006506212719811,0.0042562102898955,0.0014283098280429,0.0032699706498533,-0.3865189713612199,0.1222781797125935,-9.805566056370736,14934.0
5.21,0.3000000119209289,42.0,24.366159439086918,-0.0636141896247863,-79.7827894585402,40.45903087114026,269.2364946679473,-0.0076099676080048,0.0180346295237541,-0.999435544013977,0.0273056216537952,0.0070278635548819,-0.02393800127644,0.0058808001496931,0.0062320129945874,0.0013105063699185,0.0042690490372478,-0.388614321090281,0.1318087757751345,-9.804135242700577,14934.0
5.4,0.2000000029802322,47.0,24.36991500854492,0.0079517737030982,-79.78278942992063,40.45903080244046,269.2513310314417,-0.0076381843537092,0.0180447567254304,-0.9994330406188964,0.02738075889647,0.003793799524749,-0.0205055414987998,0.0082667086787775,-0.0013569032307714,-0.0025789511855691,0.0004832107806578,-0.3871040218323469,0.1261414716392755,-9.804911752939224,14934.0
5.51,0.2000000029802322,54.0,24.36115074157715,-0.0477106422185897,-79.78278944044341,40.45903084240744,269.2532625274062,-0.0076505742035806,0.0180447660386562,-0.9994300603866576,0.0274857897311449,0.0028276501920431,-0.0261777682101913,0.0092840173560905,0.0061093373224139,0.0029089555609971,0.0055357618257403,-0.3871607398241759,0.123873016918078,-9.805503491163254,14934.0
5.7,0.2000000029802322,59.0,24.366159439086918,-0.0397588685154914,-79.78278942796882,40.45903074832575,269.2667518929839,-0.0076372832991182,0.0180654060095548,-0.9994279146194458,0.0275557748973369,0.0041014319907271,-0.0170337626898691,0.0067437199514727,-0.0072769043035805,0.0012105989735573,-0.0121415005996823,-0.3891324574872851,0.1402604783233255,-9.802795645594598,14934.0
5.82,0.2000000029802322,63.0,24.37116622924805,0.0715659633278846,-79.78278939383641,40.45903070188104,269.2819532008171,-0.0076557989232242,0.0180759150534868,-0.9994239211082458,0.0276875849813222,0.0001962694774923,-0.0216534151134441,0.0058925589272362,-0.004123490769416,-0.002024347661063,-0.0010863459901884,-0.3891000785306096,0.1290726077556609,-9.80576252281666,14934.0
6.0,0.2000000029802322,61.0,24.36741065979004,0.055662415921688,-79.78278939552067,40.459030722419,269.2826486976146,-0.0076431222259998,0.0180554557591676,-0.9994234442710876,0.0277212690562009,-9.78359216976625e-06,-0.024497059103414,0.0063195483390189,-0.0010312221711501,0.0030062925070524,-0.0047098668292164,-0.3885515731573105,0.1379947462119162,-9.803171036839483,14934.0
6.1,0.3000000119209289,64.0,24.356142044067383,0.0636141896247863,-79.78278937969583,40.45903064279153,269.29829117667674,-0.007648330181837,0.0180843248963356,-0.999419629573822,0.0278357118368148,0.0013831379086431,-0.0188628376853163,0.0062219770253705,-0.0036414610221982,0.0017124767182394,-0.0073011158965528,-0.3892126008868217,0.1441603793017566,-9.802934809327128,14934.0
6.3,0.3000000119209289,67.0,24.366159439086918,0.0079517737030982,-79.78278938296666,40.459030659840366,269.29900690925115,-0.0076737864874303,0.0180819630622863,-0.999417781829834,0.0278970692306756,0.0015708325513674,-0.0215182526705206,0.0065347658386266,0.0051181451417505,0.0019980608485639,0.0064964229241013,-0.3870306392759085,0.1232110207434743,-9.805000630617142,14934.0
6.4,0.3000000119209289,71.0,24.366159439086918,0.0079517737030982,-79.782789349508,40.459030606064616,269.31425131869315,-0.00769356591627,0.0180824641138315,-0.9994149804115297,0.0279918853193521,-0.0011144995085193,-0.0230020015713211,0.0066042913202168,0.0038687994237989,-0.0018318376969546,0.0019115523900836,-0.3882751825824381,0.1333615769818425,-9.803174545168876,14934.0
6.6,0.4000000059604645,74.0,24.36490631103516,0.0715659633278846,-79.78278934888134,40.4590306266937,269.31502644729613,-0.0077142147347331,0.0180909037590026,-0.9994133114814758,0.0280417148023843,-0.0023831600100324,-0.0256142216455201,0.0072066922465915,-0.0008074055076576,-0.003129071323201,0.0018078861758112,-0.3857700892165303,0.1250579825788736,-9.805823333859443,14934.0
6.71,0.4000000059604645,77.0,24.36365509033203,0.0477106422185897,-79.78278933684577,40.45903054421921,269.3304072619676,-0.0077031468972563,0.0181288830935955,-0.9994099140167236,0.028141401708126,0.0006482138134785,-0.020627482707087,0.0066214418551283,0.0058931126259267,0.0037078699097037,0.0022476655431091,-0.3863017472997308,0.1228931149374693,-9.805549099445344,14934.0
6.9,0.5,82.0,24.36115074157715,0.0397588685154914,-79.7827893084281,40.45903045743219,269.3452357352972,-0.0076893419027328,0.0181314758956432,-0.999408483505249,0.0281941015273332,-0.0017831368074918,-0.0175874875808648,0.0056443389251549,-0.0054363058879971,-0.0045208586379885,-0.0098802745342254,-0.3909508319199085,0.1370824526622891,-9.802937732934954,14934.0
7.01,0.5,79.0,24.36490631103516,0.0397588685154914,-79.78278930587071,40.45903049299082,269.3465882242918,-0.0076809278689324,0.0181343853473663,-0.9994045495986938,0.0283318366855382,-0.003534198721613,-0.0228440399290237,0.0066375695267193,-0.006527230143547,-0.0028204265981912,-0.0021212615538388,-0.3877181256562472,0.1300952766370028,-9.804879008531572,14934.0
7.2,0.6000000238418579,76.0,24.36115074157715,0.0318070948123931,-79.7827893376265,40.45903037306169,269.3641328663826,-0.0076284720562398,0.0181690547615289,-0.999403178691864,0.0283724069595336,0.0079658270238866,-0.0138537492639129,0.0099888842143933,0.0030977113638073,-0.0003356390807311,0.0026637695264071,-0.3888500369712711,0.1356321695912629,-9.803837619423868,14934.0
7.31,0.699999988079071,76.0,24.37367057800293,0.0397588685154914,-79.78278932082064,40.45903030227225,269.38069807004933,-0.0076693189330399,0.0181909576058387,-0.9993992447853088,0.0284860953688621,0.0032560774892983,-0.0153746241606905,0.008390490452842,-0.0018756800564005,-0.0017407027771696,-0.0059273750521242,-0.3882986810803414,0.1427812860812992,-9.80420131623745,14934.0
7.5,0.8000000119209291,78.0,24.36490631103516,0.0795177370309829,-79.78278932512502,40.45903031682538,269.38162729156016,-0.007673148997128,0.0181818511337041,-0.9993976354599,0.0285477712750434,0.0026653983304315,-0.0180115204051108,0.0088674782341255,0.0025750265922397,0.0025222562253475,0.0012184982188045,-0.38508464936167,0.1227489079814404,-9.805628036856652,14934.0
7.61,0.8000000119209291,83.0,24.36991500854492,0.0477106422185897,-79.78278930558488,40.459030239237634,269.39922551822656,-0.0076556815765798,0.0181888826191425,-0.9993939995765686,0.0286742746829986,0.0007487657860039,-0.0171435061839647,0.0111715610998984,0.004375681746751,0.000313316239044,0.0046811592765152,-0.3861361980065704,0.1224967468064278,-9.806522076129914,14934.0
7.8,0.8000000119209291,85.0,24.36490631103516,0.0238553211092948,-79.78278930662684,40.45903025438417,269.40044291329383,-0.0076481653377413,0.0181996691972017,-0.9993919730186462,0.0287418495863676,-0.0010640283758398,-0.019345774132968,0.0118907050557518,-0.0070255836471915,-0.0014532303903251,-0.0093200746923685,-0.3905595070123673,0.1409482113830745,-9.803808383345604,14934.0
7.9,0.8000000119209291,87.0,24.36490631103516,0.0397588685154914,-79.78278930616338,40.459030156459605,269.41695205879205,-0.0076375664211809,0.01821587421,-0.9993897676467896,0.0288095362484455,0.0036789164340316,-0.0134585267945122,0.0125515093963022,0.0072863888926804,0.0017681691097095,0.0075188451446592,-0.3876732482761145,0.1219212802872061,-9.80645366370678,14934.0
8.0,0.8000000119209291,89.0,24.36490631103516,0.0159035474061965,-79.78278931379252,40.45903018325642,269.41970537614816,-0.0076039978303015,0.0182440094649791,-0.999386191368103,0.0289274100214242,0.0021688441176635,-0.0183768627313906,0.0136984989893208,0.0042322152294218,0.0033984596375375,0.0073589431121945,-0.3891688198596239,0.1245588861778378,-9.805494720339777,14934.0
8.2,0.8999999761581421,95.0,24.366159439086918,0.0079517737030982,-79.78278929978106,40.45903009641317,269.434423223257,-0.0076014152728021,0.0182441044598817,-0.9993836879730223,0.029011033475399,-0.0006816934700787,-0.0165292558732817,0.0096514033685719,-0.008725962601602,-0.0022917967289686,-0.004486808553338,-0.3879940776899457,0.1305892658606171,-9.805002969503404,14934.0
8.3,0.8999999761581421,91.0,24.366159439086918,-0.0318070948123931,-79.78278930030055,40.45903011141103,269.43547134113305,-0.0075754919089376,0.0182468425482511,-0.999382734298706,0.029049152508378,-0.0004178370048482,-0.0189773087826525,0.0100935136388015,0.0048605985939502,0.001223471132107,0.0027627961244434,-0.3893301664665342,0.1298921863920986,-9.804544547796253,14934.0
8.4,0.8999999761581421,90.0,24.3686637878418,-0.0715659633278846,-79.78278932747371,40.45902999004375,269.4538986535072,-0.007566584739834,0.0182751938700676,-0.9993792176246644,0.0291567593812942,0.0037960766737985,-0.0083843667024395,0.0120557584776158,-0.0008711603586561,0.0018437138060107,0.002532388549298,-0.3875989886373281,0.1350582288298756,-9.802533690333368,14934.0
8.6,0.8999999761581421,90.0,24.366159439086918,-0.0397588685154914,-79.78278933192476,40.45902999732449,269.4551814944744,-0.0075805303640663,0.0182624757289886,-0.9993775486946106,0.0292165577411651,0.0028293038156903,-0.0105697991795973,0.0127531743049256,-0.0026037183124572,-0.0012047813506796,0.0012330900644883,-0.3873770868033171,0.1250247174035758,-9.805754336714744,14934.0
8.7,0.8999999761581421,90.0,24.358646392822266,-0.1033730581402778,-79.78278932662974,40.45902991579792,269.47148053359984,-0.0075736143626272,0.0182534549385309,-0.9993744492530824,0.0293291769921779,0.0006106729368779,-0.0117431765858216,0.0108907400848901,-0.0013446011580526,-0.0001334406115347,0.0021851654164493,-0.3861712447553873,0.1242322826385498,-9.804783698916436,14934.0
8.9,0.8999999761581421,88.0,24.362401962280277,-0.0477106422185897,-79.7827893482733,40.45902981751935,269.48803068709367,-0.0075480593368411,0.0182797145098447,-0.9993727207183838,0.0293785911053419,0.0042502843620726,-0.0085837410882675,0.0116813943507191,-0.0029473665636032,0.001082501374185,-0.0065092076547443,-0.3878721997886896,0.1433771082200109,-9.803003806471825,14934.0
9.0,0.8999999761581421,84.0,24.3686637878418,-0.0238553211092948,-79.78278935867748,40.45902983540717,269.49056114268296,-0.0075464225374162,0.0182708892971277,-0.9993693232536316,0.029498292133212,0.0030362813677106,-0.0131394520626473,0.0127556749228812,-0.0032447010744363,0.000320181279676,-0.0110649866983294,-0.3890631679818034,0.1445361816789954,-9.8022875225544,14934.0
9.2,0.8999999761581421,86.0,24.36365509033203,-0.0397588685154914,-79.78278939948298,40.45902975297345,269.5055221767425,-0.0075384494848549,0.0182606726884841,-0.9993683099746704,0.029542539268732,0.009621304444487,-0.0144862208884684,0.0092543097177957,0.0033646577503532,0.0010583502007648,0.0057428288273513,-0.3849567049741745,0.1231051404587924,-9.806296373605733,14934.0
9.31,0.8999999761581421,85.0,24.37617492675781,-0.0159035474061965,-79.78278941633043,40.459029677544606,269.52179317188256,-0.0075489622540771,0.0182681120932102,-0.9993644952774048,0.0296655856072902,0.0050885939280708,-0.01543204959567,0.0075377608881992,0.0036730407737195,-0.0012049037031829,0.0072203553281724,-0.3857858766987921,0.1230515653453767,-9.806593412160874,14934.0
9.5,0.8999999761581421,86.0,24.36490631103516,-0.0397588685154914,-79.78278942230838,40.45902969190664,269.5226545484066,-0.007538859732449,0.018262431025505,-0.9993631839752196,0.0297148004174232,0.0033240379801027,-0.0176257653132112,0.0083483316762743,-0.0052003003656864,-0.0008077311213128,-0.0101212291046977,-0.3900166661292314,0.1385263677500188,-9.804591910243037,14934.0
9.6,1.0,82.0,24.36490631103516,-0.1033730581402778,-79.78278945461597,40.45902962623516,269.5386412293911,-0.0075156190432608,0.0182889308780431,-0.9993599057197572,0.0298137608915567,0.0040310155745046,-0.0192548937528343,0.0080121660306953,-0.0060916538350284,-0.0031197783537209,-0.0074504395015537,-0.3891937436163425,0.1379525731690228,-9.803784994482994,14934.0
9.8,1.0,84.0,24.36365509033203,-0.0636141896247863,-79.78278946128131,40.45902964325207,269.5395469815731,-0.007515599951148,0.018286308273673,-0.9993583559989928,0.0298667531460523,0.0048092750774112,-0.0215109492094267,0.0084798679347075,0.0070256139151752,0.0019815904088318,0.0098723014816641,-0.3877274812012911,0.122706835437566,-9.805892331004143,14934.0
9.9,0.8999999761581421,87.0,24.36115074157715,-0.0397588685154914,-79.7827895002453,40.45902957361251,269.5554940850734,-0.0075104506686329,0.0182850137352943,-0.9993563294410706,0.0299389790743589,0.005731445776123,-0.0213502726742427,0.0075272438266601,0.0047379443421959,0.0028705135919153,0.0057619307190179,-0.3899338914826512,0.1267986164521426,-9.804874915480614,14934.0
10.1,0.8999999761581421,89.0,24.36365509033203,-0.055662415921688,-79.78278950749058,40.45902959245712,269.5563690812588,-0.0075025823898613,0.0182932280004024,-0.9993540048599244,0.0300117842853069,0.0041733536710946,-0.0233126734730977,0.0081788963068997,-0.007295552175492,-0.0037373988889157,-0.0054354621097445,-0.3878757081180811,0.1312639340478927,-9.80438842713833,14934.0
10.21,0.8999999761581421,91.0,24.36741065979004,-0.0238553211092948,-79.782789551832,40.45902949499845,269.5725223870277,-0.0075071523897349,0.0183243304491043,-0.999350130558014,0.0301203858107328,0.0057869217092159,-0.0179940431850356,0.0076260454940915,-0.005537049844861,0.0002862193214241,0.0013407327933236,-0.3884929182752967,0.1277415804751217,-9.805504660606385,14934.0
10.4,0.8000000119209291,90.0,24.36490631103516,-0.0318070948123931,-79.78278958751795,40.45902940246786,269.5865149648189,-0.0075157601386308,0.0183296203613281,-0.9993488192558287,0.0301572792232036,0.0075270978314093,-0.0159269758885042,0.0030864945214673,0.0038723431061953,0.0029906402342021,-7.349323277594522e-05,-0.3894650909677148,0.1337551037315279,-9.80443403542042,14934.0
10.5,0.8999999761581421,87.0,24.36991500854492,-0.0238553211092948,-79.78278960585115,40.459029433190096,269.5874078423977,-0.0074955830350518,0.0183191988617181,-0.9993463754653932,0.0302507318556308,0.0064575529313682,-0.0202603898647577,0.0042335061053625,0.0037673185579478,0.0002478530514054,-0.002174878725782,-0.3866089088469744,0.1366134328767657,-9.803911294341088,14934.0
10.7,0.8000000119209291,88.0,24.362401962280277,-0.0477106422185897,-79.78278964006141,40.45902933228189,269.6023772509098,-0.0075030820444226,0.0183233302086591,-0.9993443489074708,0.0303138997405767,0.0070977972266003,-0.0149793220426988,0.0043940954993561,-0.0012065237388014,-9.110472456086428e-05,6.413763185264544e-05,-0.3868107839673758,0.1251229140814393,-9.805598800778393,14934.0
10.8,0.8999999761581421,88.0,24.359899520874023,-0.055662415921688,-79.7827896860978,40.45902924696709,269.61688734602933,-0.0074970922432839,0.018327297642827,-0.9993415474891664,0.0304045509546995,0.0075615389434302,-0.0125667399982743,0.0018107177022139,0.0002062631829176,0.0013903706567361,0.0009276670753024,-0.3890658723190427,0.1255229458585381,-9.803990231752396,14934.0
11.0,0.8999999761581421,80.0,24.37116622924805,-0.0238553211092948,-79.78278969593698,40.45902925877761,269.6171546728611,-0.0074873827397823,0.0183234997093677,-0.9993408918380736,0.0304302740842104,0.0074732701941669,-0.014750842687038,0.0022997469534987,0.001757594407536,0.0013933343579992,0.0007696516695432,-0.3883949774131179,0.1384011916536837,-9.802785120606424,14934.0
11.11,0.8000000119209291,78.0,24.37492370605469,-0.0477106422185897,-79.78278974720534,40.45902917695636,269.6329270751476,-0.0074692578054964,0.0183324310928583,-0.9993383288383484,0.0305137615650892,0.0078370008750458,-0.0156807478255919,0.0036946466494828,0.003857888514176,0.0026552486233413,-0.0023062196560204,-0.3899819117411971,0.139541407842189,-9.803828848600386,14934.0
11.3,0.8000000119209291,73.0,24.37116622924805,-0.0397588685154914,-79.7827897573857,40.45902919069173,269.63339872670167,-0.0074776303954422,0.0183517783880233,-0.9993357062339784,0.0305870790034532,0.0073762614358752,-0.0176056053915688,0.0043630426580992,-0.0002783723466563,0.0009704317199066,0.002324674045667,-0.3877410759776831,0.124827072378248,-9.806419749855996,14934.0
11.4,0.8000000119209291,69.0,24.366159439086918,-0.0477106422185897,-79.78278977772767,40.45902907726313,269.6485920996666,-0.0074735195375978,0.0183718614280223,-0.9993340969085692,0.0306285209953784,0.0039322596617865,-0.0099657177976371,0.0041331070105313,-0.000557447085157,-0.0019914419390261,-0.0073974579572677,-0.388266704119742,0.1416992588248103,-9.803220738172534,14934.0
11.5,0.8000000119209291,72.0,24.362401962280277,-0.0795177370309829,-79.78278978770655,40.459029097721256,269.6496161670685,-0.0074681192636489,0.018356554210186,-0.9993308186531068,0.0307457782328128,0.002988601599196,-0.0141416970018802,0.0051300242249807,5.526229506358504e-05,0.0012930259108543,-0.0051265605725348,-0.3889127849042416,0.1427094841003418,-9.802110936641691,14934.0
11.7,0.8999999761581421,72.0,24.36115074157715,-0.0397588685154914,-79.7827898397133,40.45902901515444,269.6642898173332,-0.0074883298948407,0.0183434132486581,-0.9993285536766052,0.030821269378066,0.0050628515569679,-0.0147818372164517,0.0049479583939012,0.0023913225159049,8.697957673575729e-05,0.003782283514738,-0.3873509570583701,0.122940532201901,-9.803879134654997,14934.0
11.8,0.8999999761581421,70.0,24.359899520874023,-0.0636141896247863,-79.78278984608647,40.45902902818128,269.66488610219955,-0.0074700647965073,0.0183323491364717,-0.9993274211883544,0.0308690164238214,0.0039919407109394,-0.0165903043474377,0.0057243742597,-0.0028748812619596,0.0021573049016296,-0.0079848207533359,-0.3887053183838725,0.1435183002054691,-9.802979248166086,14934.0
11.9,0.8000000119209291,73.0,24.366159439086918,-0.0636141896247863,-79.7827898865137,40.459028959750256,269.6799764485359,-0.0074828336946666,0.0183335598558187,-0.9993239045143129,0.0309776682406663,0.0013698138714799,-0.0174984733820601,0.0054973763405577,-0.0056221741251647,-0.0007222015410661,-0.007023598998785,-0.3910814075544477,0.1427808201313019,-9.803187993764878,14934.0
12.11,0.8000000119209291,78.0,24.36490631103516,-0.0238553211092948,-79.78278989033478,40.459028975272005,269.6806261987685,-0.0074730855412781,0.0183789767324924,-0.9993221163749696,0.0310112368315458,0.0023673783936086,-0.0195377562054922,0.006045478944597,0.0116346292197704,0.0033188103698194,0.0098543083295226,-0.3875556096062064,0.123293585255742,-9.805761353373528,14934.0
12.2,0.699999988079071,76.0,24.36365509033203,-0.0795177370309829,-79.78278995646455,40.4590289090675,269.6959132404328,-0.0074335825629532,0.018381817266345,-0.999319076538086,0.0311184376478195,0.0047767938543723,-0.0197923787923488,0.0062370197788156,0.0075860247015953,0.0041108499281108,0.0094107324257493,-0.3881075502187013,0.1249671406019479,-9.805338599681855,14934.0
12.4,0.699999988079071,79.0,24.36115074157715,-0.0477106422185897,-79.78279002024827,40.45902880344057,269.71080438804626,-0.007427530363202,0.018408577889204,-0.9993167519569396,0.0311787370592355,0.0063326429960823,-0.0123633533066014,0.0056546058250121,-0.0074130278080701,-0.0010665890295058,-0.0033677655737847,-0.3877291257306933,0.132233192268759,-9.804605358839035,14934.0
12.51,0.699999988079071,79.0,24.36365509033203,-0.0477106422185897,-79.78279003761699,40.45902882764239,269.71219389152526,-0.0074089397676289,0.0184187330305576,-0.9993133544921876,0.0312865823507308,0.0060338906150039,-0.0164369306432461,0.0069721713644571,-0.0005308440886437,-0.0021698721684515,-0.0031984441448003,-0.388858113437891,0.1281329876091331,-9.805019926428796,14934.0
12.7,0.6000000238418579,89.0,24.36365509033203,-0.0715659633278846,-79.7827900955837,40.45902873634101,269.7263171525001,-0.0074038910679519,0.0184441562741994,-0.999311625957489,0.0313280522823333,0.0080505281600235,-0.0120342696808637,0.0055889100410559,0.0050514778122305,-0.0010741646401584,-0.0013573452597483,-0.3904659515619278,0.1376220227591693,-9.80282371222973,14934.0
12.8,0.5,95.0,24.36490631103516,-0.0636141896247863,-79.78279015034813,40.45902867098245,269.7416767926216,-0.0074146185070276,0.0184454526752233,-0.9993078112602234,0.0314446315169334,0.0047219716302293,-0.0137096819624977,0.0051459914134587,-0.0019958394113928,0.0003258754441048,-0.0109129548072814,-0.389732199087739,0.1442930014617741,-9.802725479006767,14934.0
13.0,0.5,99.0,24.36365509033203,0.0,-79.78279016362013,40.45902869753586,269.74295167636865,-0.0074094617739319,0.0184251833707094,-0.999305546283722,0.0315309725701808,0.004176566071742,-0.0175940088296075,0.00639962287953,-0.0027329358272254,-0.0008580103749409,-0.0107068372890353,-0.3874438546970487,0.1211417733505368,-9.805118744373322,14934.0
13.11,0.4000000059604645,100.0,24.36490631103516,-0.0636141896247863,-79.78279022844579,40.459028621335385,269.75758807373046,-0.0074218288064002,0.0184296835213899,-0.9993029832839966,0.0316055193543434,0.0072341025197562,-0.0165301860916509,0.0056500434823825,0.0059967972338199,0.0014517505187541,0.0067574982531368,-0.3855868520960212,0.1214933737367391,-9.806508042812348,14934.0
13.3,0.3000000119209289,108.0,24.36490631103516,-0.055662415921688,-79.7827902372745,40.4590286358751,269.75826083135604,-0.0074270879849791,0.0184397269040346,-0.9993008971214294,0.0316639840602874,0.0059575386035119,-0.0182925194093375,0.00636674295103,-0.0041933073662221,0.0008978177793323,-0.015222854912281,-0.3886204606667161,0.1425105417240411,-9.803204365968703,14934.0
13.4,0.3000000119209289,114.0,24.359899520874023,-0.0715659633278846,-79.78279034074407,40.45902854783272,269.773233458519,-0.0073966882191598,0.0184647496789693,-0.9992969632148744,0.0317814834415912,0.0126515018052234,-0.0128840203289179,0.0056089052887911,-0.007111947517842,-0.0026672526728361,-0.0101313469931483,-0.3910010448843241,0.1387131497450173,-9.802954689860345,14934.0
13.6,0.5,116.0,24.34863090515137,-0.1033730581402778,-79.78279035746225,40.45902855888558,269.7738870830536,-0.0073810699395835,0.0184649284929037,-0.9992952942848206,0.0318361967802047,0.0137673931640936,-0.014900401069264,0.006132760723947,0.0073665818199515,0.0015862553846091,0.0058431779034435,-0.3883503923937678,0.1230358144082129,-9.8063910984993,14934.0
13.7,0.5,124.0,24.3536376953125,-0.1192766055464744,-79.78279043012787,40.459028487858745,269.7889170498848,-0.0073876003734767,0.018471909686923,-0.999292254447937,0.0319272466003894,0.0127292145922168,-0.0138049830950316,0.0061452514375558,0.0043494426645338,0.0021825609728693,0.0063046473078429,-0.3904473135620356,0.1285510726645589,-9.803968597054483,14934.0
13.9,0.5,127.0,24.34988212585449,-0.0954212844371795,-79.7827904608654,40.45902843236842,269.8035721035004,-0.0074032084085047,0.0184783786535263,-0.9992883801460266,0.0320402830839157,0.0027496548043258,-0.0151246019852324,0.0056449346743951,0.0008013522601686,0.001874656882137,0.0022653278429061,-0.3876466434448957,0.130404649162665,-9.804561504721642,14934.0
14.01,0.5,131.0,24.3536376953125,-0.1272283792495727,-79.78279046490397,40.45902844572725,269.8042331786156,-0.0074181542731821,0.0184722132980823,-0.9992863535881042,0.0321012772619724,0.0021682348256114,-0.0168913880808678,0.0063928392968964,-0.0046466258354485,0.0004992546746507,-0.0009299723897129,-0.3870348419621587,0.1258324737008661,-9.806315669417382,14934.0
14.2,0.5,138.0,24.351133346557607,-0.1033730581402778,-79.7827905110558,40.45902838041378,269.8170456142425,-0.0074024721980094,0.0184956695884466,-0.9992852210998536,0.0321289524435997,0.0013419080327297,-0.016028483232759,0.0026309304503664,0.0032167597673833,0.0017046225257217,-0.0029530781321227,-0.389868548847735,0.142447601929307,-9.803100870251656,14934.0
14.31,0.6000000238418579,137.0,24.34988212585449,-0.1192766055464744,-79.78279060189213,40.45902832768808,269.8301052303314,-0.0073881624266505,0.0185049809515476,-0.999281883239746,0.0322284363210201,0.008501975160387,-0.015882624688167,-0.0001889019589045,-0.0046862326562404,-0.0010479522170498,-0.0129823479801416,-0.3889701241627336,0.1416069184988737,-9.80393936097622,14934.0
14.5,0.6000000238418579,143.0,24.34863090515137,-0.1431319266557693,-79.78279061360514,40.45902834225625,269.830190703392,-0.007400257512927,0.0185037143528461,-0.9992802143096924,0.032278899103403,0.0094170229108309,-0.0177253780722852,0.0003492707431731,0.0074729188345372,-1.414705729985144e-05,0.0040885503403842,-0.3883143589273095,0.122780528627336,-9.806046112775803,14934.0
14.61,0.6000000238418579,140.0,24.3536376953125,-0.1113248318433761,-79.78279068390434,40.45902827256329,269.8426318616867,-0.0073744188994169,0.0185212474316358,-0.9992775321006776,0.0323589742183685,0.0099467027775737,-0.0111562000919926,-0.001077466561322,0.0046553080901503,0.0043701706454157,0.002132240217179,-0.3868827047199011,0.1313377277366817,-9.803972105383872,14934.0
14.81,0.6000000238418579,139.0,24.29103660583496,0.1669872552156448,-79.78279069624911,40.459028282193984,269.84262095403665,-0.0073786173015832,0.0185407511889934,-0.9992756843566896,0.0324024595320224,0.0092849926569917,-0.0126786502861442,-0.0002710644842165,-0.0039210310205817,-0.0013427447993308,0.0022720238193869,-0.3854874128848314,0.1286655501835048,-9.805531557798384,14934.0
14.9,0.6000000238418579,137.0,24.3436222076416,0.2544567584991455,-79.78279076677775,40.459028238721366,269.85677687835687,-0.0074088051915168,0.018548659980297,-0.9992790818214417,0.0322885997593402,0.0119578874128612,-0.0134511153184792,0.0017123385874371,0.0042970306240022,0.0011939849937334,0.017411820590496,-0.3776922704279423,0.1344586151372641,-9.80928897857666,14934.0
15.1,0.5,132.0,24.35238647460937,0.2703603208065033,-79.7827908129647,40.459028176435005,269.8692888469696,-0.0073712999001145,0.0185353551059961,-0.9992663264274596,0.0326967909932136,0.0062265359176331,-0.0119497007206275,-0.0003110153545647,0.0054711978882551,0.0027213057037442,0.0027136669959872,-0.3984833247587085,0.130582185247913,-9.808890783190726,14934.0
15.21,0.5,130.0,24.35238647460937,0.2703603208065033,-79.78279082126986,40.45902818610168,269.8693364710808,-0.0074153989553451,0.018576132133603,-0.9992679357528688,0.0326124094426631,0.0067820856891866,-0.0135725738295543,6.665220758983025e-05,-0.0043937684968113,-0.0009495686972513,0.0208513382822275,-0.3960041418671608,0.1380347265489399,-9.796985267400744,14934.0
15.41,0.5,118.0,24.346126556396484,0.2942156493663788,-79.78279094268247,40.45902816071681,269.8840026707649,-0.0073611461557447,0.0185782574117183,-0.9992636442184448,0.032755296677351,0.0148489625222836,-0.0195040559082832,0.0026127247313836,0.0025223994161933,-0.0002902148407883,-0.0122877266258001,-0.4004834014177322,0.1273497439362108,-9.80207585334778,14934.0
15.5,0.5,111.0,24.342369079589844,0.2862638533115387,-79.78279096151408,40.45902817704961,269.88437263679504,-0.0073478752747178,0.0185598991811275,-0.9992607831954956,0.0328575558960437,0.0150709455064724,-0.0194119354748942,0.0030289528448435,-0.0052075539715588,-0.0051314053125679,-0.0062116337940096,-0.3794140561670065,0.1510842135362327,-9.800126976370812,14934.0
15.7,0.5,108.0,24.336109161376957,0.3578298389911652,-79.78279101514113,40.45902812298306,269.8970557899475,-0.0073469383642077,0.018549470230937,-0.9992637038230896,0.0327737554907798,0.014982947324945,-0.0186767051961092,0.0012523720128655,0.0025225568097084,-0.0019838046282529,0.0167560279369354,-0.3714251516014337,0.1273719268105924,-9.802978663444518,14934.0
15.8,0.5,102.0,24.34487342834473,0.4214440286159515,-79.78279108448534,40.45902807206439,269.91149567079543,-0.0073415823280811,0.0185773260891437,-0.9992563128471376,0.0329829901456832,0.0132098153160867,-0.0158390211073398,0.0030930739111699,0.0034539410844445,0.0070840558037161,-0.000937998003792,-0.3927931068465113,0.1371197469346225,-9.802003932595252,14934.0
16.0,0.5,88.0,24.31357192993164,0.9144539833068848,-79.7827911019217,40.45902808550749,269.9119561166763,-0.0073431162163615,0.0185769665986299,-0.9992547035217284,0.0330328159034252,0.016154295737242,-0.0174228209674149,0.004501999068665,-0.0019252724014222,-0.0031682099215686,0.0249950196593999,-0.422824808433652,0.1456958124507218,-9.799709485173226,14934.0
16.1,0.6000000238418579,80.0,24.342369079589844,0.2942156493663788,-79.78279117516601,40.459028035913015,269.9268017859459,-0.0071350680664181,0.018333300948143,-0.9992559552192688,0.0331757515668869,0.0129899891234658,-0.0159881854705984,0.0037129941296121,0.008178012445569,0.0168272480368614,-0.0038058387581259,-0.3350010180473328,0.0663889210671186,-9.788949438929556,14934.0
16.3,0.699999988079071,66.0,24.0856990814209,4.866485595703125,-79.78279124352079,40.45902796983546,269.941808268547,-0.0071614030748605,0.0183452051132917,-0.9992507100105286,0.033319566398859,0.0173477189271043,-0.0109508180582682,0.0044847107608764,0.0251629743725061,-0.0068177673965692,0.0493405349552631,-0.3930725672096014,0.1350795346219092,-9.79847630739212,14934.0
16.41,0.8000000119209291,58.0,24.30731201171875,0.6122865676879883,-79.78279125986616,40.45902797957083,269.9424157590866,-0.007130857091397,0.0184006337076425,-0.9992535710334778,0.0332103297114372,0.005251211295836,-0.0136632046681064,0.005107199643817,-0.017801059409976,0.0217942595481872,-0.0416174568235874,-0.3967640971764922,0.2087144258245825,-9.806153116822244,14934.0
16.6,1.100000023841858,51.0,24.34863090515137,0.2226496636867523,-79.78279131679494,40.45902791912157,269.95645926904683,-0.0071305246092379,0.0183920357376337,-0.999244213104248,0.0334952175617218,0.0136220688961642,-0.0086241530604543,0.0051115516085224,0.0067051667720079,-0.0151280853897333,0.0109512452036142,-0.4026098144799471,0.1221710934396833,-9.801316884756089,14934.0
16.71,1.100000023841858,48.0,24.33861351013184,0.4850582182407379,-79.78279133049668,40.459027928439326,269.9570973367691,-0.0071314140222966,0.0183198694139719,-0.9992485642433168,0.0334047451615333,0.0127027410273478,-0.0130030040962865,0.0063194836692505,0.0069770999252796,0.0229162964969873,0.0128854382783174,-0.3441391928493977,0.114934487985447,-9.808376812934876,14934.0
16.9,1.7999999523162842,39.0,24.150806427001957,4.047452926635741,-79.78279137159733,40.45902789305367,269.97139702749246,-0.0071114054881036,0.018388906493783,-0.9992413520812988,0.0335868932306766,0.0079051478865835,-0.0142180448777841,0.0061635024792798,-0.0060764886438846,-0.0104738213121891,-0.0037643595132976,-0.3727202002331615,0.1036529888771474,-9.803141216039656,14934.0
17.01,1.7999999523162842,37.0,24.13202476501465,5.685518264770508,-79.78279138019867,40.45902790684245,269.97211121034616,-0.0071062995120882,0.0183511190116405,-0.9992389082908628,0.0336801558732986,0.005897277946472,-0.0149866181934456,0.0075469214016933,-0.016681782901287,-0.05829643830657,-0.0093241827562451,-0.3822986338287592,0.1112644282635301,-9.794733504652976,14934.0
17.2,2.0,28.0,23.99555206298828,7.307680130004883,-79.78279142383508,40.45902783115485,269.9842874855995,-0.0069623794406652,0.0183203294873237,-0.9992374181747437,0.0337731204926967,0.0070971031342458,-0.0130900531140691,0.0062355496286788,0.0173757132142782,0.0016695609083399,-0.0139055689796805,-0.3591804242134094,0.1980142769962549,-9.826752272844317,14934.0
17.31,2.0999999046325684,27.0,23.96049499511719,9.28767204284668,-79.78279149643008,40.45902777890768,269.9982942194938,-0.0061380267143249,0.0183486584573984,-0.9992401599884032,0.0338336117565631,0.0128908632629375,-0.0108058693706295,0.0063028592350933,0.0394978895783424,-0.0150140579789876,0.0063740471377968,-0.4069909504428506,0.0793576433882117,-9.797316804528236,14934.0
17.5,2.299999952316284,15.0,23.795223236083984,11.665252685546877,-79.78279151323049,40.45902779295438,269.9990593047142,-0.0057134116068482,0.0181777514517307,-0.9992491006851196,0.0337389633059501,0.0142487013118849,-0.0240712137104879,0.0034428069417064,0.0534603223204612,-0.0762447491288185,-0.0204980242997407,-0.3682376881688833,-0.0103828642889857,-9.827021244764328,14934.0
17.6,2.299999952316284,11.0,23.73136901855469,13.223799705505373,-79.78279155496745,40.45902776058186,270.0140144081116,-0.0041791219264268,0.0184422228485345,-0.9992492198944092,0.0338146351277828,0.0162024134008261,-0.0127874307682252,0.009419159909046,0.0514885261654853,-0.0181935410946607,0.0436547622084617,-0.3847732120379806,0.0892358472850173,-9.894173008203508,14935.0
17.8,2.400000095367432,11.0,23.55858612060547,16.627159118652347,-79.78279157714263,40.45902776830435,270.015126809597,-0.0032696831040084,0.0190939884632825,-0.9992462396621704,0.0336403176188468,0.0146422397665396,-0.0113168927728333,0.0093864296992048,0.029916463419795,-0.0172384325414896,-0.0249014738947153,-0.331791115924716,0.177437852025032,-9.803701379299165,14935.0
17.92,2.400000095367432,11.0,23.48847198486328,19.131967544555664,-79.78279162242548,40.45902772046754,270.0294620246886,-0.0058335266076028,0.0243048574775457,-0.9991374611854552,0.0331603959202766,0.0023827663712153,0.0249970636023585,0.0408087142575711,-0.0244874227792024,-0.0856373980641365,-0.0610397011041641,-0.3528847636654973,0.0963422973733395,-9.957442220449447,14935.0
18.11,2.400000095367432,13.0,23.314435958862305,22.75002479553223,-79.78279172558412,40.4590276004069,270.04601679754256,-0.0104826409369707,0.0265378318727016,-0.9993406534194946,0.0224525853991508,0.0107547634275857,0.0911300882562599,0.0887681498408092,0.0135984038934111,0.1572981476783752,0.1479791402816772,-0.2370946909859777,0.0456904811505228,-10.009996994733813,14935.0
18.2,2.400000095367432,9.0,23.208011627197266,23.9825496673584,-79.78279172789505,40.45902747700219,270.0577146859169,-0.0072993990033864,0.0212756413966417,-0.999587059020996,0.0178816467523574,0.005321087202938,0.1583367566545397,0.1686125249328255,0.0087840696796774,0.111182115972042,0.0209196545183658,0.018070888496004,0.1660228628106415,-10.535014979839325,14935.0
18.4,2.0999999046325684,11.0,23.57361030578613,16.484027862548828,-79.78279154515424,40.45902691394375,270.1225566716194,-0.0009126262157224,0.013727331534028,-0.999796450138092,0.0147637585178017,0.013678121458481,0.2281133205550379,0.3885305902785787,0.0284344255924224,0.1535490453243255,0.0885206386446952,-0.0224865938373841,0.1491693235002458,-11.232874320745466,14935.0
18.5,2.0999999046325684,12.0,23.420860290527344,18.980884552001957,-79.78279153861466,40.45902668431791,270.15972583007806,-0.003446087706834,0.0011000024387612,-0.9998624324798584,0.0161925908178091,-0.0039378092582745,0.2622258255374797,0.3674692917092081,-0.1757212579250335,0.243804469704628,0.0083971600979566,0.1507695236988365,0.1035846129991114,-9.941768174171449,14935.0
18.7,2.200000047683716,18.0,23.231800079345703,22.46376037597656,-79.7827915811608,40.45902622824013,270.2015643568039,-0.0064249080605804,-0.0074653369374573,-0.9997933506965636,0.0177852865308523,0.0137108754938817,0.2858912919514708,0.3002907802743342,-0.0011269802926108,0.1159826219081878,-0.0022145479451864,0.2506343208253384,0.1135742977168411,-9.653920272588731,14935.0
18.81,2.200000047683716,16.0,23.39581871032715,19.04449844360352,-79.78279177727059,40.45902536978075,270.25592963409423,-0.0088311033323407,-0.0225237626582384,-0.9994953274726868,0.0205901246517896,0.0384248486885765,0.260639296719121,0.2577094821527831,-0.0106113217771053,0.2001217007637024,-0.0507062971591949,0.1500435187853873,0.2093274881131947,-9.887042913436892,14935.0
19.0,2.0999999046325684,15.0,23.288143157958984,21.501596450805664,-79.78279184201617,40.45902494274323,270.30151884269713,-0.0063883229158818,-0.0299082398414611,-0.9992805123329164,0.022432193160057,0.0466450870201356,0.225233434580054,0.178314741682748,0.0341110043227672,-0.0424822568893432,0.1093440428376197,0.2443935144692659,0.2192325069755316,-9.518436777591706,14935.0
19.11,2.0999999046325684,18.0,23.30442047119141,20.507625579833984,-79.78279163596947,40.45902455487157,270.3378435821533,-0.0045245122164487,-0.0270491354167461,-0.9993789792060852,0.0221264436841011,0.0177408341464893,0.2302455340616121,0.1798376446869194,0.0057898527011275,-0.0428644530475139,-0.0008682045154273,0.3839216016232968,0.1050366319622844,-9.708356096148492,14935.0
19.31,2.200000047683716,19.0,23.241817474365234,21.72424697875977,-79.78279155678011,40.459024080488376,270.4008160085678,-0.0062135979533195,-0.0192523933947086,-0.9995622038841248,0.0215921234339475,0.0171518807467874,0.1958792401056229,0.2271530123307899,-0.0386072918772697,-0.0455280654132366,0.0528148263692855,0.2544831043481826,0.1829191416129469,-10.05810905456543,14935.0
19.41,2.0999999046325684,18.0,23.27061462402344,20.897262573242188,-79.7827915692106,40.45902391720122,270.426341340065,-0.0068162456154823,-0.0186937358230352,-0.9995841979980468,0.0208715312182903,0.0287008155590734,0.1901921620786639,0.2633915275756012,0.008878206834197,0.0440285615622997,-0.1101277619600296,0.348924919590354,0.3081552084535361,-10.085317318439484,14935.0
19.6,2.0999999046325684,17.0,23.27937889099121,20.78593635559082,-79.78279154482816,40.459023425150825,270.5008029193878,-0.0080007752403616,-0.0207333359867334,-0.9995679259300232,0.0192373171448707,0.0131869734411728,0.1880571770515245,0.2741708618129037,-0.0016449579270556,-0.0088358232751488,0.000254761747783,0.3099710247293115,0.2429796942695976,-9.97734029531479,14935.0
19.7,2.200000047683716,20.0,23.2180290222168,22.37629127502441,-79.78279154477686,40.459023264784776,270.5280762166977,-0.0082200840115547,-0.0223509036004543,-0.9995324015617372,0.0191819462925195,0.0110353908373032,0.1772475770761582,0.259119897471139,-0.0084282774478197,-0.0160033274441957,0.081083171069622,0.2232685841247439,0.0679760746657848,-9.689509350657463,14935.0
19.9,2.0,18.0,23.24056434631348,21.604969024658203,-79.78279145469665,40.45902289193779,270.5979040117264,-0.0063495226204395,-0.0223074834793806,-0.9995182156562804,0.020624941214919,0.0088975901191909,0.1579656816947144,0.2561174418269701,0.066847950220108,-0.0486079230904579,-0.0448163039982318,0.2917767005972564,0.1759452223218977,-9.73663498520851,14935.0
20.02,2.0,22.0,23.276874542236328,20.4281063079834,-79.78279145442436,40.4590227651348,270.62460772705083,-0.0047246431931853,-0.0208890028297901,-0.9995326399803162,0.0218142196536064,0.0111583507337048,0.1438388590683612,0.2633710400082225,-0.0118149258196353,-0.0880631357431411,-0.022070774808526,0.3117880104482174,0.2611940451152623,-9.79959955751896,14935.0
20.21,1.8999999761581416,24.0,23.32320022583008,19.96690368652344,-79.78279163111259,40.45902243794644,270.706487581253,-0.004166841506958,-0.0161843933165073,-0.999665915966034,0.0197187941521406,0.0553783967976109,0.1277585057921436,0.2767348861815773,0.0417147763073444,-0.0850042104721069,0.1110682338476181,0.3155311786383391,0.2176662571728228,-9.832325838804245,14935.0
20.31,1.8999999761581416,26.0,23.28689193725586,20.45991516113281,-79.78279137747491,40.45902211608818,270.7613909692764,-0.0047151735052466,-0.0161711052060127,-0.9997193217277528,0.0166626423597335,0.0046038978485611,0.1446987352364714,0.2825341070880335,-0.0957887396216392,0.095828577876091,0.0269302334636449,0.279362952131778,0.1231831459701061,-9.68567299246788,14935.0
20.5,2.0,26.0,23.265605926513672,21.0483455657959,-79.78279137594859,40.45902199704257,270.7893279047012,-0.0078652584925293,-0.0191403459757566,-0.9996964931488036,0.0133688868954777,0.0063406423816047,0.1359995793356949,0.2689958795412317,-0.0612495951354503,0.0703136399388313,0.0326789394021034,0.2856196738779545,0.1665079076215624,-9.692434712648392,14935.0
20.6,2.0,25.0,23.3933162689209,12.476333618164062,-79.78279143075095,40.45902172836736,270.8560369462967,-0.0125670842826366,-0.0216954629868268,-0.9996461868286132,0.0088916355744004,0.0132873312759847,0.1339254697293309,0.2656346756045723,0.0230398401618003,0.005295836366713,0.0595505125820636,0.2262283167801797,0.039617206659168,-9.711021257042882,14935.0
20.7,1.8999999761581416,23.0,23.31318473815918,20.444011688232425,-79.78279142783008,40.459021625806976,270.87805764389043,-0.0118865119293332,-0.0238846316933631,-0.9996064901351928,0.0086650354787707,0.0019375270406871,0.113588524963575,0.1369850769672126,0.0401298888027668,0.0536492727696895,0.004379360936582,0.2826935078948736,0.2115700963139534,-8.69987102508545,14935.0
20.9,1.8999999761581416,22.0,22.980138778686523,26.081817626953125,-79.78279142498053,40.45902135485156,270.9305268974304,-0.0070884712040424,-0.0256655402481556,-0.9996206760406494,0.007042808458209,-0.0166489119411303,0.096960494704935,0.1584173248723543,0.0024172107223421,-0.0139202587306499,0.0605173297226429,0.2933256462961435,0.1219705704879015,-10.116397608518602,14935.0
21.01,2.0,24.0,22.93756866455078,26.86904335021973,-79.78279140335171,40.45902128303407,270.9522258491516,-0.0053116637282073,-0.0237501598894596,-0.9996806979179382,0.006808893289417,-0.0166107889100805,0.0861728310355006,0.2737408891555186,-0.0165180973708629,0.0298700835555791,-0.0389885306358337,0.3467948154732585,0.1835026206448674,-10.72949805021286,14935.0
21.2,2.0,21.0,22.93005752563477,27.497234344482425,-79.7827913731528,40.45902108880972,271.01205091190343,-0.0043167704716324,-0.0227252598851919,-0.99970942735672,0.0067865294404327,-0.0229634433263465,0.0832254236300784,0.4305935819973348,-0.0750345289707183,-0.1027120426297187,-0.0277253072708845,0.2825977049209177,0.1230033349525183,-11.002185291051868,14936.0
21.41,2.0999999046325684,18.0,22.71345138549805,31.73552894592285,-79.7827913894005,40.45902094392192,271.12090401363366,-0.0065299733541905,-0.0200363919138908,-0.9997416734695436,0.0085215764120221,-0.0188196191233013,0.0782786276583616,0.6917239278989389,-0.1027083992958068,-0.0700162425637245,-0.0642863735556602,0.3255439872667193,0.2878942773118615,-11.289026302099224,14936.0
21.51,2.0999999046325684,16.0,22.769794464111328,30.773365020751957,-79.78279134699949,40.45902087796488,271.3000683040619,-0.007997203618288,-0.0148758813738822,-0.9997624158859252,0.0137784862890839,-0.0100987943657602,0.0689772458483623,1.1132438303358774,-0.1333522200584411,-0.0244030449539423,-0.109574519097805,0.3127268540114165,0.1584788217209279,-11.905959008932117,14936.0
21.6,2.0999999046325684,10.0,22.74600601196289,31.02782249450684,-79.78279137261136,40.45902082510283,271.4240071029663,-0.0096330447122454,-0.0153695689514279,-0.999680995941162,0.0175784602761268,-0.0011879023439331,0.0604995676003596,1.3257195782984563,-0.0253825318068265,-0.00509127182886,-0.0367239192128181,0.3695957405492664,0.0033118446730077,-12.065433629751205,14936.0
21.81,2.200000047683716,8.0,22.66587448120117,32.60227203369141,-79.78279138443752,40.45902072112325,271.73115246009826,-0.007875433191657,-0.0193980261683464,-0.9995068907737732,0.0234024729579687,0.0088460290535515,0.0799987835876367,1.7432687317499584,0.0830607414245605,0.0226487107574939,-0.0757873281836509,0.3316577263176441,0.1932534740120172,-11.916745952367783,14936.0
21.9,2.400000095367432,6.0,22.63582420349121,32.04565048217773,-79.78279135575896,40.45902070301589,271.9164890499115,-0.0037003578618168,-0.0164705086499452,-0.9995463490486144,0.0249453652650117,0.0228968129218751,0.0996434632636488,1.9636304625626209,0.1801706999540329,-0.1056843250989914,0.0292761139571666,0.5288378249108792,0.103765419870615,-12.021570156812668,14936.0
22.11,2.400000095367432,6.0,22.51813125610352,35.86249923706055,-79.782791404176,40.45902061631379,272.343014881134,-0.0071591967716813,-0.0085536632686853,-0.9995998740196228,0.0259931553155183,0.0114425086586483,0.0813999111258732,2.376831880963364,-0.0470254011452198,0.090259313583374,0.0898218750953674,0.3423473867028952,0.090445627067238,-12.022002850770953,14937.0
22.3,2.5,9.0,22.91503143310547,26.76567077636719,-79.78279148859751,40.45902049703631,272.85464780044555,-0.0180113650858402,-0.0213164817541837,-0.9993364214897156,0.0234099980443716,0.0496639079184368,0.1083022353799933,2.8140103528535785,-0.0982846915721893,0.0877274796366691,0.0563227124512195,0.2581532737053931,0.3144058454409242,-12.28557428240776,14937.0
22.4,2.5999999046325684,6.0,22.97763442993164,25.67627716064453,-79.78279144309748,40.45902046753014,273.1410581321716,-0.0216362830251455,-0.0239722896367311,-0.9992759823799132,0.0201193336397409,0.0666124206669684,0.152804365979998,2.8905032524174867,0.021858463063836,-0.0155432075262069,0.1126898974180221,0.4504017392545938,0.0772397270612418,-10.797232196331024,14938.0
22.5,2.799999952316284,8.0,22.88498306274414,27.409765243530277,-79.78279136835354,40.459020444058325,273.4320098609924,-0.0216209143400192,-0.0213448740541934,-0.9993980526924132,0.0167467035353183,0.0445070567121478,0.1611232962563346,2.91842387523412,-0.0625447481870651,-0.1154542490839958,0.0277218036353588,0.3785756385326386,0.1356242210324853,-10.274971758127212,14938.0
22.7,2.799999952316284,7.0,22.821128845214844,27.56879997253418,-79.78279130021768,40.459020422461975,273.9862367362976,-0.0222773235291242,-0.0109407613053917,-0.9996188282966614,0.0120960408821702,0.0024670049851363,0.1032300765395728,2.9819670340327287,0.1045843511819839,0.0385878644883632,0.1189756169915199,0.2843988117948174,0.0081768742762506,-10.393589544296264,14938.0
22.9,2.799999952316284,4.0,22.95760154724121,25.01628112792969,-79.78279053175982,40.459020169659,274.38280932617187,-0.0224129147827625,-0.0085776410996913,-0.999649167060852,0.0112083414569497,-0.0696435734893055,0.1034244500069098,3.086442927970072,-0.0181844718754291,-0.0841038525104522,0.0194840170443058,0.2641288174688816,0.0037505868449807,-10.305407685041429,14939.0
23.0,2.900000095367432,3.0,22.87747001647949,26.360130310058597,-79.78278998044873,40.45902010007983,275.00079123687743,-0.0114445937797427,-0.0079812696203589,-0.9998213052749634,0.0127596305683255,-0.1428544491865618,0.1036887628232723,3.095311044030593,0.0265686679631471,-0.0392563715577125,-0.1233083084225654,0.2466023367270828,0.2149282801710069,-9.816985083818436,14940.0
23.2,3.0,4.0,22.82863998413086,27.74374008178711,-79.78278962918426,40.45902006387372,275.3114401550293,-0.004629286006093,-0.0096971439197659,-0.999822437763214,0.0154811153188347,-0.1819177124837524,0.0981290278491897,3.085618589787817,0.1984253227710724,0.0764500349760055,0.0404629930853843,0.2038582766801119,-0.1159467506501823,-9.861450819969177,14940.0
23.3,3.0,3.0,22.908771514892567,26.01025199890137,-79.78278899537993,40.45901998525108,275.9063011856079,-0.0066915196366608,-0.0155752161517739,-0.9996545314788818,0.0200878698378801,-0.2497130239452982,0.1325240128283182,3.105823422984672,-0.0685991495847702,0.0417589880526065,0.022427188232541,0.245944799054414,0.1114825202710926,-10.061775258779528,14940.0
23.4,2.900000095367432,1.0,22.910024642944336,25.73989295959473,-79.78278867444385,40.45901994967407,276.2179638595581,-0.0072378781624138,-0.0145519487559795,-0.9996704459190368,0.0198732111603021,-0.214719508332257,0.1451071286536504,3.123171324749644,0.1018455252051353,-0.0569141246378421,0.065762847661972,0.3324063891917467,-0.0503824240341782,-9.994660917520523,14941.0
23.61,3.0,358.0,22.97638320922852,24.53122329711914,-79.78278806687875,40.45901989855221,276.81844012451165,-0.003929613623768,-0.0140830231830477,-0.9997336864471436,0.0178544446825981,-0.2384339330886242,0.116741971429779,3.105558993081864,0.0241614561527967,0.1131214946508407,0.0613048747181892,0.1993485019728541,-0.0459846098022535,-9.77401097238064,14941.0
23.8,2.900000095367432,350.0,22.8712100982666,26.344226837158203,-79.78278775266665,40.45901986937025,277.1280514450073,-0.0039905630983412,-0.0147982221096754,-0.9997435212135316,0.0166757013648748,-0.2650912932022323,0.1170671651181184,3.0817497431213985,-0.1158437877893448,-0.0197704099118709,-0.019123263657093,0.1694715323299169,0.1627441645413637,-9.572035279870033,14942.0
23.9,2.900000095367432,345.0,22.926300048828125,25.11965370178223,-79.78278721720181,40.45901979548728,277.69521968078607,0.0004971252055838,-0.0164749473333358,-0.9997478723526,0.0152535298839211,-0.2433807566390076,0.1110902519870237,2.9776805058100133,0.2610377371311188,0.028186347335577,0.0912093520164489,0.3231479444727301,-0.2166791192628444,-9.603735959529876,14942.0
24.1,2.900000095367432,341.0,22.882478713989247,25.95458984375,-79.78278689639158,40.45901979044165,277.9925181121825,0.0053842794150114,-0.0153823867440223,-0.9997322559356692,0.016430702060461,-0.2784805618298873,0.1061665725640796,2.9650377197526336,0.0383013561367988,-0.0462811961770057,-0.0684495940804481,0.2457086080871522,0.0946443755831569,-9.666160833835605,14942.0
24.21,2.900000095367432,340.0,22.94132423400879,24.348331451416016,-79.78278546390958,40.45901927429357,278.56077544403075,0.013221152126789,-0.0101947383955121,-0.9996515512466432,0.0204486437141895,-0.3508828178341265,0.1488553563266201,2.908126953499167,-0.1769859939813614,-0.1082018390297889,-0.1600036472082138,0.2734037440270185,0.2599114583618939,-9.776804187297822,14943.0
24.41,3.0999999046325684,341.0,22.867454528808597,26.38398551940918,-79.78278456845194,40.45901946664137,278.856436416626,0.012134974822402,-0.0069678672589361,-0.9996704459190368,0.0215253327041864,-0.3647764332813626,0.0956291325507863,2.8821300695220065,-0.0747826322913169,-0.0891902074217796,0.0676921233534812,0.2004741275310516,-0.1437533765472471,-9.851945586204527,14943.0
24.51,3.2000000476837163,340.0,22.863698959350582,25.946638107299805,-79.78278392498284,40.45901941034723,279.43685595703124,0.0063312379643321,-0.0130755361169576,-0.9997021555900574,0.0196110494434833,-0.3089059573126339,0.1030080153908312,2.9109144014328865,-0.0858979821205139,0.0246860962361097,-0.0261045284569263,0.3881328394263983,-0.0155092804203741,-9.970481511354444,14944.0
24.71,3.2000000476837163,336.0,22.831144332885746,27.07579040527344,-79.7827838515442,40.45901896306333,279.811321899414,0.0049782074056565,-0.0176571644842624,-0.9996684193611144,0.018069539219141,-0.2291489630845614,0.1722796725078719,2.9538529427998648,0.1308120638132095,0.0778200551867485,0.0730136707425117,0.4095484494790435,-0.1218717525433749,-9.910347576141357,14944.0
24.8,3.0999999046325684,334.0,22.862445831298828,26.479406356811523,-79.78278325369955,40.45901892972356,280.4868180007934,0.006013635545969,-0.0231152214109897,-0.9995783567428588,0.0165145806968212,-0.2196155494467186,0.1811371678356815,2.993465578142992,-0.1109736636281013,-0.0430996939539909,-0.1046226397156715,0.3823431092128158,0.1846495702676475,-9.907421629428864,14945.0
24.9,3.2000000476837163,327.0,22.920040130615234,24.920860290527344,-79.78278305061555,40.45901889221848,280.788282081604,0.0086514465510845,-0.0225851740688085,-0.9995673298835754,0.0167427901178598,-0.1910828419758724,0.1843136097369856,3.0220645085109936,0.101792998611927,0.0064356792718172,0.1571284085512161,0.3385041945800185,-0.1703292092308402,-10.041032845973971,14945.0
25.1,3.299999952316284,328.0,22.96511459350586,23.49749183654785,-79.78278258351921,40.45901878220668,281.45322577667235,0.0121476631611585,-0.019426180049777,-0.9995930790901184,0.0169955715537071,-0.1816896712208836,0.1400634485703732,3.0474393648500584,0.1862550526857376,-0.0217628683894872,0.0532005839049816,0.3565741374716162,-0.1420853486470878,-9.872213205099106,14946.0
25.2,3.299999952316284,330.0,22.83489990234375,26.209047317504893,-79.78278244071528,40.45901877818629,281.75852935028075,0.014571925625205,-0.0202777609229087,-0.9995390176773072,0.0172722488641738,-0.1756646986582971,0.1234819181042185,3.0479143108759814,0.1140286326408386,0.0799696967005729,-0.0117090446874499,0.3303668803721666,-0.1050400306563824,-9.811976358890536,14946.0
25.4,3.299999952316284,332.0,22.887487411499023,25.54904937744141,-79.78278211040502,40.45901863836343,282.4220873565674,0.0161094032227993,-0.0222596880048513,-0.9994379878044128,0.0192013587802648,-0.1563911380051986,0.1182600124847123,3.039294106561837,-0.0133104249835014,0.0149489706382155,0.0123591404408216,0.2890680327638984,-0.1285264960862696,-9.700073515176774,14947.0
25.6,3.299999952316284,331.0,22.98389434814453,23.50544357299805,-79.78278205410831,40.4590186574069,282.72622649383544,0.0132456105202436,-0.0233686380088329,-0.9994462132453918,0.0196441058069467,-0.1352375033486553,0.1094612196899719,3.035919310960711,-0.0954109132289886,0.0951641276478767,0.0213263966143131,0.2972367757558822,-0.0243981011677533,-9.745843180418015,14947.0
25.7,3.400000095367432,330.0,22.94883728027344,23.83146667480469,-79.78278192349178,40.459018516166985,283.3907152862549,0.0108882170170545,-0.023581326007843,-0.9994758367538452,0.0193257834762334,-0.0581897767583014,0.1073804192383625,3.0121370879156952,-0.0868445411324501,-0.0481967255473136,-0.0679092705249786,0.3818632720783353,0.0557525891158729,-9.551881096959113,14948.0
25.8,3.299999952316284,328.0,22.857437133789062,25.37411117553711,-79.78278191185466,40.45901838034842,283.7552181930542,0.0108724990859627,-0.0211637932807207,-0.9995332956314088,0.0191608853638172,-0.0292793295342816,0.1026638303743953,3.022631090475121,-0.0049453573301434,-0.0055510648526251,0.0029292430263012,0.3559822165220976,-0.0209597053891047,-9.544962671399118,14948.0
26.01,3.2000000476837163,323.0,22.87872314453125,24.81748580932617,-79.78278202483139,40.45901846498825,284.35898558807366,0.0082186255604028,-0.017762791365385,-0.99963116645813,0.0188286453485488,-0.0141620625081238,0.0614509808044823,3.012013721224424,-0.1570916175842285,-0.0650421157479286,-0.0424352958798408,0.3259849769622087,0.0419632557593286,-9.694343828558925,14949.0
26.2,3.0999999046325684,319.0,22.96511459350586,23.091951370239247,-79.78278198165036,40.45901835265653,284.7216355056762,0.0059372074902057,-0.0171897243708372,-0.999668836593628,0.01820719987154,0.0116810178529205,0.0675577790526523,3.0518162341354027,-0.0312694534659385,-0.0047529772855341,0.0115280235186219,0.3086570822820068,-0.1425484115816652,-9.807134279608729,14949.0
26.3,3.0999999046325684,316.0,22.950090408325195,23.1953239440918,-79.7827821015767,40.45901831242036,285.38060633850085,0.0102188875898718,-0.0175277646631002,-0.9996450543403624,0.0172718148678541,0.0273213096005182,0.074312747333488,3.066410584177469,0.0043410281650722,-0.0724329948425293,0.0525104627013206,0.276891480255872,-0.1558810134418309,-9.662785236239436,14950.0
26.4,3.0999999046325684,313.0,22.85368156433105,25.54109764099121,-79.78278219270537,40.459018338901295,285.6856390686035,0.013530577532947,-0.0165853127837181,-0.9996237754821776,0.0171526689082384,0.0219289016648388,0.0751073377638211,3.0344254315165005,0.0439051315188407,-0.0841721519827842,0.0594912692904472,0.3292428993433714,-0.1695210692100227,-9.570406245589258,14950.0
26.61,3.0999999046325684,316.0,22.862445831298828,24.92881202697754,-79.78278227990721,40.4590182684515,286.3356997222901,0.0120154125615954,-0.0183062124997377,-0.9995968341827391,0.0180789735168218,0.0296103424261657,0.0708296865348153,3.0502253884915875,0.0207184460014104,0.0529340468347072,-0.0212266016751527,0.3418149246275425,-0.1404730337485671,-9.71954415857792,14951.0
26.7,3.0999999046325684,313.0,22.76478576660156,26.65434646606445,-79.78278240994611,40.4590182931815,286.63996188354486,0.0083827879279851,-0.0206396095454692,-0.9995754957199096,0.0187769010663032,0.0470631936443827,0.0776428326017541,3.03804591208314,-0.0628086328506469,0.0093084024265408,-0.0568655617535114,0.3837289724126458,-0.0662696652766317,-9.731705197691918,14951.0
26.9,3.0999999046325684,313.0,22.863698959350582,24.80158233642578,-79.78278252734158,40.459018224770354,287.2915732116698,0.0039517516270279,-0.0219010654836893,-0.9995673894882202,0.0192299671471118,0.0923299281914834,0.0955881376955896,3.0501304181585183,0.0241013281047344,-0.0142884654924273,0.0360294803977012,0.2994286410883069,0.0720987454243004,-9.701004391908643,14952.0
27.1,3.0,313.0,22.85243034362793,24.91290855407715,-79.78278267430598,40.45901825904517,287.59618823242187,0.0037325606681406,-0.0199539680033922,-0.9996090531349182,0.0192279238253831,0.0945188079633684,0.0851699995270454,3.040738028406444,-0.0994299426674842,-0.0562998279929161,-0.0360658206045627,0.3319852434843778,-0.0329218181152828,-9.695907958745956,14952.0
27.2,3.0,313.0,22.804851531982425,25.79555511474609,-79.78278301119478,40.45901815755081,288.2428271026611,0.0023063318803906,-0.0164010357111692,-0.9996821284294128,0.0190103240311145,0.1058445349153846,0.0823898614857192,3.053028953625481,-0.1219701170921325,-0.0224750861525535,-0.1242874264717102,0.3738123504817486,0.1908694911003113,-9.741544307470322,14953.0
27.31,2.900000095367432,315.0,22.8424129486084,25.86712074279785,-79.78278305516288,40.45901807785785,288.5785319061278,0.0037833522073924,-0.0155637087300419,-0.9996827244758606,0.019442094489932,0.1136432494939037,0.0743188509338853,3.0646876554548808,-0.0150639563798904,-0.0380571968853473,0.0523991771042346,0.3551793207228184,-0.0573349461704492,-9.78172988176346,14953.0
27.5,3.0,314.0,22.81987571716309,25.22302627563477,-79.78278334578849,40.459018119618456,289.190155670166,-0.0003193361335434,-0.0177578125149011,-0.999673306941986,0.0183818098157644,0.094372796847324,0.0683597539030679,3.0404308622896914,-0.0500407889485359,0.0060262735933065,0.0112398387864232,0.4083211554586888,-0.1435840265639126,-9.670045139193537,14954.0
27.6,3.2000000476837163,314.0,22.857437133789062,24.658451080322266,-79.78278344080147,40.45901804642791,289.5190149993896,-0.0026507112197577,-0.0189640056341886,-0.9996660351753236,0.0173591189086437,0.1265931838336539,0.0794692639228397,3.0327350582140613,0.1239782497286796,0.0661312565207481,0.120480865240097,0.3411063882708549,-0.159717298541218,-9.568731018304826,14954.0
27.8,3.2000000476837163,312.0,22.96887016296387,22.32858085632324,-79.78278373624919,40.459018028170256,290.14337794494634,0.0037162606604397,-0.0190301109105348,-0.9996662735939026,0.0170714352279901,0.0938609799090453,0.0789531996340286,2.991379107803492,0.0062654162757098,-0.000380491343094,-0.0696416050195694,0.3176602229475975,-0.0062068194150924,-9.515013817548752,14955.0
28.0,3.299999952316284,312.0,22.97513008117676,21.779909133911133,-79.7827838441368,40.45901805899582,290.43938319396966,0.0065129599533975,-0.0185039322823286,-0.9996596574783324,0.0171991065144538,0.0683067536406549,0.0751072748434856,2.9190106751371654,0.0265526007860898,0.0660670846700668,-0.0019870197866112,0.3430731358006597,-0.1361892356537282,-9.099408347010614,14955.0
28.1,3.299999952316284,312.0,23.09031867980957,19.768110275268555,-79.78278396935781,40.459017987521854,291.0404497833252,0.0052883732132613,-0.0145380441099405,-0.9997077584266664,0.0185801684856414,0.0316716578612263,0.0727175572484562,2.73346327789696,-0.0243479870259761,0.0061151734553277,-0.0166443865746259,0.4045490070059896,-0.1932033341377973,-8.604228703379631,14956.0
28.2,3.400000095367432,312.0,22.955097198486328,22.050268173217773,-79.78278404731917,40.45901800150576,291.3072191925049,0.0049878880381584,-0.014211256057024,-0.999707281589508,0.0189384091645479,0.0327861797757071,0.0628618143646796,2.6078961080733256,-0.0138339465484023,0.0570838563144207,0.0896373242139816,0.3210464186221361,-0.276010176949203,-8.58973696410656,14956.0
28.4,3.400000095367432,311.0,23.0076847076416,21.11195945739746,-79.78278413424063,40.45901794162491,291.83373133850085,0.0125786559656262,-0.0178368017077446,-0.9996123909950256,0.0172860715538263,0.0193203203336725,0.0866688348730199,2.378912547289295,0.0170341879129409,0.0316299013793468,0.0635755211114883,0.346281210668385,-0.1461934470478445,-8.436119499206544,14956.0
28.6,3.400000095367432,310.0,23.04023742675781,20.29292678833008,-79.78278420039551,40.459017930479455,292.0660559387207,0.0132104121148586,-0.020035108551383,-0.999580442905426,0.016217466443777,0.0031550419584363,0.1001786565607522,2.2742105687324887,-0.0231384318321943,0.037741981446743,-0.0212405510246753,0.3866910987719893,-0.0871344127971679,-8.699344190955163,14957.0
28.71,3.400000095367432,309.0,23.13414001464844,18.19365882873535,-79.78278428076176,40.45901780498188,292.5342241973877,0.0125436661764979,-0.0244319252669811,-0.9995060563087464,0.0152765894308686,0.0100659777843189,0.1292191990828183,2.1350739283237785,-0.0472964979708194,0.0701295733451843,-0.1067200824618339,0.5031369001418352,0.0115050180628895,-8.90121989607811,14957.0
28.81,3.400000095367432,311.0,23.02145576477051,20.642805099487305,-79.78278428572038,40.45901769186112,292.7690874786377,0.0118075376376509,-0.0262885261327028,-0.9994654655456544,0.015439367853105,0.0118861077413129,0.1431623890614366,2.0659988120740627,-0.0221252180635929,0.0440028980374336,-0.0225777626037597,0.4972752126306296,-0.2375564017519355,-8.848182141780851,14957.0
29.0,3.5,313.0,23.03773307800293,19.95895195007324,-79.7827844506401,40.45901761441185,293.1649100036621,0.0120398709550499,-0.0301354154944419,-0.99933123588562,0.016850808635354,0.0431185075848216,0.1457568994570471,1.893833252174992,0.0622193850576877,0.0638930797576904,-0.1353364884853363,0.5208634287491442,-0.004587232042104,-9.01693103134632,14958.0
29.1,3.299999952316284,315.0,23.072790145874023,19.768110275268555,-79.78278444939697,40.45901750006512,293.393150970459,0.0149722676724195,-0.0331806242465972,-0.9991667866706848,0.0184578914195299,0.0472413640568138,0.1468574329864779,1.861431907511445,0.069197304546833,0.1002484485507011,-0.1563364267349243,0.4900897885859013,-0.0656697409506887,-8.995173541903496,14958.0
29.3,3.299999952316284,316.0,22.96010589599609,21.92304039001465,-79.78278454564006,40.4590173851376,293.798460647583,0.0160029698163271,-0.0367852970957756,-0.9989646673202516,0.0214601643383502,0.0590471354191887,0.1391399404578576,1.7668398552590612,0.0235212296247482,-0.0256315991282463,-0.0187955126166343,0.4269951157271862,-0.1231372453272342,-9.124772983789445,14958.0
29.51,3.2000000476837163,321.0,23.052757263183597,20.58714294433593,-79.78278468865567,40.45901738031849,293.97329966735833,0.0131385270506143,-0.0347996540367603,-0.999062955379486,0.022125681862235,0.0799617966406791,0.1179765713958802,1.7281468950428531,-0.0373111106455326,-0.0308083072304725,-0.0479148402810096,0.5037885723263026,-0.0746103255450725,-9.356315706968308,14958.0
29.61,3.0999999046325684,320.0,23.041488647460927,19.855579376220703,-79.78278474930752,40.45901722710219,294.37421672058105,0.0057197618298232,-0.0290062837302684,-0.9993354082107544,0.0213233456015586,0.1048187641291412,0.0809765052315293,1.7042090829549297,-0.0743682608008384,0.0273910965770483,-0.0167063176631927,0.4032250877469778,-0.0419986405503004,-9.370225063562394,14959.0
29.7,3.0,323.0,23.00267601013184,20.8813591003418,-79.78278489951549,40.45901723646666,294.5434195251465,0.0030548591166734,-0.0288830604404211,-0.9993719458580016,0.0203011315315961,0.118820806259469,0.063098057949977,1.6712342497475896,-0.0403379239141941,0.0117316003888845,-0.0671144053339958,0.5145379474014045,-0.0282027336442843,-9.470369741320608,14959.0
29.91,3.0,325.0,23.18297004699707,13.71681022644043,-79.78278494225066,40.45901714456436,294.9502894134521,0.0026374084409326,-0.0291867312043905,-0.999398410320282,0.0185481458902359,0.1153355941288738,0.0621743390782895,1.631405424196425,0.0503508113324642,-0.0067118187434971,0.0706329345703125,0.4193490772694349,-0.1720643887482583,-9.033650559782982,14959.0
30.1,2.900000095367432,325.0,23.01269149780273,18.376548767089844,-79.78278508199544,40.45901716885743,295.10488383483886,0.0034149989951401,-0.0257090386003255,-0.9995086193084716,0.0176083017140626,0.1112346736887397,0.0544549420464266,1.410604274568365,0.0371069759130477,-0.1092687174677848,0.0244422331452369,0.4559888269007206,-0.055561439981684,-7.682066076993943,14960.0
30.21,2.900000095367432,327.0,23.05150604248047,19.6885929107666,-79.78278524264151,40.45901707600397,295.37177149963384,0.0092500429600477,-0.013491322286427,-0.997121274471283,0.0740376710891723,0.0471105235660935,0.025238468276264,0.949653200703718,-0.0309381578117609,-0.0364204719662666,-1.0534824132919312,0.2582016959600151,-0.1538684383593499,-7.610358163118362,14960.0
30.3,2.900000095367432,330.0,23.00267601013184,20.380395889282227,-79.78278546489234,40.45901713806731,295.42007891845697,0.0062530441209673,-0.0142180416733026,-0.9917746782302856,0.1270505934953689,0.0420111427984603,0.0078543404979809,0.8193567039891821,-0.0695973187685012,0.0374770611524581,-1.2250617742538452,0.3092381493374705,-0.0601981586543843,-8.248617419600487,14960.0
30.51,2.799999952316284,331.0,23.036481857299805,19.55341148376465,-79.78278562983421,40.45901713982147,295.5637404174805,0.0055775674991309,-0.0172519050538539,-0.9680045843124392,0.2502765953540802,0.0557724156439571,-0.002388823043666,0.6298394323055728,0.0079838130623102,0.0396931134164333,-1.3510226011276243,0.3947373425960541,-0.0543503719847649,-8.863081431984902,14960.0
30.6,2.700000047683716,315.0,23.02896881103516,19.935096740722656,-79.78278581812468,40.45901718245056,295.5704066009521,0.0076809888705611,-0.0168495010584592,-0.9470367431640624,0.3205908238887787,0.0739200674684853,-0.0058430030082194,0.5642054321784511,0.0952609926462173,-0.0109077878296375,-1.5090066194534302,0.342611827030778,0.0965927226562053,-9.07234509408474,14960.0
30.81,2.700000047683716,305.0,23.018951416015625,19.887386322021484,-79.78278602296709,40.45901720938668,295.6345831604004,0.0128367990255355,-0.0159864146262407,-0.8863611221313477,0.4625405371189117,0.0977922237110884,-0.038912411913794,0.5356120995954903,0.1089274361729622,0.0378879122436046,-1.5755292177200315,0.360258687324822,0.162159260250628,-9.684517582654951,14960.0
31.0,2.5999999046325684,312.0,22.831144332885746,24.07001876831055,-79.78278616476098,40.4590171738118,295.68742816162114,0.0125004276633262,-0.0167506523430347,-0.8468600511550903,0.5314049124717712,0.1118390769840901,-0.0644697812665078,0.5233913011435979,0.0573327764868736,0.0175874046981334,-1.5755293369293213,0.2919170885905624,0.2041322552785277,-9.642731625437737,14960.0
31.1,2.5,317.0,22.91628456115723,22.55918312072754,-79.78278616909556,40.45901721202007,295.79870288085937,0.0117827737703919,-0.0154084302484989,-0.7513174414634705,0.6596558690071106,0.1375615204972156,-0.109600074842076,0.5963177652547688,0.1009312719106674,-0.0393491759896278,-1.4675917625427246,0.2140742943249643,0.2277815382555128,-10.032186008691786,14960.0
31.21,2.5,309.0,22.90126037597656,23.0203857421875,-79.78278637351158,40.45901711347365,295.8596350402832,0.012007794342935,-0.0128235267475247,-0.7019341588020325,0.7120252251625061,0.1563364142344754,-0.1373810586429126,0.6337217727654546,0.0666582733392715,-0.0010380067396908,-1.3700695037841797,0.3072825480625034,0.4526044584810734,-10.101565561294557,14960.0
31.4,2.5,302.0,23.02896881103516,20.10208511352539,-79.78278662112456,40.45901688429493,295.8861510009765,0.0109258973971009,-0.0078081637620925,-0.6252773404121399,0.7802870869636536,0.1851297893547494,-0.1828321179925321,0.6482003787169356,-0.0186385251581668,-0.1036060899496078,-0.6532011032104492,0.1295795613527298,0.3071352713182568,-10.058241201639175,14960.0
31.6,2.400000095367432,315.0,22.84616851806641,23.219179153442383,-79.7827868202788,40.45901667436152,295.95012347412114,0.0095258522778749,-0.0077025266364216,-0.6033364534378052,0.7973927855491638,0.214299103865538,-0.2039098470314242,0.6415108380211982,0.0402407571673393,0.1108804494142532,-0.326873242855072,0.144098289180547,0.3391039727255702,-9.778390536904336,14960.0
31.7,2.400000095367432,321.0,22.92254447937012,22.36833953857422,-79.7827871006278,40.459016396709366,295.92057292175286,-0.0587787926197052,-0.0058281128294765,-0.5831235647201538,0.8102333545684814,0.1940115718536483,-0.0733154889163,0.6421368775395793,-0.1234496980905532,-0.7098453044891357,0.0284616816788911,0.2219756002910435,0.5207766341418029,-10.39037942290306,14960.0
31.9,2.299999952316284,318.0,22.777305603027344,25.39796638488769,-79.78278745743995,40.4590162454029,295.88858287048333,-0.086375780403614,0.0144236795604228,-0.5818501114845276,0.8085677027702332,0.2038336187442124,-0.0135590038771618,0.6459793963283296,0.1468789875507354,-0.5493735671043396,-0.0856562331318855,0.0917190044559538,0.6431451167911292,-10.401602568626403,14960.0
32.0,2.200000047683716,310.0,22.79358291625977,25.14350891113281,-79.78278681806421,40.45901617126013,296.03601519775384,-0.0969108045101165,0.0550088211894035,-0.5896356105804443,0.7999451160430908,0.1404444692148443,0.2942428538266539,0.8840661576811835,0.1726167947053909,-0.2315937131643296,0.1202739849686622,-0.0158761566574685,0.1663891360536217,-10.81066325068474,14961.0
32.1,2.200000047683716,321.0,22.87997436523437,23.410022735595703,-79.78278660971056,40.45901629256661,296.0112864227295,-0.0952145606279373,0.0638421848416328,-0.595514714717865,0.7951230406761169,0.1196537619250214,0.4856458692938808,0.93690477181389,0.2141079902648925,-0.0537860170006752,0.2067242562770843,0.1268654665723443,0.0234028548141941,-10.551305322647096,14961.0
32.31,2.200000047683716,326.0,22.82863998413086,23.88712882995605,-79.78278495316452,40.45901677257084,296.0652605743408,-0.097631812095642,0.0667521208524704,-0.6049850583076477,0.7874041795730591,0.0703536011823345,0.9378561006003328,1.0381358097559397,-0.1097331717610359,0.0034251851029694,0.0218781642615795,0.0811935594677925,0.3334907918795943,-10.223437907695772,14961.0
32.5,2.299999952316284,329.0,22.910024642944336,22.272918701171875,-79.78278348420423,40.45901701720098,296.1453501434326,-0.1006894186139106,0.0647523328661918,-0.6078957319259644,0.7849404811859131,0.0723487722727402,1.1733302264504335,1.1128332712208375,-0.1054775044322014,-0.0185084417462348,0.0069622001610696,0.0307493833545595,0.2610752187296748,-10.236709917783738,14961.0
32.61,2.299999952316284,335.0,22.83615303039551,23.71219062805176,-79.78278043528262,40.4590180252803,296.1734587402344,-0.1036769300699234,0.0636651292443275,-0.6104974746704102,0.7826179265975952,0.0377134115035107,1.6141301136546442,1.147164635266894,0.0435579493641853,-0.0314786173403263,-0.0188983120024204,0.0512194575229659,0.4122337467223406,-9.917951295375824,14961.0
32.8,2.400000095367432,344.0,22.89249610900879,22.408098220825195,-79.78277819121689,40.45901845003387,296.2454535217285,-0.1050084978342056,0.0659422501921653,-0.6101887226104736,0.7824925780296326,0.0204511298683907,1.8540029916724428,1.185697194920574,-0.0707539245486259,-0.1336953938007354,-0.0331972651183605,0.030646230247803,0.3421976979821921,-9.852499902248384,14961.0
32.91,2.5,348.0,22.8712100982666,23.091951370239247,-79.78277370186689,40.45902002641801,296.2465502471924,-0.1170300990343094,0.0724013224244117,-0.6060890555381775,0.7834017276763916,-0.0207540219432914,2.2933602787077274,1.2102711503612291,0.0794796273112297,-0.1307225674390792,-0.0006825446034781,0.032607824918814,0.1440056108124554,-9.835052980184557,14961.0
33.11,2.700000047683716,358.0,22.73974418640137,25.66037368774414,-79.78277067910106,40.45902066757736,296.3032213897705,-0.1234234049916267,0.077003926038742,-0.6029921770095825,0.7843708992004395,-0.0284131546037262,2.535040994037262,1.288504781683617,-0.0519071221351623,-0.1208123192191124,0.0665898472070694,-0.2408455153740943,0.1623205885849893,-9.82754866361618,14961.0
33.2,2.799999952316284,359.0,22.813615798950195,24.141586303710927,-79.78276488558909,40.4590230139936,296.2670160980224,-0.1333136856555938,0.0841490402817726,-0.5968972444534302,0.7866767048835754,-0.0731439501847846,2.9983005201627853,1.4200494419536451,0.015087317675352,-0.1182829961180687,-0.1038409620523452,-0.1506301132868975,0.1185414891410619,-9.986811615228651,14961.0
33.4,3.0999999046325684,7.0,22.76854133605957,24.49941635131836,-79.78276201891394,40.45902495980389,296.1953608245849,-0.1386026740074157,0.0858217030763626,-0.5941277742385864,0.7876777648925781,-0.172652194096648,3.231873831657672,1.4492620786893662,-0.0797014012932777,-0.0607874877750873,0.0200980268418788,-0.3727231603860856,0.1715201408788562,-9.807929500937464,14961.0
33.5,3.299999952316284,11.0,22.6859073638916,26.75771903991699,-79.78275351374373,40.459027146876615,296.25898806762694,-0.1424006223678589,0.0888592824339866,-0.592121958732605,0.7881737351417542,-0.1269421007380305,3.7637709469323,1.6086450012472295,0.1870217621326446,0.0670571476221084,-0.0081500466912984,-0.275286437831819,0.1970529399253428,-9.885769389867784,14961.0
33.61,3.700000047683716,15.0,22.79608726501465,24.761823654174805,-79.78274965439509,40.45902959131809,296.20408503723144,-0.1391166597604751,0.0885585471987724,-0.5907341241836548,0.789833664894104,-0.2520017951035805,4.010398416410134,1.680802820330308,-0.0103593142703175,0.061269674450159,-0.0600447729229927,-0.5103885073587299,0.4219209750741721,-10.061686381101609,14961.0
33.8,3.900000095367432,18.0,22.88873863220215,21.501596450805664,-79.78273998608859,40.45903339725396,296.19924609375,-0.1316225379705429,0.083528034389019,-0.5890210270881653,0.792939305305481,-0.3182795327627429,4.525919868546058,1.7318193645067756,-0.0022229987662285,-0.0054956204257905,-0.0649117678403854,-0.561267031095922,0.3486718082427978,-9.925191317796708,14961.0
33.9,4.300000190734863,24.0,22.72096443176269,25.30254554748535,-79.78273448898318,40.45903495488213,296.21778170776366,-0.1309225559234619,0.0828834697604179,-0.5885463356971741,0.7934752106666565,-0.2814667800171165,4.784238463056662,1.7237832607345245,0.0279097314924001,0.0644330531358718,-0.0648883655667305,-0.6030744768306613,0.2382977738790214,-9.731511654853822,14961.0
34.11,4.5,26.0,22.747257232666016,24.18929672241211,-79.78272314415761,40.459039539708726,296.2093207092285,-0.1288735270500183,0.0795439705252647,-0.5864871144294739,0.7956741452217102,-0.372620906606932,5.233532694813922,1.7957784505706726,0.0075879371725022,0.0955375730991363,0.0375555716454982,-0.6295722674578429,0.2827643322944641,-9.73076028764248,14961.0
34.3,4.900000095367432,30.0,22.82363319396973,22.7977352142334,-79.782710781196,40.45904455153583,296.2055880279541,-0.1175837069749832,0.0717282146215438,-0.5852958559989929,0.7990356683731079,-0.4561166000707688,5.641378334621559,1.8364825433583127,-0.1261871755123138,0.2393371015787125,-0.0990748479962349,-0.7800990403443575,0.2449400281347334,-9.779144827723504,14961.0
34.41,5.099999904632568,34.0,22.84616851806641,22.105932235717773,-79.78270418052851,40.45904655851358,296.21651904296874,-0.1048900634050369,0.0610955581068992,-0.5860608220100403,0.8011230230331421,-0.4035903798903636,5.822441052111112,1.7790105289760656,0.0491778366267681,0.3753961622714996,-0.0143838850781321,-0.9761082340031862,0.1082661496661603,-9.979707248210907,14961.0
34.5,5.5,37.0,22.84616851806641,22.92496490478516,-79.78269741334331,40.45904860354285,296.2291743011474,-0.0911557674407959,0.0506298020482063,-0.58690345287323,0.8029145002365112,-0.4114268732462675,6.011409703672296,1.629293347311157,-0.1423878073692321,0.21406452357769,-0.019316803663969,-0.8939865752309561,0.3374884601309895,-9.905461642742155,14961.0
34.7,5.800000190734862,38.0,22.94132423400879,20.49967384338379,-79.78268372171429,40.45905443662213,296.23451487731927,-0.0746241211891174,0.0401863753795623,-0.5854873657226562,0.8062387108802795,-0.4840319582427116,6.301907421493424,1.2858441174792088,-0.1404340863227844,0.0695482566952705,-0.0936158746480941,-0.6750808545202017,0.4359325117617846,-9.631362884044648,14961.0
34.9,6.199999809265138,47.0,22.83489990234375,22.36833953857422,-79.78267677269761,40.45905806562652,296.2311903686524,-0.072675883769989,0.0375264436006546,-0.5832158923149109,0.8081888556480408,-0.5850308138858202,6.394636148714563,1.188294040016263,0.1370602995157241,0.0888058990240097,0.0012946390779688,-0.7635998788475991,0.1950437087193131,-9.524050104618071,14961.0
35.01,6.300000190734862,50.0,22.90376281738281,20.97677993774414,-79.78266253498387,40.45906274914716,296.24447314453124,-0.0695143640041351,0.0372061468660831,-0.5837910175323486,0.8080664873123169,-0.550146793185786,6.505592012389518,1.1204856783982529,-0.0027345607522875,0.0406075157225132,0.0542133972048759,-0.9175344090163708,0.4461828269809485,-9.6585308021307,14961.0
35.1,6.699999809265138,52.0,22.936317443847656,20.55533599853516,-79.7826551050222,40.45906696511659,296.2557665557861,-0.0674895346164703,0.0365469716489315,-0.581961452960968,0.8095866441726685,-0.6826848713503905,6.591465328453494,1.1191766068173674,0.0771693587303161,-0.0062202219851315,0.098495252430439,-0.99212207660079,-0.0546429429017007,-9.610966626405718,14961.0
35.31,6.9000000953674325,53.0,23.082807540893555,17.382577896118164,-79.78264007816516,40.45907362270464,296.270498916626,-0.0590110681951046,0.0309481751173734,-0.5814509391784668,0.8108482360839844,-0.7772751641643533,6.712693417696806,1.059246785572506,-0.0739862844347953,-0.021534401923418,0.0150288175791502,-1.2824271243810654,0.1104905584082007,-9.500781109929084,14961.0
35.4,7.099999904632568,55.0,22.87872314453125,21.294851303100582,-79.78263277589707,40.4590762388632,296.27444903564447,-0.0547986067831516,0.0232398118823766,-0.5817817449569702,0.8111639618873596,-0.7506996970960849,6.7356564605121925,0.9233310330356108,0.0247765928506851,0.1819944232702255,0.0718019157648086,-0.96102972663939,-0.2878617156296969,-9.579983984827996,14961.0
35.6,7.199999809265138,59.0,22.89124298095703,21.032442092895508,-79.78261745139945,40.4590820288099,296.2313162536621,-0.0489372871816158,0.0082539618015289,-0.5807105898857117,0.8125960826873779,-0.7954822590923021,6.770104856615957,0.6710208443724646,-0.1790968030691146,-0.0511146709322929,-0.0029311154503375,-1.5322758717834952,0.4585408076271415,-9.3886549025774,14961.0
35.8,7.5,61.0,22.87997436523437,20.96087646484375,-79.78261017742027,40.45908468049825,296.22418086242675,-0.0455668084323406,0.0054209358058869,-0.5802139639854431,0.8131704926490784,-0.7821173122532982,6.757966561985095,0.546236153229942,-0.0263998545706272,0.1373803168535232,-0.1974787265062332,-1.159506956934929,0.5365851663798094,-9.367941725850104,14961.0
35.91,7.599999904632567,61.0,22.887487411499023,21.207380294799805,-79.78259529786563,40.45909039077132,296.17602030944823,-0.0379886031150817,0.0040129958651959,-0.5800886750221252,0.8136571645736694,-0.8078540731225936,6.694299039345642,0.4290389682737603,0.1822907030582428,0.1522594988346099,0.049426220357418,-1.123970503807068,0.3324952303245664,-9.643761320114136,14961.0
36.01,7.699999809265138,65.0,22.94883728027344,19.99871063232422,-79.78258816775953,40.45909306522295,296.165295288086,-0.0349469147622585,0.0037345567252486,-0.580510139465332,0.8134942054748535,-0.8395183551905392,6.656497045976822,0.3624200350560127,-0.0591680333018302,-0.0092785414308309,-0.0664033442735672,-1.0787336660921574,0.4822450909763575,-9.637398964762689,14961.0
36.2,7.699999809265138,66.0,22.826135635375977,21.962799072265625,-79.78257340093322,40.459098481024775,296.1112086029052,-0.0249324757605791,0.0037179489154368,-0.5804092288017273,0.8139347434043884,-0.8558809318757089,6.5701227120453325,0.2840928775961947,-0.0400713123381137,0.1022669747471809,-0.0215110164135694,-1.1696178160607815,0.2108759039081633,-9.774116806983947,14961.0
36.3,7.800000190734862,66.0,22.91878890991211,20.14979553222656,-79.7825658981018,40.45910112207222,296.0762545318604,-0.0194017477333545,0.0019939655903726,-0.5798161029815674,0.8145139813423157,-0.8117788676379797,6.530494055879863,0.2386169909300766,0.0356050431728363,0.0915358215570449,0.057761151343584,-1.2309796665608883,0.0477243163436651,-9.912043268680574,14961.0
36.5,7.800000190734862,66.0,23.015195846557607,18.57534408569336,-79.78255214931595,40.45910628954771,296.06078211975085,-0.0087691508233547,-0.0022362205199897,-0.5803154706954956,0.8143415451049805,-0.7944580358878834,6.350053570535609,0.0684517741855262,0.1241707876324653,0.1749617457389831,0.1032008156180381,-1.1927224308997393,0.0770988822542131,-9.596905242204668,14961.0
36.7,7.699999809265138,70.0,22.95885467529297,19.21943664550781,-79.78254536079041,40.4591089652833,296.0091635437012,-0.0042877751402556,-0.0049274447374045,-0.580024778842926,0.8145726919174194,-0.8156990804611917,6.2556017049777175,-0.0291671103949884,-0.1994564533233642,0.0020353156141936,0.0124286320060491,-1.238441736996174,0.1744808054342866,-9.602657732963564,14961.0
36.8,7.699999809265138,70.0,22.91628456115723,20.35654067993164,-79.78253202262081,40.459113865997686,295.93935649108886,-0.0034303963184356,-0.0100121861323714,-0.5793530941009521,0.8150079846382141,-0.7429309205284486,6.069619862065292,-0.1169417004051441,0.0556431226432323,-0.0591721646487712,-0.0620715655386447,-0.9924895741045476,0.3771393430978061,-9.872992054224015,14960.0
37.0,7.5,69.0,22.9350643157959,20.300878524780277,-79.78252560047919,40.45911627084978,295.9288031311035,-0.0032235439866781,-0.0110152773559093,-0.5795617699623108,0.8148475289344788,-0.7277173371551514,5.969701992978887,-0.132431877185043,0.0621628649532795,-0.0027590603567659,0.0403940975666046,-0.9144122882187368,0.1564767168089747,-9.745524507164957,14960.0
37.1,7.5,68.0,22.883729934692383,21.14376640319824,-79.78251279889912,40.45912095998288,295.8658930511474,-0.0093495817855,-0.0205924604088068,-0.57865309715271,0.8152602910995483,-0.7183345373990198,5.818221951897634,-0.1799993367089062,-0.1780654340982437,-0.057050846517086,0.0443564020097255,-0.8506858967989683,0.2933654621802271,-9.67927029132843,14960.0
37.3,7.300000190734862,69.0,22.940073013305664,20.213409423828125,-79.78250665445194,40.45912327510444,295.84970538330083,-0.0120289288461208,-0.0255501996725797,-0.5781810879707336,0.8154197335243225,-0.7175217643402609,5.716075679916651,-0.1845038020903175,-0.018217833712697,0.0169403776526451,0.0884315222501754,-0.8036857581138611,0.0664204594865441,-9.766169271469115,14960.0
37.41,7.199999809265138,68.0,22.847421646118164,21.98665428161621,-79.78249458617944,40.45912760523811,295.7494055480957,-0.0163144301623106,-0.0268012788146734,-0.5765969157218933,0.816426157951355,-0.7096265009804624,5.547685730724412,-0.2589226560446196,0.05970473960042,-0.0592634305357933,-0.1116353496909141,-0.6816553907096387,0.5186094002053142,-9.525169261693955,14960.0
37.6,7.0,67.0,22.821128845214844,22.92496490478516,-79.78248873786616,40.45912986232855,295.72450129699706,-0.0190794076770544,-0.0192628651857376,-0.577681303024292,0.8158121705055237,-0.7290662868618061,5.479674174158643,-0.221967466045508,0.0912282168865204,-0.1248365640640258,0.039329919964075,-0.7058240526169539,0.2030584506690502,-9.79275246798992,14960.0
37.7,6.9000000953674325,66.0,22.81987571716309,23.147613525390625,-79.78247720930894,40.459134031955536,295.6678320617676,-0.0265129748731851,-0.0156201161444187,-0.5791638493537903,0.8146302700042725,-0.7202591251033233,5.35949622788499,-0.0591901786370642,0.0238067097961902,-0.0706276968121528,0.0137581788003444,-0.8502801000326873,0.3789520530402661,-10.005176550149915,14960.0
37.8,6.699999809265138,64.0,22.791078567504893,23.068096160888672,-79.78247156607891,40.45913603490968,295.61374728393554,-0.0308254919946193,-0.0157928746193647,-0.57962965965271,0.8141436576843262,-0.7224876059762618,5.3247087880282296,-0.0012784365448995,-0.0482626408338546,-0.0340191349387168,-0.1758949905633926,-0.5730621076002718,0.6646097338199616,-10.220040675401687,14960.0
38.01,6.599999904632568,62.0,22.761030197143555,24.181344985961918,-79.78246036641944,40.45914041410828,295.58703105163573,-0.0378273464739322,-0.0065633631311357,-0.5809733867645264,0.8130166530609131,-0.7767190731707742,5.245174636847544,0.183009751846206,0.0089221065863966,-0.0405176021158695,0.1410148292779922,-0.9640340991318226,0.2131681586243212,-10.124717026948929,14960.0
38.11,6.4000000953674325,62.0,22.79608726501465,22.956771850585927,-79.78245487151499,40.45914230490784,295.5431772918701,-0.0416971556842327,-0.0063424021936953,-0.5802310109138489,0.8133592009544373,-0.7688409904627008,5.211244414695003,0.2285538406473523,-0.0863370299339294,-0.1288732141256332,0.1208985596895218,-1.037999988421798,0.209391569942236,-10.048226090669631,14960.0
38.31,6.300000190734862,62.0,22.893747329711918,21.175573348999023,-79.78244420655614,40.459146533502064,295.4918734283446,-0.0506943874061107,0.0010795859852805,-0.5795971751213074,0.8133240938186646,-0.7957810963220648,5.17353230825081,0.3509399922320154,-0.0075186342000961,-0.1387505084276199,-0.1058020666241645,-0.7604160699248315,0.3279072125628591,-10.1962366604805,14960.0
38.5,6.199999809265138,59.0,22.84867286682129,21.978702545166016,-79.78243873760191,40.45914875356836,295.48744456481927,-0.0541722401976585,0.0050106439739465,-0.5800408720970154,0.8127686977386475,-0.8153096075071864,5.176347054643252,0.4506650630077933,0.1237766742706298,-0.1403718888759613,0.0372685864567756,-0.9395090494304896,0.3806321773678065,-9.998278005123137,14960.0
38.61,6.099999904632568,55.0,22.813615798950195,22.511472702026367,-79.78242800866698,40.45915295619158,295.4555021972656,-0.0496786758303642,0.0176442228257656,-0.5822521448135376,0.8112972974777222,-0.8279777409146714,5.185757351298961,0.5426948950010273,0.1910047233104705,0.0326624996960163,0.0457231067121028,-0.6216177883744239,0.3620932146906853,-10.163342564105989,14960.0
38.71,6.0,55.0,22.799842834472656,22.32858085632324,-79.78242249417617,40.4591551916481,295.45585314941405,-0.0475847087800502,0.0217326711863279,-0.580819845199585,0.8123495578765869,-0.8504109858525413,5.2103601277664415,0.5691179417809789,-0.0050342539325356,-0.0528520494699478,-0.112888716161251,-0.8314762584865094,0.2693225154094398,-10.012404878139495,14960.0
38.91,5.9000000953674325,55.0,22.89124298095703,20.97677993774414,-79.78241164821786,40.45915949627452,295.4355665893554,-0.0528009608387947,0.0146981347352266,-0.5746909976005554,0.816533088684082,-0.7927471553772257,5.238583210540886,0.610407060765133,-0.2169965356588364,-0.0007484736270271,-0.1399534046649933,-0.7531000337004662,0.3572555939108133,-10.129551504850388,14960.0
39.11,5.9000000953674325,54.0,22.90626716613769,20.01461410522461,-79.78240067947944,40.45916379977589,295.4126517028808,-0.0563061274588108,0.0112534128129482,-0.5724561810493469,0.8179222941398621,-0.7269673600089978,5.281212564066866,0.6365759406272664,-0.1293370276689529,-0.0861574634909629,-0.1341936886310577,-0.6821828826516867,0.3763425137847662,-10.094810857772828,14960.0
39.21,5.9000000953674325,54.0,22.932559967041016,20.35654067993164,-79.78239507229641,40.45916605636821,295.4176394195557,-0.0563513115048408,0.0129470517858862,-0.5722066164016724,0.8180688619613647,-0.703491558877959,5.304759091981594,0.6428075281407943,0.0887055099010467,-0.0194039940834045,0.0953242257237434,-0.6622356911748648,0.1361851791478693,-9.862151316404344,14960.0
39.3,5.9000000953674325,54.0,22.900007247924805,20.63485336303711,-79.78238979050312,40.45916817136528,295.40208308410644,-0.0564248636364936,0.0140047864988446,-0.5718289017677307,0.8183104395866394,-0.7057816522915296,5.283417327966784,0.6133889070594141,0.0781084522604942,0.0370579436421394,-0.0840442776679992,-0.7861626029759646,0.5283779413998128,-9.643388852477074,14960.0
39.5,6.0,54.0,22.867454528808597,20.91316604614257,-79.78237853907812,40.45917270468088,295.40195529174804,-0.0613998919725418,0.0165766179561615,-0.5709198713302612,0.8185388445854187,-0.7048493075319786,5.344674647363274,0.6283525555267419,-0.0238910801708698,-0.0765772014856338,-0.0202783588320016,-0.7850308012962341,0.2534427567757666,-9.759745520353318,14960.0
39.6,6.0,52.0,22.980138778686523,19.21943664550781,-79.782372963647,40.45917488430488,295.4143797607422,-0.0650312826037406,0.0174943245947361,-0.5703049898147583,0.8186679482460022,-0.6937159539184332,5.354656954208791,0.6738576158164475,0.0467472448945045,-0.0252262260764837,-0.076992891728878,-0.7846421807259322,0.3816127554327249,-9.667651873826983,14960.0
39.81,6.099999904632568,50.0,22.943828582763672,19.45003890991211,-79.78236160383372,40.45917944767953,295.4362951965332,-0.0634993538260459,0.0230033565312624,-0.5688686966896057,0.8196506500244141,-0.6981956939726408,5.425040386444215,0.7225733297585506,-0.0351331643760204,-0.0018266719998791,-0.1580009907484054,-0.854634009897709,0.5762065574526787,-9.451470955610276,14960.0
40.01,6.099999904632568,49.0,22.89499855041504,20.22136116027832,-79.78235583334863,40.45918176092026,295.43249003601073,-0.0594086498022079,0.027247941121459,-0.5686041116714478,0.8200108408927917,-0.6860246697343567,5.4687169219764415,0.6876599663043194,0.0321325547993183,-0.0302298478782176,0.1864554733037949,-0.8383987040072679,0.221340757124126,-9.48125024020672,14960.0
40.11,6.199999809265138,49.0,22.98264312744141,18.996788024902344,-79.78234412840182,40.4591863459546,295.46508853149413,-0.056465707719326,0.0292387288063764,-0.5691943764686584,0.8197405934333801,-0.6527018424160284,5.553356735766403,0.6850266174761496,-0.0261574853211641,-0.0965501070022583,-0.0078076277859508,-0.8110719609260559,0.3964897531270981,-9.60809622824192,14960.0
40.2,6.300000190734862,49.0,22.95885467529297,19.17172622680664,-79.7823381996968,40.459188663386406,295.4601122589111,-0.055691935122013,0.0269100572913885,-0.5699737071990967,0.8193316459655762,-0.6399377834026198,5.586657917904072,0.6484365451902478,-0.0322319716215133,-0.014964273199439,0.0339410006999969,-0.8364543586224318,0.2074522860534489,-9.45276319026947,14960.0
40.4,6.4000000953674325,50.0,22.93882179260254,19.99871063232422,-79.78232624586165,40.45919335177233,295.4864203186035,-0.0551663376390934,0.0197425931692123,-0.5715386271476746,0.8184806108474731,-0.6429192395291986,5.657121474421554,0.5931773093977479,0.0255014356225729,0.1282755881547928,-0.059979610145092,-0.6418832145631314,0.4314820132032037,-9.563527581095697,14960.0
40.5,6.4000000953674325,50.0,22.95885467529297,19.609073638916016,-79.78232020580003,40.45919568301413,295.4763647766113,-0.0566816329956054,0.0175556242465972,-0.5722648501396179,0.8179193139076233,-0.6590340297854055,5.692498878143464,0.5506819432501516,0.0101763503625988,0.122550830245018,-0.0868787318468093,-0.6208376236259937,0.53901702336967,-9.518839066028596,14960.0
40.7,6.4000000953674325,50.0,22.886234283447266,20.698467254638672,-79.7823078373909,40.459200335827305,295.49623362731927,-0.0579464994370937,0.0130824353545904,-0.572137176990509,0.8180038332939148,-0.6790316086831995,5.754851004506253,0.5392229044230172,-0.1219382286071777,-0.0601747073233127,-0.0346964672207832,-0.9482588960230351,0.3639357454329729,-9.42873815059662,14960.0
40.9,6.4000000953674325,52.0,22.87872314453125,21.14376640319824,-79.78229538807281,40.45920508077575,295.5087095947265,-0.0584615692496299,0.0071313208900392,-0.5710954070091248,0.8187682628631592,-0.6746301833429659,5.819069401053264,0.5705573755782057,0.0555317848920822,-0.0437028929591178,0.2465447038412094,-0.8399671465158463,0.2298674593493342,-9.758249802589416,14960.0
41.01,6.4000000953674325,53.0,22.83865737915039,20.69051551818848,-79.7822891916352,40.45920748737127,295.5005499572754,-0.0563367940485477,0.0074124839156866,-0.5711191892623901,0.81889808177948,-0.684427954093484,5.837121987654834,0.567478203008178,0.0721947476267814,0.1182512491941452,-0.0511294081807136,-0.7099860276281834,0.3783317730948329,-9.902582473754885,14960.0
41.1,6.300000190734862,54.0,22.87747001647949,20.849552154541016,-79.78228290268528,40.45920993562003,295.524779006958,-0.0524142012000083,0.0094207292422652,-0.5713350176811218,0.8189874291419983,-0.6914843972868494,5.854467556162916,0.5766872761881188,0.07441046833992,0.0731145143508911,-0.0071436688303947,-0.8387994575500489,0.3545401469618082,-9.756757008433343,14960.0
41.32,6.300000190734862,54.0,22.88498306274414,21.962799072265625,-79.7822702601122,40.45921479343587,295.5458666534424,-0.045545857399702,0.0119131505489349,-0.5712559223175049,0.8194208145141602,-0.6925655271763447,5.887690518562528,0.5616701908771804,0.1218249574303627,-0.116851270198822,0.28502157330513,-0.8729662004113198,-0.1258844865113496,-9.80227875173092,14960.0
41.5,6.300000190734862,54.0,22.90501594543457,19.96690368652344,-79.78226399819187,40.45921723903943,295.54544322204583,-0.0448349080979824,0.0113825239241123,-0.5711933374404907,0.8195111751556396,-0.7022666325088097,5.903735197034661,0.5478824156630615,0.0508047938346862,0.0471304655075073,-0.0373235456645488,-0.7143108475953341,0.3055564317293465,-9.893331009149552,14960.0
41.6,6.300000190734862,55.0,22.927553176879893,19.97485542297364,-79.78225773982453,40.45921969998172,295.5468680114746,-0.046962808817625,0.0060933693312108,-0.5711544156074524,0.8194755315780641,-0.7370865591118267,5.9052671167601165,0.5625703522792065,-0.3126807510852813,0.0679513439536094,-0.23065185546875,-0.8703902826458216,0.5176984770968557,-9.903847811222075,14960.0
41.7,6.300000190734862,56.0,22.90752029418945,20.26907157897949,-79.7822449115522,40.45922463780614,295.55561129760736,-0.0425249598920345,-4.955197800882161e-05,-0.5716322660446167,0.8194073438644409,-0.7267348736746769,5.918219856002834,0.5031596551499133,0.1888586282730102,-0.0400082655251026,0.1886278837919235,-0.8585115909576416,0.1481465723924339,-9.72470432639122,14960.0
41.91,6.300000190734862,56.0,22.89750289916992,20.77003288269043,-79.78223236670848,40.45922960876421,295.57212702941894,-0.0355747081339359,0.0078388852998614,-0.5714784860610962,0.8198081851005554,-0.7549046092322299,5.89539971882291,0.434300993659708,0.1205707713961601,0.0670168548822403,-0.0782848894596099,-0.8475558822602034,0.3364290542900562,-9.678848707079888,14960.0
42.0,6.199999809265138,59.0,22.89750289916992,20.603046417236328,-79.78222614755879,40.45923209447512,295.5722300262451,-0.0325150154531002,0.0117146857082843,-0.5714043974876404,0.8199406266212463,-0.7638562214458595,5.885089677077155,0.4172162647795605,0.0074439086019992,-0.0232097767293453,0.145317405462265,-0.8711725670099258,0.3382882130518556,-9.634021613001824,14960.0
42.21,6.199999809265138,58.0,22.87621879577637,21.87532997131348,-79.78221363221832,40.45923704726035,295.5843703002929,-0.0293971057981252,0.0159819554537534,-0.5711066722869873,0.8201937079429626,-0.7277773559197476,5.866552530269973,0.3904876590989971,0.0465910993516445,0.0919407531619072,0.002934091957286,-0.5062590209394694,0.0880671076476574,-9.793172298073769,14960.0
42.4,6.199999809265138,58.0,22.887487411499023,20.53943252563477,-79.7822072212978,40.4592395228199,295.5923430175781,-0.0273031238466501,0.0157923232764005,-0.5709803700447083,0.820357620716095,-0.7092590815307104,5.86355964737782,0.3713146154352184,0.1106948852539062,-0.0227620657533407,0.1210419684648513,-0.8446031845360995,-0.0244901491329074,-9.750931427478791,14960.0
42.5,6.199999809265138,58.0,22.95134162902832,18.980884552001957,-79.78219482986178,40.45924436952249,295.5873533935547,-0.0269864164292812,0.0151294162496924,-0.5706765055656433,0.8205919861793518,-0.6852361742621863,5.835800566376848,0.3282390803373606,-0.0631435289978981,-0.0205139350146055,-0.0567039847373962,-0.7573730327188969,0.3596342412382364,-9.715452277064324,14960.0
42.7,6.199999809265138,58.0,22.993911743164062,18.30498313903809,-79.78218225092749,40.45924908295185,295.5941626281738,-0.0308471377938985,0.0138567276298999,-0.5692245364189148,0.8214864730834961,-0.6331482391618963,5.8144688467252585,0.323870366905023,-0.0646745190024375,-0.1312495321035385,0.1239840611815452,-0.7910606693476439,0.189885879792273,-9.64791869044304,14960.0
42.8,6.199999809265138,59.0,22.90376281738281,20.00666236877441,-79.78217607364897,40.45925142719635,295.60261599731444,-0.0326964408159256,0.0136390998959541,-0.5686538815498352,0.8218136429786682,-0.6246644247097819,5.794182994225514,0.3098813397402031,-0.1415530145168304,-0.1244912520051002,-0.1030384302139282,-0.6740710403770209,0.2117590344697236,-9.544073894619943,14960.0
42.9,6.099999904632568,60.0,23.032724380493164,17.597274780273438,-79.78216992569376,40.4592537815235,295.59296672058105,-0.0366930849850177,0.0134010855108499,-0.5680011510848999,0.8221001625061035,-0.605619799334621,5.793834905361602,0.3009292972038264,-0.0964563339948654,-0.0031335807871073,-0.0335815213620662,-0.6157201404869557,0.1375444375164806,-9.632012509703635,14960.0
43.1,6.0,60.0,22.86620140075684,20.714370727539062,-79.78215751775213,40.45925843325456,295.57684962463384,-0.0416689179837703,0.013254776597023,-0.5675379037857056,0.8221854567527771,-0.5874169330788758,5.788288380141473,0.3126161563380337,-0.0451565906405448,0.0669644102454185,0.0832118839025497,-0.8178148238360882,0.2741767459362745,-9.541083628535269,14960.0
43.3,6.0,59.0,22.81862449645996,21.68448829650879,-79.78215137469914,40.45926078402614,295.5590502471924,-0.0419637002050876,0.0119595974683761,-0.5673468112945557,0.8223221898078918,-0.6106375215234121,5.793919369486095,0.3195565492069809,-0.198477029800415,-0.035122349858284,0.0199079792946577,-0.8428046540915967,0.1941907826811075,-9.65269528090954,14960.0
43.4,5.9000000953674325,59.0,22.96135711669922,19.076305389404297,-79.78213890676166,40.45926535466649,295.55012004089355,-0.0408110208809375,0.0104383314028382,-0.5680537819862366,0.8219127655029297,-0.5729232576358865,5.810423110835385,0.3685194207262907,0.0632989481091499,-0.0640147551894187,0.1444016247987747,-0.7252505495399237,0.1156604289449751,-10.001312710046768,14960.0
43.6,5.9000000953674325,59.0,22.74350166320801,23.163516998291016,-79.78213273231655,40.45926770444184,295.5381972045898,-0.0402524098753929,0.0110611310228705,-0.5691390037536621,0.8211809396743774,-0.5824090030274115,5.8164952829509495,0.3560092243916614,0.0753993839025497,0.0215867217630148,0.0649479106068611,-0.5519327187538148,0.0941460923105478,-9.827671455144884,14960.0
43.7,5.9000000953674325,59.0,22.90376281738281,19.903289794921875,-79.78212023046838,40.459272337501936,295.5265585632324,-0.0408168658614158,0.0120287425816059,-0.5709178447723389,0.8199037909507751,-0.6251728825995958,5.8371948689218245,0.4090425346772733,-0.1482636481523513,-0.0262618493288755,-0.1866582781076432,-0.5288952007144689,0.436852790415287,-10.090430123806,14960.0
43.9,5.800000190734862,59.0,22.837404251098643,21.09605598449707,-79.78211393571671,40.45927459294343,295.5241095275879,-0.0423103980720043,0.0119205359369516,-0.5713117122650146,0.8195552229881287,-0.6026189297525383,5.8351992609833845,0.4174419442674781,0.071378506720066,-0.132545456290245,0.2987931072711945,-0.7922141788154841,-0.1822705026715994,-9.95007472872734,14960.0
44.01,5.800000190734862,59.0,22.769794464111328,22.272918701171875,-79.7821014722317,40.459279300498416,295.51193682861333,-0.0426403954625129,0.013190315105021,-0.5712592005729675,0.8195552825927734,-0.6414650629176515,5.857207405662752,0.4849878544831661,-0.1507610231637954,0.0330918580293655,0.0344516187906265,-0.8211821622401476,0.3702918881177902,-9.964504487514496,14960.0
44.2,5.699999809265138,60.0,22.886234283447266,20.07027816772461,-79.78209498791298,40.45928178375309,295.5113550872802,-0.0412886217236518,0.0117716062813997,-0.5706320405006409,0.8200827836990356,-0.6419691206920278,5.880532059272883,0.5095996152088523,0.0171232242137193,-0.0146514158695936,0.0663423612713813,-0.7831116720288992,-0.0131278944946825,-10.075550129413603,14960.0
44.31,5.699999809265138,60.0,22.95635032653809,18.94907760620117,-79.78208240983321,40.45928648345837,295.5062414855957,-0.0430376343429088,0.0028745781164616,-0.568272590637207,0.8217091560363771,-0.6455606259898843,5.882157645181082,0.4951620602320148,-0.1722637265920639,-0.1230912208557128,-0.0024870543275028,-0.9215852869302036,0.130279875062406,-9.8732446539402,14960.0
44.4,5.699999809265138,59.0,22.900007247924805,19.593170166015625,-79.78207616239463,40.45928889867654,295.5077330322265,-0.0445648431777954,0.0003418001870159,-0.5673390030860901,0.8222776055335999,-0.6244650547154034,5.885317528460503,0.4718555409998939,0.1084658578038215,0.0017327689565718,0.1671080440282821,-0.6775263062864543,0.1204507969133556,-9.799110145568848,14960.0
44.61,5.699999809265138,59.0,22.887487411499023,20.61894989013672,-79.78206363432638,40.45929387018426,295.5112406463623,-0.0397331416606903,0.0085933692753314,-0.5667372345924377,0.8228951692581177,-0.6614775025977508,5.885031846877536,0.4349784795005711,0.0743986666202545,0.0008002149988897,-0.0236849933862686,-0.6247376433759928,0.2156625808216631,-9.639214525222776,14960.0
44.71,5.800000190734862,59.0,22.859941482543945,20.420154571533203,-79.78205741405235,40.459296319738456,295.5074431152344,-0.0365156792104244,0.012107590213418,-0.5663387775421143,0.8232742547988892,-0.6567197110929868,5.8808405449725125,0.4248607587102589,0.0380921624600887,0.1229165717959404,-0.2169227749109268,-0.5302095086127521,0.4862476197257638,-9.795504167675974,14960.0
44.9,5.9000000953674325,59.0,22.94883728027344,19.04449844360352,-79.78204478051913,40.45930120392036,295.51756159973144,-0.0398406572639942,0.0150366090238094,-0.5640866756439209,0.8246168494224548,-0.6260681468347639,5.883341693072633,0.430989362849424,-0.1343960016965866,-0.0449788123369216,-0.0165375154465436,-0.7326430381089449,0.130184528902173,-9.854380366802216,14960.0
45.1,6.0,57.0,22.87872314453125,20.046422958374023,-79.78203856753096,40.45930364105587,295.5139242858886,-0.0440222062170505,0.0134780267253518,-0.563003420829773,0.8251713514328003,-0.5967897982733967,5.871683252085594,0.4620797033482366,0.0124416220933198,-0.0124771548435091,0.1376810818910598,-0.7876609519869091,0.0785309567302465,-9.792000516057016,14960.0
45.2,6.099999904632568,57.0,22.82363319396973,21.350513458251957,-79.7820260939717,40.45930846319592,295.51421229553216,-0.0444668009877204,0.0123128658160567,-0.5619288682937622,0.8258976936340332,-0.5887314240694521,5.854177153702095,0.4740696797278871,-0.088421031832695,0.0352567657828331,-0.1762773394584655,-0.8553513901680708,0.3713200479000807,-9.707733367681504,14960.0
45.3,6.199999809265138,57.0,22.92129325866699,19.50570106506348,-79.78201977911648,40.4593108456755,295.5265738220215,-0.0444307513535022,0.0143905924633145,-0.5621707439422607,0.8257015347480774,-0.5523904046235959,5.852297092653703,0.4795618031629752,0.1301165223121643,0.1794091016054153,-0.1674497872591018,-0.7127961263805628,0.4110360176861286,-9.704492840766909,14960.0
45.51,6.199999809265138,58.0,22.791078567504893,21.74810218811035,-79.78200740009339,40.459315657612656,295.5140406341552,-0.0355964377522468,0.0229145362973213,-0.5642259120941162,0.8245344161987305,-0.5704629420339885,5.837904229082253,0.4617927144975972,-0.0539020039141178,0.0330552570521831,0.1289736628532409,-0.8383137001097203,0.2656621766835451,-9.734085599184038,14960.0
45.7,6.300000190734862,56.0,22.84867286682129,20.626901626586918,-79.78200101786655,40.45931801504877,295.53701274108886,-0.034504298120737,0.0254461895674467,-0.5652018189430237,0.8238378763198853,-0.5459193418915579,5.856239296438607,0.4547182595019771,0.0093113062903285,-0.0370415039360523,0.0464863963425159,-0.8035053715109826,-0.050423884447664,-9.74065026819706,14960.0
45.81,6.300000190734862,58.0,22.889991760253903,20.245216369628903,-79.78198842674418,40.45932277961288,295.5348746032715,-0.0437417551875114,0.0205957405269146,-0.566314697265625,0.8227697610855103,-0.5566807286030824,5.853413047954809,0.4997846529392077,-0.2032041251659393,-0.1044036522507667,0.1894291043281555,-1.063924057558179,0.0839463189616799,-9.714868724942209,14960.0
46.0,6.4000000953674325,58.0,22.74350166320801,22.82954216003418,-79.78198218078977,40.45932513146659,295.5302931518554,-0.0458914823830127,0.0177478678524494,-0.5665739178657532,0.8225405812263489,-0.5363351092318174,5.86200503032197,0.5249279553023029,-0.0042300261557102,-0.0476503558456897,0.0562704689800739,-0.9928923741728068,0.2117148879915476,-9.783333188295364,14960.0
46.11,6.5,58.0,22.81612014770508,19.839675903320312,-79.78196968447345,40.45932976578058,295.5268198699951,-0.0470735393464565,0.0163409821689128,-0.5665832161903381,0.8224965929985046,-0.5369268348489507,5.8509481385754345,0.5795318149549361,0.0225214306265115,0.0422861613333225,0.1131631061434745,-1.0533122382313014,0.3959291147813201,-9.96950385689735,14960.0
46.31,6.699999809265138,60.0,22.84366607666016,20.01461410522461,-79.78196343348189,40.4593321116912,295.52833239746093,-0.0463452972471714,0.0162162724882364,-0.5660877227783203,0.8228814601898193,-0.5440932336748495,5.855327780996031,0.5993647559640451,-0.0822660848498344,-0.095657892525196,0.038975317031145,-0.9537121555209158,0.0437478807941079,-9.886068767309188,14960.0
46.4,6.699999809265138,59.0,22.90251159667969,19.49774932861328,-79.78195098115053,40.45933681800947,295.5306841583252,-0.0494484156370162,0.0167553555220365,-0.5644076466560364,0.8238435983657837,-0.53882421778973,5.849723194772785,0.5993137701076167,-0.078193575143814,-0.0164643339812755,-0.2216651290655136,-0.8602031904459,0.6178305467963219,-9.746427317261697,14960.0
46.6,6.699999809265138,59.0,22.89750289916992,19.33076286315918,-79.78194473564588,40.459339172920615,295.53171603393554,-0.0495575591921806,0.0187734887003898,-0.5640365481376648,0.8240476250648499,-0.5196556035335362,5.855722186069228,0.6110062245564792,-0.0145463524386286,0.008030860684812,0.0567923560738563,-1.0022507697343828,0.2353847458586097,-9.690985187888144,14960.0
46.71,6.599999904632568,60.0,22.943828582763672,18.853656768798828,-79.781932182302,40.45934393822332,295.5361544342041,-0.0441562943160533,0.0199620276689529,-0.5621747374534607,0.8255975842475891,-0.5026263157739111,5.8733580837139785,0.5928853404120118,0.046344831585884,-0.0410200543701648,-0.0010245298035442,-0.9560512610524892,0.0032505219988524,-9.595243463516235,14960.0
46.8,6.699999809265138,60.0,22.925048828125,18.925222396850582,-79.78192592087639,40.45934630653221,295.533287689209,-0.0445539988577365,0.0182825792580842,-0.5615692138671875,0.8260271549224854,-0.4973337182029256,5.878236398941121,0.5196683916392579,0.0290338862687349,-0.1138366982340812,0.136409044265747,-0.9356601928174496,-0.0743420205730945,-9.2941849476099,14960.0
47.0,6.699999809265138,60.0,22.990154266357425,17.326915740966793,-79.78191341232703,40.45935095719832,295.5220762939453,-0.0450601615011692,0.0128047624602913,-0.5613742470741272,0.8262351751327515,-0.493983810450734,5.853453279069643,0.4995648861251433,-0.0483840964734554,-0.0782092735171318,0.0467753037810325,-1.0050869616866112,0.3580419713258743,-9.68494969189167,14960.0
47.11,6.800000190734862,60.0,22.990154266357425,17.772214889526367,-79.78190701921639,40.45935334632525,295.5349280090332,-0.0456600189208984,0.0142004713416099,-0.5621731877326965,0.8256359696388245,-0.5076833841050297,5.862222790490751,0.492668976863318,-0.1721914857625961,-0.0176816433668136,0.0468610078096389,-0.9481522574275733,0.3903121332451701,-9.687633563876153,14960.0
