time,wind_speed,wind_angle,battery_voltage,battery_current,position_x,position_y,position_z,orientation_x,orientation_y,orientation_z,orientation_w,velocity_x,velocity_y,velocity_z,angular_x,angular_y,angular_z,linear_acceleration_x,linear_acceleration_y,linear_acceleration_z,node_ids
0.0,0.6000000238418579,185.0,23.57110595703125,-0.0238553211092948,-79.78279614170353,40.45902055765418,270.07767140293123,-0.0094937607645988,0.0250666290521621,-0.9992333054542542,0.0285368300974369,0.0056325570682038,-0.0259886833890139,-0.0044198033355753,0.0041468776762485,0.0045849401503801,0.0054161036387085,-0.5305662253126502,0.161301528532058,-9.796431536078453,14935.0
0.19,0.6000000238418579,182.0,23.569854736328125,-0.0159035474061965,-79.78279610133126,40.45902057522315,270.068626159668,-0.0095084160566329,0.0251070484519004,-0.9992287755012512,0.0286569111049175,0.0006899903759399,-0.0241299613239892,-0.0032677914011963,-0.0034275045618414,0.0020431636366993,-0.0075986692681908,-0.5328359682485462,0.1612750698812306,-9.795828688144685,14935.0
0.29,0.6000000238418579,182.0,23.57110595703125,-0.0079517737030982,-79.78279610398178,40.45902059837801,270.06842803382875,-0.009517460130155,0.0251091811805963,-0.9992272257804872,0.028705408796668,0.0010004897783511,-0.0273508054493212,-0.0034413324393109,0.0026787533424794,0.0056792865507304,0.0052643995732069,-0.5307297646254301,0.157910728175193,-9.796843180060389,14935.0
0.49,0.6000000238418579,177.0,23.56860160827637,-0.0238553211092948,-79.78279610620206,40.45902062353394,270.0682324113846,-0.0095246545970439,0.0251197814941406,-0.9992255568504332,0.0287521742284297,-0.0003991964138378,-0.0302927233098485,-0.0034044353567756,-0.0049425684846937,-0.0009114752174355,-0.0002559607673902,-0.5326478706300259,0.1616456189006567,-9.796400545835496,14935.0
0.59,0.6000000238418579,176.0,23.559837341308597,-0.0238553211092948,-79.7827960895037,40.45902061778997,270.0592322292328,-0.0095081003382802,0.0251713935285806,-0.9992218613624572,0.0288391783833503,0.0033211541725427,-0.0233557287012136,-0.0028258404882725,0.0063821650110185,0.0006353792268782,0.0098682679235935,-0.5306230529397726,0.1588708409853279,-9.796511058211328,14935.0
0.79,0.6000000238418579,174.0,23.56860160827637,-0.0159035474061965,-79.78279605728677,40.45902063778353,270.05044018650057,-0.0094971219077706,0.0251861736178398,-0.9992194771766664,0.0289146471768617,0.0027687961236235,-0.0239362851212306,-0.0025972301245667,-0.0029079774394631,-0.0024942466989159,-0.0079987132921814,-0.5325848303362728,0.1584554876759648,-9.796021061539651,14935.0
0.89,0.6000000238418579,173.0,23.57110595703125,-0.0079517737030982,-79.78279606280876,40.459020659497966,270.0503121557236,-0.0095002073794603,0.0252000037580728,-0.9992175102233888,0.0289673842489719,0.0031196263348511,-0.0268245624564519,-0.0027755190130792,0.0077562732622027,0.00202072924003,0.0061224377714097,-0.5286992824450135,0.1602586410753429,-9.797250730991363,14935.0
1.09,0.699999988079071,169.0,23.569854736328125,-0.0159035474061965,-79.78279601516384,40.45902067705836,270.0418820323944,-0.0094875143840909,0.025235092267394,-0.9992138743400574,0.0290666222572326,-0.00013306742989,-0.024063755889973,-0.0023222781047836,-0.0009827570756897,-0.0006868774653412,-0.0096870269626379,-0.5334197761863471,0.156817719116807,-9.797174132466315,14935.0
1.19,0.6000000238418579,167.0,23.569854736328125,0.0,-79.78279598074351,40.45902067193222,270.0336338224411,-0.0094851460307836,0.0252693723887205,-0.999211847782135,0.0291082672774791,0.0032549553685428,-0.019222890477324,-0.0022250454968095,0.0055464301258325,0.0057596052065491,0.0079228719696402,-0.5301880566403271,0.1605822661891579,-9.79865113914013,14935.0
1.29,0.6000000238418579,164.0,23.56609916687012,0.0,-79.78279598487711,40.45902069041154,270.03353201770784,-0.0094872107729315,0.0252513028681278,-0.9992107152938844,0.0291621163487434,0.0017045082249493,-0.0220458468783368,-0.0021012574924625,-0.0027411000337451,-0.0034252956975251,-0.0025891370605677,-0.5333718290179968,0.1579524992220103,-9.7973594892025,14935.0
1.49,0.6000000238418579,165.0,23.57235908508301,-0.0079517737030982,-79.78279595893692,40.45902070194241,270.02541696453096,-0.0094644585624337,0.0252687111496925,-0.9992071986198424,0.0292731579393148,0.0042076068583237,-0.0192839043478283,-0.0022092270070477,0.0071594337932765,0.004261233843863,0.0024554461706429,-0.5309233440086246,0.1583597760647535,-9.797891001105311,14935.0
1.69,0.6000000238418579,158.0,23.57486343383789,-0.0079517737030982,-79.78279593240833,40.459020721924695,270.0178344192505,-0.0094390986487269,0.0252984426915645,-0.9992037415504456,0.0293723717331886,0.0037284155370436,-0.0190289578929086,-0.002141382204551,3.204446693416685e-05,0.0012920765439048,-0.0057816030457615,-0.5321200497820974,0.1608128292113542,-9.796343827843666,14935.0
1.79,0.6000000238418579,152.0,23.57235908508301,-0.0079517737030982,-79.78279593828242,40.45902074015067,270.01772891902925,-0.0094555839896202,0.0252882167696952,-0.9992021322250366,0.0294336341321468,0.0041359794641666,-0.0219126394531755,-0.0022788431978839,0.0058217365294694,0.0013724029995501,0.0078554321080446,-0.5299012872576714,0.1590618987567723,-9.797178225517271,14935.0
1.99,0.6000000238418579,146.0,23.569854736328125,-0.0238553211092948,-79.7827959437498,40.45902075977735,270.0176247301102,-0.0094420854002237,0.0253101903945207,-0.9991998672485352,0.0294953845441341,0.0027850932749075,-0.0243456719088348,-0.0022477186483123,-0.001664076349698,-0.0020499820820987,-0.0009165582014247,-0.5314204669743776,0.1609503666870296,-9.796432705521584,14935.0
2.09,0.6000000238418579,142.0,23.56860160827637,-0.0079517737030982,-79.78279589741088,40.4590207743541,270.010015958786,-0.00943717174232,0.0253092143684625,-0.9991971254348756,0.0295903179794549,0.0008654632869476,-0.0216566076039516,-0.002207614971399,0.0085399532690644,0.0044010574929416,0.0066833347082138,-0.5301708438992501,0.1579240671359002,-9.796832070350648,14935.0
2.29,0.6000000238418579,129.0,23.57361030578613,-0.0079517737030982,-79.78279588115352,40.45902077414798,270.0026556196213,-0.0093896714970469,0.0253528505563736,-0.9991928935050964,0.0297096315771341,0.0037533788877501,-0.0168894608885323,-0.0018278009435343,0.001743086031638,0.0019767398480325,-0.0054725157096982,-0.5332294127717614,0.1614290891960263,-9.796097075343134,14935.0
2.39,0.699999988079071,123.0,23.57235908508301,-0.0079517737030982,-79.78279588711561,40.459020789601816,270.00257515335085,-0.0093875667080283,0.0253756549209356,-0.9991909265518188,0.0297561511397361,0.0042022955207714,-0.019476202759066,-0.0018608732046066,0.0043156938627362,-0.0001319131552008,0.0054255123250186,-0.5278699279949071,0.1585136857442557,-9.798339482545847,14935.0
2.59,0.6000000238418579,124.0,23.569854736328125,-0.0159035474061965,-79.78279583345221,40.45902082435168,269.9955129566193,-0.0093866428360342,0.0253786835819482,-0.9991871118545532,0.0298829842358827,0.0004873881744788,-0.0215659649656655,-0.0017713102118239,0.0020155769307166,0.0028212328907102,-0.0067249671556055,-0.531995906084776,0.1621144925057888,-9.797332592010498,14934.0
2.7,0.6000000238418579,117.0,23.56735038757324,0.0,-79.78279579960528,40.45902084255431,269.98854159736635,-0.0093809571117162,0.0254063997417688,-0.9991851449012756,0.029927248135209,0.0025737952999752,-0.019815262914536,-0.0017916866232773,0.006539758760482,0.0006467241328209,0.004416087642312,-0.5300207897275686,0.1576919874921441,-9.797898602485658,14934.0
2.89,0.5,118.0,23.57361030578613,0.0079517737030982,-79.78279580339384,40.459020861526135,269.9884750785828,-0.0093720406293869,0.0253885127604007,-0.9991843104362488,0.0299740526825189,0.0012126438598959,-0.02236321388424,-0.0017541311876764,-0.0046091550029814,-0.000450622261269,-0.0066629708744585,-0.5310958003252745,0.1681986483000219,-9.796183029413225,14934.0
2.99,0.5,117.0,23.569854736328125,-0.0079517737030982,-79.78279579386665,40.45902090654008,269.9797518196106,-0.0093680778518319,0.025397690013051,-0.9991814494132996,0.0300622172653675,0.0070570142948092,-0.0235644959422124,-0.0055330490237291,0.0017674958799034,-0.0038827848620712,0.0048322100192308,-0.5316166776046157,0.1567126885056495,-9.795942124128342,14934.0
3.19,0.5,116.0,23.57235908508301,0.0,-79.78279577749738,40.45902095410421,269.97066699886324,-0.0093568032607436,0.0254292879253625,-0.9991775751113892,0.0301671773195266,0.0074666083801718,-0.0236823491087067,-0.0080308826616088,0.0059065418317914,0.0055714710615575,0.0067701069638133,-0.5327895559743047,0.1776681592315435,-9.794285023212431,14934.0
3.29,0.5,112.0,23.57110595703125,0.0,-79.78279578734045,40.459020976434594,269.9700115861893,-0.0093564419075846,0.0254375711083412,-0.9991757273674012,0.0302225276827812,0.006275191111349,-0.0260906084574151,-0.0078974317611698,-0.0053388886153697,-0.0037432967219501,-0.0015589602990075,-0.5324321814626456,0.1607216674648225,-9.797286399006843,14934.0
3.49,0.4000000059604645,109.0,23.57235908508301,-0.0079517737030982,-79.78279579737395,40.4590210003114,269.9693658294678,-0.0093339011073112,0.0254320986568927,-0.9991747736930848,0.0302649512887001,0.0062805599110046,-0.0287330538328088,-0.0080477517671441,-0.0002553280210122,0.0020219511352479,-0.0060713156126439,-0.5319275302067399,0.1760172344371676,-9.795393070578577,14934.0
3.59,0.4000000059604645,111.0,23.569854736328125,0.0,-79.78279578527075,40.45902097333824,269.9622484388352,-0.0093466853722929,0.0254688076674938,-0.9991710782051086,0.0303509254008531,0.007407107045145,-0.0150979287937459,-0.0045045524235742,-0.006608385592699,-0.0025136629119515,-0.0051414906047284,-0.5318981114029885,0.1662945025227964,-9.796266059875489,14934.0
3.79,0.4000000059604645,110.0,23.57235908508301,-0.0079517737030982,-79.78279577164298,40.45902101194076,269.95349919223787,-0.0093621108680963,0.0254891756922006,-0.999167501926422,0.0304465871304273,0.0079015363446046,-0.0170162799573801,-0.0063090445172232,0.001258521922864,0.0013707287143915,0.0059650833718478,-0.5296646942943335,0.173642095439136,-9.796614553928377,14934.0
3.89,0.3000000119209289,109.0,23.57235908508301,0.0,-79.78279578166962,40.45902102736212,269.952974313736,-0.0093704964965581,0.025488881394267,-0.9991658926010132,0.0304984450340271,0.0066627615519542,-0.0192793842024256,-0.0062557233779698,-0.0045948401093482,-0.0005959948757663,-0.0077068884856998,-0.5324864874780179,0.1727882009558379,-9.795811731219294,14934.0
4.09,0.3000000119209289,102.0,23.56609916687012,0.0,-79.78279574794709,40.45902108151161,269.9438930692673,-0.0093859853222966,0.0254882499575614,-0.9991624355316162,0.0306047722697258,0.0040072828276129,-0.021968439624484,-0.0081313912144061,-0.0009003647719509,-0.0010192863410338,0.0022539659403264,-0.5297227279096842,0.1703456545248627,-9.797232604622842,14934.0
4.19,0.3000000119209289,93.0,23.57736778259277,0.0318070948123931,-79.78279572938058,40.45902111382051,269.9377385320664,-0.0093657607212662,0.0255010072141885,-0.9991613030433656,0.0306375380605459,0.004800683169623,-0.0201853213219394,-0.0058075461643573,-0.0076668388210237,0.0022125814575701,-0.0109425485134124,-0.5329138093069196,0.1774552474915981,-9.794639364480972,14934.0
4.29,0.3000000119209289,84.0,23.57235908508301,-0.0079517737030982,-79.78279573710599,40.45902113304193,269.9372705163956,-0.0093679595738649,0.0254876650869846,-0.9991599321365356,0.0306940786540508,0.0055186005070849,-0.0227080149108096,-0.0059711572101216,0.0093531087040901,0.0018526890780776,0.0068867052905261,-0.5299072806537152,0.1595549652166664,-9.798086882829669,14934.0
4.49,0.5,76.0,23.57235908508301,-0.0079517737030982,-79.78279569158119,40.459021162011325,269.93078612709047,-0.0093523636460304,0.025548368692398,-0.999155580997467,0.0307895988225936,0.0012265416694848,-0.0166163715465352,-0.0038107499288336,0.0008717188611626,0.0035715936683118,-0.0086408276110887,-0.5306146110221743,0.1765341648459434,-9.795706481337549,14934.0
4.69,0.6000000238418579,73.0,23.56735038757324,0.0159035474061965,-79.78279567110344,40.4590212030701,269.9244925918579,-0.0093311928212642,0.0255571212619543,-0.9991527199745178,0.0308814328163862,0.0026861495056692,-0.0162081633905222,-0.0031420448691609,-0.0059676561504602,-0.0008231021929532,-0.0045927963219583,-0.5300032115355134,0.1571210251562297,-9.79741620719433,14934.0
4.79,0.699999988079071,75.0,23.56109046936035,0.1113248318433761,-79.7827956761532,40.45902121872066,269.9242663326264,-0.0093237133696675,0.0255461856722831,-0.9991514682769777,0.0309335626661777,0.0031769867115226,-0.018710960055346,-0.0032811409811465,0.0035022548399865,0.0009527294314466,0.0008682151092216,-0.5304962779954077,0.1718112408556044,-9.79649702489376,14934.0
4.99,1.0,82.0,23.57110595703125,0.0,-79.78279568111233,40.45902123563746,269.92405533218385,-0.0093303304165601,0.0255629271268844,-0.9991496205329896,0.0309766009449958,0.0031872588027845,-0.0208251785813131,-0.0031403405961317,0.0053793028928339,-0.0008738725446164,0.0046426872722804,-0.5294707494601607,0.1544221148639917,-9.798528932332992,14934.0
5.09,1.0,79.0,23.56735038757324,0.0954212844371795,-79.78279564513441,40.45902129274454,269.9185112657547,-0.0093237059190869,0.0255493484437465,-0.9991463422775269,0.0310979261994361,0.0013896852815336,-0.0223026565498325,-0.002594609468076,0.0065697329118847,0.0028094006702303,0.0010190156754106,-0.5293413067236543,0.1639534418284893,-9.797294000387192,14934.0
5.29,1.100000023841858,74.0,23.55858612060547,0.1510837078094482,-79.78279560045499,40.459021327987145,269.9131660404205,-0.0093369269743561,0.0255546066910028,-0.9991419911384584,0.0312266945838928,-0.000317775005725,-0.0174469811675108,-0.0016432796129264,-0.0034225517883896,0.0007848147652111,-0.0092318877577781,-0.5310428464785218,0.1588186911307275,-9.799059859514236,14934.0
5.39,1.2000000476837158,73.0,23.56609916687012,0.0954212844371795,-79.78279560207055,40.45902134415328,269.9130967798233,-0.0093411309644579,0.0255538150668144,-0.9991402626037598,0.0312820822000503,0.0005672348995598,-0.0196874692914222,-0.0017647729017245,0.0085062701255083,-0.0013831373071298,0.0057806717231869,-0.5284317723289133,0.1584261785075068,-9.797424978017808,14934.0
5.59,1.2999999523162842,61.0,23.55858612060547,0.2226496636867523,-79.78279562198085,40.459021376371744,269.9079987945557,-0.0093132983893156,0.0255661346018314,-0.999137282371521,0.0313761308789253,0.0084550306835593,-0.0171871255634335,-0.0016376855782169,0.0023687463253736,0.000415525806602,-0.0018151346594095,-0.5327746821194888,0.1643293081596493,-9.796460772156715,14934.0
5.69,1.399999976158142,53.0,23.56234169006348,0.0715659633278846,-79.78279557735168,40.45902140606685,269.90513896369936,-0.0093263927847147,0.0255944058299064,-0.999134361743927,0.0314399413764476,0.0057685598420286,-0.0144686605177215,0.001589000920559,0.0011722247581928,0.0004161304386798,0.001210777554661,-0.5288557685539127,0.1551710335537791,-9.797413283586502,14934.0
5.79,1.5,44.0,23.56234169006348,0.0795177370309829,-79.7827955847937,40.45902141969004,269.9053859653473,-0.0093376152217388,0.0255720969289541,-0.9991335272789,0.0314830392599105,0.0047159952145435,-0.0166530927667786,0.0015699516193946,-0.0073263468220829,-0.000785251148045,-0.0086876116693019,-0.5330489530786873,0.1764568171463907,-9.79426455795765,14934.0
5.99,1.5,36.0,23.559837341308597,0.0477106422185897,-79.78279552064828,40.4590214782209,269.90141188526155,-0.0093855652958154,0.0255693607032299,-0.9991295337677002,0.0315967835485935,-0.0024249517983821,-0.0178246163340676,0.0005714818523872,-0.001953539205715,-0.0014249683590605,-0.0038946294225752,-0.5307940474525095,0.1599589530006051,-9.797058942317962,14934.0
6.19,1.2999999523162842,32.0,23.56484603881836,0.055662415921688,-79.78279549540166,40.45902153286367,269.89944171333315,-0.0093425037339329,0.0255619473755359,-0.999126672744751,0.0317052230238914,0.0028366688145447,-0.0189898853643593,0.0037342717352643,0.0069612204097211,0.0038300100713968,0.0055749625898897,-0.5304617063328624,0.1765620122104883,-9.796463695764542,14934.0
6.29,1.399999976158142,29.0,23.56234169006348,0.0715659633278846,-79.78279549947605,40.4590215506699,269.8999270143509,-0.0093296440318226,0.0255737137049436,-0.9991254210472108,0.0317390114068985,0.0016361948282291,-0.0212438422470962,0.0038334863074166,-0.0044056442566215,-0.0008365752291865,-0.0064729894511401,-0.5317849677801132,0.1689196465350687,-9.79623156130314,14934.0
6.49,1.600000023841858,29.0,23.56234169006348,0.0636141896247863,-79.78279550382119,40.459021570017455,269.90041851425167,-0.0093215843662619,0.025573655962944,-0.999123990535736,0.0317859761416912,0.0022966740113772,-0.023570312386189,0.0036575287107942,0.0040572155267,0.0036519323475658,0.002383260987699,-0.529949380606413,0.1703894720971584,-9.796994622945784,14934.0
6.59,1.600000023841858,26.0,23.56234169006348,0.0636141896247863,-79.78279545332809,40.459021624290926,269.89649152183534,-0.0093270847573876,0.0255880709737539,-0.9991204142570496,0.0318869203329086,-0.0003545460344835,-0.0226338994427978,0.0014896740571895,-0.0079693226143717,0.0004841455665882,-0.0070022749714553,-0.5329762648791075,0.1711547995358705,-9.7958082228899,14934.0
6.79,1.7000000476837158,25.0,23.559837341308597,0.0397588685154914,-79.78279544695211,40.45902167799812,269.8934007825852,-0.0092974752187728,0.0256047286093235,-0.9991171360015868,0.0319848358631134,0.0055980462731557,-0.0211338127032982,0.0007713311458143,-0.0009645565878599,-0.0039084423333406,0.0017851729644462,-0.5279942178726197,0.1649300912953913,-9.797515025138855,14934.0
6.89,1.7000000476837158,22.0,23.563594818115234,0.0795177370309829,-79.78279545508613,40.45902169706172,269.893599981308,-0.0092866057530045,0.0256046541035175,-0.9991156458854676,0.0320326127111911,0.0050503363617441,-0.0233634215589763,0.000807883739861,-0.0027191299013793,-7.177502266131341e-05,-0.0107728214934468,-0.5334605605155229,0.1750187127292156,-9.795435170531272,14934.0
7.09,1.7999999523162842,19.0,23.56234169006348,0.055662415921688,-79.78279541147715,40.45902174176394,269.8907172622681,-0.0092870481312274,0.0256118588149547,-0.9991124272346495,0.032128382474184,0.0031028531635238,-0.0205629355799096,0.0001483843036387,-0.0046156924217939,-0.0019336981931701,-0.0032085585407912,-0.5310326869413257,0.1616941690631211,-9.797072390913964,14934.0
7.19,1.7999999523162842,18.0,23.56735038757324,0.0954212844371795,-79.78279535646206,40.45902178040981,269.8881081285477,-0.0092932656407356,0.0256085898727178,-0.9991109371185304,0.032174028456211,0.0007122120438316,-0.0190466868197009,-0.0003964266532729,-0.0029935394413769,0.0018938940484076,-0.0088403057307004,-0.5321830535307527,0.1777446663938462,-9.795728700757028,14934.0
7.39,1.7000000476837158,18.0,23.569854736328125,0.0874695107340812,-79.78279535911255,40.45902179842631,269.8881721439362,-0.0093051977455616,0.0256140492856502,-0.9991088509559632,0.0322320982813835,0.0014764963125592,-0.0212667702230108,-0.0005053055764367,0.0083050774410367,0.0017162588192149,0.0041488530114293,-0.5302637049928308,0.1576209986396134,-9.797967014908789,14934.0
7.49,1.7999999523162842,18.0,23.56484603881836,0.0715659633278846,-79.782795332477,40.45902183125655,269.886261338234,-0.009298188611865,0.0256441719830036,-0.9991050958633424,0.0323256962001323,0.0041774189317046,-0.0163602704333477,-0.0004342020532722,0.001887789927423,0.003974906168878,-0.0013709190534427,-0.53239004496485,0.1747791230678558,-9.79673325240612,14934.0
7.59,1.7999999523162842,20.0,23.56234169006348,0.1033730581402778,-79.78279529868206,40.4590218823364,269.88526451015474,-0.0093125263229012,0.0256605874747037,-0.9991006851196288,0.0324446149170398,0.004456751248378,-0.0184830894114965,-0.0003900908988093,-0.0054006441496312,0.0027698003686964,-0.0060427035205066,-0.5300644245743752,0.1566524987295269,-9.799430572986603,14934.0
7.79,1.8999999761581416,21.0,23.56609916687012,0.0954212844371795,-79.7827953060867,40.45902189966905,269.8853243532181,-0.0093082366511225,0.0256634354591369,-0.9990993142127992,0.0324863716959953,0.005181113354724,-0.020692984689662,-0.0005570257876681,0.0062937685288488,0.0027083719614893,-0.0002928272006101,-0.5288768916204571,0.1708971200510859,-9.796702846884726,14934.0
7.99,1.7000000476837158,22.0,23.57235908508301,0.0,-79.78279531347198,40.45902191819092,269.8853942098618,-0.0093085952103137,0.0256731733679771,-0.9990978837013244,0.0325243063271045,0.0052279784968355,-0.0225736186155316,-0.0005416805168786,0.0055462657473981,-0.002060234081,0.0038099749945104,-0.5295699328556657,0.1575778571516275,-9.797770548462868,14934.0
8.09,1.399999976158142,24.0,23.56860160827637,0.0,-79.78279525645588,40.45902194848736,269.88714455986025,-0.0093180239200592,0.0256648119539022,-0.9990954399108888,0.0326004959642887,0.0028537910344162,-0.0186502377304512,0.0034185726235986,0.0034429393708705,0.0022821698803454,0.0023015029728412,-0.5308049378916622,0.1661594135686755,-9.796839087009433,14934.0
8.29,1.2999999523162842,25.0,23.569854736328125,0.0,-79.78279519693893,40.459021998249824,269.88733982467653,-0.0092994682490825,0.0256579909473657,-0.9990922212600708,0.032711211591959,0.0001269958442896,-0.0192653507443936,0.0017255384172123,-0.0018991745309904,-0.0015672042500227,-0.0121130440384149,-0.529478533565998,0.1581794990971684,-9.797315635085106,14934.0
8.39,1.2999999523162842,24.0,23.56735038757324,0.0079517737030982,-79.78279519942079,40.45902201585917,269.887611741066,-0.009268756955862,0.0256703160703182,-0.9990905523300172,0.0327607654035091,0.0011569129729145,-0.0213912322308488,0.0016740663025441,0.0064958087168633,0.0011570662027224,0.0052496176213026,-0.5314242676645518,0.160475865136832,-9.799072723388672,14934.0
8.59,1.399999976158142,26.0,23.569854736328125,-0.0159035474061965,-79.78279517111079,40.459022036865626,269.8881903829575,-0.0092640304937958,0.0256922058761119,-0.9990869164466858,0.0328549109399318,0.0045150430665865,-0.0164655060963706,0.0006490533837335,-0.0037953094579279,0.0017828221898525,-0.0087998481467366,-0.5319363741204143,0.1588812015205621,-9.796457263827325,14934.0
8.69,1.399999976158142,26.0,23.57110595703125,0.0,-79.78279511367711,40.45902206857912,269.8894482793808,-0.0092690261080861,0.0257008634507656,-0.9990848898887634,0.0329103283584117,0.0036860097956513,-0.0171095675656939,0.0002799835520382,0.0077424338087439,0.0025452631525695,0.004979882389307,-0.5295241783931852,0.1570418684743345,-9.797821419239042,14934.0
8.79,1.399999976158142,26.0,23.54982185363769,-0.1113248318433761,-79.78279511874621,40.45902208452128,269.8895760717392,-0.0092681348323822,0.0256920289248228,-0.9990832209587096,0.0329671911895275,0.00267048673879,-0.0188996075351511,0.0002896444552032,-0.0054838638752698,-0.0027528207283467,-0.0087449802085757,-0.5317429774627089,0.1638832204230129,-9.795918735265731,14934.0
8.99,1.399999976158142,27.0,23.56234169006348,-0.0079517737030982,-79.78279507896232,40.45902213274404,269.891553396225,-0.0092679001390934,0.0256966575980186,-0.9990792870521544,0.0330825559794902,0.0057864755566869,-0.0195816129470404,-0.0002776864874635,0.0033169984817504,0.0021211607381701,0.0052777626551687,-0.5301245047152042,0.157398512084037,-9.797094025611877,14934.0
9.19,1.399999976158142,28.0,23.57235908508301,0.0,-79.7827950383645,40.45902215807294,269.89384459877016,-0.0092899268493056,0.0257159676402807,-0.999076008796692,0.0331599712371826,0.007398308713265,-0.0133635284016549,-0.0003315388367992,0.0054300599731504,0.0004818714805878,0.0050442996434867,-0.5325847572460771,0.1681920153647661,-9.795643916130066,14934.0
9.29,1.5,28.0,23.569854736328125,-0.0238553211092948,-79.78279504782661,40.459022170415935,269.89390050792696,-0.009293058887124,0.0257141515612602,-0.9990745186805724,0.0332062318921089,0.0071860356862657,-0.0151217815022382,-0.0003522285832283,-0.0008199453586712,3.457512866589241e-05,0.002633400959894,-0.531446925625205,0.1569356501474976,-9.796684720516208,14934.0
9.49,1.5,24.0,23.563594818115234,0.0,-79.78279505747923,40.45902218392224,269.89395987415315,-0.0092925773933529,0.0257089305669069,-0.9990734457969666,0.0332424379885196,0.0066339623047922,-0.0170983322191839,-0.0003758715148663,-0.0039440705440938,0.0012264957185834,-0.0123550258576869,-0.5327953300997615,0.1768521802872419,-9.79472064077854,14934.0
9.59,1.5,24.0,23.56484603881836,-0.0318070948123931,-79.782794990127,40.45902219807481,269.89860867881777,-0.0092943822965025,0.0257327370345592,-0.9990699887275696,0.033326681703329,0.0038865265841343,-0.012533881472455,0.0032451396751135,-0.0047004153020679,-0.0025161427911371,0.0008231229730881,-0.5318878056854011,0.1616215174086392,-9.795698295235637,14934.0
9.79,1.600000023841858,21.0,23.569854736328125,-0.0079517737030982,-79.78279494072441,40.459022239225504,269.9017351808548,-0.0092685408890247,0.0257393345236778,-0.999067485332489,0.0334033221006393,0.0056938620469809,-0.0161127810203382,0.0021391012819148,0.0014780997298657,0.0019470787374302,0.0059455842711031,-0.5307628379389644,0.1751569993793964,-9.795273787379266,14934.0
9.89,1.600000023841858,22.0,23.57110595703125,0.0,-79.7827949479593,40.45902225355736,269.9020446481705,-0.0092653948813676,0.0257448963820934,-0.999066174030304,0.0334388613700866,0.0047088894892021,-0.0178768840714747,0.0022544175766482,-0.0020415519829839,-0.0042586950585246,-0.0115592144429683,-0.5322188677266241,0.1732997775077819,-9.795933938026428,14934.0
10.09,1.600000023841858,24.0,23.56234169006348,-0.0159035474061965,-79.78279487028097,40.459022292927045,269.90744923973085,-0.0092604961246252,0.0257289670407772,-0.9990640878677368,0.0335150845348835,0.0023478031826974,-0.0192423564369664,0.0054382595201613,-0.0049820276908576,-0.0002265696239192,0.00010121462401,-0.5305622418969871,0.1633712236024439,-9.79790444970131,14934.0
10.19,1.600000023841858,24.0,23.56860160827637,-0.0079517737030982,-79.78279481607804,40.45902227724939,269.91194772148134,-0.0092370053753256,0.0257573537528514,-0.9990620613098145,0.0335594825446605,0.0058524268791441,-0.0072488912330572,0.0079386293059352,-0.0008150665671564,0.0019456857116892,-0.0084053296595811,-0.5313386059552432,0.1779142173752188,-9.795074397325516,14934.0
10.39,1.600000023841858,25.0,23.55858612060547,-0.0079517737030982,-79.78279482369119,40.45902228381997,269.91278838539125,-0.0092599801719188,0.0257543269544839,-0.9990599155426024,0.0336209647357463,0.0067163759749562,-0.0091294918490733,0.0078183571254849,0.0025681273546069,0.0021833297796547,0.003608422819525,-0.5299945503473282,0.1569135586358606,-9.79744310438633,14934.0
10.49,1.600000023841858,26.0,23.57110595703125,-0.0159035474061965,-79.78279476667491,40.45902233826467,269.91852247142793,-0.0092354919761419,0.0257275905460119,-0.9990576505661012,0.0337140262126922,0.0070628743831758,-0.0178062731427295,0.0082833179069185,0.0057934504002332,0.0074299401603639,0.0052063716575503,-0.5311236842349172,0.1645508628152311,-9.797075899243357,14934.0
10.69,1.600000023841858,27.0,23.56860160827637,-0.0159035474061965,-79.78279471074688,40.45902238879085,269.9244110527039,-0.0092191388830542,0.0257151797413826,-0.9990546703338624,0.0338168703019619,0.0065749586873149,-0.0224343710589063,0.0084206187317558,-0.0021083548199385,0.0013227632734924,-0.00510192848742,-0.53237389203161,0.1593277460709214,-9.796212265491484,14934.0
10.79,1.600000023841858,28.0,23.56860160827637,0.0,-79.7827947203764,40.459022408873096,269.9253810586929,-0.0092442100867629,0.0256939902901649,-0.9990535378456116,0.0338600538671016,0.0072732371869725,-0.0242604090792881,0.0083239753694026,0.0025483863428235,0.0017641624435782,0.0072179329581558,-0.5306752393394709,0.1550146753527224,-9.7972770434618,14934.0
10.99,1.600000023841858,28.0,23.569854736328125,-0.0159035474061965,-79.78279472991062,40.45902243011773,269.9263499917984,-0.0092623690143227,0.025696862488985,-0.999051868915558,0.0339005813002586,0.0062291569246517,-0.0260306722219937,0.0082963104055123,-0.0108943721279501,-0.0009505905327387,-0.0116043696179986,-0.5326902994886041,0.1738699358515441,-9.794379748106005,14934.0
11.09,1.600000023841858,29.0,23.56484603881836,-0.0079517737030982,-79.78279467134405,40.45902244912336,269.9324847402573,-0.0093020675703883,0.0256774239242076,-0.9990485906600952,0.0340017080307006,0.0071905563640968,-0.0204205043433532,0.0089565558765909,-0.0051859160885214,-0.0029817372560501,-0.0007895537419244,-0.5315635410323739,0.1600478854961693,-9.796054975390437,14934.0
11.29,1.600000023841858,28.0,23.576114654541016,0.0636141896247863,-79.78279461207094,40.459022458272045,269.9363108816147,-0.0093336319550871,0.025673434138298,-0.9990451335906982,0.0340974405407905,0.0081565347773756,-0.014668001786163,0.0044097629790896,0.0013996426714584,-0.0006108322995714,0.0037567052058875,-0.5292468376457692,0.1728757995553314,-9.794865651726726,14934.0
11.39,1.600000023841858,28.0,23.57361030578613,0.0079517737030982,-79.78279462245712,40.45902247109153,269.9368442239761,-0.0093361651524901,0.0256703440099954,-0.9990434050559998,0.0341507941484451,0.0073390125637307,-0.0166893885696491,0.0044212257097888,-0.00515425670892,-0.0006221804651431,-0.0098070744425058,-0.5323104497417808,0.1782393591105938,-9.79485863506794,14934.0
11.59,1.600000023841858,29.0,23.569854736328125,-0.0079517737030982,-79.78279453025525,40.45902248642032,269.94126510047914,-0.0093779601156711,0.0256750863045454,-0.999039113521576,0.0342607907950878,0.0028567631854368,-0.0140671181947917,0.0026612530853005,-0.0077500571496784,-0.0026159242261201,-0.005711892619729,-0.5290026067569852,0.1581340552680194,-9.797249561548233,14934.0
11.69,1.600000023841858,29.0,23.56860160827637,-0.0079517737030982,-79.78279444671662,40.45902250601493,269.9453988018036,-0.0093903811648488,0.0256729759275913,-0.9990371465682985,0.0343156605958938,0.0017457435824429,-0.0153455964912118,0.0018336949248966,0.0049765179865062,0.0045636510476469,-0.0015079178847372,-0.5305641422420739,0.1716079222038388,-9.795970775485037,14934.0
11.89,1.600000023841858,30.0,23.56484603881836,0.0238553211092948,-79.78279445265595,40.45902253614697,269.9459272565842,-0.0093740103766322,0.0256621241569519,-0.999034821987152,0.0343971736729145,0.0009351363673287,-0.0192729416132537,0.0015968132806232,-0.004678685683757,0.0011071297340095,-0.0054822280071675,-0.5294795933738351,0.1588321579992771,-9.796625663638116,14934.0
12.0,1.600000023841858,31.0,23.556081771850582,-0.0079517737030982,-79.782794390889,40.45902251687977,269.9519380273819,-0.0093860561028122,0.0256884433329105,-0.9990325570106506,0.0344381220638752,0.0057700389833407,-0.0087532000368672,0.0055779376431702,0.005464581772685,0.0015479126013815,0.0055349534377455,-0.5290762451291084,0.1572266404889524,-9.79633973479271,14934.0
12.19,1.5,29.0,23.57110595703125,-0.0159035474061965,-79.78279431181646,40.459022531488216,269.9563738050461,-0.0093806311488151,0.0256891995668411,-0.9990293383598328,0.0345314890146255,0.0027257070829146,-0.0091584048425684,0.0036889178634598,0.0079418402165174,0.0027348813600838,0.0068485224619507,-0.5330542886629701,0.1707275142520666,-9.795614095330238,14934.0
12.29,1.5,31.0,23.56234169006348,-0.0079517737030982,-79.78279431511478,40.45902254022882,269.9568051042557,-0.0093852011486887,0.0256794523447752,-0.9990274310112,0.0345931611955165,0.0019877038243592,-0.0109887135152586,0.0038082853703324,-0.0021747625432908,-0.0034746930468827,0.0001153638513642,-0.5316884156316519,0.1606172398477793,-9.796781199574474,14934.0
12.49,1.600000023841858,28.0,23.56860160827637,0.0,-79.78279422932799,40.45902256816951,269.9589587392807,-0.0093960082158446,0.0256831385195255,-0.9990240335464478,0.034686405211687,0.0002708407500128,-0.0140259855826462,-0.0017653807621649,0.0019390652887523,0.0014542748685926,0.0044724778272211,-0.5300548497587443,0.1754787789657712,-9.794624161720275,14934.0
12.59,1.600000023841858,27.0,23.56609916687012,-0.0079517737030982,-79.78279423040345,40.45902258178518,269.9588596763611,-0.0093738529831171,0.0256862603127956,-0.999022364616394,0.0347375497221946,-0.0007407189599765,-0.0159475374028527,-0.0018197437893682,-0.0038663349114358,-0.0028716025408357,-0.0106113813817501,-0.5322309276089072,0.1783613831922412,-9.793630135059358,14934.0
12.79,1.7000000476837158,26.0,23.569854736328125,-0.0238553211092948,-79.78279416503656,40.45902261856752,269.9611916484833,-0.0093972710892558,0.0256868246942758,-0.9990181922912598,0.0348501242697238,0.0004601534194477,-0.018539882909603,-0.0036917412878922,-0.0070854974910616,-0.0012809769250452,-0.0068066506646573,-0.5275429590046407,0.1579820642061531,-9.797852409482005,14934.0
12.89,1.7000000476837158,26.0,23.56735038757324,0.0,-79.78279416819373,40.45902263573552,269.9609135332108,-0.0093855829909443,0.0256860256195068,-0.9990175366401672,0.034874003380537,0.0014173588537481,-0.0206234633987517,-0.0039844917559228,0.0070062433369457,0.0024454337544739,0.0012904268223792,-0.5286705579981208,0.1671606030687689,-9.794999552965164,14934.0
13.09,1.7000000476837158,24.0,23.55858612060547,-0.0397588685154914,-79.78279413440623,40.45902264928785,269.96454512500765,-0.0093958210200071,0.02569030970335,-0.9990134835243224,0.0349841564893722,0.0069530226774004,-0.0179957870655874,-0.0026996060510162,-0.0028569300193339,0.0017127122264355,-0.0083706015720963,-0.5317436718195677,0.1559780589491129,-9.796651391386986,14934.0
13.2,1.7000000476837158,24.0,23.56484603881836,-0.0238553211092948,-79.78279404745048,40.45902265134475,269.9667098464966,-0.0093926349654793,0.0257197208702564,-0.9990116357803344,0.0350153967738151,0.0043158504850914,-0.013748643779522,-0.0050350379088269,0.0082421023398637,-0.0013479671906679,0.0039720325730741,-0.5285632615908981,0.1563937228918075,-9.797281136512757,14934.0
13.29,1.600000023841858,23.0,23.56735038757324,-0.0159035474061965,-79.78279405303087,40.459022664525904,269.9662855806351,-0.0093969264999032,0.0257185921072959,-0.9990092515945436,0.0350825265049934,0.0029868964397829,-0.0155902313325963,-0.0051083020070941,-0.0118970666080713,-0.0044182771816849,-0.0050013964064419,-0.5330155874043704,0.1656029596365988,-9.794822382330898,14934.0
13.49,1.600000023841858,25.0,23.56484603881836,-0.0159035474061965,-79.78279401739503,40.459022670301536,269.9698985757828,-0.0094018373638391,0.0257476177066564,-0.9990049004554749,0.0351839140057563,0.0096861431855816,-0.0133763770174196,-0.0031989100059033,0.0021498748101294,0.0006431707879528,0.0035293919499963,-0.5309934375062585,0.1578661979734897,-9.79586494088173,14934.0
13.69,1.600000023841858,24.0,23.56860160827637,-0.055662415921688,-79.78279394555133,40.45902268521512,269.9730940999985,-0.0093967411667108,0.0257572643458843,-0.9990010261535645,0.0352875553071498,0.0061681103443703,-0.0128948791124603,-0.0024371332434313,0.0059927892871201,0.0065770070068538,0.006641442887485,-0.5344619327411055,0.1742755864374339,-9.794256956577302,14934.0
13.79,1.600000023841858,23.0,23.559837341308597,-0.0238553211092948,-79.78279395333806,40.45902269730798,269.97292446517946,-0.0094068245962262,0.0257237628102302,-0.9989994764328004,0.0353544764220714,0.0053666262904597,-0.0146809804191304,-0.0025961521626066,-0.0016717907274141,-0.002905307104811,0.0004749415384139,-0.5331250765174628,0.157743826713413,-9.794247016310694,14934.0
13.99,1.5,24.0,23.56735038757324,-0.0238553211092948,-79.78279396121887,40.459022710563744,269.97274636650087,-0.009399726986885,0.0257208663970232,-0.9989972114562988,0.0354212522506713,0.0050914994860335,-0.0166487736823489,-0.0026917721634439,-0.0007112393504939,-0.0011781711364164,-0.0094043463468551,-0.5327086085826159,0.1780703380331397,-9.79395816385746,14934.0
14.09,1.399999976158142,25.0,23.56484603881836,-0.0159035474061965,-79.78279390213852,40.45902275586796,269.97432302856447,-0.0093991197645664,0.0256892666220664,-0.9989941716194152,0.0355295613408088,0.0048224108055179,-0.0219715899854356,-0.0054193888777332,-0.0036240688059479,-0.0014974797377362,-0.0080762095749378,-0.5319800455123186,0.1651567257195711,-9.794649889469149,14934.0
14.3,1.2999999523162842,29.0,23.533544540405277,0.8826469182968141,-79.7827938394964,40.45902276400136,269.977814907074,-0.0093919970095157,0.0257155746221542,-0.9989891052246094,0.0356561914086341,0.0057403666688242,-0.018289215907993,-0.0035476819756495,0.0003213868185412,-0.0009018368436954,0.0003092548286076,-0.5296114480867982,0.1729870062880218,-9.794534114599228,14934.0
14.4,1.2999999523162842,29.0,23.556081771850582,0.3021674156188965,-79.7827938475794,40.45902278042961,269.9775589647293,-0.0093802381306886,0.0257296934723854,-0.9989885091781616,0.0356652066111564,0.0055134619921025,-0.020303584888721,-0.0037673796465119,-0.0046307276934385,0.0037878265138715,0.0004520235816016,-0.5286787075549364,0.1656951629184186,-9.796078948974609,14934.0
14.59,1.2999999523162842,35.0,23.553577423095703,0.2862638533115387,-79.78279374892135,40.45902277746264,269.9815182628632,-0.0094053894281387,0.0257423091679811,-0.9989833235740662,0.0357942059636116,0.001150188009496,-0.0158468096825832,-0.0020476796614531,-0.0038694904651492,-0.0038184863515198,-0.0063899038359522,-0.5282192991301418,0.1580240910686552,-9.792755391597748,14934.0
14.69,1.2999999523162842,36.0,23.55483055114746,0.2942156493663788,-79.7827936619424,40.45902280337023,269.9853776636124,-0.0094231786206364,0.0257535725831985,-0.9989801049232484,0.035871785134077,0.0005183389136434,-0.0192028173668368,-0.0016470700847909,0.0008773878216743,0.0058783898130059,-0.0045370794832706,-0.5295393446087837,0.1782538309693336,-9.797319143414498,14934.0
14.79,1.2999999523162842,37.0,23.552326202392567,0.2942156493663788,-79.78279366363327,40.45902282141008,269.9853069725037,-0.0094337547197937,0.0257445070892572,-0.9989796876907348,0.0358871966600418,0.0002724414473267,-0.0209610033025156,-0.0017553168239037,0.0050907544791698,0.000563500158023,0.0012469484936445,-0.5295676305145025,0.1526863688975572,-9.794021898508072,14934.0
14.99,1.2999999523162842,39.0,23.553577423095703,0.326022744178772,-79.78279357529446,40.45902288340256,269.9914362373352,-0.0094331260770559,0.0257359035313129,-0.9989757537841796,0.0360023938119411,-0.0014266684976349,-0.0280388935331079,0.0019886233913179,0.0056949164718389,0.0010305648902431,0.0019832500256598,-0.524095184840262,0.1567350175604224,-9.795827518701554,14934.0
15.19,1.2999999523162842,42.0,23.55107307434082,0.3896369338035584,-79.78279348954295,40.4590229134877,269.9960559549332,-0.0094049451872706,0.0257405545562505,-0.9989710450172424,0.0361373014748096,-0.0023793041809776,-0.024323329356312,0.0009870250681666,0.002910460345447,0.0014267239021137,-0.001263290643692,-0.5278235157206654,0.1642171512544155,-9.794303149580957,14934.0
15.29,1.2999999523162842,45.0,23.54857063293457,0.4214440286159515,-79.78279348851707,40.45902293618671,269.9962819757462,-0.0094142099842429,0.0257450435310602,-0.998968541622162,0.0361994579434394,-0.002233002878189,-0.0264879887099738,0.0008236261431169,0.0001783341431291,0.0002049993636319,-0.0002014607307501,-0.5334905640408397,0.1616671622358262,-9.795314717888832,14934.0
15.49,1.2999999523162842,46.0,23.40834045410156,3.0614330768585205,-79.78279348749851,40.45902295992758,269.99649786376955,-0.0094031635671854,0.0257438644766807,-0.9989675283432008,0.0362328700721263,-0.0025371446546339,-0.0283613455552915,0.0008147641934479,-0.0056418543681502,0.0055126789957284,-0.0042720912024378,-0.5332072664424777,0.1930063195154071,-9.796246179342267,14934.0
15.59,1.5,48.0,23.533544540405277,0.4373475611209869,-79.78279339508481,40.45902297902218,270.0046008768082,-0.0091182636097073,0.0257205739617347,-0.9989651441574096,0.03638681396842,-0.0034243118241488,-0.0228386488977886,0.0044684653529808,-0.0194109175354242,-0.0092708151787519,-0.0029552623163908,-0.5039976102858782,0.1380808464623987,-9.790189633369446,14935.0
15.79,1.5,50.0,23.25559043884277,22.54327964782715,-79.78279331184966,40.45902299270053,270.0110886039734,-0.009146362543106,0.02570166811347,-0.998961627483368,0.0364901535212993,-0.0017305913512324,-0.0217783153310751,0.0054406931322949,-0.0056578195653855,0.0337708406150341,0.0098936734721064,-0.4741075940430165,0.1419277661852538,-9.809304181337357,14935.0
15.89,1.5,48.0,23.47219467163086,1.9640882015228271,-79.782793309871,40.45902301066295,270.0118427219391,-0.0089998403564095,0.0256959684193134,-0.998960554599762,0.0365604348480701,-0.001959832510776,-0.0216452926678917,0.0048393940336751,-0.0109510514885187,-0.0104365618899464,0.0055633368901908,-0.5359509627521039,0.1351904581300914,-9.774041962623595,14935.0
16.09,1.600000023841858,48.0,23.54230880737305,0.2385532110929489,-79.78279324575642,40.45902300856928,270.0171685161591,-0.0090277306735515,0.0256997998803854,-0.9989566802978516,0.0366546921432018,-0.0003277433832593,-0.0140952436799725,0.0067254478503261,-0.0089304177090525,-0.0101366220042109,-0.0148954214528203,-0.5254809384047985,0.1523747214395553,-9.79594738662243,14935.0
16.19,1.600000023841858,48.0,23.54982185363769,0.2544567584991455,-79.78279315409951,40.45902301377085,270.0243979635239,-0.0090575516223907,0.0257014725357294,-0.9989544749259948,0.0367082618176937,-0.0015246099486139,-0.0162405809854037,0.0070448347504991,0.0115236025303602,0.0024463983718305,-0.0069474554620683,-0.5159295481815934,0.1514203736186027,-9.7869011592865,14935.0
16.4,1.7000000476837158,46.0,23.410844802856445,3.824803352355957,-79.7827931527132,40.459023043401,270.0261067094803,-0.009106314741075,0.0257211066782474,-0.9989513754844666,0.0367673933506012,-0.0005613630252176,-0.0169763957300732,0.0066637879298124,0.008683044463396,-0.0308776032179594,-0.0084480578079819,-0.5225471710413695,0.1537996970303356,-9.78974758386612,14935.0
16.49,1.600000023841858,46.0,23.34573745727539,4.683594703674316,-79.78279308446261,40.45902301702144,270.03414701843263,-0.0090744728222489,0.0257086381316185,-0.9989501833915708,0.0368150509893894,0.0050299933738365,-0.0120856306058941,0.0081511943299109,0.010437392629683,0.0144549692049622,0.0136338816955685,-0.5260060914605856,0.1286753716785461,-9.792052556276325,14935.0
16.69,1.7000000476837158,43.0,23.26685905456543,6.417081356048584,-79.78279300823775,40.45902303336128,270.04187487983705,-0.0086292857304215,0.0257131066173315,-0.998949646949768,0.0369330085813999,0.004491241454174,-0.0147785559658738,0.0082152566765098,-0.0277813952416181,-0.054954208433628,-0.0205314625054597,-0.5058777093887329,0.1405455940403044,-9.810603432655334,14935.0
16.79,1.7000000476837158,40.0,23.21928024291992,7.816593647003174,-79.7827930162485,40.4590230468792,270.042742723465,-0.00826714374125,0.0256436076015234,-0.9989492893218994,0.0370732769370079,0.0108543840768789,-0.0144797299077762,0.0090754694321463,-0.018809475004673,-0.0700199455022811,0.0422733165323734,-0.5641898714751006,0.0965006016008556,-9.764071290493012,14935.0
16.98,1.7000000476837158,38.0,23.099082946777344,10.0430908203125,-79.7827930258193,40.459023061524725,270.0436360778809,-0.0077919978648424,0.025594089180231,-0.9989500045776368,0.0371925495564937,0.0066714867443787,-0.0159019686861584,0.0086110771302337,-0.0192826259881258,0.0675222873687744,-0.0213487315922975,-0.4817254196852446,0.2094940606690943,-9.849868655204771,14935.0
17.09,1.7000000476837158,36.0,23.03147315979004,11.394891738891602,-79.78279294540425,40.459023084469706,270.05133127594,-0.0062202694825828,0.0254495460540056,-0.9989593029022216,0.0373381078243255,0.0041781928594551,-0.0194151477594619,0.0080860624792058,0.0032104309648275,-0.005978335160762,0.0289891026914119,-0.4152753586694599,0.1466733024548739,-9.890769928693771,14935.0
17.29,1.7000000476837158,32.0,22.87496566772461,14.830058097839355,-79.78279286316906,40.45902305872031,270.06012951755525,-0.0038262228481471,0.0256763566285371,-0.998956263065338,0.0375847816467285,0.0205986413930649,-0.015771128854812,0.0089591956368868,0.0509770959615707,0.0424539856612682,-0.0304147563874721,-0.5743941398710013,0.1933999467641115,-9.786312929391864,14935.0
17.39,1.7000000476837158,27.0,22.81236457824707,16.301136016845707,-79.78279288246213,40.45902307177506,270.0613125505448,-0.0023575450759381,0.0255165342241525,-0.9989588856697084,0.0377453528344631,0.0121294793963299,-0.0161057518521887,0.0106860850811168,0.0298850778490304,0.0083082215860486,-0.0347352996468544,-0.5363670286908746,0.0516574276797473,-9.805512846708297,14935.0
17.59,1.7000000476837158,24.0,22.652101516723643,19.92714500427246,-79.78279277450284,40.45902303773447,270.0705517473221,-0.003468343289569,0.026942728087306,-0.9988663792610168,0.039091445505619,-0.0089354898862049,0.0071371279533438,0.0191403322133547,0.0250538177788257,0.0274174008518457,-0.1307232975959777,-0.503209990337491,-0.0852224555052817,-9.807752915024755,14935.0
17.69,1.7000000476837158,23.0,22.56946563720703,21.461837768554688,-79.78279276145236,40.45902304824104,270.0740504207611,-0.0045874887146055,0.0270217899233102,-0.9987757802009584,0.0411811918020248,-0.006734494448651,0.0071366566016611,0.0260705024108931,-0.0846041962504386,-0.0135220531374216,0.0239927228540182,-0.5872170472517609,-0.1022773583047092,-9.89717262983322,14935.0
17.89,1.7999999523162842,21.0,22.39793586730957,25.39796638488769,-79.78279274831131,40.45902303691248,270.0775153579712,-0.0058542401529848,0.0275256391614675,-0.9987120628356934,0.0422179363667964,-0.0068342003310307,0.0149624870514465,0.0472471844334708,0.0884972810745239,0.0027034091763198,-0.0914457961916923,-0.4343723649904132,0.0378406740794889,-9.986767176389693,14935.0
17.99,1.7999999523162842,21.0,22.61704444885254,19.092208862304688,-79.78279255282766,40.459022936147655,270.1065280380249,0.0025524841621518,0.0216836612671613,-0.9985421895980836,0.0493643693625927,0.0188592846359853,0.0938831649293042,0.2781125439171488,0.1317608952522277,0.0128613980486989,0.0362790822982788,-0.0306511432793922,-0.0231338874623179,-11.270687094926837,14935.0
18.19,1.8999999761581416,14.0,22.60076713562012,20.75412940979004,-79.78279246348491,40.459022493361005,270.18603324317934,-0.0008529147016815,0.0003105182549916,-0.9985312223434448,0.0541727542877197,0.0493872081729467,0.1695911551967272,0.3565639315556596,-0.1271905452013015,0.1533621102571487,-0.0205323342233896,0.1456409491226077,-0.0927239489648491,-10.814156377315523,14935.0
18.29,1.8999999761581416,10.0,22.586994171142567,20.094133377075195,-79.78279251223256,40.45902231824925,270.2205064239502,-0.0040551982820034,-0.007175728213042,-0.9984955191612244,0.0542117170989513,0.066339762050674,0.1941060338168873,0.3391260551564798,-0.1011574864387512,0.0873742029070854,0.0993772000074386,0.1572059376910329,0.2067219870910048,-9.791930349469183,14935.0
18.49,1.8999999761581416,6.0,22.59575843811035,20.61894989013672,-79.78279255937679,40.45902213954865,270.25322079086305,-0.006966691929847,-0.0112847387790679,-0.9985240697860718,0.0526675470173358,0.0741204694557622,0.2072379884547648,0.3098047766263114,-0.0625177174806594,0.0339731872081756,0.1177566275000572,0.196774466279894,0.0442091530188918,-9.60914931178093,14935.0
18.59,1.8999999761581416,4.0,22.525644302368164,21.86737823486328,-79.78279281545299,40.45902165024128,270.2887024822235,-0.0112606491893529,-0.0222536735236644,-0.9985086917877196,0.0485641807317733,0.0684733349034042,0.1870004843220555,0.1912173746372838,-0.0377917438745498,0.0623542182147502,0.1339033842086792,0.2964098150096834,0.0470165839791297,-9.519091081023216,14935.0
18.79,1.8999999761581416,4.0,22.509366989135746,22.19340133666992,-79.7827927128779,40.45902113693672,270.33613752746584,-0.0109226247295737,-0.0180285219103097,-0.9986736178398132,0.0469758249819278,0.0223681561140376,0.1862986928842578,0.1632355476615737,0.0584903284907341,-0.1149501949548721,-0.0182335022836923,0.3689409620314837,0.2226322243362665,-9.614316496253014,14935.0
18.89,1.7999999523162842,8.0,22.49684715270996,22.0105094909668,-79.78279271350114,40.45902097593245,270.353972012043,-0.0077717970125377,-0.0151980500668287,-0.9987441301345824,0.0471050441265106,0.0094504192349281,0.1767152420369694,0.1782705752285183,-0.0025903529021888,-0.0522153154015541,-0.0247474089264869,0.2932695861160755,0.1082572235260158,-9.908678780794144,14935.0
19.09,1.7999999523162842,8.0,22.5106201171875,21.49364471435547,-79.78279254268998,40.45902045467057,270.42298930311205,-0.0053227236494421,-0.012941756285727,-0.9986692667007446,0.0496377758681774,0.009112946148242,0.2022632379338743,0.1969626557770235,-0.0098425932228565,0.0138502996414899,-0.0997197553515434,0.2177148073352873,0.0186174889560788,-9.906518819332122,14935.0
19.19,1.7000000476837158,9.0,22.54692840576172,20.706418991088867,-79.78279242101922,40.45902021666254,270.4612392129898,-0.0067267920821905,-0.0133044039830565,-0.998595654964447,0.0508384555578231,0.0081555997624958,0.2029608134455487,0.2019348121171038,-0.0070391134358942,0.0008932609343901,-0.0664916932582855,0.2757285969704389,0.181154196113348,-9.781053943634031,14935.0
19.39,1.600000023841858,9.0,22.540668487548828,20.865455627441406,-79.78279240401609,40.459020044145646,270.48153513097765,-0.008358521386981,-0.0157239716500043,-0.9985087513923644,0.0516061894595623,0.0099541562107176,0.1997299108515134,0.1955902125566209,0.0342157445847988,0.0721582248806953,-0.0441594943404197,0.3569622464105487,0.1195817270781844,-9.799344618916512,14935.0
19.49,1.600000023841858,7.0,22.52939987182617,20.72232246398925,-79.78279207639565,40.45901975924177,270.5458425226212,-0.0046673254109919,-0.018288031220436,-0.9984197616577148,0.0529312752187252,-0.0103864331912333,0.1816750235863058,0.2014217499795854,0.0899800434708595,0.0526580549776554,0.0397405736148357,0.3471494491025805,0.173388746548444,-9.757884936332704,14935.0
19.69,1.5,8.0,22.489334106445312,21.40617561340332,-79.78279189617203,40.45901925153572,270.6146672906876,-0.0007090466096997,-0.0187456477433443,-0.998464047908783,0.052131999284029,-0.0151948488462378,0.1985631591666606,0.2055945941237332,0.0425134524703025,-0.0130816055461764,-0.0246274061501026,0.3269391694664955,0.139831502828747,-9.712770743966104,14935.0
19.79,1.5,10.0,22.48056983947754,21.883281707763672,-79.7827918566708,40.45901908190932,270.6361462416649,-0.0018772984622046,-0.0178166441619396,-0.9985264539718628,0.0512255281209945,-0.0106291494750396,0.1936833811642936,0.2092060168817126,-0.0401996485888958,-0.0919562727212906,0.117349125444889,0.2376230782829225,0.0967717296816408,-9.807958737015724,14935.0
19.99,1.5,17.0,22.340341567993164,24.626644134521484,-79.78279182603481,40.45901891850408,270.6575193347931,-0.0031379195861518,-0.0183353088796138,-0.9985572695732116,0.0503728166222572,0.0033889282318061,0.1827651652122826,0.1790885196514519,-0.0388018041849136,0.02146034874022,0.0390090346336364,0.2354029818624258,0.1970363667234778,-9.40806707382202,14935.0
20.09,1.600000023841858,16.0,22.30904006958008,24.88905143737793,-79.78279162115888,40.459018565835855,270.7003158273697,-0.0060960063710808,-0.0244372114539146,-0.9984216690063475,0.050199706107378,0.0102832580321611,0.154463728914833,0.0365348286959016,-0.0471435710787773,0.1190809160470962,-0.1179217174649238,0.3116321456059813,0.2732573078200221,-9.448163185715677,14935.0
20.29,1.600000023841858,13.0,22.165054321289062,28.13337707519531,-79.782791489915,40.45901824231951,270.7543806972504,-0.0069694002158939,-0.0257553979754448,-0.9982691407203674,0.0524106919765472,0.006519371244457,0.1486671349982528,0.2276610076974191,-0.0189346652477979,0.0087326513603329,0.0401845499873161,0.3155045007169247,0.2146049108728766,-10.159876334667208,14935.0
20.39,1.600000023841858,13.0,22.09619140625,29.707826614379893,-79.78279148265568,40.45901812428679,270.7852383198738,-0.0069929547607898,-0.0235000271350145,-0.9982622265815736,0.0535852387547493,-4.615610505187442e-05,0.1474039764676218,0.3876975228000319,-0.1827450394630432,-0.0953168049454689,-0.2238085567951202,0.356026509180665,0.4378257305547595,-11.236273891925812,14935.0
20.49,1.7999999523162842,9.0,22.19635581970215,27.52108955383301,-79.78279142359656,40.45901786497173,270.839737528801,-0.0062225642614066,-0.0215840954333543,-0.9982797503471376,0.0541574656963348,0.0336781725127158,0.1590734139869523,0.5707014243337155,0.1275971531867981,0.031130326911807,0.0322660431265831,0.3322088994830847,0.1111551218759268,-11.740758794546128,14935.0
20.69,1.7999999523162842,11.0,22.11246681213379,29.26252746582031,-79.78279132643502,40.45901761337917,270.9995945634842,-0.0016476768068969,-0.0241895634680986,-0.9983567595481871,0.0519241988658905,0.0265857548241923,0.1617009196166854,0.9490674244622752,-0.0418319664895534,0.0274862013757228,0.0744048878550529,0.4782586786150933,0.3411289365962148,-11.765700677633284,14935.0
20.79,2.0,7.0,22.058629989624023,30.463245391845703,-79.7827913442693,40.45901751000344,271.1047802808285,-0.000755748420488,-0.0240166448056697,-0.9985148906707764,0.0488951168954372,0.0467837733606478,0.1600834321215397,1.1420512956451845,0.0905297026038169,0.0112540526315569,0.28414586186409,0.5091715556010604,-0.1906189927272498,-11.812498283386232,14936.0
20.99,2.0999999046325684,5.0,22.064889907836918,31.822999954223643,-79.78279136888926,40.45901741394012,271.2299121859074,-0.0019164644181728,-0.0219660494476556,-0.9987598657608032,0.0446401387453079,0.0345292394954342,0.1618265401196559,1.355236568746628,-0.0638325363397598,-0.0592879205942153,0.0700482353568077,0.4538449452817439,0.2366903925687075,-11.92053143978119,14936.0
21.19,2.200000047683716,3.0,21.86205673217773,34.383468627929695,-79.7827913237926,40.45901715996108,271.74670072817804,-0.0146584622561931,-0.0225576907396316,-0.9990543723106384,0.0341565869748592,0.0429629949924334,0.1360287279551773,2.0186641035719424,-0.0573433637619018,0.116724781692028,0.147196963429451,0.257919257171452,0.0686885076435282,-12.014354692697523,14936.0
21.3,2.200000047683716,5.0,21.89210700988769,33.64395523071289,-79.78279130222192,40.4590171148591,271.9610111656189,-0.0188960675150156,-0.0234507489949464,-0.9990001320838928,0.033041451126337,0.0497817107076586,0.1435706922295409,2.2588860557691257,0.0792702361941337,0.0267475619912147,0.0676782578229904,0.4068757968395949,0.0411924648284912,-12.222643039226536,14936.0
21.39,2.299999952316284,2.0,21.7205753326416,37.79478073120117,-79.78279124337398,40.459017083042674,272.1987090649605,-0.0181656200438737,-0.0203340929001569,-0.999070167541504,0.0333968214690685,0.039990803724768,0.1443722650296787,2.487314171027484,0.1507127732038498,-0.0605500265955925,0.0226630792021751,0.3342912757024169,-0.0154991448658984,-12.125189834833144,14937.0
21.59,2.299999952316284,0.0,22.071149826049805,29.326141357421875,-79.7827909656907,40.45901707349679,272.75257145786287,-0.0121673578396439,-0.0158267505466938,-0.9990562200546264,0.0385760627686977,-0.0336885004030535,0.0904826889721506,2.8977424927894546,0.1181406453251838,0.0039785080589354,-0.0212246775627136,0.229464019741863,0.0568003005255013,-11.633662362098695,14937.0
21.69,2.5,359.0,22.160045623779297,27.89482307434082,-79.78279070120769,40.45901703386824,273.08222329044344,-0.0104147689417004,-0.0144790904596447,-0.9989309310913086,0.0426507852971553,-0.063983768891375,0.0862500184748623,3.0179151445712287,0.1337135583162307,-0.03399009257555,-0.0721962600946426,0.294745606072247,-0.0077910031535429,-11.020818028450012,14938.0
21.89,2.5999999046325684,358.0,22.171314239501957,27.529041290283203,-79.78279030916295,40.45901706439695,273.69928407096864,-0.010901628062129,-0.0094760945066809,-0.9987063407897948,0.0487562380731105,-0.1192428004482676,0.0719859070185255,3.1441210087130176,-0.0267473720014095,-0.0505767315626144,-0.0457260124385356,0.2875081783533097,0.1248271820135414,-10.392381509542464,14938.0
22.09,2.700000047683716,354.0,22.15002822875977,27.43362045288086,-79.78278967409148,40.45901703772815,274.3642907085419,-0.0173340365290641,-0.0106961000710725,-0.9986156225204468,0.0484976842999458,-0.1539857226846892,0.0773990020790215,3.208104621660333,-0.2001382410526276,-0.0593287460505962,-0.0807264372706413,0.2492314093373716,0.0672616271395236,-10.207983716726304,14939.0
22.2,2.900000095367432,352.0,22.20887565612793,25.74784469604492,-79.78278912784867,40.45901679711679,274.77421259307863,-0.0155573403462767,-0.0113581968471407,-0.998676598072052,0.0476865507662296,-0.1398067210907942,0.1110124117399328,3.2618091101981794,0.2560642063617706,0.0647053122520446,0.057612121105194,0.3019974508322775,0.0295261915214359,-9.947093818187712,14939.0
22.29,3.0999999046325684,347.0,22.111215591430664,28.06976127624512,-79.7827887937023,40.45901677584465,275.0996732654572,-0.010964386165142,-0.012706977315247,-0.9987495541572572,0.0470922552049159,-0.1869393988423862,0.1153017784684897,3.2587090431977472,0.0817509368062019,0.1111765280365944,0.016183877363801,0.2367030371725559,0.1246515188645571,-9.839317939281464,14940.0
22.5,3.2000000476837163,347.0,22.12123107910156,27.028079986572266,-79.78278847918723,40.45901676495468,275.420731300354,-0.0070747812278568,-0.0149924671277403,-0.9987958669662476,0.0461748130619525,-0.2340776753083983,0.1333603976092154,3.252443901941252,0.0150945354253053,0.0386097282171249,0.034820731729269,0.1707438864558935,0.0456939666392281,-9.752322480082512,14940.0
22.69,3.2000000476837163,347.0,22.073654174804688,28.69795227050781,-79.78278711258938,40.45901655235621,276.44106792831417,-0.0050355461426079,-0.0175828076899051,-0.9988390803337096,0.0445637628436088,-0.2942826851723979,0.1546893136523546,3.198924312155384,-0.0454798676073551,-0.0513464622199535,0.0438629128038883,0.2195998765714466,0.1441552995331585,-9.641159309148788,14941.0
22.79,3.299999952316284,345.0,22.140012741088867,26.84518814086914,-79.78278671272417,40.45901654505885,276.7608444633484,-0.002681745449081,-0.0170032288879156,-0.9988678693771362,0.0443479232490062,-0.2966814058787567,0.1460939050244217,3.195587633702756,0.164310410618782,0.0132451951503753,-0.011818247847259,0.2783531562611461,0.0277892715437337,-9.735355614423751,14941.0
22.89,3.400000095367432,343.0,22.126239776611328,27.05988693237305,-79.78278633405243,40.45901653534011,277.0789048614502,0.0008801930816844,-0.0171064920723438,-0.9988602995872498,0.0445515625178813,-0.3159078146616098,0.1353008440737219,3.1840060164926647,0.0579250939190387,0.0039692111313343,-0.0016753261443227,0.2911300168186426,-0.0349794967006892,-9.743217780590056,14942.0
23.09,3.5,341.0,22.06864547729492,28.37192916870117,-79.78278573937432,40.45901655963158,277.6651537361145,0.00627669878304,-0.0166025348007679,-0.9988096356391908,0.0454347245395183,-0.3248279041015279,0.1243231355670569,3.1103010474059367,-0.040635772049427,-0.0645110458135604,0.0286773592233657,0.2412700049579144,-0.063564423546195,-9.709772876501084,14942.0
23.29,3.299999952316284,340.0,22.10871124267578,27.34615135192871,-79.78278581123075,40.45901621619361,277.9239499511719,0.0075698969885706,-0.0167668852955102,-0.998779296875,0.0458430238068103,-0.2695106244835784,0.1436998713650508,3.058830687694607,0.2192616015672684,0.0343585386872291,-0.0022456906735897,0.3122551664337516,-0.0265656091924756,-9.790111865401268,14942.0
23.39,3.400000095367432,339.0,22.083669662475582,27.44952392578125,-79.78278526690849,40.45901618590376,278.53458713912966,0.0095822187140584,-0.0160997509956359,-0.998771607875824,0.0458742603659629,-0.267936534503215,0.1445042061067931,3.0379914997436908,-0.1059183403849601,-0.0234608650207519,-0.0836396515369415,0.2358634683676064,0.2878272353298962,-9.683146410584447,14943.0
23.59,3.400000095367432,346.0,22.058629989624023,28.07771301269531,-79.7827846975882,40.45901565469556,279.1875021400452,0.0094955964013934,-0.0165506564080715,-0.9987882375717164,0.0453650914132595,-0.203506887930471,0.166139545357361,3.0217839325783467,0.1597839146852493,0.048924520611763,0.0304317642003297,0.306705208607018,-0.0899791288934648,-9.72818809747696,14944.0
23.69,3.5,345.0,22.16254997253418,26.1772403717041,-79.78278382413491,40.45901505536176,279.5547292175293,0.0086934193968772,-0.0172911584377288,-0.9987940192222596,0.0451234057545661,-0.2379887024733658,0.2211272497365584,3.035890353167544,-0.0408452413976192,0.0510326623916626,0.0383151061832904,0.3399759022146463,0.0328877101186662,-9.80641916513443,14944.0
23.79,3.400000095367432,345.0,22.17256546020508,26.16133689880371,-79.78278360498524,40.45901496696617,279.8587634506226,0.0082194460555911,-0.0186453629285097,-0.9987903237342834,0.0447525307536125,-0.2177962585598701,0.221160507621166,3.0226481116752635,-0.0968022942543029,0.0007070827996358,-0.0022852225229144,0.1966416613943875,0.0659909632243216,-9.623608306646348,14944.0
23.99,3.299999952316284,344.0,22.124988555908203,25.962541580200195,-79.78278340771772,40.45901488462479,280.16046690368654,0.0075329928658902,-0.021000338718295,-0.9987522959709167,0.0446787625551223,-0.1921390803311213,0.2132830104593943,2.9963721610956835,-0.0204707998782396,-0.0300246905535459,0.0509641505777835,0.2785408884286881,-0.1161072019021958,-9.609551015496256,14945.0
24.19,3.299999952316284,348.0,22.12123107910156,26.28856468200684,-79.78278271945842,40.459014835813214,281.1704699935913,0.0102910753339529,-0.0216430742293596,-0.998681664466858,0.0453947968780994,-0.1509201028752862,0.1897472749517751,2.9907975288580646,0.0340025685727596,0.0228034649044275,0.0960479602217674,0.4395561043918133,0.0775804918259382,-9.672671708464623,14946.0
24.29,3.400000095367432,347.0,22.04110145568848,27.94253349304199,-79.78278260708639,40.45901479535911,281.4702432098389,0.0094651188701391,-0.0204264987260103,-0.9987385272979736,0.0448839776217937,-0.1478444198317286,0.1835375553461633,2.993623133707312,-0.0985416024923324,0.0141087993979454,-0.063930369913578,0.2493360562250018,0.2909362364374101,-9.733076954483986,14946.0
24.39,3.400000095367432,349.0,22.114971160888672,26.39988899230957,-79.78278251742222,40.45901475718412,281.7708508911133,0.0076920292340219,-0.0196485929191112,-0.9987903833389282,0.04441349953413,-0.1207440732308967,0.1706086555015872,3.0058575027428365,-0.1573887914419174,-0.0293692611157894,-0.0724005252122879,0.3323559569567442,0.1566904690861702,-9.90335430622101,14946.0
24.59,3.5,347.0,22.133752822875977,26.36808204650879,-79.78278242448404,40.45901452746757,282.4255196990967,0.0081320749595761,-0.0216666888445615,-0.9987733960151672,0.0437754280865192,-0.0439466531679384,0.1688560474562714,3.0253397838106144,-0.0114929899573326,-0.0540948957204818,0.1060326471924781,0.3344597851485014,-0.0272280987259,-9.721400064826012,14947.0
24.69,3.5999999046325684,343.0,22.034839630126957,28.57072448730469,-79.78278248158956,40.459014477380606,282.77464365386965,0.0090619642287492,-0.0222387742251157,-0.9987576603889464,0.0436629839241504,-0.0125972100385023,0.1707456289991542,3.039605554586394,0.1589372307062149,0.0020435811020433,-0.0025625932030379,0.4382583148777485,-0.0433010073378682,-9.789699636697769,14947.0
24.89,3.5999999046325684,344.0,22.05988121032715,27.990243911743164,-79.78278255983729,40.45901441379716,283.38536238098146,0.0085401954129338,-0.0233256295323371,-0.998765766620636,0.0430126339197158,-0.0031420642019991,0.1606967608544015,3.0489663404864755,-0.0674838051199913,0.0645854473114013,-0.0217500086873769,0.3003045357204973,0.0934474962204694,-9.778627933859823,14948.0
25.09,3.5999999046325684,341.0,22.087427139282227,26.79747772216797,-79.78278270278697,40.45901438586157,284.02807878875734,0.0048266528174281,-0.0287088137120008,-0.998696506023407,0.0419279523193836,0.0392923051623071,0.1540173650777825,3.0346447931666005,-0.0108222663402557,0.0703312009572982,0.1037627309560775,0.3421619934216142,0.1716346001252532,-9.721700611710547,14949.0
25.19,3.5999999046325684,340.0,22.1350040435791,26.24880599975586,-79.78278285696693,40.45901438850785,284.3603227081299,0.0038141226395964,-0.0300061516463756,-0.9986429810523988,0.0423949584364891,0.0671375825007191,0.1697321196063803,3.0347095842668086,0.005356946028769,-0.0548870973289012,-0.071110226213932,0.5524284895509481,-0.0288152683130465,-9.648088844418526,14949.0
25.29,3.700000047683716,339.0,22.09493827819824,26.19314384460449,-79.7827829634199,40.45901438990022,284.66317152404787,0.0044137677177786,-0.0276973862200975,-0.9986573457717896,0.0435536243021488,0.0815073691543038,0.163708166325459,3.0165351937871634,0.1182455718517303,-0.0234579052776098,0.1044568195939064,0.5030353778600694,-0.1822329525835812,-9.652843215465548,14949.0
25.49,3.700000047683716,339.0,22.06614112854004,27.28253555297852,-79.78278326515522,40.459014413176654,285.30094694519045,0.0048600956797599,-0.0234070718288421,-0.9986540675163268,0.0460294000804424,0.0773617508068523,0.1173283278195075,3.044681134624373,-0.0398157387971878,0.0457414612174034,-0.0807598456740379,0.4003041111677885,0.0171687042340636,-9.875588217973707,14950.0
25.69,3.700000047683716,335.0,22.10245132446289,26.73386383056641,-79.78278360769214,40.459014355317294,285.93158029937746,0.0053452760912477,-0.0233528055250644,-0.998645842075348,0.0461814031004905,0.1047536609341979,0.1136782078772794,3.0390930474548434,0.0530305653810501,-0.014926778152585,0.0699142888188362,0.3082094413787126,-0.025179275474511,-9.861558408737183,14950.0
25.79,3.700000047683716,334.0,22.05111694335937,27.32229423522949,-79.7827837546094,40.45901437208703,286.23482012176515,0.0043503576889634,-0.0249709654599428,-0.998642921447754,0.0454953536391258,0.1028958957004199,0.1071472701344439,3.028021489247076,0.0793054774403572,0.1001427397131919,-0.0065061026252806,0.4953726382926107,-0.1212880268320441,-9.754888238310814,14951.0
25.89,3.5999999046325684,331.0,22.13249969482422,26.081817626953125,-79.78278390138264,40.45901439551375,286.53807806396486,0.0033776541240513,-0.0259170997887849,-0.998646080493927,0.0449776872992515,0.0893266396622264,0.1120419473000116,3.0312457040348413,-0.1133749261498451,-0.052568607032299,-0.0068079032935202,0.39782595153898,0.0255121510662138,-9.75177050292492,14951.0
26.1,3.5999999046325684,328.0,22.10871124267578,26.59073257446289,-79.78278438042106,40.45901447115517,287.164009803772,0.0033025990705937,-0.0256944857537746,-0.9986673593521118,0.0446377694606781,0.1132589274437089,0.1087176979431662,3.0249062821517905,-0.1122690513730049,0.0046300077810883,-0.1653731018304824,0.442650487460196,0.1928675577789545,-9.752119581699372,14952.0
26.19,3.5,326.0,22.07740974426269,26.646394729614247,-79.78278457174564,40.45901450031244,287.48179792785646,0.0045114811509847,-0.0248286947607994,-0.998672366142273,0.0449091903865337,0.1228575957864831,0.0990957202697292,3.0301994635102125,-0.0459850803017616,-0.08607729524374,0.0200602635741233,0.3247982114553451,-0.1557065288722515,-9.753422926068309,14952.0
26.39,3.400000095367432,325.0,22.081167221069336,26.92470741271973,-79.78278490350908,40.45901459410632,288.08901953125,0.0029439481440931,-0.0219607427716255,-0.9987029433250428,0.0458427779376506,0.1146780586785401,0.0706181348728303,3.03752721679594,-0.0199296027421951,-0.0466840006411075,-0.110593557357788,0.4353285674750805,-0.1099766338337212,-9.806603937149047,14953.0
26.59,3.5,326.0,22.064889907836918,27.06783866882324,-79.78278525351736,40.45901470230276,288.7116601409912,-3.1422732718056075e-05,-0.0217877253890037,-0.9986084699630736,0.0480262450873851,0.1334837362401849,0.0406222582701157,3.044693659626585,0.0267782304435968,0.0118526685982942,0.0684985890984535,0.2813406631909311,-0.0525413805060088,-9.876479333639145,14953.0
26.69,3.400000095367432,323.0,22.166305541992188,25.11965370178223,-79.78278546255412,40.45901477173378,289.0258176269532,0.0014466050779446,-0.0200002044439315,-0.9985957145690918,0.0490375608205795,0.1276783406253057,0.0446383385102808,3.030150611294187,-0.0675365775823593,-0.0633785426616668,-0.0666335821151733,0.355325720384717,0.1580897443369031,-9.665570265054702,14954.0
26.79,3.400000095367432,322.0,22.028579711914062,27.71988296508789,-79.78278563113923,40.45901483896189,289.3273351135254,0.0034088231623172,-0.0170147567987442,-0.9986425042152404,0.0491121597588062,0.1342819230681936,0.0300944302863442,3.006490944681853,0.0180493462830782,0.0172045100480318,0.0863475054502487,0.3938840145617724,-0.1191138584632426,-9.638301774859428,14954.0
26.99,3.299999952316284,321.0,21.9497013092041,29.469274520874023,-79.78278604612571,40.459014982969386,289.9425752105713,0.0013329453067854,-0.0165089089423418,-0.998734176158905,0.0474961698055267,0.1219493282198513,0.0116737396484377,3.0278794114341725,-0.081826813519001,0.018449779599905,0.1395111978054046,0.3156839371472597,-0.2545702278614044,-9.884739110469818,14954.0
27.19,3.400000095367432,323.0,22.237672805786133,22.84544563293457,-79.78278642426123,40.45901514622327,290.55758070373537,-0.0026232874952256,-0.0174278281629085,-0.9988003969192504,0.0456869751214981,0.1522540971230062,0.0228462201599169,3.000648950205973,0.0932659432291984,0.0528949983417987,0.0124243618920445,0.3867428100854158,-0.0096654931548982,-10.017911785840989,14955.0
27.29,3.400000095367432,322.0,22.23892402648925,22.789783477783203,-79.78278658656748,40.45901520500318,290.8530843200684,-0.0012484586331993,-0.0166770461946725,-0.9988549947738647,0.0448228232562542,0.1484455040526116,0.0232597764329901,2.9035110178368724,0.0838268771767616,-0.0114682307466864,0.0306179877370595,0.2794053627178073,0.0056162597704678,-8.962746638059617,14955.0
27.49,3.400000095367432,324.0,22.34159278869629,20.34063720703125,-79.78278674257452,40.45901526225975,291.1378514709473,2.050979492196348e-05,-0.0170159731060266,-0.9988878965377808,0.0439714752137661,0.1321918982979154,0.018868629215151,2.791628080624356,-0.0021061964798718,-0.0066113183274865,0.0422760248184204,0.2888325909711421,-0.0143562528910115,-8.74744280219078,14956.0
27.59,3.400000095367432,324.0,22.33783721923828,20.396299362182614,-79.78278712093704,40.45901534387112,291.70661711120607,-0.004445532336831,-0.0185630191117525,-0.9988835453987122,0.0432124845683574,0.1044497071265631,0.020655939813583,2.566777313561658,-0.0974672064185142,-0.0237520784139633,0.0545922517776489,0.3047782952338457,-0.133330038562417,-8.45932475924492,14956.0
27.69,3.5,325.0,22.299022674560547,21.23123550415039,-79.78278722591853,40.45901545090761,291.9745805206299,-0.0058579477481544,-0.0210065878927707,-0.9988101720809937,0.043620154261589,0.1118823991896005,0.0174970664701645,2.4539977373336512,-0.0180766619741916,0.0527243874967098,0.064403586089611,0.2745704462751746,-0.1029336717166006,-8.454023088812827,14956.0
27.89,3.5,326.0,22.2426815032959,22.257015228271484,-79.7827874128581,40.459015564267226,292.4387776794434,-0.0024355533532798,-0.0240128878504037,-0.998691737651825,0.0450808443129062,0.0878119781817705,0.0290563917571282,2.1982724077497933,0.0006936467252671,0.0296608172357082,0.0466425009071826,0.3440250259637833,-0.1145655012689531,-8.602894368767739,14957.0
27.99,3.400000095367432,326.0,22.283998489379886,21.72424697875977,-79.78278752938044,40.459015666932814,292.6671731414795,-0.0012404337758198,-0.0244095083326101,-0.9986408352851868,0.0460355430841445,0.0619106170277072,0.0307233320172329,2.121900241702648,-0.0326949618756771,-0.0094011267647147,-0.0118703823536634,0.4131581915169954,-0.1249179234914481,-8.767175985574722,14957.0
28.19,3.400000095367432,325.0,22.2526969909668,21.93894386291504,-79.78278768039812,40.45901579446688,293.0978887023926,0.0003714003250934,-0.0253500919789075,-0.9985862374305724,0.0467195957899093,0.0493001292325108,0.0273507397583673,1.9901657692843893,0.0843371897935867,0.0024185515940189,-0.0131322015076875,0.4417877673357725,0.0500757330050692,-8.998552647829056,14958.0
28.29,3.400000095367432,326.0,22.366634368896484,19.887386322021484,-79.78278773397035,40.45901585470681,293.29254125976564,0.0031557569745928,-0.0242088921368122,-0.998605728149414,0.0468036495149135,0.0414882881991861,0.023857479131658,1.900283592210409,0.0466494262218475,-0.0234890915453434,-0.0254554450511932,0.3526775164157152,0.0956560169812292,-8.840380786657336,14958.0
28.49,3.400000095367432,327.0,22.22640419006348,22.24906349182129,-79.78278778761812,40.459015916215655,293.4766309204102,0.0053187939338386,-0.0232346970587968,-0.998619258403778,0.0468134768307209,0.0337330830758956,0.0146330236477569,1.7852100979119214,0.0096972081810235,0.0125392004847526,-0.0048751118592917,0.3814435516297817,0.013810858419165,-8.908524822592733,14958.0
28.59,3.299999952316284,326.0,22.258956909179688,21.8355712890625,-79.78278790087207,40.459016018909686,293.86711668396,0.0065195909701287,-0.0212420057505369,-0.9986944198608398,0.0459980815649032,0.0306613892125687,0.0097271270884948,1.6798987061293318,-0.0058033838868141,-0.0259936302900314,0.0250745806843042,0.3933001335337759,-0.0416946584265679,-9.032593967914584,14958.0
28.79,3.2000000476837163,326.0,22.319055557250977,20.284975051879886,-79.78278799129028,40.459016128511394,294.248349899292,0.0088326754048466,-0.0220144838094711,-0.9987001419067384,0.0451155379414558,0.0376654182334456,0.0175133939200626,1.6100045360787196,0.0386215113103389,-0.0015425039455294,0.0557708069682121,0.4379334289580584,-0.1002095818519592,-9.202509377002718,14959.0
28.99,3.2000000476837163,329.0,22.32155990600586,20.436058044433597,-79.78278806354551,40.459016170745954,294.4061620178223,0.0098156612366437,-0.0211800523102283,-0.9987261891365052,0.044733740389347,0.0440617910147887,0.0214390567916245,1.5429835612155551,0.0076306848786771,-0.00897759757936,-0.1037176921963691,0.4737548973038793,0.0671320473589003,-9.138097034096717,14959.0
29.09,3.2000000476837163,331.0,22.35161018371582,20.261119842529297,-79.78278819546804,40.45901623163645,294.7602784576416,0.0091777872294187,-0.0232389625161886,-0.9987411499023438,0.043495487421751,0.0609771209443266,0.0275940973796079,1.4777507401674927,-0.028501059859991,0.0974145382642746,-0.0071789822541177,0.4516949606314302,0.0434542957507073,-9.116963442564009,14959.0
29.29,3.0999999046325684,334.0,22.45803451538086,18.5117301940918,-79.78278840669977,40.459016209653626,295.0792348327637,0.0070321625098586,-0.0242584347724914,-0.99868643283844,0.0445829518139362,0.0719777561410455,0.0539737683003559,1.1335039392073405,0.038135714828968,-0.0475815683603286,-0.2553414702415466,0.569138662442565,0.0920946149714291,-8.802689634561537,14960.0
29.39,3.0999999046325684,335.0,22.37289428710937,19.092208862304688,-79.78278849229903,40.4590162070299,295.17877172851564,0.0080000814050436,-0.0209903102368116,-0.9971073865890504,0.072611317038536,0.0481161936030583,0.0384528059934765,0.8712443528784333,0.0143427299335598,-0.1082250475883484,-0.7365671992301941,0.3003135806322098,-0.3108368511870503,-7.265353728532793,14960.0
29.49,3.0999999046325684,333.0,22.336584091186523,19.847627639770508,-79.78278863791873,40.45901629491341,295.2407758178711,0.006780139170587,-0.0194256268441677,-0.9928990006446838,0.1171679869294166,0.0486589385702711,0.0137411401458869,0.6970356141550952,0.0697522982954979,0.0052576633170247,-1.0004916191101074,0.3568125576898456,-0.2718005471304059,-7.857612939476968,14960.0
29.69,3.0999999046325684,326.0,22.28650283813477,21.032442092895508,-79.78278889515961,40.45901643162247,295.29285406494137,0.0059058973565697,-0.0191962700337171,-0.9722652435302734,0.2330170720815658,0.0589254171686643,-0.0109597885713175,0.4608697854953826,0.1747206151485443,0.092259831726551,-1.3470033407211304,0.4248392473161221,0.080283257625997,-8.816680267453194,14960.0
29.79,3.0999999046325684,329.0,22.246437072753903,21.692440032958984,-79.7827889662209,40.45901643441045,295.3360764923096,0.0089042475447058,-0.0194275267422199,-0.9537541270256042,0.2998272776603699,0.0585785690526385,-0.0148724575681182,0.4033225683938792,0.1864425539970398,0.0513504073023796,-1.4512237310409546,0.386457356326282,0.0814995150268077,-9.109733945131303,14960.0
29.99,3.0999999046325684,331.0,22.193851470947266,23.37821578979492,-79.78278906675449,40.45901643103363,295.3728215637207,0.0122419409453868,-0.019160958006978,-0.9300730228424072,0.3666704595088959,0.0664067194315058,-0.0248214478285679,0.3580395263335851,0.1166561469435691,0.0194417871534824,-1.5632729530334473,0.3314904594048858,0.1128186638653278,-9.2772356235981,14960.0
30.09,3.0,317.0,22.23641967773437,22.082077026367188,-79.78278931750886,40.459016464908025,295.38097929382326,0.0169079657644033,-0.0210585296154022,-0.8607140779495239,0.5083718299865723,0.1023747632866096,-0.0727130877013885,0.2911784173669497,0.1309543997049331,0.0431917496025562,-1.6762524843215942,0.3511477751657367,0.2637490773573518,-9.604983170628548,14960.0
30.29,3.0,310.0,22.17381858825684,23.91893577575684,-79.78278959675099,40.45901642190427,295.37699674987795,0.0181494038552045,-0.022239776328206,-0.7662090063095093,0.6419498920440674,0.135865914609953,-0.1493198352011961,0.3061369343062131,0.0194757506251335,-0.0491339787840843,-1.7061755657196045,0.2578113029524684,0.4655857523158193,-9.958338013887406,14960.0
30.39,3.0,321.0,22.277738571166992,20.97677993774414,-79.782789862719,40.45901633282377,295.4078595581055,0.0163823999464511,-0.0205943547189235,-0.7133806347846985,0.7002825140953064,0.1532916595111159,-0.1975450317972329,0.3368909009045496,-0.0711132660508155,-0.0535321235656738,-1.4892276525497437,0.2408858611620963,0.5355374184250832,-10.049608372449878,14960.0
30.59,3.0,327.0,22.26897430419922,21.09605598449707,-79.78279002995382,40.45901605741639,295.4242932739258,0.0120359435677528,-0.0162420608103275,-0.6248250007629395,0.7805031538009644,0.1902731618942761,-0.2801799848542296,0.3640413203432761,-0.0324280261993408,-0.1419375091791153,-0.93163001537323,0.1522228674218058,0.5515924838930368,-9.967084279060364,14960.0
30.79,3.0,315.0,22.034839630126957,26.16133689880371,-79.78278979500092,40.459015609378326,295.4879491271973,-0.0054898420348763,-0.0159113928675651,-0.5759299397468567,0.8173258304595947,0.2029291799232357,-0.2594486700587101,0.4111008559269615,-0.3184221982955933,-0.385656863451004,-0.4145936071872711,0.2357840010523796,0.6505200637131929,-9.877721282243732,14960.0
30.89,3.0,315.0,22.16880989074707,23.83146667480469,-79.78279000484055,40.45901538603161,295.5312974395752,-0.0429087989032268,-0.0182620976120233,-0.5651236772537231,0.8236872553825378,0.1858624160267025,-0.218526253703111,0.4529584474800155,-0.4173815250396729,-0.7757576704025269,-0.084207683801651,0.2071912261471152,0.4839786076918245,-10.226536931991578,14960.0
30.99,3.0,330.0,22.143768310546875,24.38809013366699,-79.78279021801002,40.459014908975306,295.43563246154787,-0.0784349888563156,-0.0060817133635282,-0.5622237324714661,0.8232347965240479,0.240366901276515,-0.1467431331240822,0.432220845369976,-0.0501924194395542,-0.6995766162872314,0.0410770066082477,0.0871623697970062,0.7998491075634957,-10.24612978219986,14960.0
31.19,3.0,336.0,22.021068572998047,26.550973892211918,-79.78279063561763,40.45901459973594,295.40278982543947,-0.1065543293952942,0.0391474552452564,-0.5726671814918518,0.8118904232978821,0.2330043046281989,0.0731635689613117,0.5002006401820858,0.3093658685684204,-0.3195420205593109,0.3002475202083588,-0.1375438162498176,0.3583748606219888,-10.588645641803742,14960.0
31.39,3.0,329.0,22.15253257751465,24.11773109436035,-79.78279024685091,40.459014541239966,295.4559342803955,-0.1091677993535995,0.0522545725107193,-0.580539345741272,0.8051869869232178,0.2094986626733503,0.2754631455309237,0.6261929383121667,0.2475782334804535,-0.0575071461498737,0.0726952478289604,-0.0234121327009052,0.5304512178897858,-10.643436391353609,14960.0
31.49,3.0999999046325684,331.0,22.117475509643555,24.54712677001953,-79.78278959068612,40.45901456404298,295.5139214935303,-0.1111204549670219,0.0551947951316833,-0.5876427292823792,0.7995510697364807,0.1769426607420257,0.503370912963384,0.7244406839130468,-0.0056282924488186,-0.0327344872057437,0.1508584171533584,0.0290194206498563,0.5795006960257888,-10.123548753261566,14960.0
31.59,3.2000000476837163,340.0,22.13249969482422,24.411945343017567,-79.78278786384443,40.459015018034336,295.5353772583008,-0.118154227733612,0.0514645986258983,-0.5980226397514343,0.7910498976707458,0.1421104289457759,0.9570236309857648,0.7865177911939351,0.0201331824064254,-0.0675679221749305,0.2286617010831833,-0.1022686697077006,0.2687602873519063,-9.991731462478636,14960.0
31.79,3.299999952316284,344.0,22.117475509643555,24.10977935791016,-79.78278515193075,40.45901581090381,295.5487115325928,-0.1191810369491577,0.0558240935206413,-0.6036076545715332,0.7863442897796631,0.072342210698306,1.4100329155575273,0.851085750509781,0.0347124859690666,-0.062020257115364,-0.0317032784223556,-0.0760799409728497,0.4602026228606701,-9.986623334884644,14960.0
31.89,3.5,351.0,22.186338424682614,22.96472358703613,-79.78278321103626,40.45901619094831,295.5953023376465,-0.1196986734867096,0.0586859621107578,-0.6039881706237793,0.7857649922370911,0.0520770378950983,1.6479081778667264,0.9053718630433129,0.0639532878994941,-0.0250635240226984,-0.0343578234314918,0.0105085942719597,0.3655359821766615,-9.964188737869264,14960.0
32.09,3.5999999046325684,355.0,22.06864547729492,25.44567680358887,-79.78277884597074,40.459017524240686,295.6080434265137,-0.134509727358818,0.0572443194687366,-0.5990037322044373,0.7872895002365112,-0.0010126474592278,2.111566762485544,0.9499670720636246,0.025945134460926,-0.0891604349017143,-0.1069484576582908,-0.0467855230299756,0.5521710658818484,-9.72538201868534,14960.0
32.29,3.799999952316284,0.0,22.15629005432129,23.42592620849609,-79.78277354434019,40.45901937909393,295.6084382476807,-0.1473069041967392,0.065939113497734,-0.5916851162910461,0.7898491024971008,-0.0468066216353082,2.5850677394776573,1.0912509686584988,0.123416356742382,-0.1253107339143753,-0.1118428409099578,-0.128283370686695,0.6281874275207521,-9.823994725942612,14960.0
32.39,3.900000095367432,3.0,22.083669662475582,24.69025802612305,-79.7827702618645,40.45902021373796,295.6341779174805,-0.1527118980884552,0.0699698254466056,-0.5880432724952698,0.7911942601203918,-0.079675436088352,2.845728248313672,1.2005102640473648,-0.1145186871290206,-0.1365543156862259,-0.0414920039474964,-0.4677802123501897,0.5459223657846451,-9.944227513074877,14960.0
32.49,4.099999904632568,5.0,22.103702545166016,24.30857276916504,-79.78276725219926,40.45902187990536,295.60523199462887,-0.157640740275383,0.0726267099380493,-0.5836920142173767,0.7932077646255493,-0.1406411571336145,3.068810017204432,1.3050285492795743,0.0028235290665179,-0.1188209354877472,-0.2612694799900055,-0.3928089308738709,0.5913675836473704,-10.098710950613023,14960.0
32.69,4.300000190734863,6.0,22.021068572998047,26.06591415405273,-79.78275972879298,40.45902495985092,295.60642599487306,-0.1543264091014862,0.0814309492707252,-0.5794535279273987,0.7961068749427795,-0.2063293759760658,3.573170983029862,1.5453567832671378,0.0925413519144058,0.0092082628980278,0.0059007443487644,-0.7254549097269773,0.4092825838923455,-10.218638513088226,14960.0
32.79,4.699999809265137,12.0,22.131248474121094,23.990501403808597,-79.782755289649,40.459026278963215,295.6287801208496,-0.1482217907905578,0.0850165635347366,-0.5793182849884033,0.7969898581504822,-0.183431928418779,3.845011889267904,1.6452402571434632,0.1769324392080307,0.09341461956501,-0.0653098374605178,-0.4547057285159827,0.3246370110288262,-10.343653153181076,14960.0
33.0,4.800000190734863,15.0,22.02231979370117,25.61266326904297,-79.78275053463581,40.45902767652424,295.6510007324219,-0.1442145407199859,0.0875941812992096,-0.5791580677032471,0.7975622415542603,-0.1956536312571004,4.118934923987228,1.703416697116432,0.094128668308258,-0.0266256779432296,-0.0006507235812023,-0.5675405453145504,0.3340055295825005,-10.253065749406815,14960.0
33.09,5.199999809265137,18.0,22.02607536315918,26.455551147460927,-79.78274058181408,40.45903145464161,295.65971350097664,-0.1440567076206207,0.0872139781713485,-0.5761857628822327,0.7997821569442749,-0.2268576092857228,4.599116806255012,1.8620465040560896,-0.1012384369969368,-0.0042436919175088,-0.2330595403909683,-0.8415639480203391,0.7492459876835347,-10.061985758543017,14960.0
33.29,5.400000095367432,19.0,22.124988555908203,24.07001876831055,-79.78272970817537,40.45903576053213,295.66672872924806,-0.1445304602384567,0.0831097215414047,-0.5727221369743347,0.8026164174079895,-0.2283365593906075,5.050512190281288,1.9778091593657057,-0.0427095741033554,-0.0581163987517356,-0.0219765398651361,-0.8151635500788689,0.4225807968154549,-9.826563992500306,14960.0
33.39,5.9000000953674325,23.0,22.07740974426269,24.55507850646973,-79.78272362743517,40.45903758866825,295.68485998535164,-0.1447616219520568,0.0822389274835586,-0.5712769031524658,0.8036937713623047,-0.2073340143521048,5.28528291669528,2.0173607849398296,-0.0308932345360517,-0.0239259842783212,0.1145045980811119,-0.9312013254314662,0.2812067071348429,-9.804415909051896,14960.0
33.59,6.099999904632568,25.0,22.133752822875977,22.2331600189209,-79.78271145221508,40.459042682374566,295.6809613647461,-0.144962802529335,0.0794058069586753,-0.5665342807769775,0.8072913885116577,-0.2216311298209447,5.6995952882346685,2.125600316294979,0.0019117271294817,-0.0392992906272411,0.0544084347784519,-0.9718260256201028,0.5351721136271954,-9.98281562805176,14960.0
33.79,6.5,29.0,22.15503692626953,22.82954216003418,-79.78269834535045,40.45904836422253,295.6737649383545,-0.142002448439598,0.079591229557991,-0.5628347992897034,0.8103811144828796,-0.2454369225302063,6.1042609270386174,2.218214600739973,0.0311346109956502,0.1491818726062774,-0.0264460165053606,-1.3705227372050286,0.5400838844105602,-9.771497254371644,14960.0
33.89,6.699999809265138,31.0,22.0035400390625,26.5748291015625,-79.78269117600506,40.45905066935162,295.6847627105713,-0.1434870958328247,0.0784747302532196,-0.5624268054962158,0.8105118274688721,-0.2276946371515422,6.303380755533053,2.237200045932672,0.0132934022694826,0.0084180906414985,0.1131668165326118,-1.3182272869348526,0.2324761946126819,-9.691326080560684,14960.0
33.99,7.199999809265138,32.0,22.004791259765625,26.59868431091309,-79.78268473537976,40.45905419714508,295.6670033874512,-0.1464170515537262,0.0766719952225685,-0.5597541332244873,0.8120092153549194,-0.3271570448341766,6.464441971572814,2.288532986152162,-0.0363874100148677,0.0274134129285812,-0.3251108527183533,-1.254355080574751,0.5896564325317739,-9.802282260060313,14960.0
34.19,7.400000095367432,34.0,22.15879440307617,23.17942047119141,-79.7826697184752,40.459060260764325,295.6600530090332,-0.1483255624771118,0.0737089812755584,-0.5581509470939636,0.8130400776863098,-0.3609454998126502,6.837314647711808,2.43843995674988,-0.1051405444741249,-0.0790914446115493,-0.136883482336998,-1.3071495907008648,0.651094918102026,-9.810412813425064,14960.0
34.29,7.800000190734862,36.0,22.04986572265625,25.533145904541016,-79.78266180267859,40.45906296639149,295.665981048584,-0.1511093825101852,0.0738686174154281,-0.5582610964775085,0.8124371170997621,-0.339194785796346,7.024141599105662,2.461326025382719,-0.1039471253752708,-0.0260217003524303,0.1260674446821212,-1.17270755790174,0.4650438250601292,-9.599293829798697,14960.0
34.5,8.0,35.0,21.90963554382324,27.807353973388672,-79.7826536888485,40.4590657355334,295.66841291809084,-0.1531641781330108,0.0736819133162498,-0.5586419701576233,0.8118072152137756,-0.3418988995133762,7.186002423949567,2.5330461306414613,-0.0080534499138593,0.0450003035366535,-0.1196003928780555,-1.4022242939472198,0.4211005010828376,-9.856871280670166,14960.0
34.59,8.399999618530272,37.0,21.994773864746094,25.61266326904297,-79.7826369220578,40.45907275386858,295.6591851654053,-0.1529488563537597,0.0708743035793304,-0.558330774307251,0.8123117089271545,-0.4368793706208106,7.539081943936948,2.750746164762316,-0.0300048310309648,-0.0972786098718643,0.2972567677497864,-1.5737946112453938,0.1598637530207634,-10.144370688199997,14960.0
34.79,8.600000381469728,37.0,22.09243392944336,24.642547607421875,-79.78261917612956,40.45908009978719,295.64902281188967,-0.1402492672204971,0.0760437697172164,-0.5596035122871399,0.8132598400115967,-0.5330510791548676,7.934457094108922,2.752317291901188,0.0352713093161582,1.6072026483016086e-06,-0.1645416915416717,-1.1363216505199671,0.8174381900578738,-9.772448011636737,14960.0
34.89,8.899999618530273,40.0,22.08867835998535,23.75990104675293,-79.78261010496333,40.45908333198864,295.65357946777345,-0.1413639038801193,0.0868159979581832,-0.5595953464508057,0.8119927644729614,-0.5542778148699752,8.106098778832061,2.7250883358591182,0.0863452032208442,-0.3059274256229401,0.1600123792886734,-1.5704206216335297,0.3597954782098532,-9.600025316476822,14960.0
35.09,9.0,39.0,21.823244094848643,29.94638061523437,-79.78259136383052,40.45909062493892,295.6203610839844,-0.1487732976675033,0.0992840081453323,-0.5580553412437439,0.8102984428405762,-0.5627325651634459,8.375025917559164,3.0322073615457867,-0.0063565522432327,-0.124474212527275,-0.1339995414018631,-1.6363858388364316,0.4360161269456148,-9.733826567530633,14960.0
35.19,9.300000190734863,39.0,21.89335823059082,28.06976127624512,-79.78258129788694,40.45909464709195,295.6032254638672,-0.1539070010185241,0.0953297764062881,-0.5569339990615845,0.8105859756469727,-0.6101082965022531,8.525203639914672,3.2508220623326443,-0.2805957198143005,-0.0195898525416851,0.055612776428461,-1.7952339304983618,0.1571232726797461,-10.101068547964095,14960.0
35.39,9.5,39.0,21.98726272583008,26.996273040771484,-79.78256127456794,40.459101633392784,295.61684774780275,-0.163723275065422,0.0743295848369598,-0.5554595589637756,0.8118709921836853,-0.4568758419966215,8.866932187751667,3.4263310050633,-0.0315177664160728,-0.0480071827769279,0.1003494039177894,-1.7112879404425625,0.5382048816606403,-9.935995802879336,14960.0
35.49,9.800000190734863,40.0,22.052370071411133,24.793630599975582,-79.78255102764741,40.45910572372402,295.5926759185791,-0.1671579629182815,0.0683962851762771,-0.5544058084487915,0.8124127388000488,-0.4848654190289588,9.031580266673323,3.462365982137777,-0.0021768980659544,-0.0122449239715933,-0.0576863102614879,-1.9067059805989264,0.6249688276648522,-9.900169912576676,14960.0
35.69,9.899999618530272,41.0,22.01105117797852,25.18326759338379,-79.78252975986449,40.45911365820295,295.5689713897705,-0.1654820144176483,0.0675931721925735,-0.554051399230957,0.8130646347999573,-0.4988303856832873,9.353852490844588,3.5940053696402527,0.1052691116929054,0.1655658036470413,-0.1311385929584503,-1.9609163939952847,0.6924980288743973,-10.009959572553637,14960.0
35.79,10.100000381469728,42.0,21.932172775268555,27.19506645202637,-79.7825189717446,40.4591175354156,295.5776898803711,-0.1578678041696548,0.0779787972569465,-0.5551764965057373,0.8128814697265625,-0.5216254225631118,9.507829364526485,3.639953603021861,0.3349421918392181,0.0230325777083635,0.0344434604048728,-1.8506509168446064,0.5079038061574102,-9.957380239963532,14960.0
35.99,10.199999809265137,42.0,21.99352264404297,24.69025802612305,-79.78250801479084,40.459121469671686,295.5888383331299,-0.1486507058143615,0.0892908722162246,-0.5564754605293274,0.8125671148300171,-0.589120387600196,9.644599876319472,3.691982589916527,0.256565511226654,0.0793291628360748,-0.1846841424703598,-2.0193271547555924,0.5159401097148657,-9.857841918468475,14960.0
36.19,10.5,41.0,22.034839630126957,24.94471549987793,-79.78247366463184,40.459134421459744,295.55717253112795,-0.1515145897865295,0.0895668417215347,-0.5549336075782776,0.8130620718002319,-0.7055844610524786,10.103453997121708,3.77807141523437,-0.0956602543592453,-0.1793546229600906,0.1709057539701461,-1.808054389357567,0.1483151183836162,-9.989877895116807,14960.0
36.29,10.699999809265137,41.0,22.151281356811523,22.630748748779297,-79.78246203445643,40.45913855803037,295.56874060058595,-0.1610970944166183,0.0844849720597267,-0.5532952547073364,0.8128803968429565,-0.6260656379023424,10.222407690014167,3.881676647509381,-0.0980832949280738,-0.0683668777346611,-0.2613627016544342,-1.8713133689761163,0.5167117960005999,-9.42282018363476,14960.0
36.39,10.899999618530272,42.0,21.86581420898437,29.071685791015625,-79.78245025017624,40.45914274254086,295.5743558349609,-0.1722141355276107,0.0855209305882453,-0.5518012642860413,0.8115071058273315,-0.5759164211729207,10.34306962376739,3.985623998974737,-0.026917116716504,-0.2171845883131027,0.1810582429170608,-1.868339913636446,0.1857737888395786,-9.15314484357834,14960.0
36.59,11.0,42.0,21.981002807617188,25.533145904541016,-79.78242582426901,40.45915188507548,295.56074118041994,-0.186866745352745,0.0975733250379562,-0.5497220754623413,0.8083106279373169,-0.5991995026565831,10.518545488356294,4.535712972274265,0.1261118054389953,-0.1692670434713363,0.1968122273683548,-2.250627218484879,-0.0465605377033352,-9.522388910651207,14960.0
36.79,11.300000190734863,41.0,22.02983283996582,25.024232864379893,-79.78241314146793,40.45915664231377,295.5535027923584,-0.18816839158535,0.1041430607438087,-0.5496604442596436,0.8072299957275391,-0.634485440636996,10.640422981142912,4.743113058760977,0.1104420349001884,-0.2878271341323852,0.1975285112857818,-2.1861201506853103,0.0634872402995824,-9.227675208449364,14960.0
36.89,11.399999618530272,39.0,21.869569778442383,28.538917541503903,-79.78238785677468,40.45916575793266,295.5318887176514,-0.1931699812412262,0.1012480854988098,-0.5487749576568604,0.8070193529129028,-0.6859927033905299,10.89820401015035,5.070983963173597,-0.0339456498622894,0.2773900628089905,-0.0079297926276922,-2.319276600033045,0.2745757818594575,-9.371794456243515,14960.0
37.09,11.600000381469728,40.0,21.86831855773925,28.03000259399414,-79.78236178174646,40.45917547388212,295.5209672393799,-0.1577059030532837,0.0763819441199302,-0.5517134666442871,0.8154182434082031,-0.6753378630963551,11.350947496889722,4.780393447551546,0.01861416362226,0.5699103474617004,0.0472669005393981,-2.582151482105256,0.4938655915483833,-9.734121267199518,14960.0
37.19,11.699999809265137,40.0,21.885847091674805,27.52108955383301,-79.78234858891327,40.4591804287629,295.54134916687013,-0.1285940557718277,0.0708603262901306,-0.554897129535675,0.8188599944114685,-0.6826955918600899,11.670889621881235,4.252023602328893,0.3519957065582275,0.4505264461040497,-0.004903107881546,-2.533329277932644,0.7145420318841934,-9.783777576684953,14960.0
37.29,11.899999618530272,48.0,21.93467712402344,26.43169593811035,-79.7823353096843,40.45918525114343,295.5422494354248,-0.1051001697778701,0.0736142471432685,-0.5567392706871033,0.8207169175148009,-0.7454560072458536,11.927412620142892,3.675569777116903,0.189069777727127,0.212677776813507,-0.2730337083339691,-2.3880429258942604,0.3654558387771249,-10.233711465597152,14960.0
37.49,12.100000381469728,50.0,22.26146125793457,19.712448120117188,-79.7823081947132,40.45919546084271,295.54000067138674,-0.0883513987064361,0.0581276901066303,-0.5580457448959351,0.8230432271957397,-0.8458586243016883,12.13479748047323,3.080261537794318,-0.2601769268512726,0.1599183976650238,-0.0348733142018318,-2.3769421331584453,-0.2137176872603596,-10.497639577388764,14960.0
37.59,12.300000190734863,52.0,22.21638870239257,20.13389205932617,-79.78229487190401,40.45920031376322,295.5676400604248,-0.0875090956687927,0.0449984706938266,-0.5598750710487366,0.8227134346961975,-0.8061960650595356,12.142581322495476,2.9341581035769733,-0.025810232385993,0.2250215262174606,0.0067490572109818,-2.0789900967478747,0.2960039634257555,-10.413305186033249,14960.0
37.79,12.399999618530272,52.0,22.369138717651367,17.104265213012695,-79.7822678301512,40.459210298483455,295.60518240356447,-0.0868755280971527,0.0452132746577262,-0.5627879500389099,0.8207789063453674,-0.8799779621302554,12.123960893768544,2.6815726032991134,0.2101748287677765,-0.2247525006532669,0.1348910182714462,-2.3886077669262886,0.1704514525830746,-9.552350628376008,14960.0
37.99,12.5,59.0,22.435497283935547,15.45029640197754,-79.78225463740797,40.45921514422415,295.63608335876467,-0.0879750549793243,0.0573055110871791,-0.5642403960227966,0.8189073801040649,-0.955036768796824,12.071208572324212,2.677384146755841,0.1096816062927246,-0.2488812506198883,-0.1941185444593429,-2.225383911430836,0.241284111365676,-9.012440369725226,14960.0
38.09,12.600000381469728,58.0,22.352861404418945,17.414384841918945,-79.7822279444316,40.45922514064164,295.6360852661133,-0.0879155471920967,0.0621344447135925,-0.5639764070510864,0.8187434673309326,-1.0684405702558888,11.965073877387637,2.7831485860558054,-0.0350828990340232,0.0545514598488807,-0.3064034879207611,-2.4096255835890767,0.4372186068445445,-9.017859569191932,14960.0
38.29,12.699999809265137,59.0,22.29526710510254,18.137996673583984,-79.78221409182409,40.45923046308437,295.6286752166748,-0.0869696140289306,0.0589534677565097,-0.5634809136390686,0.8194205760955809,-1.0810461211403193,12.012635529096784,2.735444856302192,-0.2678932249546051,0.0666559711098671,0.1331727504730224,-2.273116048425436,0.0223861199431121,-9.233592005968095,14960.0
38.39,12.699999809265137,59.0,22.355365753173828,17.382577896118164,-79.78218795877889,40.45924012902418,295.63815664672853,-0.0823023840785026,0.0472390279173851,-0.5623598098754883,0.8214294314384459,-1.0048171834012207,11.9365169052265,2.562754652681984,0.0767260119318962,0.2207513004541397,-0.1415828466415405,-2.7793730959296234,-0.0136843986762687,-9.27707950294018,14960.0
38.59,12.699999809265137,60.0,22.511871337890625,14.114398956298828,-79.78216134549712,40.45925005446798,295.659633392334,-0.0456939488649368,0.0259467493742704,-0.561735987663269,0.8256462216377258,-0.9492429682010758,11.980482742832107,1.8394171124071232,0.2103332877159118,0.3392528891563415,0.2872568070888519,-2.09653700619936,-0.4582292606681586,-9.641362792253494,14960.0
38.69,12.800000190734863,64.0,22.391674041748047,16.54764175415039,-79.78214787202373,40.45925505668746,295.6722428741455,-0.0299044195562601,0.0199844166636466,-0.5608983039855957,0.8271031975746155,-0.926047574095348,11.96334550862584,1.3212566543883326,0.1528676748275756,0.3613406419754028,0.2225542515516281,-1.940231283903122,-0.3357694883644581,-9.301530804634094,14960.0
38.79,12.699999809265137,65.0,22.382909774780277,17.008844375610348,-79.7821351542101,40.459259799214,295.67698072814943,-0.0134980669245123,0.0156662333756685,-0.5604807734489441,0.8279091715812683,-0.8916212671057501,11.86096663680707,0.9010160494671962,0.2860623896121979,0.304468423128128,-0.2096459567546844,-2.0300586958229543,-0.1150994525570422,-9.537361875772476,14960.0
38.99,12.699999809265137,65.0,22.485578536987305,15.45029640197754,-79.78210950320043,40.45926940398795,295.6771409454346,0.0076632928103208,0.0004000407061539,-0.5601212382316589,0.8283752202987671,-0.8542074289056666,11.569036526809732,0.1328321136807367,0.045611023902893,0.2482615560293197,0.1148173213005066,-1.8653432156145573,-0.4713407646864653,-9.572931073307991,14960.0
39.09,12.5,78.0,22.46805000305176,14.671022415161133,-79.78209732076196,40.45927395257356,295.6783807220458,0.0093530537560582,-0.0063667111098766,-0.5594817996025085,0.8287654519081116,-0.8267771906931765,11.366211727664329,-0.1458851466103587,0.1449517011642456,0.091004230082035,-0.4006998240947723,-1.9809828686714173,0.0994445833191275,-9.543625997900962,14960.0
39.29,12.399999618530272,82.0,22.446765899658203,15.79222297668457,-79.78207320113034,40.45928338510062,295.67655729675295,0.0104273287579417,-0.0130854351446032,-0.5576975345611572,0.829875648021698,-0.8250587483527445,10.977893221823726,-0.3236688945735945,-0.0964956358075142,0.1390131115913391,-0.1677341014146804,-1.80115832939744,0.2395782227441669,-9.542332009077072,14960.0
39.49,12.300000190734863,82.0,22.47180557250977,15.03680419921875,-79.78206166290505,40.45928776059768,295.67263388061525,0.0114914141595363,-0.0117638632655143,-0.5570735931396484,0.8303003311157227,-0.8016405375248075,10.790529392283483,-0.3844225623360318,0.140917494893074,0.1122983694076538,-0.2906576097011566,-1.6678657861053945,0.2179888772964477,-9.590442314743996,14960.0
39.59,12.199999809265137,82.0,22.501855850219727,14.19391632080078,-79.78203839018622,40.45929658801048,295.6609418334961,0.006415584590286,-0.0073209498077631,-0.5562846660614014,0.8309347629547119,-0.7860857627212352,10.440597381723505,-0.3871659237741573,-0.1172554790973663,-0.3025900423526764,0.4634034335613251,-1.732400043457747,-0.07324452560395,-9.599854577779771,14960.0
39.69,12.0,82.0,22.46053695678711,14.989093780517578,-79.78202664746237,40.45930107137657,295.6303250732422,-0.0039410777390003,-0.0027353283949196,-0.5552730560302734,0.8316543102264404,-0.7507677246202996,10.315036128638672,-0.276953639811187,-0.0321250185370445,-0.3055359423160553,-0.111130878329277,-1.8496444648504256,0.1853593308851123,-9.456808294057849,14960.0
39.89,11.899999618530272,81.0,22.43424415588379,15.79222297668457,-79.7820051342317,40.45930929525535,295.60458921813967,-0.0268131103366613,0.0202899761497974,-0.5540768504142761,0.8317861557006836,-0.7090113820559425,10.068043464567284,0.1193736911333827,-0.1075807958841324,-0.4057443737983704,-0.3606564998626709,-1.6074064533412458,0.2310080683976412,-9.379963601231577,14960.0
39.99,11.800000190734863,82.0,22.47931861877441,14.877769470214846,-79.78199354720921,40.45931352164239,295.5874078216553,-0.0416408665478229,0.0333257913589477,-0.5524494647979736,0.8318384289741516,-0.6593921257362836,9.970757927491958,0.4941302230371101,-0.059416864067316,-0.1541998088359832,-0.0218083690851926,-1.56414275854826,-0.1793510061688721,-9.508528670668602,14960.0
40.19,11.699999809265137,82.0,22.39417839050293,16.476076126098633,-79.7819717997519,40.45932170549971,295.5326268615723,-0.0653257295489311,0.0437365137040615,-0.5515047311782837,0.8304589986801147,-0.6246194157893497,9.814785931193894,1.0683875054870555,-0.2593012750148773,-0.228645384311676,-0.3210228681564331,-1.877364506274462,0.0814369680918753,-9.207573650479317,14960.0
40.29,11.600000381469728,67.0,22.39793586730957,16.65101432800293,-79.78196135354982,40.459325660822905,295.5066564025879,-0.0806874632835388,0.0473558977246284,-0.5514612197875977,0.8289376497268677,-0.6065784976576528,9.783567535484952,1.2660655166921768,-0.0404213406145572,-0.25515016913414,-0.1192524209618568,-2.028075466454029,0.1151021934393793,-9.1409726947546,14960.0
40.49,11.5,64.0,22.37790298461914,16.929327011108402,-79.78195091985064,40.45932962140215,295.4761998596192,-0.0918261706829071,0.0499008446931839,-0.5511536002159119,0.8278330564498901,-0.6321535564714,9.745129423103776,1.514482039180531,-0.0255223605781793,-0.1655574738979339,0.0214022360742092,-1.9932379017770288,-0.0488208885490894,-9.076202502250672,14960.0
40.69,11.399999618530272,65.0,22.30152702331543,18.64690971374512,-79.78191833788237,40.45934181602871,295.31140493774416,-0.1165336668491363,0.058711040765047,-0.5484219193458557,0.8259578943252563,-0.6340537217122205,9.819139717815744,1.957233400047768,0.0269313491880893,-0.2785238325595856,0.1617292910814285,-1.5955057615041734,0.0403735531400889,-9.209835353493691,14960.0
40.79,11.399999618530272,65.0,22.30528259277344,18.631006240844727,-79.78190774317486,40.459345872522064,295.26470922851564,-0.123136006295681,0.0660052821040153,-0.5484344959259033,0.8244394659996033,-0.651484534454052,9.844564305678148,2.138155314203324,0.0744071304798126,-0.2543357610702514,-0.1567757129669189,-2.0887375514209268,0.0195534180477261,-9.215383776426316,14960.0
40.89,11.300000190734863,62.0,22.302780151367188,19.211484909057614,-79.7818970781274,40.45934998377439,295.21481108093263,-0.1280652731657028,0.071756325662136,-0.5488143563270569,0.8229539394378662,-0.6931548523460784,9.895715691938689,2.317450753223309,0.1570394337177276,-0.1451207399368286,0.0461623817682266,-2.0080190782248977,-0.0251787501387298,-9.29097716510296,14960.0
41.09,11.100000381469728,57.0,22.240177154541016,20.34063720703125,-79.78187515176197,40.45935825901119,295.0922162475586,-0.1352547109127044,0.0866471454501152,-0.5478395223617554,0.8210179209709167,-0.7116200359405188,10.060548171426683,2.6212074167415453,0.0540592521429061,-0.3225658237934112,0.0147282881662249,-1.5180367322266102,-0.0743140909820795,-9.434740317463875,14960.0
41.29,11.0,56.0,21.78067398071289,29.930477142333984,-79.78185291642247,40.4593667184498,294.9516789855957,-0.1643499881029129,0.0970412939786911,-0.5374099612236023,0.8214393854141235,-0.6289512800198181,10.19319372083782,2.9905445126944503,-0.3047904670238495,-0.4086800217628479,0.0317443199455738,-1.84394430667162,0.3894798917323351,-8.589232349395752,14959.0
41.39,11.100000381469728,56.0,22.0035400390625,25.485435485839844,-79.78184162506163,40.45937098954752,294.88055395507814,-0.1781590580940246,0.0959779769182205,-0.5330427289009094,0.8215308785438538,-0.4764530782485936,10.244759834410123,3.3715493283017217,-0.2242892533540725,-0.0106066660955548,-0.2644188702106476,-2.1795768240094184,0.7026021637022496,-9.491881062984469,14959.0
41.49,11.100000381469728,49.0,21.58660697937012,34.5822639465332,-79.78183003093316,40.45937520537096,294.7813870849609,-0.1812446415424347,0.0953622609376907,-0.5310906171798706,0.8221917748451233,-0.3343626490404656,10.312562505343369,3.6959397223150594,-0.0641422569751739,0.1235831007361412,-0.0656679943203926,-1.9205868320167063,0.6338115718960763,-9.890518498420716,14959.0
41.69,11.100000381469728,48.0,21.70429992675781,32.125167846679695,-79.78180661402642,40.45938385450789,294.62705015563967,-0.1896129250526428,0.0962327718734741,-0.5292771458625793,0.8213719725608826,-0.2473648532990461,10.581645824434917,4.068109608079208,-0.0760465860366821,-0.1223383024334907,-0.1335403025150299,-2.5168734589219093,0.6153945967555047,-10.301776564121246,14959.0
41.79,11.300000190734863,47.0,21.75813674926757,31.10733985900879,-79.78179449288805,40.45938834924486,294.5770471038818,-0.1869045048952102,0.0934806242585182,-0.5295487642288208,0.8221352100372314,-0.2139366240000113,10.666758812998488,4.362247595567686,0.0005649864906445,0.2008172124624253,-0.0398434326052665,-2.738409841954708,0.435170692652464,-10.524943735599518,14959.0
42.0,11.399999618530272,46.0,21.82574844360352,29.707826614379893,-79.78178216909505,40.459392916398365,294.53614019775387,-0.1755355447530746,0.0873978659510612,-0.5315026640892029,0.824047327041626,-0.2142041167536146,10.829467967746735,4.439904291756174,0.0502929091453552,0.3353081345558166,0.1630206555128097,-2.9316383922100067,0.5567536018788815,-10.519592363834382,14959.0
42.19,11.699999809265137,47.0,21.937179565429688,26.73386383056641,-79.78174477954414,40.45940690189107,294.3399369659424,-0.1282931119203567,0.0640072897076606,-0.5376630425453186,0.8308805227279663,-0.2878695904267738,11.40853867311769,3.645564010810932,0.0040422058664262,0.2864740490913391,0.041437204927206,-2.4766069006919857,0.2928298937715589,-10.885603505373002,14959.0
42.29,11.899999618530272,50.0,21.99602699279785,24.96857070922852,-79.78173205448961,40.45941161532046,294.3402669372559,-0.1212919279932975,0.057836715131998,-0.5381609797477722,0.8320613503456116,-0.2930335403349145,11.51303770944834,3.449241988921929,-0.0440032221376895,0.2287619709968567,-0.0313981510698795,-2.340562365353108,0.5554304135218263,-10.67013828635216,14959.0
42.39,12.199999809265137,49.0,21.86831855773925,27.72783470153809,-79.78171927843412,40.45941632912773,294.3487927856445,-0.1205837726593017,0.057705570012331,-0.537355899810791,0.8326934576034546,-0.2669093853236049,11.579622885078312,3.30690638921534,0.0003290457243565,-0.1422332972288131,-0.0749751031398773,-2.4662201991677284,0.3186030864715576,-10.30365936756134,14959.0
42.59,12.300000190734863,49.0,21.872074127197266,28.43554306030273,-79.78169379225561,40.459426036789495,294.29178594970705,-0.125340387225151,0.0612062029540538,-0.5358503460884094,0.8327112793922424,-0.2337818741971626,11.569432515093432,3.4813460346163057,0.0138051146641373,0.0003797101671807,-0.0886064767837524,-2.515293833613396,0.5642940250039101,-10.232451975345612,14959.0
42.79,12.699999809265137,51.0,21.94719696044922,26.12157821655273,-79.78168122425166,40.45943106118396,294.19801306152345,-0.1284708380699157,0.0580043047666549,-0.5359707474708557,0.832385778427124,-0.2255823395329174,11.557548226340106,3.5389279246143683,-0.109598346054554,0.1824909448623656,-0.2816609144210815,-2.6411206519603727,0.7652287669479847,-10.025602043867114,14959.0
42.89,12.800000190734863,52.0,21.91714859008789,26.94061088562012,-79.78165552678345,40.459440553622976,294.24984144592287,-0.1234041601419448,0.0553443394601345,-0.5388111472129822,0.8314992785453796,-0.2321141863822765,11.563941638439143,3.6262809915138976,0.127447709441185,-0.0135404234752058,0.0321357436478138,-2.6724205049872403,0.4200572481751442,-9.679621124267578,14959.0
43.09,13.0,52.0,22.124988555908203,22.535327911376957,-79.78163019063949,40.45945045132658,294.1441247406006,-0.1091876029968261,0.0620393678545951,-0.5426221489906311,0.8305362462997437,-0.3635010234685224,11.657800461010485,3.3215051091704715,0.0748272985219955,-0.0372568815946579,-0.0550752393901348,-2.188955173194409,0.4789072079211474,-9.924303710460665,14959.0
43.19,13.100000381469728,52.0,21.945945739746094,25.914831161499023,-79.78161787080425,40.459455367920725,294.03630995178224,-0.1111809909343719,0.0648183524608612,-0.5429442524909973,0.8298487067222595,-0.4368835187990982,11.659394170532412,3.165507044291948,-0.0689403712749481,-0.0390286296606063,-0.0402354821562767,-2.106674031615257,0.6710426943004132,-9.561095724105837,14959.0
43.29,13.300000190734863,53.0,22.140012741088867,21.80376434326172,-79.7816050518432,40.459460098423655,294.0509564819336,-0.1160263642668724,0.0630541518330574,-0.5425421595573425,0.8295843601226807,-0.4193660552166913,11.62494380935918,3.1983671269853016,-0.1091819256544113,-0.0593095421791076,0.1316146701574325,-2.8115149480104447,0.4169488683342934,-9.105468986034394,14959.0
43.5,13.300000190734863,53.0,22.057376861572266,23.20327568054199,-79.78159223522081,40.45946479611929,294.05928778076174,-0.1193604618310928,0.0612867474555969,-0.5418146252632141,0.8297192454338074,-0.3782540438817927,11.609739116138394,3.183885256139647,-0.1705532521009445,-0.0117791313678026,-0.2883155941963196,-2.8219934508204463,0.5420436518266797,-8.548833936452867,14959.0
43.69,13.300000190734863,53.0,21.829504013061523,27.97434043884277,-79.78155376475537,40.45947899305587,293.9843175354004,-0.1001283228397369,0.042247112840414,-0.5440200567245483,0.8320046067237854,-0.3096594489642882,11.518758073664966,3.0752761211151136,0.0876337215304374,0.8229213953018188,0.2054478526115416,-3.1402793258428576,0.3135068360343576,-8.978720646500587,14958.0
43.79,13.300000190734863,53.0,22.06989860534668,22.439905166625977,-79.78154111651709,40.45948360655183,293.98679708862306,-0.0617005079984664,0.0216610189527273,-0.5459815859794617,0.8352412581443787,-0.3328544818264329,11.526331720805125,2.6243259193022537,0.100199818611145,1.061761736869812,-0.0391836799681186,-3.2636152303218844,0.5971706162765622,-10.56433408856392,14958.0
43.9,13.300000190734863,55.0,22.24768829345703,17.239446640014652,-79.78152860509093,40.4594881663881,294.00312590026857,-0.0246772300451994,-0.0004861521301791,-0.5465462207794191,0.8370652198791504,-0.338988327791443,11.541494837941062,1.7157248217247054,0.0092804217711091,0.8202197551727295,-0.3142268061637878,-2.614983305633068,0.6051283478736877,-10.83924444079399,14959.0
44.09,13.300000190734863,73.0,22.34785270690918,16.181859970092773,-79.78150314238906,40.459497156755255,294.06358312988283,0.0153080848976969,-0.0317972339689731,-0.5440154671669006,0.8383327722549438,-0.3032569231915268,11.244461052710175,0.1199840009475508,-0.0980002209544181,0.343971312046051,-0.261472225189209,-2.190745298266411,0.5774383830651642,-10.34014716267586,14959.0
44.29,13.300000190734863,73.0,22.42047119140625,14.90162467956543,-79.78149068394274,40.459501377594265,294.0807130279541,0.0268985107541084,-0.0443439409136772,-0.5421040654182434,0.83870929479599,-0.2907248490871024,10.98071479127284,-0.2977565702319297,-0.1877873241901397,0.2850075960159302,0.1790171861648559,-2.3348994831740857,0.2500323865190148,-10.253700757026673,14959.0
44.39,13.199999809265137,74.0,22.473058700561523,13.73271369934082,-79.78146796872646,40.4595096919937,294.1480958404541,0.0421547591686248,-0.0604352280497551,-0.5402280688285828,0.8382865786552429,-0.2762511774539222,10.344890486216592,-0.9295370737054898,-0.3275174498558044,0.1108596101403236,0.0125382328405976,-1.8567682738602165,0.2680120995640754,-9.833614565134049,14959.0
44.59,13.0,86.0,22.42047119140625,15.410537719726562,-79.78144582243627,40.459517637920825,294.2105710449219,0.0572767816483974,-0.0632871985435485,-0.5412302017211914,0.8365309238433838,-0.3248320327207893,9.701941815377989,-1.262683235344093,0.0588695891201496,0.3176432847976685,-0.1626677960157394,-1.8986530490219595,0.1448358240723609,-9.493814152479173,14959.0
44.69,12.800000190734863,90.0,22.39918708801269,15.156081199645994,-79.78143498981422,40.459521342431394,294.2767579498291,0.0697330385446548,-0.067376784980297,-0.5406754016876221,0.8356243371963501,-0.3454497468140049,9.379020908592238,-1.4303774470026915,-0.0157627165317535,0.3834374248981476,0.3331573307514191,-1.4548485039174557,-0.0052091382443904,-9.66745774626732,14959.0
44.79,12.399999618530272,90.0,22.47055435180664,13.327173233032228,-79.78142514375044,40.45952505449966,294.2857434692383,0.086051195859909,-0.0727381780743599,-0.5406721830368042,0.8336533308029175,-0.3654916314774457,8.98010704479513,-1.6516449892392904,0.1714874058961868,0.3704385459423065,-0.0012833575019612,-1.4133234786987303,0.0423249334562569,-9.855726395845414,14959.0
44.99,12.199999809265137,91.0,22.38165855407715,15.895596504211426,-79.78141568356695,40.459528644407975,294.2902181091309,0.0985425934195518,-0.0739358067512512,-0.5408938527107239,0.8320196866989136,-0.3908931661817946,8.571559956636758,-1.9097071509003696,0.115676924586296,-0.0304022524505853,-0.1703879088163376,-1.1261091229319573,0.0618935999460518,-10.085323165655137,14959.0
45.19,11.800000190734863,99.0,22.37038993835449,16.150053024291992,-79.78139741757734,40.45953518291928,294.3599202575684,0.1028724163770675,-0.0673801451921463,-0.542284369468689,0.8311467170715332,-0.3762275146176917,7.836920031894442,-1.9537956690610767,0.1849740743637085,-0.0632998868823051,0.1044409349560737,-1.0613202193379403,0.1040801827982068,-10.01739138364792,14959.0
45.29,11.5,100.0,22.40043830871582,14.957286834716797,-79.78138068062712,40.45954109826371,294.4027383270264,0.1060418710112571,-0.077398657798767,-0.5442231893539429,0.8286047577857971,-0.3817756956708897,7.174326836279709,-1.862739579708124,-0.2656680941581726,0.1714581996202469,0.1041421592235565,-0.9536875972151756,-0.1277465780172497,-10.016855778694154,14959.0
45.49,11.0,100.0,22.345348358154297,15.911499977111816,-79.78137305791739,40.45954401460904,294.3963639678955,0.1095318794250488,-0.0869399607181549,-0.5442298054695129,0.8271990418434143,-0.4216607110009569,6.785793737351595,-1.9085993109250288,-0.0562247969210147,0.1110345870256424,-0.2763045728206634,-1.052062103524804,0.2172983028553426,-9.999555037021636,14959.0
45.59,10.699999809265137,100.0,22.4567813873291,14.416565895080565,-79.78135843899122,40.45954901705182,294.4407613220215,0.115177109837532,-0.0954785421490669,-0.5424910187721252,0.8266327381134033,-0.4149445365426605,6.069298929199035,-1.8878693200594243,-0.1224551051855087,0.1353805065155029,0.0846396163105964,-0.7251343361288309,0.3509859169274569,-10.2930115878582,14959.0
45.79,9.899999618530272,101.0,22.246437072753903,18.805944442749023,-79.7813513213439,40.45955095652985,294.5139443817139,0.1120892092585563,-0.0934019088745117,-0.5419157147407532,0.8276711106300354,-0.3673338495086628,5.750787097845737,-1.8274943085137787,0.1539651602506637,-0.3469373285770416,0.0871776118874549,-0.9039894801378252,-0.1681482343375683,-9.874769607782362,14959.0
45.89,9.600000381469728,102.0,22.41045570373535,15.800174713134766,-79.78133938927786,40.45955562925072,294.48962759399416,0.1114463582634925,-0.1011562645435333,-0.5408928990364075,0.8275156021118164,-0.4268963461622877,5.042203406404759,-1.6477696561223307,-0.2733741104602813,0.3309155106544494,0.113351434469223,-1.0008778434991836,0.3073553458973765,-10.02766143321991,14959.0
46.09,8.899999618530273,102.0,22.21263122558593,20.046422958374023,-79.78132847741094,40.459559045091424,294.52241110229494,0.1234016269445419,-0.1191905066370964,-0.5346028208732605,0.8275057077407837,-0.4036150943944976,4.285596537564183,-1.6875381438779125,-0.0457152239978313,0.3185355067253113,-0.0345890000462532,-0.837452405244112,0.034901920594275,-9.580750554800034,14959.0
46.19,8.600000381469728,101.0,22.281494140625,18.72642707824707,-79.78132355685263,40.45956026105693,294.56986212158205,0.1317060440778732,-0.1164463311433792,-0.5311442017555237,0.8288424015045166,-0.3460599921941443,3.927478701026237,-1.6200179510720196,0.3822091817855835,0.0454376637935638,0.1884004026651382,-0.464027286618948,0.1098243047297,-10.131421444416048,14959.0
46.29,8.100000381469728,100.0,22.310291290283203,17.430288314819336,-79.78131936029209,40.45956201513079,294.544290298462,0.1345856487751007,-0.1068552508950233,-0.5294337272644043,0.8307639360427856,-0.3457784421587958,3.539634511604678,-1.5452093442033528,0.1442684382200241,-0.2740339934825897,0.0323277600109577,-0.4003156959637999,0.1128970531001687,-10.39933618783951,14959.0
46.49,7.900000095367432,101.0,22.35161018371582,17.151975631713867,-79.78131177410157,40.45956416794213,294.5666596832276,0.1313187479972839,-0.0900907665491104,-0.5263275504112244,0.835235595703125,-0.2161230586082301,2.8771443795237808,-1.2954178701308032,-0.2502522766590118,-0.0433244965970516,-0.0750447660684585,-0.3932633326202632,0.2887650190852582,-9.921226905584335,14959.0
46.59,7.300000190734862,102.0,22.29151153564453,17.637035369873047,-79.78130871557305,40.45956546484375,294.534524673462,0.1229473575949668,-0.0977128595113754,-0.5250591635704039,0.8364503383636475,-0.1981543517106523,2.535823136234997,-1.2018116543055637,-0.1892536580562592,-0.001985918264836,-0.1011310741305351,-0.333509978055954,-0.0122524840850383,-9.95120908856392,14959.0
46.8,7.099999904632568,102.0,22.197607040405277,20.905214309692383,-79.78130332278363,40.459566597434055,294.53297399902345,0.1067172959446907,-0.136168897151947,-0.5215069055557251,0.8355239033699036,-0.2569983284477909,1.870244970769244,-1.1010613305578525,-0.390360951423645,-0.0665879771113395,-0.0519416965544223,-0.2666365603543818,0.2931570637598634,-9.44995009481907,14959.0
46.99,6.5,96.0,22.21012687683105,19.919193267822266,-79.78129978338892,40.45956740287894,294.50547766113283,0.1081279292702674,-0.1336406469345092,-0.5227736830711365,0.8349588513374329,-0.3780542595937473,1.1987755321637743,-0.9418603109817452,0.171096459031105,0.0818694606423378,0.1379609853029251,-0.3251304794847965,0.6378466623276472,-9.56262301683426,14959.0
47.1,6.099999904632568,93.0,22.180078506469727,20.300878524780277,-79.78129857411746,40.45956812096368,294.4469697418213,0.1303137391805648,-0.1128330156207084,-0.5204577445983887,0.8363078236579895,-0.3526248037837443,0.8587824079394872,-0.9010733042034283,0.742533266544342,0.1405321657657623,-0.0715038850903511,-0.3528397035598755,0.7253350418061019,-9.728444790244104,14959.0
47.19,5.599999904632568,90.0,22.251445770263672,19.45003890991211,-79.78129790157041,40.459567940025416,294.42524313354494,0.1436956971883773,-0.0854912772774696,-0.5173425674438477,0.8392851948738098,-0.2901637736694616,0.5246922534295592,-0.8702719614362017,0.2869502604007721,-0.3067936897277832,0.1344088613986969,0.0476059741806238,0.0360538038052618,-9.648981714248658,14959.0
47.39,5.300000190734863,88.0,22.02231979370117,24.165441513061523,-79.78129720869491,40.459568727297466,294.27684568786617,0.1211741864681244,-0.0978929698467254,-0.5226680636405945,0.8381837606430054,-0.234767757760218,-0.1341945604717069,-0.7975662343805997,-0.3108937442302704,0.0567907243967056,0.178472638130188,-0.3757197853177786,0.1000014209747314,-9.872166427373887,14959.0
