time,wind_speed,wind_angle,battery_voltage,battery_current,position_x,position_y,position_z,orientation_x,orientation_y,orientation_z,orientation_w,velocity_x,velocity_y,velocity_z,angular_x,angular_y,angular_z,linear_acceleration_x,linear_acceleration_y,linear_acceleration_z,node_ids
0.0,2.0999999046325684,193.0,22.92129325866699,0.0795177370309829,-79.78282587588485,40.45904512275117,267.2142976937294,0.0093415919691324,-0.0063261473551392,-0.8031408786773682,0.5956823825836182,-0.0038585815362794,0.0020693952408813,0.0126925755453175,0.007018940988928,-0.0015290338778868,0.0001764542248565,0.2093263003975152,-0.0764017205592244,-9.806568853855133,14932.0
0.2,2.200000047683716,194.0,22.920040130615234,0.1033730581402778,-79.78282587256167,40.459045125600326,267.21557144498826,0.0093415919691324,-0.0063261473551392,-0.8031408786773682,0.5956823825836182,-0.0041912757457503,0.0021548848567655,0.0127187549514673,-0.0042739394120872,0.0015246203402057,0.000883754575625,0.2087864562124014,-0.0763823470892384,-9.803292074203492,14932.0
0.3,2.200000047683716,194.0,22.925048828125,0.0795177370309829,-79.78282590637222,40.45904517390306,267.22402660226817,0.0093434210866689,-0.0063275075517594,-0.8031397461891174,0.5956838726997375,-0.0036309064837271,0.001590966749606,0.0119358610704879,0.0010267326142638,0.0006599994376301,0.0029989990871399,0.2099529757350683,-0.0757722997711971,-9.804243416190149,14932.0
0.51,2.200000047683716,195.0,22.926300048828125,0.055662415921688,-79.78282596885994,40.45904520346559,267.23192821121216,0.0093520833179354,-0.0063277939334511,-0.8031390309333801,0.5956847071647644,0.0023644082507408,-0.0017755995324612,0.0110825065728106,0.0028386840131133,-0.0003476599231362,0.0024632578715682,0.2076572675071656,-0.0719355121767148,-9.803304938077927,14932.0
0.61,2.299999952316284,198.0,22.926300048828125,0.055662415921688,-79.78282597185074,40.45904520194332,267.23302624797816,0.0093520833179354,-0.0063277939334511,-0.8031390309333801,0.5956847071647644,0.0021720500735379,-0.0016074037748077,0.0109600781984411,-0.0013501333305612,-0.0004002421628683,0.0035735620185732,0.2091594172082841,-0.0763981025945395,-9.803722429275512,14932.0
0.8,2.200000047683716,195.0,22.92880439758301,0.0636141896247863,-79.78282600864263,40.45904525221975,267.2393987593651,0.0093513280153274,-0.0063300640322268,-0.8031389713287354,0.595684826374054,0.0008383986521539,-0.0013915705988554,0.0107192627010185,-0.0015361624537035,-0.0017323952633887,-0.0071311937645077,0.2101348058693111,-0.0698569001024589,-9.804205994009973,14932.0
0.9,2.200000047683716,196.0,22.92379570007324,0.0715659633278846,-79.78282605149127,40.45904529165024,267.2463124809265,0.0093532335013151,-0.0063282581977546,-0.8031383156776428,0.5956856608390808,0.0033556020168868,6.5190628429955336e-06,0.0106067055418875,-0.0047616665251553,0.0017049105372279,0.0030787172727286,0.2117376190423964,-0.0727326429868117,-9.805823918581009,14932.0
1.1,2.200000047683716,195.0,22.92880439758301,0.0715659633278846,-79.78282605281309,40.45904528878067,267.2473562178612,0.0093533657491207,-0.0063287024386227,-0.8031380772590637,0.5956859588623047,0.0032065962708901,6.761033076356894e-05,0.0103107222418115,0.0027058855630457,-0.0009735612547956,-0.0019006291404366,0.2111423724889755,-0.0735171840107068,-9.804301303625108,14932.0
1.2,2.200000047683716,195.0,22.92880439758301,0.0636141896247863,-79.78282609414387,40.45904535644947,267.2513303575516,0.0093503296375274,-0.0063348365947604,-0.8031378388404846,0.5956862568855286,-0.0021366335224452,-0.001164885445694,0.0065985335130937,-0.0016617128858342,-0.0006109313690103,-0.0036795567721128,0.2110576609522104,-0.0792442256771028,-9.805957819819447,14932.0
1.41,2.299999952316284,197.0,22.93005752563477,0.0795177370309829,-79.78282609462102,40.45904535849027,267.25197545862204,0.0093504255637526,-0.0063345711678266,-0.8031365871429443,0.595687985420227,-0.0020725524537205,-0.0008808877937243,0.00632108670994,0.0061969999223947,-0.0008648497750982,-0.0002071558847092,0.2112234295159578,-0.0768781498633325,-9.806544295549395,14932.0
1.5,2.299999952316284,197.0,22.92254447937012,0.0715659633278846,-79.78282615875663,40.459045411879416,267.2593504009247,0.0093550672754645,-0.0063387556001544,-0.8031366467475891,0.595687747001648,-0.0008815134434355,-0.0045087474964547,0.0118751067120474,0.0012155270669609,-0.0001576001232024,-0.0036554280668497,0.2096008637174964,-0.0775136965233832,-9.80403408586979,14932.0
1.7,2.0999999046325684,195.0,22.92129325866699,0.0636141896247863,-79.78282616373122,40.459045413966365,267.260530453682,0.0093550672754645,-0.0063387556001544,-0.8031366467475891,0.595687747001648,-0.0011174205931056,-0.0042660882301542,0.0118113365521457,0.002095490694046,-0.0030519568827003,0.0028318776749074,0.210248643849045,-0.0789613574836403,-9.803846390247346,14932.0
1.81,2.0,195.0,22.91753578186035,0.0636141896247863,-79.78282619182123,40.459045457259975,267.26523624038697,0.009353925473988,-0.006334391888231,-0.8031355142593384,0.5956893563270569,0.000542958096137,0.0003020314120196,0.0109027478524571,0.0049489522352814,-0.001454789424315,0.0072110355831682,0.210257359854877,-0.0737327818153426,-9.803934098482133,14932.0
2.0,2.0,192.0,22.926300048828125,0.1113248318433761,-79.78282626483437,40.45904553138558,267.26796637153626,0.0093548884615302,-0.0063446802087128,-0.803135097026825,0.5956898331642151,-0.0038058780290304,-0.0060167288974798,0.0106874193334389,-0.0037702464032918,0.0007981568924151,0.0045117852278053,0.2086426695249975,-0.0763849006779491,-9.80394169986248,14932.0
2.1,1.8999999761581416,189.0,22.926300048828125,0.0477106422185897,-79.7828262762115,40.45904554106083,267.27003143405915,0.0093550626188516,-0.0063449717126786,-0.803134560585022,0.5956905484199524,-0.0038259388732375,-0.0056992412099374,0.0102413192555872,0.0018151642289012,0.000476972782053,0.003674843814224,0.2152390231378377,-0.0697932705190032,-9.805956065654756,14932.0
2.3,1.8999999761581416,190.0,22.91753578186035,0.0,-79.78282634263236,40.4590455782444,267.27184031581885,0.009361220523715,-0.0063433689065277,-0.8031343817710876,0.5956907272338867,0.0008988095656139,-0.0062839889285646,0.0100169030869703,-0.0015976588474586,-5.700302426703274e-05,-0.0042934329248964,0.2105116771906614,-0.0740105062862858,-9.80331078529358,14932.0
2.4,1.8999999761581416,190.0,22.925048828125,0.0715659633278846,-79.78282635030259,40.45904557886223,267.27282111024863,0.009361364878714,-0.0063430499285459,-0.8031337261199951,0.5956915616989136,0.0012926945129793,-0.0062815650019078,0.0098182462634733,0.0044844620861113,-0.001787130604498,0.0031994096934795,0.2095177053473889,-0.0748253477644175,-9.805312287211418,14932.0
2.6,1.8999999761581416,192.0,22.925048828125,0.055662415921688,-79.7828264015699,40.45904563309088,267.27514414167405,0.0093592870980501,-0.0063442136161029,-0.8031336665153503,0.5956916213035583,-9.360027286047312e-05,-0.0047323832160991,0.0096442149872809,0.0009519543382339,0.0019471121486276,-0.0047003696672618,0.210396212954074,-0.0704392325319349,-9.80530468583107,14932.0
2.7,2.0,191.0,22.93130874633789,0.0636141896247863,-79.78282645343944,40.45904567152512,267.27693621492386,0.0093614934012293,-0.0063415323384106,-0.8031335473060608,0.5956917405128479,0.0026463550307141,-0.0023731859036316,0.0094750236842964,-0.0053143249824643,0.0007062451331876,-0.0045018447563052,0.21147610232234,-0.0759134323708713,-9.805606402158736,14932.0
2.9,1.8999999761581416,191.0,22.92254447937012,0.055662415921688,-79.78282645716389,40.45904566977955,267.27786378240586,0.0093616675585508,-0.0063412301242351,-0.8031342029571533,0.5956908464431763,0.002778429701786,-0.0021827163419845,0.0091835750266899,0.0057576885446906,0.000654021394439,0.001052820123732,0.2106009934097528,-0.0741733969235792,-9.805698203444482,14932.0
3.0,1.7999999523162842,192.0,22.92254447937012,0.0715659633278846,-79.78282651023508,40.45904574893145,267.27882866239554,0.0093569252640008,-0.0063481465913355,-0.8031328916549683,0.5956926345825195,-0.0037950646446767,-0.0029580659164608,0.0090011556724207,0.0019590377341955,-0.0006727782892994,-0.0078955236822366,0.2106987698189914,-0.0758970053493976,-9.804014205336571,14932.0
3.2,1.7000000476837158,197.0,22.926300048828125,0.0795177370309829,-79.78282651254143,40.459045752852,267.2797231492996,0.0093569252640008,-0.0063481465913355,-0.8031328916549683,0.5956926345825195,-0.0036723459812906,-0.002729479996364,0.0089081725522183,5.322586366673932e-05,-2.694549039006233e-05,-0.0005887682782486,0.2098605531826616,-0.0771204164531082,-9.803450533747672,14932.0
3.3,1.7000000476837158,197.0,22.93130874633789,0.0636141896247863,-79.78282656159726,40.45904579652672,267.28011618232733,0.0093593131750822,-0.0063465824350714,-0.8031329512596129,0.5956926941871643,-0.0015250108036726,-0.0018892905923081,0.0086441320781763,0.0025940919294953,-0.0006971808616071,0.0007125196279957,0.2064087956026196,-0.0745783120393753,-9.804586647748948,14932.0
3.5,1.7000000476837158,201.0,22.927553176879893,0.0715659633278846,-79.78282661251883,40.45904584498296,267.27764717912675,0.0093594482168555,-0.0063478434458374,-0.8031327128410339,0.5956928133964539,-0.001724496672859,-0.0015909606448261,0.0055640497258351,-0.0016401743050664,0.0001025227829813,0.0047071031294763,0.2096646714583039,-0.078135648407042,-9.804611790776251,14932.0
3.6,1.7999999523162842,204.0,22.925048828125,0.055662415921688,-79.7828266153213,40.45904584908656,267.2787177381516,0.0093597108498215,-0.0063478918746113,-0.8031334280967712,0.5956919193267822,-0.0017100984031452,-0.0015162719507294,0.0051684820151523,0.0032809621188789,0.0024147757794708,0.0030794071499258,0.2103275629878044,-0.0770737940445542,-9.805311702489847,14932.0
3.8,1.7999999523162842,205.0,22.92254447937012,0.0715659633278846,-79.78282669082276,40.45904589903235,267.27782998657227,0.0093652037903666,-0.0063521955162286,-0.8031330704689026,0.5956922173500061,-0.0003550036989546,-0.0059449668058555,0.007339384985808,-0.0039908094331622,-0.0025885037612169,-0.0021585279610008,0.2093574733659625,-0.0718991406681016,-9.804316506385804,14932.0
3.9,1.7000000476837158,209.0,22.93005752563477,0.0715659633278846,-79.78282669750568,40.45904590079402,267.2785380301476,0.0093653779476881,-0.0063519035466015,-0.8031339049339294,0.5956911444664001,-0.0001309641261058,-0.0059045965963015,0.0070432275283004,0.0035290925297886,0.0039071617648005,0.0016488840337842,0.2094925988651812,-0.0777040051203221,-9.80549530506134,14932.0
4.1,1.7000000476837158,213.0,22.92880439758301,0.0477106422185897,-79.78282672102941,40.45904597094484,267.2774114427566,0.0093567688018083,-0.0063529131002724,-0.8031342625617981,0.5956907868385315,-0.0064392469009057,-0.0006835819087263,0.0076748143191983,0.0078520998358726,0.0006993010756559,-0.0001281870354432,0.2109018143825233,-0.0774401769228279,-9.805088923573496,14932.0
4.2,1.7000000476837158,214.0,22.926300048828125,0.055662415921688,-79.78282676430814,40.45904600789653,267.2760712919236,0.0093612074851989,-0.0063507938757538,-0.8031341433525085,0.5956909656524658,-0.0026853199368935,0.0002878220531133,0.0078832976099292,0.0020416951738297,0.0014773693401366,-0.0030689709819853,0.2112095241062343,-0.0749890560982748,-9.804636349081994,14932.0
4.4,1.7000000476837158,213.0,22.926300048828125,0.0636141896247863,-79.78282676341848,40.45904601019926,267.2768611726761,0.0093614067882299,-0.0063504939898848,-0.8031356334686279,0.5956889390945435,-0.0029176758983167,-6.0606473038658105e-05,0.0078850641905803,-0.0026675926055759,0.0044226599857211,0.0042014266364276,0.207838768735528,-0.0757428215816617,-9.803780316710473,14932.0
4.5,1.7000000476837158,216.0,22.92379570007324,0.0715659633278846,-79.78282679393502,40.45904604906881,267.27494756555564,0.009361719712615,-0.0063471812754869,-0.8031346797943115,0.5956901907920837,-0.0009995543615145,0.0033236191581601,0.0077924913944944,-0.0034412888344377,-0.0011760701891034,0.0041627245955169,0.210923101902008,-0.0698952815914526,-9.803488540649417,14932.0
4.7,1.7000000476837158,219.0,22.92379570007324,0.0636141896247863,-79.78282679014595,40.45904604919979,267.27571938610083,0.009361719712615,-0.0063471812754869,-0.8031346797943115,0.5956901907920837,-0.0013032609304178,0.0030291712684839,0.0075447788372248,0.000499197281897,-0.0006281333044171,-0.0051527735777199,0.2085061918571592,-0.0692918443679809,-9.804459178447724,14932.0
4.8,1.7999999523162842,216.0,22.925048828125,0.0715659633278846,-79.78282687344485,40.45904609628406,267.27353755807883,0.0093681029975414,-0.0063542919233441,-0.8031336069107056,0.595691442489624,-0.0002387044582787,-0.0033078102551988,0.0082147784752841,-0.0044400868937373,-0.0010631356853991,-0.0006720899837091,0.2105651974864304,-0.0725904186023399,-9.802878676056864,14932.0
5.0,1.7000000476837158,214.0,22.92880439758301,0.0715659633278846,-79.78282691887742,40.45904612897702,267.26985464668275,0.0093696461990475,-0.0063524022698402,-0.8031336069107056,0.595691442489624,0.0027332465889107,-0.0017825085058449,0.0081791067475055,0.0036173397675156,-0.0010350488591939,0.0042999060824513,0.2093978191539644,-0.0770842002611607,-9.804914091825486,14932.0
5.1,1.7000000476837158,211.0,22.927553176879893,0.0715659633278846,-79.78282692450695,40.45904612582996,267.2714479384423,0.0093701491132378,-0.0063520376570522,-0.8031331300735474,0.5956920385360718,0.0022313182750522,-0.0015524893092018,0.0077620759456732,0.002467768266797,-0.0020670902449637,-0.0016124997055158,0.2103670499660074,-0.0741710214922204,-9.803784994482994,14932.0
5.3,1.600000023841858,211.0,22.93005752563477,0.0715659633278846,-79.7828269688693,40.45904617189007,267.267622929573,0.0093693938106298,-0.0063542001880705,-0.8031330108642578,0.5956921577453613,0.0005578082410313,-0.0012535474050502,0.0081981010198386,-0.0054617100395262,-0.0003149015537928,0.0006777485832571,0.2075174094177782,-0.0740143800666555,-9.802681624889372,14932.0
5.4,1.600000023841858,210.0,22.92379570007324,0.3021674156188965,-79.78282701415499,40.45904621525077,267.2640594658852,0.009369027800858,-0.0063556120730936,-0.8031329512596129,0.5956924557685852,-0.0007790946814802,-0.0010897274179059,0.0083422601458514,-0.0032842773944139,2.330995812371839e-05,-0.0094489399343729,0.2107380740717053,-0.0746581813506782,-9.805022265315056,14932.0
5.6,1.600000023841858,211.0,22.89875602722168,0.3498780429363251,-79.78282701457313,40.45904621602532,267.264879506588,0.0093424962833523,-0.0063569578342139,-0.8031254410743713,0.5957028865814209,0.0001699261469792,5.707187496560752e-05,0.0082361162541251,0.0060719223693013,-0.0008742216741666,-0.0095322346314787,0.2023900042846799,-0.0805443083960563,-9.806374726295472,14932.0
5.7,1.600000023841858,212.0,22.90501594543457,0.3498780429363251,-79.78282702971755,40.459046264621136,267.2609691438675,0.0093443030491471,-0.0063495505601167,-0.8032660484313965,0.5955132246017456,-0.0032286583366726,0.0035922219225387,0.0081137211951264,0.0031273236963897,-0.0012308447621762,-0.0029976344667375,0.2093565962836146,-0.0831779948249459,-9.805390055179595,14932.0
5.9,1.5,214.0,22.90626716613769,0.3498780429363251,-79.7828270241386,40.459046266127295,267.2617871580124,0.0093434443697333,-0.0063413511961698,-0.8031670451164246,0.595646858215332,-0.0051921314442647,0.0056230869346706,0.0080916084766065,-0.0048173475079238,-0.0042429585009813,-0.0071721705608069,0.2213031887635588,-0.0933928430266678,-9.80608587384224,14932.0
6.0,1.399999976158142,214.0,22.912527084350582,0.3657816052436829,-79.78282710220363,40.45904629180792,267.25729082202906,0.0093473000451922,-0.0063301483169198,-0.8032143712043762,0.5955830812454224,0.0037914836650278,-0.000329054482798,0.0084881921685607,-0.0059104529209435,-0.0006345480796881,0.0168393533676862,0.1998069419525564,-0.0623201223509386,-9.809150399565697,14932.0
6.2,1.5,214.0,22.90501594543457,0.3975887000560761,-79.78282710489434,40.45904628954437,267.2581083593369,0.0093442555516958,-0.0063188355416059,-0.8031989336013794,0.5956041812896729,0.002788759973489,-0.000523433692932,0.0081818567540858,-0.0001981683599296,-0.001599800074473,-0.0122971860691905,0.2193856126628816,-0.0754185660649091,-9.807742974758147,14932.0
6.3,1.399999976158142,215.0,22.90251159667969,0.4293957948684693,-79.78282713860197,40.45904632435381,267.2528794822693,0.0093466518446803,-0.0063345921225845,-0.8031743764877319,0.5956370830535889,0.0028096486502822,0.0013029452912403,0.0075388519119802,0.0011493344791233,0.0005069728940725,0.0021334565244615,0.2049403039366007,-0.0793515129480511,-9.804265050888064,14932.0
6.5,1.399999976158142,217.0,22.89750289916992,0.5248170495033264,-79.78282720536436,40.459046396477255,267.2464566049576,0.0093302074819803,-0.006356693804264,-0.8032139539718628,0.5955837368965149,-0.0040297678745426,-0.0053758021748191,0.0078941915926713,-0.0002029835304711,0.0031098828185349,0.0010062085930258,0.1972274062223732,-0.090083556510508,-9.802914928793909,14932.0
6.6,1.399999976158142,218.0,21.337448120117188,21.62882423400879,-79.78282721217377,40.45904640687553,267.2480133590699,0.0093516828492283,-0.0063068019226193,-0.8032301068305969,0.5955621600151062,-2.942185875535323e-05,-0.0016757770453542,0.0086537275382755,-0.0081634307280182,-0.024665143340826,0.0023577427491545,0.2087947884947061,-0.0699938437202945,-9.804705930948256,14932.0
6.8,1.399999976158142,217.0,22.89750289916992,0.4452993273735046,-79.78282728198741,40.45904642077517,267.2411569771768,0.0094915991649031,-0.0062911924906075,-0.8032236099243164,0.5955688953399658,0.0037611173856562,-0.0032652832814058,0.0084407276366129,0.0004288723284844,-0.0167802460491657,-0.0205961801111698,0.2138451382890344,-0.0779603050276637,-9.800699418783188,14932.0
6.9,1.399999976158142,217.0,22.90626716613769,0.3180709481239319,-79.78282733683017,40.459046485869095,267.23413543081284,0.0094374120235443,-0.0063649895600974,-0.8032336235046387,0.5955553650856018,-0.0039142209957195,-0.0050330671478914,0.0079488938481217,-0.0112904030829668,0.0002272059209644,0.0144899599254131,0.1294101748242974,-0.105464730374515,-9.781415886282922,14932.0
7.1,1.399999976158142,218.0,22.84366607666016,0.9939717650413512,-79.78282734313501,40.45904648883259,267.23494325256354,0.0095521416515111,-0.0063451551832258,-0.8032545447349548,0.5955255627632141,0.0021896653393966,-0.0064843916127133,0.0083579148592658,-0.0110573442652821,-0.009435168467462,0.0249556712806224,0.2006629195064306,-0.0663138802768662,-9.799467410445214,14932.0
7.2,1.399999976158142,218.0,22.89249610900879,0.4214440286159515,-79.78282737417648,40.45904653153522,267.22610865211493,0.0095997340977191,-0.0063029397279024,-0.8032644987106323,0.5955118536949158,0.0015989684326602,-0.0033663516237101,0.0047004835509051,0.0141140548512339,0.0039481706917285,-0.0235306844115257,0.20698655532673,-0.0415109325153753,-9.825566457509996,14932.0
7.4,1.399999976158142,218.0,22.90626716613769,0.3578298389911652,-79.7828273763718,40.45904653193296,267.2265598592758,0.0096630966290831,-0.0063560977578163,-0.8032732605934143,0.5954984426498413,-0.0034169513373663,-0.003237908612976,0.0038442914566041,-0.0110563058406114,0.0174624435603618,0.0038649477064609,0.2432254600524902,-0.0892976724542677,-9.80709217965603,14932.0
7.5,1.399999976158142,217.0,22.82363319396973,2.417339324951172,-79.78282744980726,40.45904658171449,267.21685735559464,0.0096255270764231,-0.0063368226401507,-0.8033004403114319,0.5954626202583313,0.0021538474913859,-0.005089541894858,0.0023407850191491,-0.0075645837932825,-0.0010928336996585,0.0048060771077871,0.2222874213382601,-0.032123958687298,-9.790708866119385,14932.0
7.7,1.2999999523162842,218.0,22.677143096923828,4.810823440551758,-79.78282745767989,40.459046582573855,267.217028778553,0.0096089653670787,-0.0063358754850924,-0.8032754063606262,0.5954966545104979,0.0032821072554319,-0.006932470401895,0.0017714038213792,0.0334868505597114,0.0393106751143932,-0.026703841984272,0.2369996189139784,-0.0824535613507032,-9.799618853330614,14932.0
7.8,1.2999999523162842,218.0,22.624555587768555,6.003589153289795,-79.78282750041753,40.45904666593563,267.2067397055626,0.009628290310502,-0.0063119889236986,-0.8032718300819397,0.5955013632774353,-0.0096372916275752,-0.0056062583255156,-0.0001779052174823,-0.0139669263735413,-0.0011627944186329,0.0142866726964712,0.2018539607897401,-0.1014305078890174,-9.816019123792648,14932.0
8.0,1.2999999523162842,215.0,22.493091583251957,7.864304542541504,-79.78282755315563,40.459046697475074,267.1943066534996,0.0097932508215308,-0.0063507072627544,-0.8032920360565186,0.5954710245132446,0.0007561962193603,-0.0030355300686861,-0.0045700944106874,0.0250295810401439,0.0041612633503973,-0.0160443261265754,0.2010189966671169,-0.0905434400215745,-9.814205317497256,14932.0
8.1,1.2999999523162842,214.0,22.425479888916016,9.184298515319824,-79.78282755975843,40.45904670068389,267.19341085529334,0.0104230996221303,-0.0064326869323849,-0.8033034205436707,0.5954442024230957,-0.004218982896228,-0.0017463762809553,-0.0044761620483084,-0.0067086080089211,-0.002303518122062,-0.0030175650026649,0.2604447427019477,-0.0996943051088601,-9.825166507959366,14932.0
8.3,1.2999999523162842,213.0,22.276485443115234,11.87199878692627,-79.78282762135157,40.45904674965596,267.1818194208145,0.0107942670583725,-0.0063792201690375,-0.8032724261283875,0.5954799056053162,0.0011162262656996,-0.0043992470472441,-0.0044553553074386,0.0086507257074117,0.0029826979152858,-0.0367723330855369,0.1862354447878897,-0.1630992915295064,-9.80916852593422,14932.0
8.4,1.2999999523162842,213.0,22.203866958618164,13.462353706359863,-79.78282769950022,40.45904680491629,267.16873185014725,0.0122014749795198,-0.0059218644164502,-0.8032561540603638,0.5954793691635132,-0.0026650356193012,-0.0118781954748966,-0.0086885923763773,-0.0299909561872482,-0.0655973628163337,0.1303953826427459,0.1788212849758565,-0.2171608384698628,-9.801636727452276,14932.0
8.6,1.2999999523162842,217.0,22.02607536315918,16.364749908447266,-79.78282770106378,40.45904680646003,267.1681331810952,0.0123232444748282,-0.0052221212536096,-0.8033279180526733,0.5953866839408875,-0.0077203934560725,-0.0001063334943772,-0.0050825116402558,0.0392569564282894,-0.0713574588298797,-0.0103496834635734,0.3095468092337251,-0.1819377230107784,-9.831387945413589,14932.0
8.7,1.2999999523162842,217.0,21.94344139099121,17.644987106323242,-79.78282778531208,40.45904686858939,267.153088432312,0.0121404826641082,-0.003705772338435,-0.8031476140022278,0.5956449508666992,0.0037124933287217,-0.0075107703629883,-0.0103214990955066,0.0648814886808395,-0.024582028388977,0.0021401760168373,0.2326440462470054,-0.0762727848859503,-9.860429896116257,14932.0
8.9,1.2999999523162842,218.0,21.74060821533203,21.263044357299805,-79.78282779349462,40.45904687313421,267.15310988998414,0.0111908251419663,-0.0037392629310488,-0.8026723861694336,0.5963035821914673,-0.0084640837049172,-0.0051262190228907,0.0111948596144653,-0.021910410374403,0.0030440087430179,-0.0997982397675514,0.2768789270147681,-0.0963537725340575,-9.994874925613404,14932.0
9.0,1.2999999523162842,217.0,21.652965545654297,22.85339736938477,-79.78282787751381,40.45904694954912,267.139097076416,0.0085713434964418,-0.004179514478892,-0.8019841909408569,0.5972691774368286,-0.0197306027979358,0.0035912936651553,0.0103552713785695,0.0098621407523751,-0.0930187329649925,-0.0838822945952415,0.4231791497021914,-0.2913207639567554,-9.948643330335615,14932.0
9.2,1.2999999523162842,217.0,21.45388984680176,26.050010681152344,-79.78282783108408,40.459047020867416,267.14298598146445,-0.0028319326229393,-0.0056066727265715,-0.801993727684021,0.5972994565963745,-0.0603418230209838,0.0206411734799862,0.0348360872629636,-0.1544431000947952,-0.1599157750606537,-0.0128414025530219,0.1739611341431737,-0.0878977302554994,-9.970237097740174,14932.0
9.3,1.399999976158142,216.0,21.34370803833008,28.006147384643555,-79.78282782486427,40.4590471388309,267.141637307167,-0.0187468249350786,0.0033474997617304,-0.8020930290222168,0.5968953967094421,-0.1074761391615655,0.0702018269055643,0.2116424253347968,-0.0887457728385925,-0.1664395183324813,0.0309255756437778,0.3024583027884364,-0.1295900497958064,-10.34743279337883,14932.0
9.5,1.5,217.0,21.64795684814453,21.533403396606445,-79.7828278283533,40.45904728927211,267.1386900959015,-0.0192290153354406,0.0041285213083028,-0.8015062808990479,0.5976629853248596,-0.1201504921870496,0.0880584746313245,0.3051246935793486,0.1327971071004867,-0.0502238795161247,0.0077215880155563,0.1397632914036512,-0.0050352977821603,-10.929982702732088,14932.0
9.6,1.600000023841858,216.0,21.536523818969727,23.545202255249023,-79.78282746536419,40.45904751311964,267.20849559879304,-0.003522002371028,-0.0066379187628626,-0.8005057573318481,0.5992780923843384,-0.1811246924046613,0.140918399747405,0.3638205459795881,0.0499899946153163,0.1725551635026931,-0.0064515606500208,0.3087796545401216,0.0260830677207559,-9.968892238140109,14932.0
9.8,1.600000023841858,206.0,21.576589584350582,22.630748748779297,-79.78282711207059,40.45904773482117,267.2254839954376,0.0043240180239081,-0.0094595747068524,-0.8003146648406982,0.5994901061058044,-0.1892890616052014,0.1310474305180827,0.3028455625879329,0.1294045746326446,0.115994282066822,0.1048989742994308,0.1782932814024388,-0.1138277379702776,-9.640517869591712,14932.0
9.9,1.600000023841858,212.0,21.59161376953125,22.78183174133301,-79.78282644299414,40.45904854192574,267.2068040189743,0.0255572013556957,-0.0079462938010692,-0.800500214099884,0.5987346172332764,-0.2322132299300497,0.099061690152864,0.170603351816078,0.0889808908104896,0.0551159009337425,0.0184589140117168,0.1392026165127754,-0.0835868979245424,-9.509389380812646,14932.0
10.1,1.7000000476837158,211.0,21.50397109985352,24.11773109436035,-79.78282626391945,40.45904871738251,267.22236190414435,0.0257405396550893,-0.0062354891560971,-0.8010752201080322,0.5979774594306946,-0.2260275884178308,0.0879895733996733,0.1225862048247872,-0.0142372250556945,-0.0709577724337577,-0.0164312683045864,0.2652121603488922,-0.1794782013818621,-9.438617606163024,14932.0
10.2,1.7000000476837158,209.0,21.431352615356445,25.286640167236328,-79.78282585209129,40.45904920965405,267.2440694389344,0.0125595806166529,-0.0007789295632392,-0.8018941283226013,0.5973337888717651,-0.1894163801560293,0.0696528411531699,0.1227491120020645,-0.0161134712398052,-0.1872492134571075,0.0218526218086481,0.1314317217282951,-0.0334619957744143,-9.706554569005968,14932.0
10.4,1.7000000476837158,214.0,21.43260383605957,25.191219329833984,-79.78282572066063,40.45904935316987,267.25647674179083,0.0101186763495206,0.0037894700653851,-0.8019617199897766,0.5972777009010315,-0.1874446603063158,0.0610368451676601,0.1104255071631347,-0.0084107182919979,-0.0616435445845127,0.1083760112524032,0.0231879833433777,-0.0960825896356254,-9.615748479366305,14932.0
10.5,1.7000000476837158,209.0,21.37626266479492,25.37411117553711,-79.78282555392329,40.45904968168513,267.27947930669785,0.014953339472413,0.0043247835710644,-0.8013346791267395,0.5980138182640076,-0.1808840263408784,0.0416767967461356,0.1348617365273411,0.051978375762701,0.0645734742283821,0.0093608694151043,0.0512266020895913,-0.0717958413809538,-9.710461093783383,14932.0
10.7,1.8999999761581416,208.0,21.38502693176269,25.21507453918457,-79.78282544653673,40.45904982020578,267.2940485892296,0.0169070437550544,0.0008216509595513,-0.801425576210022,0.5978549718856812,-0.1730701260326292,0.0490514526111827,0.1397801677764451,-0.032290443778038,0.0601632930338382,-0.0128672355785965,0.2417659402079881,-0.2665208037570119,-9.877068732976914,14932.0
10.8,1.8999999761581416,210.0,21.44637680053711,25.1673641204834,-79.7828253140439,40.459050175049526,267.32964466190344,0.0074670859612524,-0.004671458620578,-0.802104115486145,0.5971194505691528,-0.1651060308400073,0.0714616534447315,0.1877712590287824,-0.0680815875530242,-0.047866404056549,0.0153577998280525,0.2061416874825954,-0.2063421373441815,-9.86889900326729,14932.0
11.0,2.0,208.0,21.4138240814209,24.07001876831055,-79.78282513252124,40.45905025948216,267.35021941041947,0.0084642227739095,-0.0028752067591995,-0.8027880787849426,0.5961975455284119,-0.1467901747791797,0.0870039451724061,0.2447825111896664,0.0656052380800247,0.0236560422927141,0.0418078228831291,0.1396897443942725,-0.0235622805193997,-10.140754770040513,14932.0
11.1,2.0,207.0,21.31741523742676,26.7497673034668,-79.78282484423498,40.45905047984606,267.4039324936867,0.0144649427384138,-0.0025614697951823,-0.8033535480499268,0.5953211784362793,-0.1596365679638108,0.0767156996616514,0.2745738536545529,0.0047726165503263,0.0710142403841018,0.042563296854496,0.1381071772053838,-0.191050060428679,-10.096945091485976,14932.0
11.3,1.8999999761581416,210.0,21.600378036499023,23.10785484313965,-79.78282473265033,40.459050562554594,267.41651133871085,0.0143759604543447,-0.0057290084660053,-0.8030537962913513,0.5957056879997253,-0.1436624139377035,0.0796816458984515,0.2408895209520921,-0.0165892038494348,0.0646990612149238,0.0040523163042962,0.1872583786211908,-0.0965411209780722,-9.471887678503991,14932.0
11.4,1.8999999761581416,211.0,21.31365966796875,27.79145050048828,-79.78282456212636,40.45905068929317,267.4524678406716,0.0197835285216569,-0.0042839404195547,-0.802320659160614,0.5965499877929688,-0.1297695485097533,0.0659164562396869,0.1219109007140945,0.0950824618339538,-0.048540212213993,-0.0429096594452858,0.2070791971497237,-0.181036118902266,-9.374338579773903,14932.0
11.6,1.8999999761581416,215.0,21.04572105407715,31.64010810852051,-79.78282445366287,40.45905078475853,267.4659619746208,0.0205247644335031,-0.0032021685037761,-0.8017914295196533,0.5972429513931274,-0.1286288980207493,0.0566235832011305,0.1477427839652293,0.0250600166618824,-0.0363526530563831,0.0090811485424637,0.2347330919466913,-0.2773826646432281,-9.941223213672636,14932.0
11.7,1.8999999761581416,217.0,20.856660842895508,33.59624481201172,-79.7828241394095,40.45905090027436,267.5196869192124,0.0159627087414264,-0.0038152763154357,-0.8010643720626831,0.5983532667160034,-0.1034594905223367,0.0825110951452132,0.4094303725110111,-0.0965832024812698,-0.034726470708847,0.0016993700992316,0.2544855528697372,-0.1747036208957433,-10.547270743846894,14932.0
11.9,2.0,217.0,20.69013786315918,38.30369567871094,-79.78282404129152,40.45905095327058,267.568540525198,0.0149380005896091,-0.003659174311906,-0.8011572957038879,0.5982562899589539,-0.087025014495865,0.0739723705136322,0.5630165509082757,0.0493365302681922,-0.083384022116661,0.0304572433233261,0.1555866609513759,-0.2046041986718774,-11.240867464542394,14932.0
12.01,2.0,216.0,20.70140647888184,36.11695861816406,-79.78282399992071,40.45905112287228,267.69895119643206,0.0181437227874994,-0.0052828127518296,-0.8018263578414917,0.5972582697868347,-0.0859580649811461,0.0548829431652765,0.9733033476923652,-0.0156567562371492,0.0231177732348442,-0.0196038279682397,0.3098288642987609,-0.2738901227340102,-11.988967251777652,14932.0
12.2,2.0999999046325684,212.0,20.627534866333008,38.32754898071289,-79.78282394697212,40.45905117354753,267.8069452611208,0.0158822331577539,-0.0039898767136037,-0.8016686439514159,0.5975443720817566,-0.0882888947140368,0.070814190839814,1.1733746279102513,-0.0440998822450637,-0.1529313325881958,-0.090533398091793,0.512425458021462,-0.1985730515420437,-11.888251301050186,14932.0
12.3,2.0,213.0,20.598737716674805,38.47863388061523,-79.78282390184594,40.45905128477135,268.0635642749667,0.0060309041291475,0.0004182294069323,-0.8016178011894226,0.5978062748908997,-0.1034561113793837,0.0433826787214212,1.608319875885585,-0.1046269088983535,-0.0608188398182392,0.0748637318611145,0.2428860657289625,-0.1817941007763147,-11.970901694297789,14933.0
12.5,2.0999999046325684,211.0,20.498573303222656,40.10874938964844,-79.78282393485011,40.45905134679066,268.2134585199356,0.0040168752893805,-0.001027300953865,-0.8015965819358826,0.5978509783744812,-0.098608000245537,0.0424791296352671,1.8193941410016603,-0.065750665962696,-0.0202545840293169,-0.0637960061430931,0.2442120497860014,-0.1590581894293427,-12.15825583934784,14933.0
12.6,2.0999999046325684,211.0,20.41468620300293,41.22994613647461,-79.78282377903524,40.45905147068008,268.62479357099534,0.002481285482645,0.0020275136921554,-0.8016043901443481,0.597846269607544,-0.1118307814159633,0.0787811543294534,2.298282427198328,-0.026177680119872,-0.0999747663736343,0.004130769520998,0.240198703687638,-0.1571978246793151,-12.113541011810304,14933.0
12.8,2.200000047683716,202.0,20.53738784790039,38.152610778808594,-79.78282385433927,40.4590515772995,268.80985365486146,0.0016925205709412,0.0019760953728109,-0.8016546368598938,0.5977818369865417,-0.1188300649476066,0.0679008487031108,2.482887021600377,0.0033091625664383,-0.0313017703592777,0.0842314511537551,0.1948702656850219,-0.1181520371697843,-12.177014876604083,14933.0
12.9,2.299999952316284,200.0,20.09040641784668,34.50274658203125,-79.78282390617471,40.45905178249647,269.23806129074103,0.0181323960423469,0.0128065273165702,-0.8020231127738953,0.5968804955482483,-0.1018047583647224,0.0981144863152777,2.7437946259212187,0.3320392966270447,-0.086528867483139,0.0867233276367187,0.2916604689136147,-0.1253774598240852,-11.341713223457337,14934.0
13.1,2.5,201.0,20.081642150878903,34.876480102539055,-79.78282377155685,40.45905178681424,269.5178756532669,0.0276954974979162,0.0239752475172281,-0.8024718165397644,0.5955645442008972,-0.1399802026557146,0.1246615364471707,2.8451877804386942,0.203356385231018,-0.0740613713860511,0.0032040951773524,0.2623022569343448,-0.1335337683465332,-10.938448301553729,14934.0
13.2,2.5999999046325684,201.0,20.17679786682129,33.36564254760742,-79.78282388080494,40.45905183100209,269.9538438138962,0.0245317313820123,0.0287891142070293,-0.8047634959220886,0.5923894047737122,-0.1634595308216911,0.113997360217406,2.8889103726329584,-0.1833369731903076,0.0098635237663984,0.0105727398768067,0.1873692381754517,-0.2255499484017492,-10.695622791051868,14934.0
13.4,2.700000047683716,209.0,20.807830810546875,33.47696685791016,-79.7828237217108,40.45905170059202,270.2440093574524,0.0171935576945543,0.0208619553595781,-0.8055335283279419,0.5919332504272461,-0.095530114254445,0.1379273963372117,2.9142651008080365,-0.2349396049976349,0.0360983423888683,0.0480730161070823,0.1682603364251554,-0.2508409833535552,-10.144361332654952,14935.0
13.5,2.700000047683716,206.0,20.85916519165039,31.0914363861084,-79.782823595916,40.45905144859205,270.73252568817145,0.0068637439981102,0.0025684782303869,-0.8056931495666504,0.5922879576683044,0.0535335404794011,0.2090825304564593,2.9164580274913137,-0.1928315013647079,0.0352959893643856,0.0088053252547979,0.1896109510213136,-0.1135557145345956,-10.202551653385164,14935.0
13.7,2.799999952316284,207.0,20.914255142211918,30.70975112915039,-79.78282339019394,40.45905125798123,271.02454434013373,0.0039984411559998,-0.0041205259039998,-0.8053516745567322,0.5927696228027344,0.1092765347754296,0.2518330212542837,2.93450755402254,-0.0838707610964775,0.0296905729919672,0.0072801066562533,0.2722704439982772,-0.0805163605324924,-10.041755561828614,14936.0
13.8,2.900000095367432,206.0,20.99814224243164,30.2962589263916,-79.7828230936872,40.45905096868014,271.5494764862061,0.0068343277089297,-0.0083717964589595,-0.8043940663337708,0.5939978361129761,0.1222208916808359,0.2803975210986706,2.8812171164627887,0.0589018277823925,0.0639674589037895,-0.0771574303507804,0.2610912803001702,-0.0506341649405658,-9.751285184025765,14936.0
14.0,3.0,207.0,21.03194808959961,28.483253479003903,-79.7828229339701,40.45905088074028,271.8087976989746,0.0107158832252025,-0.0088995834812521,-0.8039048910140991,0.5945947766304016,0.1018361910644947,0.2783064078486321,2.824767583723346,0.1268951445817947,0.029539905488491,-0.0822272673249244,0.2712604105845094,-0.0907010681647807,-9.686342498660087,14936.0
14.11,3.0999999046325684,210.0,20.963085174560547,30.24854850769043,-79.7828225206353,40.45905059837959,272.36835370635987,0.0152842765673995,-0.0095720998942852,-0.8030676841735841,0.5956149697303772,0.058873378745465,0.2855726558297873,2.751809809409033,0.0187805090099573,0.042511373758316,-0.0064390618354082,0.2108283221907913,-0.1691900985315442,-9.50087875843048,14937.0
14.3,3.2000000476837163,209.0,20.870433807373047,30.67794418334961,-79.78282241155078,40.459050857287785,272.59856401062007,0.0157298687845468,-0.0112289348617196,-0.8028145432472229,0.595915675163269,0.0106039264709895,0.2501512194349077,2.678830626047098,0.0644624680280685,0.0224233418703079,-0.0784603282809257,0.2251897233724594,-0.1174788856040686,-9.611194083094595,14937.0
14.41,3.2000000476837163,207.0,20.887962341308597,30.542762756347656,-79.78282149199944,40.45905073220137,273.30644355392457,0.0167574845254421,-0.0130880717188119,-0.8024248480796814,0.5963742733001709,-0.018107780258221,0.2488562919917976,2.727970761498163,0.0245475731790065,0.0043324725702404,0.0707986950874328,0.134511294895783,-0.1540537037327885,-9.657211670279503,14938.0
14.6,3.299999952316284,206.0,20.97184944152832,29.59650230407715,-79.78282133476786,40.45905068669197,273.57904277420045,0.0174668580293655,-0.0127608552575111,-0.8023760914802551,0.5964265465736389,-0.0292384444454748,0.2323788075097521,2.7077943636509048,-0.030523968860507,-0.0072850394062697,0.057616613805294,0.1441732523124665,-0.1330742046050727,-9.621640133857728,14938.0
14.7,3.299999952316284,202.0,20.881702423095703,30.50300407409668,-79.78282059031994,40.459050183580935,274.22283254241944,0.0195801425725221,-0.0123319756239652,-0.8023682236671448,0.5963807106018066,-0.0118131883543138,0.2179884668280913,2.691944205413044,0.0375685133039951,-0.0087525807321071,-0.0441269241273403,0.2476855516992509,-0.1819042111560702,-9.638591796755794,14939.0
14.9,3.299999952316284,203.0,20.90549087524414,29.683971405029297,-79.78282049203756,40.45905013760349,274.49188409423834,0.0203196611255407,-0.013408382423222,-0.8024187684059143,0.5962647199630737,-0.0239336852628535,0.1999659688444084,2.6753310369823966,-0.107264444231987,0.0702826306223869,0.0634552165865898,0.1363820110447705,-0.1508601281326264,-9.58027634561062,14939.0
15.0,3.400000095367432,203.0,21.02568817138672,28.07771301269531,-79.78281979107666,40.45904953622513,275.14006791687007,0.0192355308681726,-0.0190900806337595,-0.8029460906982422,0.5954354405403137,0.00916334564798,0.2001385285936815,2.6603337132747216,-0.0568827651441097,0.0223481524735689,-0.0765486434102058,0.2131664227321744,-0.1127652532048523,-9.475457988381388,14940.0
15.2,3.299999952316284,207.0,20.85916519165039,31.083484649658203,-79.78281974761012,40.459049487290095,275.40595708465577,0.0177672207355499,-0.0224984940141439,-0.8033478260040283,0.5948196649551392,0.0150530781682004,0.177266229172131,2.6542800011533427,-0.1167250275611877,0.0727611929178237,0.0305310413241386,0.2009144594147801,-0.1070694987103343,-9.669099644422534,14940.0
15.3,3.299999952316284,209.0,20.87544059753418,30.72565460205078,-79.7828190349443,40.45904883953494,276.07253537750245,0.0137253301218152,-0.0227689258754253,-0.8032177090644836,0.5950919985771179,0.0412180387731809,0.1812802270465697,2.7327208758779733,-0.0186791755259037,-0.0836066231131553,-0.0413862466812133,0.2662803370133042,-0.0927439848147332,-9.876817302703856,14941.0
15.5,3.299999952316284,213.0,20.870433807373047,28.90469741821289,-79.78281844065316,40.459048370526936,276.4834965286255,0.0108844405040144,-0.0217471178621053,-0.8030586242675781,0.5954037308692932,0.0592203819478419,0.1725650970551073,2.8228881622745097,0.057776715606451,-0.0434614978730678,-0.0825304985046386,0.2090492154657841,-0.1078119032364338,-9.934359751939771,14941.0
15.6,3.299999952316284,215.0,20.99814224243164,27.58470344543457,-79.78281844458245,40.45904830954037,277.0489071426392,0.0156745295971632,-0.0195327177643776,-0.8032058477401733,0.5951749086380005,0.0350160632508101,0.116290606975004,2.7953198441146334,0.0490420833230018,0.0550507754087448,0.0400933586061,0.201580877546221,-0.0731409339560195,-9.802295708656311,14942.0
15.8,3.2000000476837163,217.0,20.93178367614746,29.071685791015625,-79.78281814751476,40.45904769680077,277.47418199157715,0.0191726926714181,-0.017869746312499,-0.8032886385917664,0.5950130224227905,0.0316654154223317,0.1255270314066013,2.8323311789685066,0.0750361084938049,-0.0114122815430164,0.0093078771606087,0.3123483564332128,-0.2108011143654585,-9.339036599993706,14942.0
15.9,3.2000000476837163,220.0,20.83287239074707,31.43336296081543,-79.78281802918764,40.459047426432576,278.13387284851075,0.018364567309618,-0.0199696607887744,-0.8035572171211243,0.5946090221405029,0.0091354786387935,0.1073171275203443,2.833899820325525,-0.0466357618570327,0.0277063101530075,0.0710618495941162,0.3384478785842657,-0.1029667724389583,-9.50975541651249,14943.0
16.1,3.2000000476837163,226.0,20.86918067932129,30.701799392700195,-79.78281810262573,40.45904741223076,278.4164598999024,0.0174804478883743,-0.0201184768229722,-0.8039289116859436,0.5941280126571655,0.0141147734564019,0.0859086320801984,2.814668722824585,0.0250584743916988,0.0012724174885079,-0.0425349473953247,0.300100540984422,-0.0667409965395927,-9.539535870552063,14943.0
16.2,3.2000000476837163,228.0,20.83662796020508,30.16107940673828,-79.78281810134573,40.45904709523724,279.0701674041748,0.0151470573619008,-0.020824983716011,-0.804377555847168,0.5935600996017456,0.0202140814781209,0.0501354855013553,2.8413451142247093,-0.0540949627757072,0.0470094121992588,0.0371699035167694,0.2600962303765118,-0.1576494489982724,-9.6069238615036,14944.0
16.4,3.2000000476837163,233.0,20.79656219482422,30.43939018249512,-79.78281822565373,40.45904710268383,279.3528250274658,0.0146953053772449,-0.0202190335839986,-0.8045762777328491,0.5933231115341187,0.0228348142833182,0.0353874019956845,2.8227569999763884,-0.0114729665219783,-0.0364381596446037,0.0555707737803459,0.2823255718499422,-0.1625541300326586,-9.637666182518004,14944.0
16.5,3.2000000476837163,231.0,20.91926383972168,29.44541931152344,-79.78281831404864,40.4590472222179,279.9906195220948,0.0154651924967765,-0.0179528165608644,-0.8043873906135559,0.5936325788497925,-0.0335377083887079,7.913600489946325e-05,2.8772598166080408,-0.0092573072761297,-0.0590278580784797,-0.0022633809130638,0.3426127041131258,-0.1844643048942088,-9.71622527897358,14944.0
16.7,3.2000000476837163,233.0,20.747732162475582,32.45119094848633,-79.78281847237048,40.45904728889745,280.27696786499024,0.0152839142829179,-0.0167409274727106,-0.803756594657898,0.5945263504981995,-0.0450824904012868,-0.020996651651392,2.8600395768257663,0.0962496325373649,-0.0673095881938934,-0.0732562988996505,0.3691826713085175,-0.1554266665130853,-9.739677291512493,14945.0
16.8,3.2000000476837163,236.0,20.74272346496582,31.15505027770996,-79.78281881707635,40.45904725580995,280.90883908844,0.0145784961059689,-0.010867541655898,-0.8017749190330505,0.5973495841026306,-0.0615914083531918,-0.0559811478776106,2.9424882562796464,0.0805405229330062,-0.1034209132194519,0.006102149374783,0.3151839636638761,-0.2325716686807573,-10.03923307299614,14945.0
17.0,3.2000000476837163,238.0,20.92552375793457,28.96036148071289,-79.78281902992333,40.4590471355813,281.2288702545166,0.0143625130876898,-0.0085640605539083,-0.8007777333259583,0.5987282395362854,-0.0568774156244539,-0.082219710233555,2.9556377689638444,-0.0249359905719757,0.0075002736411988,-0.0330411717295646,0.3870438320562244,-0.1595787926204502,-9.877190355062485,14946.0
17.1,3.0999999046325684,237.0,20.834123611450195,32.053600311279304,-79.78281943221313,40.45904728084268,281.81642137146,0.0140563640743494,-0.009273225441575,-0.8000357151031494,0.599716067314148,-0.0689443625248065,-0.0937440521585079,2.927050385848332,0.0314324907958507,-0.0118295717984437,-0.0505357980728149,0.2639684941247106,-0.1152892769314348,-9.652240367531776,14946.0
17.3,3.0999999046325684,236.0,20.781538009643555,31.520832061767567,-79.78281996464743,40.459047382633344,282.13076482391364,0.0132837574928998,-0.0107275610789656,-0.8003404140472412,0.5993026494979858,-0.0702116626136413,-0.1324105324015851,2.9494223512121915,-0.0163831617683172,-0.0193692930042743,-0.015746159479022,0.3732037649676204,-0.1848477360606193,-9.884940254688264,14947.0
17.4,3.0999999046325684,236.0,20.74397659301757,32.40348052978516,-79.78282054723223,40.45904750325597,282.72308526611334,0.0108837708830833,-0.0109957940876483,-0.8014467358589172,0.5978660583496094,-0.0580359920126547,-0.1317305018828639,2.9836845357769493,-0.0294958688318729,-0.0555330477654933,0.086527332663536,0.3573092786595225,-0.203254094850272,-9.99538714170456,14947.0
17.6,3.0999999046325684,237.0,20.880449295043945,28.594579696655277,-79.78282079145636,40.45904760010836,283.0218790588379,0.0099155465140938,-0.0088425809517502,-0.8017798662185669,0.5974718928337097,-0.0604101198011539,-0.1353763037102612,3.00523479958137,0.0200341828167438,-0.039340678602457,0.0847595706582069,0.3103713397309184,-0.1377125084213912,-9.989044082164764,14948.0
17.7,3.0999999046325684,238.0,20.797813415527344,32.053600311279304,-79.78282144812471,40.4590477486698,283.60942159271235,0.011344171129167,-0.0036036586388945,-0.8022955060005188,0.5968084335327148,-0.0604016524608791,-0.1468163461300677,2.969503271359092,0.0931457728147506,-0.0540358573198318,0.0131123438477516,0.3294718543812632,-0.0379425869369879,-9.801967679858206,14948.0
17.9,3.0999999046325684,239.0,20.681373596191406,32.80106735229492,-79.78282166840116,40.459047835408384,283.90617070770264,0.0113563304767012,-0.0026593746151775,-0.8025647401809692,0.5964511036872864,-0.0834411111168323,-0.1443383702800789,2.9700914830626006,-0.0475505478680133,0.062684029340744,0.0324500761926174,0.2990699692256749,-0.2027108154259622,-9.815033283233642,14948.0
18.0,3.0999999046325684,239.0,20.781538009643555,31.17095375061035,-79.7828221274865,40.45904802818453,284.49838052368165,0.0112575702369213,-0.0067893518134951,-0.8026144504547119,0.5963534116744995,-0.0966582863743562,-0.1252830587250062,2.9822938559556493,-0.0008467824663966,0.0169049203395843,0.0466980785131454,0.3780664556846023,-0.1947881305776536,-9.92965742111206,14949.0
18.2,3.0999999046325684,241.0,20.79280662536621,31.43336296081543,-79.78282230550079,40.45904813264185,284.7960032043457,0.0133153153583407,-0.0053241238929331,-0.8031235337257385,0.5956400632858276,-0.1009463785426025,-0.0998117307598174,2.972889707155112,0.0231323279440403,-0.0068890182301402,0.0026475407648831,0.360314089693129,-0.1498216626327485,-9.713062520027162,14949.0
18.3,3.0999999046325684,240.0,20.661340713500977,32.41143035888672,-79.78282279781344,40.459048423774384,285.38495050048834,0.019201835617423,-0.0040236026979982,-0.8047638535499573,0.5932709574699402,-0.1516855534289878,-0.1187888191260897,2.964160749111206,0.0746938809752464,-0.002540621208027,-0.0387742929160594,0.2653037789091468,-0.1729770477488637,-9.731481249332427,14950.0
18.5,3.0999999046325684,238.0,21.04446792602539,26.12952995300293,-79.78282295863751,40.459048513067984,285.6821707305908,0.0202303547412157,-0.0034236665815114,-0.8054489493370056,0.5923098921775818,-0.1615540219029043,-0.0955154705808224,2.964099371749688,0.040357906371355,-0.0362696982920169,-0.0234454236924648,0.3987308081611991,-0.2064900901727378,-9.789913644790651,14950.0
18.6,3.0999999046325684,237.0,21.09079360961914,25.18326759338379,-79.78282330140641,40.45904873731379,286.2633112487793,0.0167779885232448,0.0063127418980002,-0.8061563372612,0.5914310812950134,-0.1605979066227911,-0.1030961983975287,2.828047512060675,-0.0273819733411073,-0.1683174818754196,0.0410423949360847,0.3339990976452827,-0.2998113778978586,-9.421077713370323,14951.0
18.8,3.2000000476837163,238.0,21.14338111877441,23.61676788330078,-79.7828235016008,40.45904889735887,286.5518911895752,0.0161172430962324,0.0095523465424776,-0.8059735298156738,0.5916551351547241,-0.1669664609780529,-0.1475920361137269,2.733037493206821,-0.0029011478181928,-0.0179542582482099,0.0483990833163261,0.1602337355911731,-0.3340782177820802,-8.816089698672295,14951.0
18.9,3.2000000476837163,235.0,21.20848655700684,23.131710052490234,-79.78282378670444,40.45904904997614,287.0959871826172,0.0190863907337188,0.0082307523116469,-0.8038887977600098,0.5944163799285889,-0.1556660234155248,-0.1166964371355658,2.51771717740464,-0.0137508027255535,0.0383308678865432,-0.0088482620194554,0.223661206383258,-0.2280048105306923,-8.548258570432662,14952.0
19.1,3.0999999046325684,234.0,21.159656524658203,23.9825496673584,-79.78282390728538,40.45904912140285,287.34228311157227,0.0177930332720279,0.0047920704819262,-0.8029067516326904,0.5958197116851807,-0.1372292717204309,-0.0906773924942772,2.404374054472396,-0.0343977697193622,0.0493924282491207,-0.0077101001515984,0.3213603775575757,-0.2406235952675343,-8.654526452422141,14952.0
19.2,3.0999999046325684,233.0,21.18094253540039,23.473636627197266,-79.78282398998486,40.45904923176033,287.82479653930665,0.0126051632687449,0.0007488175760954,-0.8019370436668396,0.5972750782966614,-0.0819850087672464,-0.0379932532631061,2.232397973819857,-0.0392050221562385,0.0545175746083259,-0.0091759003698825,0.3194994280859828,-0.1773806406743824,-8.690892040729523,14952.0
19.4,3.0,230.0,21.228519439697266,23.87917709350586,-79.7828240584914,40.45904926735346,288.04337297058106,0.0120231788605451,5.27311276528053e-05,-0.8029959797859192,0.5958632826805115,-0.0641294355578374,-0.0349562931015272,2.139097013913602,0.0597014352679252,-0.0065763411112129,0.0762536376714706,0.2188357733935118,-0.2411550888977945,-8.926276969313623,14953.0
19.5,3.0,228.0,21.1846981048584,24.49941635131836,-79.78282407273599,40.45904928634325,288.27041040039063,0.0148836858570575,-0.0017718931194394,-0.8047121167182922,0.5934761762619019,-0.0677706646519709,-0.0269633056406466,2.0837000634554554,-0.00631351955235,0.1054649427533149,0.0887216851115226,0.1311249621771276,-0.2302778242528439,-8.85643548667431,14953.0
19.7,3.0999999046325684,226.0,21.19346237182617,24.403993606567383,-79.78282417903334,40.45904937466853,288.6678103027344,0.0226124506443738,-0.005944631062448,-0.8068068623542786,0.590352475643158,-0.0862570179307535,-0.0062134690054571,1.88280806340936,0.0520099960267543,0.0064714211039245,0.0321987941861152,0.2550686664506793,-0.3627957576513289,-8.759487481713295,14953.0
19.8,3.0999999046325684,225.0,21.123348236083984,25.23097801208496,-79.78282423801588,40.45904948015214,289.0579660949707,0.0298633240163326,-0.0033875426743179,-0.8046692013740541,0.5929623246192932,-0.1117081726669676,-0.0002473441137029,1.724604533654074,0.0800472572445869,-0.0021576869767159,-0.0740293189883232,0.3094573102891445,-0.2822321625798941,-8.876791398525238,14954.0
20.0,3.0999999046325684,230.0,21.06324958801269,25.50929069519043,-79.78282418931704,40.45904949396212,289.2642592010498,0.0298420805484056,-7.265409658430144e-05,-0.8025042414665222,0.595899760723114,-0.1157550521019905,0.006308462471621,1.704844850035626,-0.007276258431375,-0.1205502450466156,-0.056045301258564,0.3556218453124166,-0.3817469124868512,-9.106029734015465,14954.0
20.1,3.0,230.0,21.02568817138672,25.04808807373047,-79.7828243290792,40.45904957614569,289.5956362304688,0.0265612937510013,0.0039600720629096,-0.7982870936393738,0.601678192615509,-0.0937198460311652,-0.0291495760571432,1.6121193354348509,0.011510538868606,-0.0188050791621208,-0.1318608224391937,0.2326467505842447,-0.4279507334902883,-9.28951068341732,14954.0
20.3,3.0,231.0,21.07451820373535,25.1673641204834,-79.78282418079895,40.45904957376995,289.8149736938477,0.0260384753346443,0.0018196841701865,-0.7969787716865541,0.6034430861473083,-0.0733574220006395,-0.0190825682306327,1.6183548962891443,0.0611733123660087,0.0807918757200241,-0.136032298207283,0.2052474289387464,-0.1614749350212514,-9.340567985773085,14954.0
20.4,2.900000095367432,230.0,21.10707092285156,25.73989295959473,-79.78282419828838,40.45904963276296,290.1841867980957,0.0250762291252613,-0.0025138314813375,-0.7961616516113281,0.6045588850975037,-0.0344483155462679,0.0129437937174842,1.5759060707756851,-0.0354167036712169,-0.0006801204872317,0.0534308180212974,0.2660224565304816,-0.2469439603015781,-9.273282905817034,14955.0
20.6,2.799999952316284,229.0,22.04610824584961,10.973447799682615,-79.78282425330507,40.45904961038831,290.3383425292969,0.0238368175923824,-0.0032466233242303,-0.796730637550354,0.6038556694984436,-0.0146011155941524,0.010835515253754,1.4925262206395085,-0.014967150054872,-0.0060432418249547,0.0630524083971977,0.2393445716612041,-0.3111757704243064,-8.905136361122132,14955.0
20.7,2.799999952316284,230.0,21.29863548278809,22.83749389648437,-79.78282430803435,40.459049587632535,290.4748648223877,0.0217725578695535,-0.0042773005552589,-0.793997585773468,0.6075158715248108,-0.0118389489725551,0.0033065810457659,1.214929315982695,-0.0053004911169409,-0.0382835492491722,-0.2724632024765014,0.2363454433903098,-0.3704568161442876,-7.4681497853994365,14955.0
20.9,2.700000047683716,232.0,21.26107215881348,22.78183174133301,-79.78282425384019,40.45904942553701,290.695249420166,0.0187165439128875,-0.0028590038418769,-0.7493413090705872,0.6619133353233337,-0.0084659481707401,0.0011121863586761,0.8183061293313643,-0.0661985278129577,-0.0719173774123191,-0.9165202379226683,0.2771999939717352,-0.2749954292178154,-7.897512584924697,14955.0
21.0,2.700000047683716,234.0,21.209739685058597,23.31460189819336,-79.78282432209483,40.4590494210507,290.7419165191651,0.0150091703981161,-0.0024676884058862,-0.7164497375488281,0.6974729299545288,-0.0105371642977463,-0.0105506926284771,0.6985430030785731,-0.0129902195185422,-0.0312158819288015,-0.9932502508163452,0.2036165308579802,-0.1805171236954629,-8.384806088805199,14955.0
21.2,2.700000047683716,221.0,21.18219375610352,23.63267135620117,-79.78282439313786,40.4590494156669,290.8608645019532,0.0152160711586475,-0.0036192792467772,-0.6460983753204346,0.7630938887596129,-0.0058154752269192,-0.0146431185989874,0.5057918959696495,0.0498901642858982,0.0391083173453807,-0.9224160313606262,0.2662779250368476,-0.1456769460439682,-8.909528204798699,14955.0
21.3,2.5,212.0,21.15089225769043,23.624719619750977,-79.78282444116877,40.45904943569589,290.8949659881592,0.0208936091512441,-0.0042304880917072,-0.5889370441436768,0.807897686958313,0.0064066914766876,0.00074150322671,0.3705576439943736,0.0596764348447322,0.0306527130305767,-0.4786804020404816,0.3628516716510057,-0.1499991347640752,-9.067376130223275,14955.0
21.5,2.5,218.0,20.906742095947266,27.91072654724121,-79.78282447808185,40.45904939770771,290.88560090637213,0.0269305501133203,-0.004473035223782,-0.5700960159301758,0.8211244344711304,0.0291504428900137,-0.0179467033170516,0.3636291100625049,0.0451219379901886,0.2018345892429352,-0.2691482603549957,0.1940905577503144,-0.0787847076170146,-9.558307186961176,14955.0
21.6,2.400000095367432,222.0,21.125850677490234,24.45965576171875,-79.78282448784095,40.45904934405661,290.92214952087414,0.036947414278984,-0.004674513824284,-0.5575309991836548,0.8293204307556152,0.0584043713266767,-0.0039121997512705,0.3740650990844791,0.0849170163273811,0.0603589825332164,-0.1806830316781997,0.67284334436059,0.0410009913565591,-9.753890703320504,14955.0
21.8,2.5,214.0,20.993133544921875,27.19506645202637,-79.78282417637143,40.45904916453328,290.9614676055908,0.0057870578020811,0.026024168357253,-0.5498290657997131,0.8348516821861267,0.1123602152218744,0.100663216110113,0.3273296592389766,0.0533439479768276,-0.6184470057487488,-0.0567217320203781,0.5952131877467036,-0.0035768720065243,-9.424501842856408,14955.0
21.91,2.5,201.0,20.89297103881836,28.125423431396484,-79.78282396238534,40.459049095557454,290.9922197875977,-0.0253098867833614,0.0456634536385536,-0.5516712069511414,0.8324260115623474,0.1487610450410957,0.1751735833628434,0.3125535798595678,-0.0426893681287765,-0.6756308674812317,0.080553337931633,0.2803077890910208,-0.1635728246346116,-9.587929181456566,14955.0
22.1,2.400000095367432,202.0,21.00815963745117,27.807353973388672,-79.78282259736639,40.45904934307862,291.0568159637451,-0.0702225863933563,0.0653183758258819,-0.5600028038024902,0.822921097278595,0.1596486960326755,0.452217133029781,0.4709717206329654,-0.1239495202898979,-0.2320216894149781,0.1657701730728149,0.0926468662172556,-0.1333384622074663,-10.178062344789506,14956.0
22.21,2.5,199.0,20.97685813903809,27.55289649963379,-79.78282164803319,40.45904975127503,291.0313910064698,-0.0802027955651283,0.0674492642283439,-0.5701728463172913,0.8148135542869568,0.1409003923453125,0.818735311384805,0.5592509378820364,-0.0185020640492439,-0.0776487812399864,0.1488150209188461,0.1973775334842504,-0.1347322008758783,-10.107845470905303,14956.0
22.4,2.5,170.0,21.029443740844727,25.5649528503418,-79.78282044896677,40.45904995590945,291.0703981933594,-0.0819885209202766,0.0663746148347854,-0.5731231570243835,0.8126513361930847,0.1244975583662492,1.0492669911197612,0.6350989126530914,-0.0718313604593277,-0.0770138874650001,0.0640142410993576,0.2843832253105938,-0.1803282220847905,-10.227099434137346,14956.0
22.5,2.5,171.0,20.910499572753903,28.25265312194824,-79.78281933037697,40.45905043019819,291.00886903381354,-0.0840365961194038,0.0694110319018364,-0.5741958022117615,0.8114303946495056,0.0859634726223399,1.2571165416170842,0.6511405085280502,0.066494233906269,-0.1736604869365692,-0.0356493853032588,0.2024772008880973,-0.1741540008969605,-10.187290420532229,14956.0
22.7,2.5,163.0,20.90048217773437,28.276508331298828,-79.7828156446828,40.459051230173394,291.08728776550294,-0.0918580293655395,0.0885422155261039,-0.5742923021316528,0.8086474537849426,0.0862979404608187,1.740947309419329,0.8565237311375301,0.0740730017423629,-0.2586353719234466,-0.0005717336316592,0.1677153211086988,-0.2744275914877653,-10.507169369459152,14956.0
22.8,2.5999999046325684,157.0,21.03194808959961,25.97049331665039,-79.78281096860817,40.459052628689605,291.0697420654297,-0.10196553170681,0.1018131524324417,-0.5753157734870911,0.8051391243934631,0.0716162409772149,2.2169518128868835,1.1077837594771076,-0.0302429907023906,-0.0511968545615673,-0.0174957867711782,0.0747986789792776,-0.2764112776704133,-10.563727147579192,14956.0
23.0,2.5999999046325684,136.0,21.046972274780277,25.24688148498535,-79.78280827050385,40.45905366591976,291.0095346984864,-0.1038936600089073,0.102669358253479,-0.5767576098442078,0.8037511110305786,0.0497763842669362,2.457996905149673,1.1787040847387424,0.031169768422842,0.0063689453527331,-0.0076319049112498,-0.1306483775563538,-0.2226301778107881,-10.29019206047058,14956.0
23.1,2.700000047683716,128.0,20.980613708496094,26.71000862121582,-79.78280507951455,40.45905440670764,291.05296693420416,-0.1045335680246353,0.1016247421503067,-0.5787145495414734,0.8023930788040161,0.0591857799325223,2.7188482189875685,1.2608933880266229,-0.0716776326298713,-0.0418430976569652,0.1375536620616912,-0.1462914701364934,-0.2936362430825829,-10.086342920064927,14956.0
23.3,2.799999952316284,114.0,20.96183204650879,27.3063907623291,-79.78279847782895,40.4590567795404,291.02372918701167,-0.107126660645008,0.0989005044102668,-0.5796946883201599,0.8016837239265442,0.0042559996331028,3.2072661192367904,1.3265135970848505,-0.0464703105390071,-0.0468340255320072,-0.0557590909302234,-0.1824275917746126,-0.106118375994265,-10.011953473091124,14956.0
23.41,2.900000095367432,107.0,20.93804359436035,26.84518814086914,-79.78279444858072,40.45905774935457,291.0586908874512,-0.1090452596545219,0.0993949696421623,-0.5797742605209351,0.8013062477111816,0.0242869152408435,3.459179890465251,1.3958523335027972,0.0056437673047184,-0.0181142874062061,0.0625035911798477,-0.1927353741601109,-0.2354004967957735,-10.11674961090088,14956.0
23.5,3.2000000476837163,97.0,21.08828926086425,23.96664619445801,-79.78279044303682,40.45905949296789,291.0041521606445,-0.1095042377710342,0.0986738428473472,-0.5784015059471129,0.802324116230011,-0.0341294759371694,3.69101454049631,1.4511494129500837,0.0207029152661562,-0.0103181647136807,-0.0022436280269175,-0.3925492779538036,-0.2415292924270033,-10.142919409275056,14956.0
23.7,3.400000095367432,91.0,21.03445243835449,25.326400756835927,-79.78277677470055,40.45906420591847,291.00087533569337,-0.1073083281517028,0.0992479175329208,-0.5744574069976807,0.8053779006004333,-0.0696219974063966,4.391572110858984,1.5317409579335002,0.1019884422421455,-0.1258510947227478,0.0320198945701122,-0.3888123224303127,-0.1877189199440181,-9.891254078149796,14956.0
23.9,3.700000047683716,84.0,21.010662078857425,25.89097595214844,-79.78277146328274,40.45906560225324,291.0216673431396,-0.1066334247589111,0.1024808809161186,-0.5737501382827759,0.8055667281150818,-0.0245846184271556,4.619888290117894,1.5870978081132605,0.1077355444431305,-0.0800368413329124,-0.0883126109838485,-0.3733486297354102,-0.1980208185687661,-9.933477991819382,14956.0
24.0,4.0,79.0,21.02318382263184,25.77169990539551,-79.78276644848515,40.45906835314716,290.9600103912354,-0.1066071316599846,0.1041549071669578,-0.5710671544075012,0.8072602152824402,-0.1181214852930949,4.836776279193591,1.6088896345949366,-0.013888674788177,-0.0379161387681961,0.1084772795438766,-0.5476088855043054,-0.333172739893198,-9.830996181964872,14955.0
24.2,4.400000095367432,72.0,21.06324958801269,24.761823654174805,-79.78275463658821,40.45907158614731,290.98243699646,-0.1062001287937164,0.1026524230837822,-0.5710148811340332,0.8075432777404785,-0.0377927267417867,5.288403325873945,1.674284915411442,-0.0440160520374774,-0.0253346096724271,-0.0311403479427099,-0.534676562100649,-0.2609719240106642,-9.595211888551711,14955.0
24.3,4.599999904632568,67.0,21.020679473876957,25.71603775024414,-79.7827424234071,40.45907663536622,290.91906724548335,-0.1103789955377578,0.1029136776924133,-0.5701050758361816,0.8075924515724182,-0.098928007918419,5.7214180725705885,1.6954517480089688,0.0778739005327224,-0.0528139173984527,-0.1214310452342033,-0.6850638058036567,-0.2498115079477429,-9.479400765895845,14955.0
24.41,5.0,63.0,20.98562240600586,26.081817626953125,-79.78273591979942,40.45907977107385,290.8756044921875,-0.1094472035765648,0.1030219569802284,-0.5684785842895508,0.8088510036468506,-0.2046492797152799,5.925180928144404,1.7646281504462336,0.0207490846514701,0.0309210885316133,-0.0027219844050705,-0.8151988526433707,-0.2301411821320653,-9.804320014715197,14955.0
24.6,5.199999809265137,61.0,21.04947662353516,25.15146064758301,-79.78272899720456,40.45908179952664,290.8689402160645,-0.106635719537735,0.1018376797437667,-0.569473385810852,0.8086767196655273,-0.1571528861077825,6.134717916824366,1.8033549834136229,0.0415820181369781,0.1053113043308258,-0.0427961125969886,-0.6257544010877609,-0.2816906555928289,-9.897260338068008,14955.0
24.8,5.599999904632568,60.0,20.89923095703125,27.5369930267334,-79.7827147411344,40.4590874856537,290.81952272033686,-0.1063693687319755,0.0984776243567466,-0.5693816542625427,0.809192419052124,-0.2647774199316126,6.552927305478955,1.8039332171317284,-0.0059902109205722,0.0492336302995681,-0.0296585243195295,-1.098986520767212,-0.1040443686023354,-9.61514855504036,14955.0
24.9,5.800000190734862,60.0,20.91926383972168,27.370006561279297,-79.7827071616547,40.45908975203668,290.80505166625977,-0.105070948600769,0.1003641486167907,-0.5707192420959473,0.8081872463226318,-0.2195937672050972,6.749510357575293,1.8369921286701751,0.096199631690979,0.0084642525762319,-0.0156709048897027,-1.0973698387295008,-0.0950565768778324,-9.751641279459,14955.0
25.1,6.099999904632568,58.0,21.112079620361328,23.64857482910156,-79.78269137875415,40.45909584837946,290.7493494567871,-0.1033826097846031,0.1025279089808464,-0.5709373950958252,0.8079794049263,-0.3037839796211629,7.128015383355884,1.9860367868082711,-0.0685638636350631,0.0756466686725616,0.0194010380655527,-1.1403416843712328,-0.2949722953140736,-10.089271205663682,14955.0
25.2,6.300000190734862,57.0,21.015670776367188,25.382062911987305,-79.78268314978787,40.45909832139687,290.7383669433594,-0.1039903089404106,0.0982018485665321,-0.5710259675979614,0.8083759546279907,-0.2908839208280587,7.302673725295298,2.035939232165407,-0.0805354639887809,0.0485441237688064,-0.077142909169197,-1.070719837769866,-0.1531742642261088,-9.965663405656818,14955.0
25.4,6.599999904632568,56.0,20.73896789550781,31.441314697265625,-79.78266632161478,40.45910523476157,290.6786421356201,-0.1079339534044265,0.0941562354564666,-0.567642331123352,0.8107201457023621,-0.3058783841607639,7.673930681895891,2.048855190003952,-0.0096702706068754,-0.0520407333970069,-0.0640411674976348,-1.2236607067286969,-0.0796305621787905,-9.680371906757356,14955.0
25.5,6.800000190734862,57.0,20.811586380004886,28.01409912109375,-79.78264850855851,40.4591119949454,290.6102617797852,-0.1121783033013343,0.0972340032458305,-0.5624027252197266,0.8134278059005737,-0.3220343671261485,8.0170239774903,2.2300908074296864,-0.0937900394201278,-0.1465320885181427,0.0371778458356857,-1.3095441716909408,-0.3616675373911858,-9.964736037254331,14955.0
25.7,7.199999809265138,57.0,20.72644805908203,31.06758117675781,-79.78263934232571,40.45911488057897,290.5972460327148,-0.1138270199298858,0.0983505919575691,-0.5603170394897461,0.8145031332969666,-0.2910032684151488,8.166541187325,2.361770948516198,0.0091035077348351,-0.0639158263802528,-0.1491055190563202,-1.1315672794729472,-0.3612173748761416,-10.209529720544817,14955.0
25.8,7.400000095367432,57.0,20.815343856811523,28.212894439697266,-79.78262993001545,40.45911921828753,290.5347403106689,-0.1155386269092559,0.0969863682985305,-0.5569061636924744,0.8167619109153748,-0.3567057798221416,8.337725746468667,2.458239622336132,-0.0158888753503561,0.043844100087881,-0.0156137607991695,-1.3512327727675442,-0.175873813200742,-10.203481360673903,14955.0
26.0,7.800000190734862,53.0,20.83662796020508,28.578676223754893,-79.78261043797481,40.45912633059154,290.45657334899914,-0.1200027614831924,0.0948598012328148,-0.5551027655601501,0.8175951838493347,-0.3333086272792434,8.682360326010334,2.5752432350622367,-0.0109829558059573,-0.1396798342466354,0.0702301263809204,-1.1425744436681269,-0.4367242978513241,-9.92095091700554,14955.0
26.1,8.0,55.0,20.72018814086914,29.381805419921875,-79.78259048710534,40.45913293269916,290.4325617370605,-0.1265260279178619,0.0991408973932266,-0.5542237758636475,0.8166995644569397,-0.3327814901064506,8.958203465559976,2.7810437235014103,-0.0102016823366284,0.1048150658607482,-0.166562333703041,-1.3016535003483296,-0.1211558066681027,-9.814452069997788,14955.0
26.3,8.399999618530272,55.0,20.854156494140625,27.393861770629893,-79.78258012655479,40.459137419861264,290.36435113525386,-0.1302772760391235,0.1011330932378768,-0.5517669320106506,0.8175287842750549,-0.4273609686292272,9.12511236553972,2.9185573113220338,0.0481001622974872,-0.1666701436042785,0.1026739776134491,-1.650234092026949,-0.4457660666853189,-9.895783331394195,14955.0
26.4,8.5,55.0,20.707666397094727,30.51890754699707,-79.78256970146599,40.4591409734239,290.3530672607422,-0.1319880932569503,0.1069632917642593,-0.5516300201416016,0.8166042566299438,-0.3834518850338428,9.271836725095316,3.05570473175721,0.1310507804155349,-0.0874205753207206,-0.2819259166717529,-1.5936043931543828,-0.1059398714639246,-9.884302908182145,14955.0
26.6,8.899999618530273,53.0,20.82911491394043,27.11554908752441,-79.78254788166277,40.45914893145192,290.27882371521,-0.1307696253061294,0.118542343378067,-0.5510136485099792,0.8156169652938843,-0.4724107783359585,9.58558892980312,3.334739953588016,0.0038059630896896,-0.0137254511937499,-0.0608926676213741,-1.6748097932338717,-0.3254920566827059,-9.961586726903915,14955.0
26.7,9.100000381469728,50.0,20.805326461791992,28.682048797607425,-79.78253685135344,40.45915271299091,290.2688559112549,-0.1320794075727462,0.1218144595623016,-0.55092453956604,0.8149837851524353,-0.4799038513283848,9.753154492318512,3.4453943722528315,0.0107010202482342,-0.1036122888326644,0.1305508464574813,-1.6409943218529226,-0.5387635831162334,-9.908416825532914,14955.0
26.9,9.600000381469728,50.0,20.57745361328125,32.53070831298828,-79.78251381499264,40.45916086708117,290.1937578735352,-0.1395511925220489,0.127970665693283,-0.5494905710220337,0.813762366771698,-0.4827302317898563,10.074685533809363,3.656658191013204,-0.0216029416769742,-0.1832851320505142,0.0256474763154983,-1.4472661270201206,-0.689298651739955,-9.7682625746727,14955.0
27.0,9.800000190734863,50.0,20.74648094177246,29.9066219329834,-79.78248982472478,40.45916948991211,290.1306284484864,-0.15163554251194,0.125400885939598,-0.544727623462677,0.8152013421058655,-0.4788217932371993,10.354323150589712,4.050757441177403,-0.175582930445671,-0.1140056997537612,-0.0986913070082664,-1.7300006385147573,-0.4722869172692299,-9.985614105463029,14955.0
27.2,10.100000381469728,47.0,20.593730926513672,33.087329864501946,-79.78247775051462,40.45917362373447,290.1167944488525,-0.1549647897481918,0.1245083510875702,-0.5432221889495851,0.8157164454460144,-0.3907793782202452,10.508212551486755,4.19837361332777,0.0594022683799266,0.0515741966664791,-0.2623144090175629,-1.6381003886461258,0.0323121156916022,-9.740220497846604,14955.0
27.3,10.300000190734863,47.0,20.375873565673828,37.1824951171875,-79.78246507164609,40.45917842596685,290.07925973510737,-0.1570386588573455,0.1292479634284973,-0.5415449738502502,0.8156978487968445,-0.4009173826794113,10.70877805765454,4.301763835998527,0.0062892916612327,-0.1949431896209716,-0.0263303872197866,-1.7065686526894566,-0.2827745831944048,-9.779592139720917,14955.0
27.5,10.600000381469728,47.0,20.52737045288086,33.44515991210937,-79.7824393803789,40.45918735883533,290.0290201721192,-0.1465921849012375,0.1276029646396637,-0.5401214361190796,0.8188388347625732,-0.3753056198852923,10.974966635042705,4.64508262679112,0.0497546643018722,0.5114080309867859,-0.0335869342088699,-2.0182193997502327,-0.3388747618719936,-10.114642274379731,14955.0
27.6,10.699999809265137,47.0,20.697650909423828,31.60830116271973,-79.78242647411982,40.459191789125725,290.02058396911616,-0.1269558370113372,0.1126023828983306,-0.5409490466117859,0.8237578868865967,-0.3126265106645993,11.20231626099951,4.504510253696012,-0.0752272009849548,0.6190381646156311,-0.2305701524019241,-2.122165060043335,-0.332501881532371,-10.279806236028673,14955.0
27.8,11.100000381469728,45.0,20.718935012817383,28.093616485595703,-79.78239975194937,40.45920115224214,289.99926553344727,-0.0962096899747848,0.0880507379770279,-0.5406066179275513,0.8311048746109009,-0.1832546046754081,11.773227316162572,3.537924231238494,-0.0121011808514595,0.2556404173374176,-0.0580406002700328,-2.1597549091279507,-0.250464934296906,-10.00410884857178,14954.0
27.9,11.300000190734863,51.0,20.775278091430664,28.006147384643555,-79.78237243049506,40.45921058952709,289.9771326599121,-0.09039768576622,0.0865417495369911,-0.5422890782356262,0.8308197259902954,-0.1494945921110878,12.01085005301591,3.131000372030305,-0.0662032589316368,-0.0769708827137947,0.1485572904348373,-2.0344196954369544,-0.1997407222352922,-10.022004836797716,14954.0
28.1,11.600000381469728,51.0,20.85916519165039,26.908802032470703,-79.78235908182278,40.459215185245256,289.98649583435065,-0.0909492000937462,0.0859772115945816,-0.5452498197555542,0.8288781046867371,-0.1833256883989961,12.026220268673365,3.1169408040834248,0.0540334805846214,0.1494589745998382,0.0021446484606713,-1.878708927333355,-0.3515328874066472,-9.680836760401728,14954.0
28.2,11.699999809265137,51.0,20.954320907592773,25.15146064758301,-79.7823457261345,40.45921978621948,289.9954756317139,-0.0877802520990371,0.0833862796425819,-0.5491228103637695,0.8269252777099609,-0.2836874020042033,12.008375240171372,3.118586320591167,0.0453084968030452,0.1851698607206345,0.2171734571456908,-2.6341405382752416,-0.6074140244722367,-9.544977289438249,14954.0
28.4,12.100000381469728,56.0,21.055736541748047,22.408098220825195,-79.78231815961466,40.459229417806064,289.9946039733887,-0.0676835626363754,0.0719617754220962,-0.558319091796875,0.8237234354019165,-0.5121151656353742,12.116017805792602,2.8266687990669586,0.0973671525716781,0.2836399078369141,-0.2876832485198974,-2.378606104552746,0.0282647095620632,-10.00257103085518,14954.0
28.5,12.100000381469728,62.0,21.16466522216797,22.44785690307617,-79.78229079372561,40.45923915502872,289.99662576293946,-0.0538107268512249,0.0728053525090217,-0.5646276473999023,0.8203654289245605,-0.7844972589588596,12.173475141548192,2.2898185472343053,0.078132040798664,0.0397016778588295,0.0087698055431246,-2.1718099674582483,-0.495976948030293,-9.682617237567904,14954.0
28.7,12.300000190734863,61.0,21.103315353393555,22.479665756225582,-79.78227751764202,40.45924379106036,290.00863824462886,-0.054420281201601,0.0781261473894119,-0.5657464265823364,0.8190640211105347,-0.8516945148526884,12.131667741910398,2.1632528992950526,0.0304282028228044,0.026392113417387,-0.2660306692123413,-2.4091076664626603,-0.3833913322538138,-9.254604560136798,14955.0
28.8,12.399999618530272,62.0,21.07451820373535,23.42592620849609,-79.78226366188336,40.45924900389922,289.9966276702881,-0.0574107095599174,0.0799222141504287,-0.565929114818573,0.8185601830482483,-0.9274272469412412,12.12940821851322,2.2219079101201364,-0.0340550728142261,0.0395359881222248,0.2792872488498688,-2.5087244868278504,-0.7347348795086146,-9.421478832364082,14954.0
29.0,12.600000381469728,62.0,21.30364227294922,18.392452239990234,-79.78223617505816,40.45925857122818,290.0157393035889,-0.0586304515600204,0.0738842040300369,-0.5667616128921509,0.8184649348258972,-0.9407990597356184,12.090710138901295,2.342970388791956,-0.0171467922627925,0.0699250847101211,-0.1551730185747146,-2.319219882041216,-0.329402674511075,-9.776015397906304,14955.0
29.1,12.600000381469728,62.0,21.175933837890625,23.457733154296875,-79.78222294736702,40.45926319312348,290.0291784820557,-0.056057408452034,0.0723726451396942,-0.5667837262153625,0.8187649846076965,-0.9282409794742188,12.06741995095882,2.283115823781062,-0.0287144798785448,-0.0480149909853935,0.2267102301120758,-2.284653920531273,-0.6672772336006165,-9.589250652194025,14955.0
29.3,12.600000381469728,62.0,21.056989669799805,25.135557174682607,-79.78219578242359,40.459272667235055,290.0560320434571,-0.057081464678049,0.0725138038396835,-0.5654398202896118,0.8196104764938354,-0.9008691340190932,12.053128407554526,2.183206113573319,0.0145572964102029,-0.0569593198597431,-0.3057394027709961,-2.0635831220448018,-0.4416118026897312,-9.498566769361496,14955.0
29.4,12.600000381469728,62.0,21.19596672058105,20.10208511352539,-79.78216886911197,40.45928190592422,290.08135400390626,-0.0439059138298034,0.0557158067822456,-0.5646832585334778,0.8222535252571106,-0.8502088431188848,11.979569652627324,2.151776382163264,-0.1018758863210678,0.2159841656684875,0.075234405696392,-1.811925538480282,-0.444385502524674,-9.993607249259949,14955.0
29.6,12.5,66.0,21.363740921020508,17.85173225402832,-79.78215584425539,40.45928646777015,290.10357843017584,-0.0285464040935039,0.0434480272233486,-0.5647926926612854,0.8235937356948853,-0.8200768383055159,11.945351565578086,1.8440904490578447,-0.0839708596467971,0.3208211958408356,0.3279439210891724,-2.037438466697932,-0.6577192287147046,-10.030188599824903,14955.0
29.7,12.399999618530272,74.0,21.33369255065918,18.30498313903809,-79.78214291469955,40.45929100086246,290.1294535217285,-0.0122491894289851,0.031497873365879,-0.5646629333496094,0.8246294260025024,-0.7645672588107757,11.90660823734486,1.3841655076469863,0.0939169004559516,0.6498586535453796,-0.3504133820533752,-1.7294248339533806,-0.0217537983879447,-9.97444826245308,14955.0
29.91,12.199999809265137,74.0,21.29863548278809,19.418231964111328,-79.78211686674038,40.45929996013995,290.1786192474365,0.0107374973595142,0.0134284822270274,-0.5605393052101135,0.8279494047164917,-0.6883035358785985,11.727532870050332,0.4702010155195893,0.183849886059761,0.431970089673996,0.0183125678449869,-1.4371570220589638,-0.4309809068217873,-9.617702618837358,14955.0
30.0,12.100000381469728,74.0,21.40255546569824,18.30498313903809,-79.78210357302682,40.45930441854844,290.20164666748053,0.0213082414120435,0.0078479228541255,-0.5569961071014404,0.8302046656608582,-0.5968803151720057,11.6171912013221,0.2086136758867896,0.0924971178174018,0.214631512761116,-0.2996965944766998,-1.7781362333893778,-0.5620822425931692,-9.845415415763854,14955.0
30.1,11.800000190734863,96.0,21.501466751098643,17.008844375610348,-79.78209121842374,40.45930877412063,290.2279718933105,0.0292546655982732,0.0042379964143037,-0.5525102615356445,0.8329817652702332,-0.5021480982706421,11.464312603596596,-0.0559662691130825,0.1041295528411865,0.0374229699373245,-0.2043436020612716,-1.0531372603029012,-0.5653801453113556,-9.91423714399338,14955.0
30.3,11.699999809265137,98.0,21.43260383605957,18.00281524658203,-79.78205435947291,40.45932156654421,290.2946260986328,0.0198167823255062,-0.0033957746345549,-0.5396291613578796,0.8416627645492554,-0.1623452798886481,10.96764207528086,-0.3004980643660743,0.0045258263126015,0.0398685112595558,-0.2108362019062042,-1.1880313559621574,-0.6379294735193253,-9.503785994052889,14955.0
30.5,11.5,98.0,21.45013236999512,16.571496963500973,-79.78204204332296,40.45932571185771,290.3297632751465,0.0199385154992342,-0.0024739585351198,-0.5372551679611206,0.8431804776191711,-0.077160504327274,10.829507083253656,-0.2846874151186297,-0.0410791970789432,0.0260754618793726,0.1645921468734741,-1.4810202026367187,-0.7066649553179741,-9.338018015027048,14955.0
30.6,11.399999618530272,98.0,21.40756225585937,17.994863510131836,-79.7820305720621,40.459329821272135,290.3387201843262,0.0218445044010877,-9.190942364512011e-05,-0.5359805226325989,0.8439477682113647,-0.0386962338233489,10.652745424130725,-0.3287610814403528,0.0397497676312923,0.0150596061721444,-0.0334576442837715,-1.1696413511037826,-0.2769680970534682,-9.326895441412926,14955.0
30.81,11.199999809265137,96.0,21.421335220336918,17.811973571777344,-79.78200765679487,40.459337721165966,290.3633879241944,0.0227876976132392,-0.0001886026875581,-0.5362529158592224,0.8437496423721313,-0.0314059111344291,10.34116701137259,-0.383229390766856,-0.0967254787683487,-0.0312748998403549,0.1607737243175506,-1.195993728786707,-0.4968136480450631,-9.490747287869452,14955.0
31.0,11.0,94.0,21.391286849975582,17.621131896972656,-79.78198534076658,40.459345400237495,290.38868508911133,0.0150395473465323,0.0012771468609571,-0.5391844511032104,0.8420525193214417,-0.0818233264784613,10.073075116970283,-0.3513468791796075,0.1061472743749618,-0.0804801136255264,-0.0225820802152156,-0.810026698037982,-0.3897264249622822,-9.767429931163786,14955.0
31.1,10.899999618530272,95.0,21.461400985717773,17.064506530761722,-79.78197470027287,40.45934927860954,290.3889578399658,0.0074305729940533,0.0072563649155199,-0.5411998033523561,0.8408299684524536,-0.1406733873227545,9.933484720379088,-0.2495150889878608,0.0820713862776756,-0.0870505347847938,0.2105025500059128,-1.0753641349822285,-0.6169919829815627,-9.57675924539566,14955.0
31.2,10.699999809265137,95.0,21.390033721923828,18.654861450195312,-79.78196420594598,40.4593531356139,290.3867682037354,-0.0043745073489844,0.0138138607144355,-0.5435217618942261,0.8392700552940369,-0.2249814366496512,9.822668060968637,-0.0965131096193742,0.0025882034096866,-0.2573858499526977,-0.1263357996940612,-1.4096672147512437,-0.3603906516730785,-9.399148900508884,14955.0
31.4,10.699999809265137,95.0,21.18720245361328,22.0025577545166,-79.78193222033137,40.45936373199265,290.3975676116944,-0.0495156645774841,0.0355569273233413,-0.5523403882980347,0.8313868641853333,-0.4044499153895665,9.642885725086344,0.6495179360959624,0.0369794480502605,-0.1887269914150238,-0.0225046705454588,-1.1472612793743608,-0.221933445520699,-9.127546902894975,14955.0
31.5,10.5,86.0,21.232275009155277,21.49364471435547,-79.78192196706728,40.459367529978216,290.3775061187744,-0.0653181299567222,0.0454761609435081,-0.5547311305999756,0.8282143473625183,-0.5334229419620032,9.600985066918902,0.9483352880935708,0.0071597611531615,-0.2455323934555053,0.1488048881292343,-1.6150921797752382,-0.2471762774884701,-9.176450091004371,14955.0
31.7,10.399999618530272,73.0,21.07201385498047,23.86327362060547,-79.78191172018953,40.45937136135511,290.3527563629151,-0.078915074467659,0.0566849894821643,-0.5557701587677002,0.8256384134292603,-0.6411439925885483,9.602298813929162,1.258526075693347,0.0849638283252716,-0.3422249555587769,-0.1303301453590393,-1.331936668753624,-0.3121723552420735,-9.062024173736573,14955.0
31.9,10.199999809265137,74.0,21.148387908935547,22.86134910583496,-79.78189068701106,40.4593786005684,290.3365591583252,-0.100182794034481,0.0784009993076324,-0.553528904914856,0.8230567574501038,-0.7047261587159879,9.626902909845713,1.85248260197956,0.0898496955633163,-0.0967652201652526,-0.3367019593715668,-1.4307562212646008,-0.14728924266994,-9.129667103290556,14955.0
32.0,10.100000381469728,73.0,21.040712356567383,23.83146667480469,-79.78188001980256,40.45938200902317,290.3398817596436,-0.1099930852651596,0.0871212854981422,-0.5505838990211487,0.8229027390480042,-0.6771758406860293,9.673547518858973,2.1160362540014708,-0.005582086276263,-0.2384441941976547,-0.0941648557782173,-1.1062234733998777,-0.2994739204645157,-9.268130924105645,14955.0
32.11,10.0,59.0,20.90924644470215,26.240854263305664,-79.78185873458756,40.45938997257346,290.2591856536865,-0.1310011446475982,0.0962348580360412,-0.5439949035644531,0.8231932520866394,-0.6330266184114796,9.850399299340076,2.6450576263345287,-0.0901668146252632,-0.3686463832855225,0.1246424540877342,-1.4963504326343535,-0.3394109515473247,-9.355735663175585,14955.0
32.3,10.0,55.0,20.980613708496094,25.040136337280277,-79.78184772566357,40.45939345670831,290.26704011535645,-0.1407614201307296,0.1006124541163444,-0.5406461954116821,0.8232650160789491,-0.5566404336177506,9.925132603368391,2.9605120310832738,-0.1651205867528915,-0.3225342333316803,0.0377804525196552,-1.6853011599183083,-0.450869114510715,-9.81307914376259,14955.0
32.5,9.899999618530272,55.0,20.74021911621093,30.59047508239746,-79.78182555688146,40.459401400574215,290.2051428375244,-0.1563805341720581,0.1185223013162612,-0.5362026095390321,0.8209654688835144,-0.4896531990265288,10.136932088294778,3.521050651635392,0.0638544484972953,-0.3038057684898376,0.153593361377716,-1.518419871032238,-0.4716906474530697,-9.72130300104618,14955.0
32.6,9.899999618530272,56.0,20.58997344970703,31.91046905517578,-79.78181407419711,40.459405677992905,290.1648558197021,-0.1627506762742996,0.1284033209085464,-0.5342172384262085,0.8195345997810364,-0.4954787462352418,10.259272045843533,3.7974497738345767,0.0825105607509613,-0.3467409610748291,-0.0115065714344382,-1.6594478420913217,-0.7060875427722931,-9.61618058860302,14955.0
32.8,10.100000381469728,49.0,20.804075241088867,28.25265312194824,-79.78179087685045,40.459414163402506,290.1337450561524,-0.1501555442810058,0.1250600814819336,-0.5310531258583069,0.8244973421096802,-0.4827066242289982,10.429784870653624,4.308572235731029,0.0260203145444393,0.6146891713142395,-0.1494035720825195,-2.1086093138158324,-0.4477199868857861,-10.35639657497406,14955.0
32.9,10.100000381469728,48.0,20.906742095947266,26.51916694641113,-79.78177881156769,40.45941867844222,290.1096418914795,-0.1311112344264984,0.1138421893119812,-0.5319229364395142,0.8287990689277649,-0.4272609746570628,10.690785043348104,4.16991634691953,0.0527458973228931,0.3922640383243561,-0.2209338396787643,-2.3566354840993884,-0.443413074016571,-10.486049226522448,14955.0
33.1,10.399999618530272,48.0,21.152145385742188,21.891233444213867,-79.78175454652873,40.45942774277177,290.10039697265626,-0.0947255715727806,0.1009632498025894,-0.5375632047653198,0.8317807912826538,-0.3995293871480173,11.191602661447046,3.3627215491811127,0.1142509877681732,0.3371865451335907,0.1061776727437973,-1.880590268969536,-0.5147786334156991,-10.13472629070282,14955.0
33.2,10.5,48.0,20.90924644470215,26.42374420166016,-79.78174211659353,40.4594323748528,290.09239755249024,-0.0857992395758628,0.1007960140705108,-0.5414108037948608,0.830272912979126,-0.452656465703387,11.355315505581794,3.0345229660179887,0.0408992320299148,0.0588000789284706,0.1884052604436874,-1.5695945562422275,-0.5572120966762305,-9.857082949876784,14955.0
33.4,10.899999618530272,56.0,21.099557876586918,23.95869445800781,-79.78171723522536,40.45944179343243,290.0335424957276,-0.0808861330151557,0.0982857272028923,-0.547393798828125,0.8271381855010986,-0.6077843051625892,11.47243160685634,2.7469008446449443,0.0223235394805669,0.0333189330995082,0.1808309853076934,-2.137474240064621,-0.305872528553009,-9.563411806225778,14955.0
33.5,11.100000381469728,55.0,20.97184944152832,25.10375022888184,-79.78170454776674,40.459446591473714,289.967767578125,-0.0817957818508148,0.0958548784255981,-0.5485431551933289,0.8265723586082458,-0.6588038921784173,11.522121821436455,2.608558218748976,-0.0155638540163636,0.0308894887566566,-0.0219833720475435,-1.9383556433022024,-0.2448229376412928,-9.248371428251266,14954.0
33.61,11.300000190734863,54.0,21.069509506225582,24.05411529541016,-79.78169197085519,40.45945122018813,289.9454153594972,-0.0833687558770179,0.0932167321443557,-0.5488854646682739,0.8264896869659424,-0.6684924108056782,11.546364288369013,2.574770167237682,-0.1422886401414871,0.0991021245718002,0.2409622371196747,-2.1604355250298983,-0.6407827685773373,-9.265718362927435,14954.0
33.8,11.399999618530272,54.0,21.04822540283203,24.2052001953125,-79.7816533498073,40.45946536621325,289.86098657226563,-0.0768278613686561,0.0878762826323509,-0.5477449297904968,0.8284629583358765,-0.5785048333535019,11.698708023645036,2.472341485424474,0.0077698710374534,-0.0475082881748676,0.0196457635611295,-1.7736258374154568,-0.5688040555268526,-9.518361348509789,14954.0
33.9,11.600000381469728,60.0,20.815343856811523,29.95433235168457,-79.78164038908422,40.45947009455192,289.8378180084229,-0.0730635300278663,0.0853053927421569,-0.5478847622871399,0.8289795517921448,-0.5601292704467676,11.737009412381385,2.3767137453041967,-0.0133916968479752,-0.0019267125753685,-0.0647520124912262,-1.8130289080739024,-0.2681117580458522,-9.75083904147148,14954.0
34.1,11.699999809265137,61.0,20.92677497863769,27.012176513671875,-79.78162761734356,40.45947471855994,289.81208596801764,-0.0687919110059738,0.083377905189991,-0.5479499101638794,0.8294979929924011,-0.533646719786146,11.763820647607233,2.3171322677532937,-0.0030623057391494,0.0080630332231521,-0.0001121202658396,-1.5994596487283708,-0.3797843310981989,-10.150152415037155,14954.0
34.3,11.699999809265137,61.0,21.0920467376709,23.49749183654785,-79.78160189099633,40.45948409543481,289.76432023620606,-0.0611722953617572,0.0812946110963821,-0.5478449463844299,0.8303704857826233,-0.4967203082971442,11.82943749206992,2.157688295677516,-0.0562510602176189,0.0050733531825244,0.1770481914281845,-1.7702911703288555,-0.5860977074503899,-9.731626845002175,14954.0
34.4,11.600000381469728,60.0,20.826610565185547,28.690000534057607,-79.78157609475889,40.45949340855015,289.7125738677978,-0.0507850311696529,0.0706450343132019,-0.5467355251312256,0.8327728509902954,-0.4316464089166826,11.8233244330372,1.960585662763908,-0.1038330048322677,0.4761782586574554,0.0488966852426528,-2.261683426201344,-0.3492978988587856,-9.869288427829742,14954.0
34.51,11.399999618530272,64.0,20.85916519165039,27.12350082397461,-79.78156333669045,40.45949796313039,289.69606958007813,-0.0259037092328071,0.0477104038000106,-0.5469442009925842,0.8354069590568542,-0.3867179424663364,11.756824423723884,1.7867841668786362,-0.134796917438507,0.7645166516304016,0.1040012910962104,-2.14091898098588,-0.5791456604003906,-10.392738189697264,14954.0
34.7,11.300000190734863,74.0,20.96934509277344,26.41579246520996,-79.78155068826959,40.45950247215829,289.68986306762696,0.0106413513422012,0.0174149386584758,-0.5472516417503357,0.8367193341255188,-0.3233131857998467,11.719147299523266,1.0959549945004592,-0.0202004630118608,0.8872147202491759,-0.1645944714546203,-1.7924589881300927,-0.4737361862137914,-10.668708057403563,14954.0
34.9,11.0,74.0,21.119590759277344,22.360387802124023,-79.78152552500191,40.459511371764286,289.69474969482417,0.0789781585335731,-0.0177944041788578,-0.5479111671447754,0.8326098918914795,-0.2723105420466917,11.317574831102084,-0.8105484507816011,0.1540714502334594,0.6563294529914856,-0.0362944789230823,-1.1736718368530277,-0.0938168209791183,-11.121344529390337,14954.0
35.0,10.800000190734863,74.0,21.010662078857425,23.00448226928711,-79.78151303453114,40.45951561898653,289.6913546142578,0.1024314239621162,-0.027664354071021,-0.5488923192024231,0.8291319608688354,-0.3010796439935567,10.963070419472324,-1.4495223482852138,-0.0448262579739093,0.2806363105773926,0.3282114565372467,-1.3488995875418186,-0.5783927948400378,-11.153726409673691,14954.0
35.2,10.399999618530272,131.0,21.2134952545166,20.37244415283203,-79.78149009686669,40.45952375447454,289.7542418060304,0.1131042391061782,-0.0411702245473861,-0.5517712235450745,0.8252642154693604,-0.3370067331794784,10.177571318056884,-2.0225788014800363,-0.1088060066103935,-0.0840738639235496,0.0521043054759502,-1.468860917687416,-0.5364715111255646,-10.723045063018802,14954.0
35.3,10.199999809265137,137.0,21.276098251342773,20.595094680786133,-79.78147868551173,40.45952749055567,289.7729815063477,0.1058286800980568,-0.0452069640159606,-0.5526262521743774,0.825445830821991,-0.3511447735346932,9.85652378823308,-2.0300103298530745,0.0091030467301607,0.0082670887932181,0.0065933442674577,-1.3358247748017311,-0.5326042357832194,-10.270465893745422,14954.0
35.5,9.800000190734863,138.0,21.28736686706543,21.42207908630371,-79.78145704697782,40.45953466144047,289.80855546569825,0.0977374017238617,-0.045600339770317,-0.5491589307785034,0.828729510307312,-0.3315927288119621,9.28902659861827,-1.815625116268079,-0.0889231041073799,-0.0686587989330291,-0.0085462117567658,-1.1716810791939498,-0.5311323088780046,-9.806555989980698,14954.0
35.6,9.600000381469728,138.0,21.15840530395508,21.98665428161621,-79.7814375080289,40.45954154794956,289.84315286254883,0.1153399795293808,-0.0568833835422992,-0.5421956181526184,0.8303524255752563,-0.2088467349451116,8.591260981106672,-1.8719669472153253,-0.1188987493515014,0.2128918617963791,0.1094112172722816,-0.9928461080789568,-0.4390849284455181,-9.806908577084542,14954.0
35.7,9.100000381469728,136.0,21.12835502624512,21.485692977905277,-79.78142747585896,40.4595445354747,289.8469160614014,0.1270894408226013,-0.0680737644433975,-0.5389840006828308,0.8298859596252441,-0.1341935178641749,8.226410178309846,-2.0953699055763013,-0.1001988872885704,0.2598951756954193,0.1509931683540344,-0.8344358266890051,-0.4798843507468701,-9.889840221405027,14954.0
35.9,8.800000190734863,139.0,21.155900955200195,23.131710052490234,-79.78141859566333,40.45954768614313,289.84974084472657,0.1356582045555114,-0.0788838416337966,-0.5368217825889587,0.8289732933044434,-0.1093280944279118,7.787085924819739,-2.3197368450874816,-0.056842565536499,0.2741404175758362,0.0702870488166809,-0.9219508109986784,-0.4410238286107779,-9.685383555293084,14954.0
36.1,8.300000190734862,140.0,21.15464973449707,22.04231643676757,-79.78140099978846,40.45955321834643,289.84057603454585,0.1404077708721161,-0.0883881524205207,-0.5331735610961914,0.8295778036117554,-0.0649834658052372,6.994484364503603,-2.5755374327599005,0.0274095404893159,0.0788549855351448,-0.1877861022949218,-0.5465822240710259,-0.1277597251161933,-9.52431498348713,14954.0
36.2,8.0,141.0,21.19847106933593,20.300878524780277,-79.78139324242373,40.45955600439011,289.8173178253174,0.1399198174476623,-0.0884675905108451,-0.5321490168571472,0.8303092718124391,-0.0946279819864663,6.602566583221493,-2.602210943627108,-0.011741648428142,0.0429774299263954,0.0136472890153527,-0.5883678889274597,-0.3119285994395613,-9.329800338149072,14954.0
36.31,7.400000095367432,145.0,21.014419555664062,24.777727127075195,-79.78137663094856,40.45956070964343,289.7703703460693,0.1348777860403061,-0.0931938961148262,-0.5272932648658752,0.8337175250053406,-0.0465029377021793,6.0116602639252426,-2.5814879071784707,-0.0597876086831092,0.0517348609864711,-0.1852325052022934,-0.3815457317233086,-0.4654223591834307,-9.336651520729063,14954.0
36.5,7.0,148.0,20.880449295043945,28.08566474914551,-79.78136267952934,40.45956482230422,289.7041395721436,0.1451724618673324,-0.1057147309184074,-0.5176402926445007,0.8365392088890076,-0.0339133676135039,5.260950898377644,-2.522273048053603,-0.0308539662510156,0.1174423098564148,-0.015013231895864,-0.3158201407268644,-0.4528352407738567,-9.9599869287014,14954.0
36.7,6.199999809265138,152.0,20.593730926513672,32.228538513183594,-79.78135674479725,40.45956706518962,289.64194856262213,0.1486937701702118,-0.1073910444974899,-0.5144988894462585,0.8376444578170776,-0.0519276996277582,4.857049415505699,-2.501366720529451,0.1097964793443679,0.0509509034454822,-0.1323477774858474,-0.203881391454488,-0.2575813611969352,-10.25317216873169,14954.0
36.8,5.800000190734862,154.0,20.469776153564453,34.03359222412109,-79.78135058420371,40.45956846219643,289.6244715270996,0.1505815237760543,-0.1043620258569717,-0.5114034414291382,0.8395835161209106,-0.0035567466187372,4.507235942516778,-2.3369183404338614,0.1009493172168731,0.0311491303145885,-0.056728295981884,-0.1748749625869095,-0.2091845419630408,-10.735747554302216,14954.0
37.0,4.900000095367432,160.0,20.49106216430664,34.66178131103516,-79.78133965551403,40.45957127197816,289.5868700561524,0.1472570151090622,-0.0984241291880607,-0.506330132484436,0.8439537882804871,0.0742553783845562,3.878826888380519,-1.8781019233291607,-0.0684924200177192,-0.1382422298192978,0.0230818223208189,-0.014211474917829,-0.5710342566668988,-11.268300261497496,14954.0
37.1,4.5,158.0,20.407175064086918,34.57431411743164,-79.78133146018858,40.45957447699334,289.5337198791504,0.1328059136867523,-0.1078961938619613,-0.5057089328765869,0.8455646634101868,0.0018474981306013,3.2634354695001497,-1.33109373048005,-0.168678268790245,-0.0955730155110359,0.0168552417308092,-0.0545020432770252,-0.3451337311416864,-11.404542725086213,14954.0
37.2,3.900000095367432,168.0,20.35458755493164,35.40924835205078,-79.78132691390623,40.45957459104593,289.5316523132324,0.1286717504262924,-0.1112822517752647,-0.5060158371925354,0.8455814123153687,0.0471590222775446,2.9924591624836543,-1.0706372626870173,-0.0494719073176384,-0.0050310720689594,0.0649658069014549,0.1543273168802261,0.0074897350743412,-11.734519815444946,14954.0
37.4,3.5999999046325684,174.0,20.468524932861328,32.84082794189453,-79.78132378710592,40.45957584617406,289.536464553833,0.1278107613325119,-0.1104308366775512,-0.5103248953819275,0.8432306051254272,-0.0237386843735704,2.7024003424099075,-0.8377637112922234,0.0267064124345779,-0.0624941661953926,0.0937248691916465,0.349744406864047,0.0439334659371525,-11.516573038101196,14954.0
37.6,3.0999999046325684,186.0,20.58997344970703,31.89456558227539,-79.78131848444407,40.45957693214709,289.5039251861573,0.1303540766239166,-0.1065133139491081,-0.5234146118164062,0.8352844119071959,-0.1478905882012545,2.099762072005897,-0.4965120815382361,-0.0261625107377767,0.0466528162360191,0.2483696937561035,0.3196955656260252,-0.3602237867563963,-11.180924148559573,14954.0
37.7,3.0,194.0,20.467273712158203,33.413352966308594,-79.78131649936391,40.45957788561987,289.52751145935065,0.1354062557220459,-0.107787050306797,-0.5304640531539917,0.8298525214195251,-0.2617786945133746,1.8033338025386496,-0.3390483353279513,0.0146214459091424,0.0445622950792312,0.0833766087889671,0.2765719481930137,-0.2656242976896465,-10.908564351797104,14954.0
37.9,2.799999952316284,210.0,20.425954818725582,33.294078826904304,-79.78131386413382,40.45957859288333,289.5504072723389,0.1563764661550522,-0.1042672619223594,-0.5342599153518677,0.8241609930992126,-0.3376513366048077,1.1499470288053972,-0.0631825478942178,0.25530806183815,0.1264885067939758,0.0434085726737976,0.3894455393403769,-0.2157378637231886,-10.905192847251891,14954.0
38.0,2.799999952316284,218.0,20.579957962036133,31.322036743164062,-79.78131255304007,40.459578626549465,289.57739053344727,0.1714951395988464,-0.0805033072829246,-0.5296007990837097,0.8268201947212219,-0.2777265532802426,0.5546053406099217,0.1573022181186727,0.141924574971199,-0.1852208524942398,-0.1287165880203247,0.8940853931754827,-0.3812995639443398,-10.560789506435396,14954.0
38.2,3.0,243.0,20.586217880249023,30.145174026489247,-79.78131237395199,40.45957896345119,289.6149939117432,0.1613050401210785,-0.0771909952163696,-0.5288689732551575,0.8296504616737366,-0.2956813464605247,0.2735120258410316,0.2973620748729052,-0.1735346168279647,-0.2623029351234436,0.0407119803130626,0.7682889072597027,-0.6675473018735647,-10.50429136991501,14954.0
38.3,3.0999999046325684,259.0,21.0920467376709,20.96087646484375,-79.78131269623857,40.45957813760052,289.5950106201172,0.1469062864780426,-0.0830531492829322,-0.5270160436630249,0.8329315781593323,-0.2386498921465613,-0.0292312613862308,0.4020492098560187,-0.285750150680542,-0.1182355657219886,-0.16659015417099,0.7173978120088578,-0.2320669626072049,-10.498617231845856,14954.0
38.5,3.400000095367432,272.0,21.26107215881348,18.702571868896484,-79.78131397872859,40.45957715558024,289.5981463012696,0.0528084449470043,-0.0353511348366737,-0.5489072203636169,0.8334640860557556,-0.1315067156894483,-0.2937709850691385,0.2768737288867561,-0.0013485209783539,-1.50516939163208,0.5404102206230164,1.0396800396591426,0.0405538757890462,-9.103434154987337,14954.0
38.6,3.5999999046325684,277.0,21.083282470703125,22.074125289916992,-79.7813150799718,40.459577042695656,289.622609954834,0.0078603094443678,0.0059249829500913,-0.618910551071167,0.7853999137878418,-0.0882222150129292,-0.4647556936247657,0.050547736506247,0.2094409167766571,0.0092671643942594,1.0686469078063965,0.1679795056208968,0.0967547910287976,-9.18994721889496,14954.0
38.8,4.0,246.0,20.91300392150879,26.312419891357425,-79.7813163205457,40.4595758692594,289.6665228424073,0.0237352270632982,0.004548717290163,-0.6613316535949707,0.7497043013572693,0.0060203391799947,-0.4683142406785761,-0.0365087825436992,0.0131234470754861,0.2109366953372956,1.371934175491333,0.4358530627191067,-0.6870850420743227,-8.758505734205247,14954.0
38.9,4.099999904632568,238.0,20.777782440185547,28.58662796020508,-79.78131795671445,40.45957492224503,289.69606195068366,0.0398765690624713,-0.0205818153917789,-0.7548196911811829,0.6543956398963928,0.1008558948382504,-0.4298921743007999,-0.1247460052158111,-0.3007826507091522,0.1296558827161789,1.4958782196044922,0.6431369306892157,-0.6897407012432814,-9.149915426373482,14954.0
39.1,4.300000190734863,237.0,20.54990768432617,31.322036743164062,-79.78131845476095,40.459574843610575,289.68052850341803,0.0380290187895298,-0.0266842041164636,-0.8015022873878479,0.5961844325065613,0.1427273128776132,-0.4191840254885544,-0.1079284686606976,-0.115461565554142,0.0178169049322605,1.30870258808136,0.85869417026639,-0.3727184826135636,-9.74392353951931,14954.0
39.2,4.400000095367432,236.0,20.5699405670166,31.33794021606445,-79.78131897241632,40.45957479197772,289.6688746032715,0.0370633415877819,-0.0267039760947227,-0.8452516198158264,0.5324124693870544,0.1658063349300827,-0.4283577167987698,-0.0393358553570193,-0.054073791950941,0.0714322179555893,1.5922797918319702,0.5976998989284039,-0.5134396941214799,-10.28568970441818,14954.0
39.4,4.599999904632568,284.0,20.760251998901367,28.196990966796875,-79.7813209767455,40.45957365650175,289.7504519042969,0.0389990322291851,-0.0263255424797534,-0.9185843467712402,0.3924141526222229,0.2834407411284123,-0.4431382348558588,0.1487397749958718,0.0312743298709392,0.0818721801042556,1.5118420124053955,0.1451699193567037,-0.6672273860871792,-10.463881262540818,14954.0
39.5,4.599999904632568,297.0,20.721439361572266,27.990243911743164,-79.78132304089064,40.45957221816806,289.8436888275146,0.0408731997013092,-0.0266696475446224,-0.9464098215103148,0.3192595839500427,0.4087401208249932,-0.4309776900796996,0.2244843325949753,-0.0710706934332847,0.0899162888526916,1.6739721298217771,-0.0109124575741589,-0.7518888560682535,-10.141855216026306,14954.0
39.7,4.599999904632568,289.0,20.693893432617188,28.363977432250977,-79.78132453089258,40.45957231775796,289.88046060180665,0.0362995639443397,-0.0183800496160984,-0.9851089715957642,0.1670473664999008,0.5073256825132753,-0.3898805237237479,0.2500510411206043,-0.1361646503210067,-0.1015044748783111,1.6824301481246948,0.0839146160893142,-0.7524399561434985,-9.854993155002594,14954.0
39.8,4.5,283.0,20.68512916564941,30.34396934509277,-79.78132675847468,40.45957114545536,289.94756494140626,0.0291671734303236,-0.0150269605219364,-0.9954686164855956,0.0892510190606117,0.6305564884314346,-0.3179381289413785,0.2954764483644477,-0.2266142964363098,-0.0409974232316017,1.6383631229400637,-0.0436256054649129,-0.7520999405533075,-10.205994493961336,14954.0
40.0,4.5,299.0,20.777782440185547,29.707826614379893,-79.78132955642218,40.459570960016855,290.0136450347901,-0.0184292867779731,0.0127885565161705,0.997669756412506,0.0644361600279808,0.7379739785998491,-0.1801699358075488,0.3450294252791579,-0.1044162586331367,-0.0727467909455299,1.4790146350860596,-0.1570727308094501,-0.7164637923985719,-10.157601767778395,14955.0
40.1,4.400000095367432,304.0,20.693893432617188,29.326141357421875,-79.78133043117428,40.45957113666096,290.04505715942383,-0.0147251076996326,0.0101488791406154,0.9915071129798888,0.12881700694561,0.7393241787106294,-0.1136566071371549,0.3560824740328384,-0.1171552091836929,-0.017366100102663,1.1680731773376465,-0.1279523086454719,-0.5659575578570366,-10.111149147748948,14955.0
40.2,4.300000190734863,291.0,20.75774955749512,27.886871337890625,-79.781331271476,40.45957135184933,290.0797899780273,-0.0125385653227567,0.0100378496572375,0.9835435152053832,0.1799560487270355,0.7285533561079905,-0.0692512339970141,0.390496514819106,0.0309038739651441,0.0288860239088535,0.8381789326667786,-0.3848422457277775,-0.4249363476410508,-10.175362100601197,14955.0
40.4,4.199999809265137,284.0,20.72394371032715,29.516984939575195,-79.78133384509117,40.45957165419175,290.1604403076172,-0.0331394113600254,0.0023157619871199,0.9701105952262878,0.2403789460659027,0.8139644449410129,0.0726399282406027,0.4108636330864072,0.6135133504867554,-0.4332439005374909,0.25331711769104,0.3332967739552259,-0.0754066066816449,-9.985220003128052,14955.0
40.51,4.099999904632568,289.0,20.728952407836918,28.825180053710927,-79.7813350761305,40.45957177113001,290.20483384704585,-0.06396484375,-0.0262134503573179,0.965469241142273,0.2511781752109528,0.8153813047645287,0.1486279997531707,0.4389952451151861,0.1725450158119201,-0.6659935116767883,0.2134513258934021,-0.0343278976064175,-0.6047114779427648,-9.812637094259262,14955.0
40.7,4.0,301.0,20.67010498046875,29.763490676879893,-79.78133877176704,40.45957216011117,290.32050691223145,-0.0124220643192529,-0.108105331659317,0.966405749320984,0.2328494489192962,0.8582896764173371,0.4432251775275689,0.5763012199432985,-0.6816527247428894,-0.0206906534731388,-0.2599224746227264,-0.3393910344690085,-0.2163679194822907,-10.238626635074615,14955.0
40.9,3.799999952316284,293.0,20.612510681152344,29.93842887878418,-79.78134001809765,40.45957201376658,290.3653601226807,0.0147975152358412,-0.115461491048336,0.9687140583992004,0.2191870212554932,0.8530258774530021,0.6096695415795155,0.5825214995097797,-0.4868699014186859,0.126504361629486,-0.2687138319015503,-0.2513314733840525,0.0767386754974722,-10.268164429664614,14955.0
41.0,3.799999952316284,289.0,20.73270797729492,28.682048797607425,-79.781341762115,40.459571873193326,290.4231527862549,0.0254044290632009,-0.1175020113587379,0.9709555506706238,0.2068653851747512,0.8470364591344726,0.7648357598049609,0.5701160119875667,-0.0829383507370948,-0.0276167262345552,-0.2173666805028915,-0.0820390851236879,0.0743399375025183,-10.226148676872253,14955.0
41.2,3.799999952316284,268.0,20.66008949279785,29.69987487792969,-79.7813443597465,40.45957064554775,290.5124624786377,0.0098899090662598,-0.1230074614286422,0.973982572555542,0.1900771707296371,0.7045574186269019,1.1486423996433244,0.6449774686543882,0.2634792923927307,-0.1624000966548919,-0.1264980584383011,-0.2575911187380552,-0.1125573938246816,-9.930897030830383,14955.0
41.3,3.799999952316284,265.0,20.73646354675293,28.85698699951172,-79.78134741890531,40.45956867223183,290.63541207885737,-0.0113133015111088,-0.1294566988945007,0.9740312695503236,0.1854082643985748,0.6006498642203099,1.5243348465481146,0.7753455283375149,0.1088653802871704,-0.0709188655018806,0.0178728867322206,-0.2698175735771656,-0.2703795640915632,-9.911145136356357,14955.0
41.5,3.799999952316284,260.0,20.78404235839844,27.55289649963379,-79.78134909752988,40.45956758062488,290.72691522216803,-0.0147646740078926,-0.1315027475357055,0.9737150073051452,0.1853866130113601,0.5727358853321051,1.6963407788414886,0.8169447258141923,-0.0037089174147695,-0.0856468901038169,0.0126628121361136,-0.1483593562245369,-0.2551541637070477,-9.712309398651122,14955.0
41.6,3.900000095367432,258.0,20.67386054992676,29.310237884521484,-79.78135053248316,40.45956611408722,290.76091943359376,-0.0152719197794795,-0.1358588933944702,0.9728854298591614,0.1865560412406921,0.5286372542631272,1.9225062403659088,0.8339360337911844,-0.0084535172209143,-0.1189053878188133,-0.0019283315632492,-0.3096878002211452,-0.117784804617986,-9.55263304889202,14955.0
41.8,4.300000190734863,270.0,20.671358108520508,30.025897979736328,-79.78135343800939,40.45956254589012,290.8766859588623,-0.0178719460964202,-0.1459028571844101,0.9703558683395386,0.1918400377035141,0.4092300590600021,2.3255795608301693,0.9568822175415074,-0.016452869400382,-0.1509929150342941,0.1093393266201019,-0.4955845633149147,-0.2855154107138514,-9.642981301546095,14955.0
41.9,4.400000095367432,271.0,20.623779296875,30.375776290893555,-79.78135500464771,40.459560497615534,290.9015387115478,-0.0214707367122173,-0.1516261994838714,0.9688544273376464,0.1946011483669281,0.3579617551428683,2.5435263846711385,0.9937882363894014,0.07236098498106,-0.1320835351943969,0.0618586800992488,-0.5022329936921597,-0.245159718990326,-9.530655704140663,14955.0
42.0,4.699999809265137,269.0,20.598737716674805,31.210712432861328,-79.78135652154431,40.45955810601519,290.9769934234618,-0.0273984409868717,-0.1564748883247375,0.967197835445404,0.1982257217168808,0.296719939386771,2.731095205703646,1.0466380393687524,0.0966631025075912,-0.0705422684550285,0.2265937775373459,-0.5492072219029069,-0.3138135224953294,-9.377580276131631,14955.0
42.2,5.0,269.0,20.529874801635746,30.924448013305664,-79.78136173371769,40.459549834041965,291.0666693267823,-0.0503983423113822,-0.1555167585611343,0.9638855457305908,0.2102363109588623,0.1468083030412441,3.4460482199169804,1.2462957974682671,0.1758189648389816,0.0240667983889579,0.0751733630895614,-0.5527516213059426,-0.2500470411032438,-9.7304503852129,14956.0
42.4,5.300000190734863,279.0,20.407175064086918,33.58829116821289,-79.78136373777703,40.45954678186412,291.07075868225104,-0.0562556460499763,-0.1544298976659774,0.9629708528518676,0.2137144953012466,0.1202586840330112,3.69313466762406,1.275630879533862,0.1691486984491348,0.0441561974585056,-0.1145365685224533,-0.6405853519588709,-0.0969940883293748,-9.677943558096889,14956.0
42.5,5.599999904632568,278.0,20.55491638183593,30.892641067504893,-79.78136549078926,40.45954304636699,291.1182344970703,-0.0557237416505813,-0.1549178957939148,0.9625571966171264,0.2153579890727996,0.0507697643023082,3.904753250870909,1.3719650218132584,-0.0880451127886772,0.0652308091521263,0.0422077029943466,-0.9922541505843402,-0.2905223083868623,-9.78839921593666,14956.0
42.7,6.099999904632568,274.0,20.36836051940918,35.90225982666016,-79.78137008816255,40.45953597002217,291.12562356567383,-0.0468292757868766,-0.1546694785356521,0.9617494344711304,0.2211841195821762,0.0815082772241423,4.370291738492291,1.5126959477739048,0.0247440300881862,-0.0687996745109558,0.1966538429260254,-0.8353801520168782,-0.1441943936515599,-9.962565550804136,14956.0
42.8,6.300000190734862,272.0,20.539892196655277,31.767335891723643,-79.78137208997317,40.45953174829,291.17719636535645,-0.0475210510194301,-0.1551241427659988,0.9608413577079772,0.2246382236480713,0.015396502541902,4.536808414315104,1.6128141203253228,0.0504598915576934,-0.1246638745069503,0.2639262974262237,-0.9862295450270177,-0.1745866400375962,-10.12803824543953,14956.0
42.9,6.9000000953674325,272.0,20.622528076171875,31.727577209472656,-79.78137467968916,40.459527777954456,291.1869181213379,-0.0497114583849906,-0.1563852280378341,0.9599047899246216,0.2272781282663345,0.0013720048722548,4.741791998168133,1.7088508232223818,0.0859897509217262,-0.0860697403550148,0.0180385801941156,-0.9002906776964665,0.0369020337983965,-10.199495898485184,14956.0
43.1,7.199999809265138,272.0,20.4772891998291,30.97216033935547,-79.78138274243007,40.45951445011926,291.2420042572021,-0.0497409254312515,-0.1652539521455764,0.9586845636367798,0.2261439263820648,-0.0332632194360309,5.297817949474362,1.974142882178632,-0.1932517290115356,-0.0781100392341613,-0.0077793076634407,-1.2584577794373035,-0.0886434421129524,-9.738531237244606,14956.0
43.3,7.599999904632567,269.0,20.52737045288086,32.20468521118164,-79.78138549900109,40.45950927151334,291.2621553955078,-0.0449131391942501,-0.1705532222986221,0.9586175084114076,0.2234882414340973,-0.0198068166809745,5.4729225193179225,2.0434439876589017,-0.1155876219272613,0.0086036287248134,-0.0898525118827819,-1.2428582851588728,0.0052086083404719,-9.62388604938984,14956.0
43.4,7.800000190734862,268.0,20.534883499145508,31.27432632446289,-79.78138863326716,40.459504484877314,291.2665842590332,-0.0423985868692398,-0.1728821098804474,0.9587008953094482,0.2218263149261474,0.0277124548557163,5.651884655925312,2.124895337382103,-0.0085143940523266,0.1175402104854583,-0.1553014367818832,-1.272914873957634,0.305679278075695,-9.658323225975035,14956.0
43.6,8.399999618530272,270.0,20.61000633239746,29.087589263916016,-79.78139501000767,40.45949388860164,291.29448876953126,-0.0458638705313205,-0.1723526716232299,0.9592678546905518,0.2190806865692138,0.0517297052521443,6.0167076928469205,2.3061644584818763,0.0977602899074554,-0.0880632400512695,-0.0393290929496288,-1.5984838946163655,-0.0353534261416643,-9.848095779418946,14956.0
43.7,8.699999809265138,268.0,20.54740333557129,31.22661590576172,-79.78140185888947,40.45948265088319,291.30882630920416,-0.0566753111779689,-0.1780070662498474,0.9581802487373352,0.2167765945196152,0.0863804639348119,6.372491661515241,2.401653834364299,0.1244077607989311,-0.191326230764389,0.0287028588354587,-1.4384964729845524,-0.2436029343679547,-9.271075581908226,14956.0
43.9,9.300000190734863,267.0,20.302001953125,36.34755706787109,-79.78140548931313,40.459477096625136,291.3021849212646,-0.0592389740049839,-0.1823713779449463,0.9573975801467896,0.2159199118614196,0.0906155266928681,6.524169682593426,2.4570229425961907,-0.0191829036921262,-0.0345122963190078,0.2097381204366684,-1.9938104903697969,-0.2566411106474697,-9.09860552430153,14956.0
44.0,9.600000381469728,267.0,20.423450469970703,33.071426391601555,-79.78140919142598,40.4594708806216,291.3070353088379,-0.0558816976845264,-0.1804331541061401,0.958410382270813,0.2139412015676498,0.0942274374479126,6.65709135854815,2.5898559948154247,-0.112225092947483,0.3122285604476929,-0.2995172441005707,-2.175899510085583,0.0740324379131198,-9.391216567754746,14956.0
44.2,10.100000381469728,272.0,20.4484920501709,31.75143241882324,-79.78141682097343,40.45945911018825,291.28590570068366,-0.0374032072722911,-0.1580298095941543,0.9644408226013184,0.2085225880146026,0.1683068006806515,6.9994469058306015,2.481068101526619,-0.2274716347455978,0.1415901482105255,-0.0451212935149669,-2.0937475919723507,-0.5129762291908264,-9.66505278646946,14956.0
44.3,10.399999618530272,265.0,20.58746910095215,30.272403717041016,-79.78142068805239,40.45945259108653,291.2965239105225,-0.0291393976658582,-0.146252304315567,0.967169225215912,0.2057787477970124,0.1946319641269494,7.1750276398772455,2.3642551346622325,-0.1903425753116608,0.1543322801589965,-0.1520318686962127,-1.4504578296840192,-0.1862180675938724,-10.092126985788346,14956.0
44.5,10.899999618530272,266.0,20.713926315307614,27.43362045288086,-79.78142883597481,40.45943963021208,291.272361618042,-0.038835447281599,-0.1387991905212402,0.9682807326316832,0.2041055411100388,0.2877039693001929,7.457163028078942,2.197913369909249,0.2324741333723068,0.0583288148045539,0.0449773967266082,-1.7419470848143102,-0.0880346190556883,-10.091392575502397,14956.0
44.6,11.100000381469728,266.0,20.74397659301757,27.37795829772949,-79.78143696518785,40.4594268961374,291.27646051025386,-0.0650135427713394,-0.1426742970943451,0.9643572568893432,0.2131489813327789,0.2313311262214175,7.603589615660875,2.3371139351247168,0.1746397465467453,-0.0432851612567901,-0.1042327657341957,-2.33544385895133,-0.205380252096802,-9.756578668355942,14956.0
44.8,11.399999618530272,257.0,20.73270797729492,27.64831733703613,-79.78144147594045,40.45941983597295,291.2434500274658,-0.0696570798754692,-0.1455966681241989,0.962095022201538,0.2198246121406555,0.1322350559771591,7.701655855533978,2.443110375929824,0.0231072399765253,-0.1154926121234893,0.2531396150588989,-2.1215500791370867,-0.0290922710183076,-9.478084557652474,14956.0
44.9,11.600000381469728,262.0,20.81659507751465,24.006404876708984,-79.78144576829736,40.45941329265222,291.24136720275885,-0.0648272633552551,-0.144638106226921,0.9612337946891784,0.2256254255771637,0.0597616644386556,7.76831375910498,2.5329930040530453,-0.1692662686109542,0.1488700062036514,0.1720491349697113,-2.373718563169241,-0.3277807299792766,-9.550556117892263,14956.0
45.1,11.800000190734863,262.0,20.67511367797852,29.92252540588379,-79.78145483315787,40.45939944357607,291.1964682159424,-0.0442541912198066,-0.1438604593276977,0.961357355117798,0.2305164933204651,0.0007892686799181,8.045227050090395,2.353881642802738,-0.2047378867864608,0.014290964230895,0.2921267449855804,-1.960382397025824,-0.124255799409002,-9.00844964504242,14956.0
45.2,11.800000190734863,262.0,20.519859313964844,30.8608341217041,-79.78146412369995,40.45938529768836,291.15349755859376,-0.0347895286977291,-0.1475984752178192,0.9615240097045898,0.2290765345096588,0.0248788512830333,8.254869396086638,2.386156360864592,-0.0694450587034225,0.0561195574700832,0.1647616773843765,-1.9244151502847675,-0.1065073071978986,-9.600916432142258,14956.0
45.4,12.0,260.0,20.775278091430664,27.807353973388672,-79.78146877504251,40.45937838290659,291.1346586761475,-0.0315584577620029,-0.1493284255266189,0.9618239998817444,0.2271558493375778,0.0509111339047103,8.351168404676802,2.421294432474919,-0.0332628339529037,-0.0815431848168373,-0.0877347737550735,-1.666081654429436,0.2680936682224273,-9.736696380972864,14956.0
45.5,12.0,260.0,20.827863693237305,26.33627510070801,-79.7814785977217,40.459363857416136,291.0753325042725,-0.0322758220136165,-0.1570820659399032,0.9615707397460938,0.2228568345308304,0.126888492458117,8.519280056284302,2.5512212790274544,-0.0443442091345787,-0.0749319419264793,0.0853477045893669,-2.036823339611292,-0.1930996922403574,-9.577393668293952,14956.0
45.61,12.199999809265137,259.0,20.635047912597656,29.43746757507324,-79.78148339729991,40.45935668471062,291.0530394134521,-0.0333645790815353,-0.1597799658775329,0.9614719152450562,0.2211991250514984,0.1615214328499315,8.598054561932539,2.6428033288651585,-0.0022492613643407,-0.0501974262297153,-0.2606198489665985,-2.2853671346604827,0.1333069694694131,-9.770994978547098,14956.0
45.8,12.300000190734863,258.0,20.75399208068848,26.63049125671387,-79.78148847122195,40.45934897527087,291.0124929962158,-0.0336663052439689,-0.1622286885976791,0.9613664746284484,0.2198251336812973,0.1850087226886689,8.692056041469293,2.764909010306456,0.0374480672180652,0.0400400310754776,0.068172849714756,-2.3573103989660744,-0.0114350479049608,-9.917612156867982,14956.0
46.0,12.300000190734863,260.0,20.627534866333008,27.831209182739247,-79.78149861187015,40.45933374890664,290.95068154907227,-0.0356232821941375,-0.1698233038187027,0.9601804614067078,0.2189625948667526,0.224489314747736,8.873878157664544,2.9239591134691154,0.1057918965816497,0.0011306757805868,-0.2164647132158279,-2.5561842897534373,0.2748122286424041,-9.318148591518405,14955.0
46.1,12.399999618530272,258.0,20.67511367797852,28.713855743408203,-79.78150363389176,40.45932619639228,290.92913995361334,-0.0349238328635692,-0.1734631806612014,0.9595842957496644,0.2188355475664138,0.2029989283172188,8.954720834062329,3.0161914934896785,-0.0238673277199268,0.0679309740662574,0.1533962339162826,-2.3337912896275523,0.206482616700232,-9.462456119656563,14955.0
46.2,12.5,258.0,20.646316528320312,29.18301010131836,-79.78150870412591,40.45931855674103,290.9046667633057,-0.0326521508395671,-0.1739621460437774,0.9596734642982484,0.2183986157178878,0.2047991709681188,9.053145506078335,3.083059354453132,-0.0780080556869506,0.0110741890966892,0.3183713257312775,-2.3730550503730776,-0.3096509262174368,-9.264671711325644,14955.0
46.4,12.600000381469728,258.0,20.697650909423828,28.10951995849609,-79.78152474109807,40.45929415695869,290.7751806793213,-0.0277517270296812,-0.1699373871088028,0.9610367417335508,0.2162395864725113,0.2084701265442296,9.419683849176092,3.139655397008594,0.0011620888253673,0.0354157276451587,0.2084338515996933,-2.143909685611725,0.0858202784880995,-9.72337817788124,14955.0
46.6,12.699999809265137,257.0,20.57620048522949,28.992168426513672,-79.78152999455793,40.45928610929462,290.7509077606201,-0.0301617849618196,-0.1697263717651367,0.9613296389579772,0.2147759050130844,0.2171829458137094,9.51515851853462,3.174508509193697,-0.0008078146493062,0.0487585999071598,0.0172265190631151,-2.919844558238984,0.0900016589462757,-9.591849739551543,14955.0
46.7,12.899999618530272,256.0,20.58997344970703,30.908544540405277,-79.78153528120893,40.45927797019952,290.72907052612305,-0.031246930360794,-0.1703090071678161,0.9617211818695068,0.212393432855606,0.2325140649240969,9.609328613725802,3.2444752111152297,0.0833622142672538,-0.0088586350902915,-0.2541260123252869,-2.2361547750234605,-0.050138307348825,-9.789075738787652,14955.0
46.81,13.100000381469728,256.0,20.561176300048828,29.48517799377441,-79.78154627412205,40.45926118639909,290.66139779663087,-0.0337976366281509,-0.1734292954206466,0.9618089199066162,0.2090539932250976,0.2874068123434258,9.760947106966976,3.3743727546047664,-0.0194089170545339,-0.0926589295268058,0.004621704109013,-2.1007303369045256,-0.0307901768200099,-9.821765767335894,14955.0
47.0,13.100000381469728,257.0,20.43096351623535,32.90444183349609,-79.78155196518283,40.45925244524717,290.6110590515137,-0.0370192676782608,-0.1743564456701278,0.9616066217422484,0.2086677700281143,0.3167180786143482,9.840521530637613,3.4554949185802166,0.033421941101551,-0.0115854069590568,-0.0066994847729802,-2.6976486092805865,-0.2440503011830152,-9.58767541229725,14955.0
47.2,13.199999809265137,258.0,20.57870483398437,30.924448013305664,-79.78156288496757,40.45923537786117,290.57973847961426,-0.0402149632573127,-0.1779435127973556,0.9608390331268308,0.2085841745138168,0.2589070557250755,10.000233748333423,3.6621385808570497,0.0314824506640434,0.0559332221746444,-0.1576673239469528,-2.5489659020304685,-0.057668822184205,-9.867917840480803,14955.0
47.3,13.300000190734863,262.0,20.467273712158203,31.92637252807617,-79.78156868720508,40.45922639242372,290.52418695068366,-0.0437517538666725,-0.1769926249980926,0.960345447063446,0.2109410911798476,0.2527851000120522,10.100097679330398,3.702427841318564,0.0794562697410583,-0.0559515357017517,-0.0402387529611587,-2.6374076700210574,-0.5337663333490491,-9.451852194070815,14955.0
