time,wind_speed,wind_angle,battery_voltage,battery_current,position_x,position_y,position_z,orientation_x,orientation_y,orientation_z,orientation_w,velocity_x,velocity_y,velocity_z,angular_x,angular_y,angular_z,linear_acceleration_x,linear_acceleration_y,linear_acceleration_z,node_ids
0.0,0.8999999761581421,218.0,25.51554107666016,-0.0636141896247863,-79.78279988194096,40.45903091695613,269.09437370538706,0.0327181443572044,-0.0283525995910167,0.9990521073341372,0.0045497077517211,-0.0023957368486813,-0.0173032323013464,0.0057417717914379,-0.0071413586847484,-0.0038258759304881,-0.0070235743187367,-0.5824573406204582,0.6317051855474711,-9.774955882430078,14934.0
0.1,0.8000000119209291,223.0,25.51804542541504,-0.0636141896247863,-79.78279984209077,40.45903089686434,269.0965867066384,0.0326992087066173,-0.0283379200845956,0.9990532994270324,0.0045029358007013,0.0012985394152285,-0.0179082689779144,0.0039698925775779,0.0036561314482241,0.0018127878429368,0.0043118721805512,-0.586899141445756,0.641216485798359,-9.773284748196602,14934.0
0.3,0.8999999761581421,223.0,25.519296646118164,-0.0477106422185897,-79.78279984218359,40.45903093301114,269.09772289037704,0.0327125005424022,-0.0283578019589185,0.9990528225898744,0.0043851337395608,-0.000472530492773,-0.0237484595026193,0.0049599948824162,-0.0067134778946638,-0.0030203396454453,-0.0136075783520936,-0.5825996472314,0.630784614533186,-9.775104986429216,14934.0
0.4,0.8000000119209291,219.0,25.509281158447266,-0.055662415921688,-79.78279982397541,40.45903090763648,269.09903007984155,0.0327106267213821,-0.0283690709620714,0.9990527629852296,0.0043469094671308,0.0058603690446058,-0.0222844991390673,0.0031569803385685,0.0009962817421182,-0.0003692818572744,0.0042622718028724,-0.5853983804583549,0.6455220099538564,-9.772612318396568,14934.0
0.6,0.8999999761581421,218.0,25.52054977416992,-0.0397588685154914,-79.78279983013786,40.4590309277951,269.09953838825226,0.0327188745141029,-0.0283826179802417,0.999052345752716,0.0042825862765312,0.0053441819236308,-0.0250832162823073,0.0035897908596458,0.0028128214180469,-0.0002503378782421,0.0014509840402752,-0.5823397750407457,0.630901631936431,-9.773682943582536,14934.0
0.7,0.8999999761581421,217.0,25.509281158447266,-0.0715659633278846,-79.78279977623367,40.45903091707206,269.10088855266565,0.0327157489955425,-0.0283707845956087,0.999053120613098,0.0042024925351142,0.0022689677036119,-0.0239577830821322,0.0034688266867159,0.0027741349767893,0.0008157072006724,0.0002967096515931,-0.5851574751734734,0.6450443655252457,-9.772100687026976,14934.0
0.9,0.8000000119209291,219.0,25.516794204711918,-0.0636141896247863,-79.78279977802801,40.45903093836353,269.10140949726105,0.0327086597681045,-0.0283973384648561,0.999052882194519,0.004140933509916,0.0018481635766438,-0.0266559702144665,0.0038731198001892,0.0025956283789128,0.0026594647206366,0.0028954409062862,-0.5815171814337373,0.6307811062037945,-9.774530789852143,14934.0
1.0,0.8000000119209291,213.0,25.516794204711918,-0.055662415921688,-79.78279971403046,40.45903090295237,269.101657512188,0.0326938368380069,-0.0284391865134239,0.9990525841712952,0.0040423204191029,-0.0005459628467475,-0.0203056965534342,0.0031343975366978,0.0016008750535547,-0.0007190117612481,0.0036768214777112,-0.5843217253312469,0.6437640445679427,-9.773136228919029,14934.0
1.2,0.8000000119209291,217.0,25.519296646118164,-0.0238553211092948,-79.78279969044509,40.45903088064346,269.1011454486847,0.0326703712344169,-0.0284423250705003,0.9990535378456116,0.0039755152538418,0.0059565415182052,-0.0193165594245807,0.0017860655359692,0.0038623665459454,-0.0003053624241147,0.0050326036289334,-0.5812551896274089,0.6327092986553907,-9.773086527585985,14934.0
1.3,0.8000000119209291,202.0,25.52180099487305,-0.0477106422185897,-79.78279970221557,40.459030919371045,269.101904335022,0.0326689071953296,-0.0284324251115322,0.9990542531013488,0.0038748821243643,0.0048129956198333,-0.0249253045372242,0.0026299886894075,0.0007317324052564,0.0030151908285915,-0.0028458342421799,-0.5855669995397329,0.6405754116922617,-9.773202887177469,14934.0
1.5,0.8000000119209291,199.0,25.523054122924805,-0.0397588685154914,-79.7827996407347,40.45903089194781,269.1010184907913,0.0326913334429264,-0.0284518841654062,0.999053418636322,0.0037551543209701,0.0009127839135408,-0.0213068747866719,0.0026596086503982,-0.0042702071368694,0.0011480945395305,-0.0028851816896349,-0.5820548329129815,0.6314045655727387,-9.7740267598629,14934.0
1.6,0.8000000119209291,197.0,25.51178550720215,-0.0238553211092948,-79.78279960810454,40.45903083990594,269.0992872738838,0.0326679944992065,-0.0284637417644262,0.9990540146827698,0.0037164685782045,0.0031807682400212,-0.0131393902036167,0.0021299278037994,-0.003325754078105,0.0004063807718921,-0.0060348529368638,-0.5841897975280881,0.6348260638117791,-9.77474421322346,14934.0
1.8,0.8000000119209291,197.0,25.51804542541504,-0.0477106422185897,-79.78279961147209,40.4590308528265,269.09961569547653,0.0326707959175109,-0.0284637007862329,0.999054193496704,0.0036498315166682,0.0035915323674479,-0.0159506504899192,0.0023873951156956,0.0015692719025537,0.0049120336771011,0.0074334288947284,-0.5819346360862255,0.631885499060154,-9.773881164193154,14934.0
1.9,0.8000000119209291,193.0,25.50802993774414,-0.0159035474061965,-79.78279955437077,40.45903085739762,269.09584963560104,0.0326855294406414,-0.0284474696964025,0.9990544319152832,0.0035611025523394,0.0003056261853365,-0.0216936095219393,-0.0013096911201579,0.000583937333431,-0.0003026863269042,-0.0056928638368845,-0.5846147439256311,0.6368938585370779,-9.7741916513443,14934.0
2.1,0.8000000119209291,191.0,25.523054122924805,-0.0238553211092948,-79.78279955478635,40.45903087690755,269.09585947036743,0.0326851680874824,-0.0284566916525363,0.9990543127059937,0.0035151897463947,0.0004813391398223,-0.0242109814812105,-0.001159873549178,0.0057425242848694,0.0019877019803971,0.0044993627816438,-0.5804642806202174,0.6308046412467957,-9.7729836165905,14934.0
2.2,0.699999988079071,184.0,25.523054122924805,-0.0397588685154914,-79.78279952354706,40.45903082794218,269.0931344056129,0.0326406322419643,-0.0284628141671419,0.999056041240692,0.0034019639715552,0.0041351768569552,-0.016942787231337,-0.0001873169529136,0.0026716331485658,-0.0005152645753696,0.0008823843672871,-0.5874883580580355,0.6411173754930497,-9.773373041152952,14934.0
2.4,0.6000000238418579,183.0,25.519296646118164,-0.0397588685154914,-79.78279952799355,40.45903084354497,269.09326255559915,0.0326254591345787,-0.0284696836024522,0.9990564584732056,0.0033624800853431,0.0040085093633751,-0.0195738333987488,0.0001536845630781,0.0038605143781751,0.0015799858374521,0.0025559281930327,-0.5812071693688632,0.6312739533931018,-9.773922679424286,14934.0
2.5,0.6000000238418579,178.0,25.51804542541504,-0.0477106422185897,-79.78279949270183,40.459030806965,269.0898159170151,0.0326379165053367,-0.0285011325031518,0.9990554451942444,0.0032641356810927,0.0055604306224785,-0.0168707023572885,0.0005879458597315,0.0034988790284842,0.0006386246532201,0.0021313019096851,-0.5861068071797491,0.6455065148323774,-9.773210488557815,14934.0
2.7,0.6000000238418579,183.0,25.523054122924805,-0.0477106422185897,-79.78279945083304,40.45903079313247,269.08581429958343,0.0326580479741096,-0.0284806322306394,0.9990556240081788,0.0032063967082649,0.0058167138177737,-0.0201934720344191,0.0002889172926139,0.0018350307364016,0.0036394938360899,0.0025129679124802,-0.5828698251396418,0.6306957368552685,-9.77452260375023,14934.0
2.8,0.6000000238418579,182.0,25.52180099487305,-0.0159035474061965,-79.7827994631937,40.45903083331309,269.0862748646736,0.0326668359339237,-0.0284732971340417,0.9990558028221128,0.0031160146463662,0.0052704015422009,-0.0254526610448705,0.0010146249840491,0.0053880321793258,-0.0016641448019072,0.0013186607975512,-0.5856520399823785,0.6454521357268095,-9.772774286270144,14934.0
3.0,0.6000000238418579,187.0,25.519296646118164,-0.0397588685154914,-79.78279942239753,40.45903075764885,269.0817177915573,0.03265281021595,-0.0285188145935535,0.9990551471710204,0.003044105367735,0.0069063884904726,-0.0116071758979593,0.0008644725569267,0.003733417019248,0.0019008972449228,0.0038101656828075,-0.5817560401931405,0.6316997768729925,-9.77542190551758,14934.0
3.1,0.6000000238418579,188.0,25.519296646118164,-0.0159035474061965,-79.78279937080595,40.459030739592215,269.07491374254226,0.0326646938920021,-0.0285170581191778,0.9990551471710204,0.0029378575272858,0.0032877921723351,-0.0149074471184113,-0.0027614684928031,0.0026029148139059,0.001800617086701,0.0036596052814275,-0.5860763651132584,0.6464409729838372,-9.77317949831486,14934.0
3.3,0.6000000238418579,188.0,25.51053237915039,-0.0397588685154914,-79.78279937404197,40.45903075424573,269.0747685456276,0.0326762646436691,-0.028517110273242,0.9990549683570862,0.0028812838718295,0.0026392632384846,-0.0174500847529303,-0.0024229228469293,0.0012568639358505,-0.0021539938170462,0.0047944085672497,-0.5821033648028969,0.6308290533721447,-9.774081138968466,14934.0
3.4,0.699999988079071,185.0,25.523054122924805,-0.0238553211092948,-79.7827993134158,40.45903071810832,269.06655490636825,0.0327036380767822,-0.0285402704030275,0.9990536570549012,0.0027885627932846,0.0002388455988946,-0.0152516223204282,-0.0049584250647095,0.0028032748959958,0.0016593296313658,0.0061267162673175,-0.5858125825971365,0.6490179140120745,-9.772763176560405,14934.0
3.6,0.6000000238418579,185.0,25.52430534362793,-0.0079517737030982,-79.7827993134952,40.45903073236436,269.0661774897576,0.0327371917665004,-0.0285599399358034,0.9990521669387816,0.0027183289639651,-0.0006377309757925,-0.0176636901550799,-0.0045338599516056,-0.000912161602173,-0.0032115362118929,0.0023828020785003,-0.5845193612203002,0.631373502239585,-9.774357127547264,14934.0
3.7,0.6000000238418579,190.0,25.52054977416992,-0.0238553211092948,-79.78279927438837,40.459030715044975,269.0596547150612,0.0327169895172119,-0.028543047606945,0.9990535974502563,0.0026069560553878,0.0015758481746464,-0.0203313298371746,-0.0032174195795038,0.0051637054421007,0.0016953211743384,0.0042840298265218,-0.5847815722972155,0.6505455721914769,-9.772538643479349,14934.0
3.91,0.6000000238418579,190.0,25.51804542541504,-0.0318070948123931,-79.7827992754479,40.459030733491566,269.05948490142816,0.032715156674385,-0.0285627357661724,0.9990532994270324,0.0025575791951268,0.0003402187571738,-0.0226015811357201,-0.002759731502382,-0.0026360640767961,-0.0003499090671539,0.000842475972604,-0.5850924979895353,0.6314128978550434,-9.774239013791084,14934.0
4.01,0.6000000238418579,190.0,25.51554107666016,-0.0477106422185897,-79.78279924009594,40.45903071576264,269.0524296784401,0.0327044799923896,-0.0285681430250406,0.9990537762641908,0.0024373291525989,0.0025490778730008,-0.023445623565224,-0.0021761752383397,0.0040284674614667,0.0046837250702083,0.0068786581978201,-0.5850668798759581,0.6530715693533421,-9.771656883358956,14934.0
4.2,0.6000000238418579,190.0,25.52054977416992,-0.0397588685154914,-79.78279923228305,40.459030617311775,269.04756278038025,0.032686173915863,-0.028621107339859,0.9990530014038086,0.0023769952822476,0.0105551046147801,-0.007750961800644,0.0038065909464182,-0.0045626731589436,-0.0026840148493647,0.0016297459369525,-0.5846871032193304,0.6343109972029924,-9.77391975581646,14934.0
4.3,0.6000000238418579,191.0,25.51554107666016,-0.0318070948123931,-79.78279925664334,40.45903063478789,269.0486427569389,0.0326858647167682,-0.0285954046994447,0.999053955078125,0.0022742198780179,0.0107360962710555,-0.0127048200112463,0.0045275314317003,0.0059917573817074,-0.0003639911592472,0.0066530210897326,-0.5856681198254228,0.6484312921017409,-9.772136355042456,14934.0
4.5,0.6000000238418579,191.0,25.523054122924805,-0.0477106422185897,-79.78279919216658,40.45903059897603,269.0404075407982,0.0326957963407039,-0.0286072567105293,0.9990534782409668,0.0022237440571188,0.0046700797383919,-0.0140982402819071,0.0025892723641656,-0.0053408630192279,-0.0053971684537827,-0.004439968150109,-0.5862794462218881,0.6388225626200438,-9.773896951675416,14934.0
4.6,0.6000000238418579,193.0,25.52180099487305,-0.0238553211092948,-79.78279914503025,40.45903056906003,269.03291863441467,0.0327200330793857,-0.0286014731973409,0.9990530610084534,0.0021023431327193,0.0031922444673431,-0.0143554264131026,0.002234742428422,0.0046482239849865,-0.0004382697225082,0.0036248951219022,-0.5847176183760167,0.6460800535976887,-9.773660724163056,14934.0
4.8,0.6000000238418579,193.0,25.51804542541504,-0.0238553211092948,-79.78279914774609,40.45903058292396,269.03326767921453,0.0327198393642902,-0.0286009851843118,0.9990532398223876,0.0020435811020433,0.0017755916912157,-0.0166540911984391,0.0026501416622694,-0.0035646576434373,-0.0039056364912539,-0.00825085490942,-0.5857616387307644,0.6428314136713743,-9.773463672995568,14934.0
4.9,0.6000000238418579,195.0,25.51178550720215,-0.0477106422185897,-79.78279911586611,40.45903054244357,269.0253366851806,0.0327114760875701,-0.0286084655672311,0.9990534782409668,0.0019556086044758,0.0043960935893328,-0.0142857581827723,0.0015952092779665,-0.0001018616385408,-0.0002395948104094,0.0029326130170375,-0.584456540197134,0.6393896694481374,-9.774921383857729,14934.0
5.11,0.699999988079071,196.0,25.519296646118164,-0.0238553211092948,-79.78279912057401,40.45903055531876,269.0256266617775,0.0327107496559619,-0.028615428134799,0.9990533590316772,0.0019077350152656,0.0033502797982911,-0.0164793405736704,0.0020395972755322,-0.0058225663378834,-0.0004433912690728,-0.0079500488936901,-0.5848446125909686,0.6517093873769045,-9.772317618727683,14934.0
5.2,0.699999988079071,198.0,25.509281158447266,-0.0079517737030982,-79.78279908858597,40.459030531534815,269.01693630456924,0.0327190905809402,-0.0285884141921997,0.9990540742874146,0.001812259084545,0.0040527310382056,-0.0185613474907552,0.0008645151466998,-0.0062440834008157,-1.2067753232258838e-05,-0.0014320533955469,-0.5834363107010723,0.6317097902297973,-9.773723289370537,14934.0
5.4,0.699999988079071,200.0,25.516794204711918,-0.0397588685154914,-79.78279909366897,40.45903054858847,269.0171791338921,0.0327150076627731,-0.0285871066153049,0.9990543127059937,0.0017598978010937,0.0042779299994549,-0.0210165767640764,0.0011964478991652,0.0015900214202702,0.0032374132424592,0.0003113826096523,-0.5846200064197183,0.6460979606956244,-9.77256437122822,14934.0
5.51,0.699999988079071,203.0,25.51554107666016,0.0874695107340812,-79.7827990669972,40.45903051972912,269.00807720661163,0.032697819173336,-0.0285820718854665,0.9990551471710204,0.0016521333018317,0.0046794006413001,-0.0210038289737735,0.0002191543544755,-0.0045194821432232,0.0005575638497248,-0.0110413171350955,-0.5826368866860867,0.6304562202841044,-9.774027344584466,14934.0
5.7,0.699999988079071,203.0,25.52054977416992,0.0,-79.78279901726009,40.45903047590626,268.9975970411301,0.0326932743191719,-0.0285774022340774,0.999055564403534,0.001595101552084,0.0029683865533142,-0.019207849104145,-0.0036321569386028,0.0060915886424481,0.0006153499707579,0.0070426664315164,-0.582953038327396,0.630679072290659,-9.775387991666795,14933.0
5.8,0.699999988079071,205.0,25.516794204711918,0.0318070948123931,-79.78279902237928,40.45903051402488,268.9972336912155,0.0326869785785675,-0.0285716280341148,0.9990561008453368,0.0014912275364622,0.0019858391317113,-0.0238330124999102,-0.0028667017083942,0.0010025020455941,0.0047418205067515,0.0018974608974531,-0.5853389581292868,0.6400512088090181,-9.773523314595224,14933.0
6.01,0.699999988079071,204.0,25.509281158447266,0.0477106422185897,-79.78279899994145,40.45903042536037,268.98853266477585,0.0326823852956295,-0.0285970903933048,0.999055564403534,0.0014426124980673,0.0049589744650647,-0.0100927675591886,-0.001495556829648,-0.0034817457199096,-0.0012036572443321,0.003835663665086,-0.5838419978320599,0.6307058963924647,-9.775357586145402,14933.0
6.1,0.699999988079071,200.0,25.51178550720215,0.0318070948123931,-79.78279897368027,40.45903039768727,268.9791145944596,0.0326709933578968,-0.0286035500466823,0.9990558624267578,0.0013901579659432,0.0062855558564872,-0.0136150293588215,-0.0014656107161776,0.0041259634308516,0.0006485398625954,0.0066877277567982,-0.5855634546652436,0.6528374614566564,-9.772463214397431,14933.0
6.3,0.699999988079071,199.0,25.50302124023437,0.1351801604032516,-79.78279898024338,40.45903041103616,268.9791121506691,0.0326738432049751,-0.0286055989563465,0.9990557432174684,0.0013297363184392,0.0048156598471538,-0.0158285152157175,-0.0009553487121322,-0.0058215903118252,-0.0043514100834727,-0.0080520622432231,-0.5863499417155982,0.6441677948087454,-9.773916832208632,14933.0
6.4,0.699999988079071,195.0,25.505525588989247,0.0238553211092948,-79.78279895633578,40.4590303850257,268.9691602611542,0.0326625555753707,-0.0286154616624116,0.9990559220314026,0.0012521176831796,0.0059428814186224,-0.0174586992521271,-0.0012816948964065,-0.0025253363419324,0.0003661272639874,-0.0011342986254021,-0.5850709729269147,0.6356574647873641,-9.774906181097029,14933.0
6.6,0.699999988079071,196.0,25.51428985595703,0.0318070948123931,-79.78279896332386,40.459030401074,268.96919095754623,0.0326561629772186,-0.0286088995635509,0.9990563988685608,0.0012202733196318,0.0055410455357398,-0.019669914206311,-0.0009499122670852,-0.0033907815814018,0.000123678590171,-0.0059819933958351,-0.5839351512864233,0.6513550461083651,-9.771784937381744,14933.0
6.71,0.6000000238418579,196.0,25.51428985595703,0.0238553211092948,-79.78279894771528,40.45903033492533,268.9596185708046,0.0326738208532333,-0.0286450814455747,0.9990549087524414,0.0011184435570612,0.0062375497670945,-0.0111160792837603,-0.0003633716975595,-0.0069528445601463,-0.0067947185598313,-0.008893278427422,-0.5811322884634137,0.6304953235387802,-9.775118435025217,14933.0
6.9,0.6000000238418579,194.0,25.506776809692383,0.0238553211092948,-79.78279895581295,40.45903034523128,268.9597030901909,0.0326687768101692,-0.0286392830312252,0.9990553259849548,0.0010806064819917,0.0068482485501558,-0.0133331546632449,-0.0002502650629818,0.0020655822008848,0.001409304793924,0.0018455657409504,-0.5838001536950469,0.6393865265697242,-9.773201133012774,14933.0
7.0,0.6000000238418579,194.0,25.49926567077637,-0.0079517737030982,-79.78279890881647,40.459030327248726,268.94966131687164,0.0326661467552185,-0.0286434460431337,0.9990553855895996,0.0009754002676345,0.0026906551370357,-0.0164148477779231,-0.0001506405461148,-0.0027442486025393,0.0029794678557664,-0.009953374043107,-0.5821129761636258,0.6307787673175336,-9.775021955966947,14933.0
7.2,0.6000000238418579,192.0,25.509281158447266,0.0795177370309829,-79.78279888037281,40.45903027843312,268.94050002336496,0.032661035656929,-0.028653148561716,0.9990553259849548,0.0009324690327048,0.0061707508248632,-0.0119559776918023,0.0032086786891564,0.0054929791949689,0.0008944082655943,0.0032076260540634,-0.5843491341546179,0.6322499267756939,-9.774567627310754,14933.0
7.4,0.6000000238418579,190.0,25.51053237915039,0.0477106422185897,-79.78279889222601,40.4590303027533,268.941455783844,0.0326649695634841,-0.0286434534937143,0.999055564403534,0.0008468472515232,0.0050345889566497,-0.016274854418403,0.0039691575038032,0.0040835659019649,0.0011682261247187,6.773850327590479e-05,-0.5848436624184251,0.6475488010793925,-9.772704119682311,14933.0
7.5,0.6000000238418579,187.0,25.501768112182607,0.0397588685154914,-79.78279889763402,40.45903024120017,268.92923254013056,0.0326296500861644,-0.0286661274731159,0.9990561008453368,0.0007946528494358,0.0126589648832775,-0.0103605629387806,0.0008657080878873,0.0034652268514037,0.0037596323527395,0.0037202145904302,-0.5827937747910619,0.6312786311656237,-9.77401097238064,14933.0
7.6,0.5,186.0,25.509281158447266,0.1033730581402778,-79.78279886725488,40.45903021985502,268.9182573878765,0.0326583050191402,-0.0286640226840972,0.99905526638031,0.000674923765473,0.0088516206496037,-0.0137703726365495,0.0005715490672268,0.0060329041443765,-0.0006861765286885,0.0051310672424733,-0.5853813504427672,0.6450736746937037,-9.773320416212082,14933.0
7.8,0.5,189.0,25.51428985595703,0.0477106422185897,-79.78279887679136,40.45903023307832,268.91846812009805,0.0326728299260139,-0.0286514889448881,0.9990552067756652,0.0006291242316365,0.0079242486758728,-0.0158485681722828,0.0008815456252924,-0.0020598494447767,-0.0030017916578799,0.0018762362888082,-0.5841674319282174,0.6308833593875172,-9.77413025557995,14933.0
7.9,0.6000000238418579,190.0,25.49926567077637,-0.0636141896247863,-79.78279883131364,40.459030198188096,268.9085703516006,0.0326674282550811,-0.0286800898611545,0.9990545511245728,0.0005447941948659,0.0048147825289176,-0.0130695336355104,0.0046800797789118,0.005586368497461,0.0015566510846838,0.0081957830116152,-0.5858836993575096,0.6523985548317432,-9.771789030432704,14933.0
8.1,0.699999988079071,191.0,25.51428985595703,0.0477106422185897,-79.78279883597095,40.4590302098086,268.9091647291184,0.0326694138348102,-0.0286776553839445,0.9990546107292176,0.0004914036835543,0.0034360032511022,-0.0149210305951211,0.0051203069951535,-0.0032660141587257,-0.0031412532553076,-0.0097928373143076,-0.5863526825979353,0.6415559166669846,-9.77336251616478,14933.0
8.2,0.8000000119209291,186.0,25.51053237915039,0.0397588685154914,-79.78279875885023,40.45903018544789,268.8964822912216,0.032695472240448,-0.0286431051790714,0.999054789543152,0.0004112966416869,-0.004221138351296,-0.0165540704660663,0.0026488981204835,0.0029420631472021,-0.0002850712917279,0.0032380002085119,-0.5837319605425001,0.6380066567659378,-9.773599328398705,14933.0
8.4,0.8000000119209291,190.0,25.51554107666016,0.0715659633278846,-79.78279875374916,40.45903020044923,268.8968364322185,0.0326923802495002,-0.0286404248327016,0.999055027961731,0.0003790704649873,-0.0047045077869177,-0.0187084585700079,0.0030010210318408,-0.0050613428466022,0.0017204047180712,-0.0099993422627449,-0.5842508643865586,0.6517199854552747,-9.771998945474625,14933.0
8.5,0.8000000119209291,190.0,25.505525588989247,0.0477106422185897,-79.78279875214587,40.459030179747145,268.8837256455421,0.0326888188719749,-0.0286348666995763,0.9990553259849548,0.0002483394346199,0.0029097977995753,-0.0198092363469201,0.0012539503036509,-0.0062067038379609,-0.0047914730384945,-0.0084548275917768,-0.581615999378264,0.6305978690832854,-9.774956467151643,14933.0
8.7,0.8999999761581421,191.0,25.51053237915039,0.0079517737030982,-79.78279870644822,40.45903014840282,268.8709774935245,0.0326927602291107,-0.0286319684237241,0.99905526638031,0.0002294771547894,0.0023537129431449,-0.0192878176091824,0.0005297028671721,0.0050478363409638,0.0054823597893118,0.0064178411848843,-0.5837332761660219,0.6392079672217369,-9.775499673485756,14933.0
8.8,0.8999999761581421,183.0,25.51428985595703,-0.0159035474061965,-79.78279870848506,40.459030166613495,268.8711788380146,0.0326950885355472,-0.028633339330554,0.9990551471710204,0.0001718939747661,0.001681885846925,-0.0213632067580486,0.0008856716197164,0.0029027389828115,-0.0011542991269379,0.0034039500169456,-0.5832326083257795,0.6306684011220932,-9.774948865771297,14933.0
9.01,0.8999999761581421,184.0,25.51053237915039,-0.0477106422185897,-79.78279868189342,40.45903012758692,268.85817367076874,0.0326755382120609,-0.0286767277866601,0.9990545511245728,0.0001000018310151,0.0054968744442831,-0.0146335557235685,-3.906295659658618e-05,0.0029632966034114,0.0019358147401362,0.0069823004305362,-0.5820170087367297,0.6315308654308319,-9.774382855296135,14933.0
9.1,0.8999999761581421,187.0,25.52054977416992,-0.0159035474061965,-79.78279865280817,40.45903009372568,268.8445787751674,0.0326739102602005,-0.0286804251372814,0.999054491519928,2.328072878299281e-05,0.0064203864880094,-0.0115184875028229,-0.0004604377656904,0.0047551952302455,0.0024604403879493,0.0015382979763671,-0.5853446591645479,0.6400434612482786,-9.774456530213357,14933.0
9.31,0.8999999761581421,185.0,25.51554107666016,-0.0397588685154914,-79.78279865990288,40.45903010493743,268.8446596586704,-0.0326794125139713,0.0286819636821746,-0.9990542531013488,4.898793486063369e-05,0.006039700354449,-0.0135361526386884,-0.0001555366508039,-0.0007173436461016,-0.0005729677504859,0.0047508748248219,-0.5831104380637407,0.6303723127394915,-9.774186388850213,14933.0
9.4,1.0,182.0,25.516794204711918,-0.0397588685154914,-79.78279869494743,40.45903012712208,268.82247549533844,-0.0326597243547439,0.0287095680832862,-0.9990541338920592,0.0001401276822434,0.0064337635240294,-0.0154944896763491,-0.0041957833146036,0.0061880936846137,0.0044749532826244,0.0028914052527397,-0.5846225645765663,0.6509124849736689,-9.773794625401498,14933.0
9.6,0.8999999761581421,184.0,25.516794204711918,-0.0238553211092948,-79.78279870160398,40.45903014272084,268.8222094500065,-0.0326546914875507,0.0287145189940929,-0.9990541338920592,0.000209558289498,0.005276914549937,-0.017286602770419,-0.0037815548428384,-0.0032015184406191,-0.0006490760715678,5.7136926443490665e-06,-0.5853791942819954,0.6344453369826079,-9.775274555683136,14933.0
9.7,0.8999999761581421,189.0,25.509281158447266,-0.0318070948123931,-79.78279865087444,40.45903010897608,268.8091211938858,-0.0326453894376754,0.0286940056830644,-0.9990549683570862,0.0002891816548071,0.0034760805102022,-0.0153559642666987,-0.0027326924224508,0.0014360171044245,-0.0014287730446085,0.0056167505681514,-0.5860714680701494,0.6479416608810425,-9.772836851477622,14933.0
9.9,0.8000000119209291,192.0,25.51804542541504,-0.0318070948123931,-79.78279865463684,40.459030124373285,268.8089771592617,-0.0326447375118732,0.0287004765123128,-0.9990548491477966,0.0003313147171866,0.0021825279193739,-0.0170806644642696,-0.00232188529586,-0.0056117996573448,-0.0041725994087755,-0.0098069943487644,-0.5846283752471209,0.6436164754629136,-9.77335491478443,14933.0
10.0,1.0,182.0,25.51178550720215,-0.0318070948123931,-79.7827986217291,40.45903012122138,268.7959115827084,-0.0326300933957099,0.0286641977727413,-0.9990562796592712,0.0004603956185746,0.0042872305268552,-0.0221182372407666,-0.0022204731888087,-0.0016777405980974,0.0018364480929449,0.0016695423983037,-0.5848051804304123,0.6363858816772701,-9.775043590664865,14933.0
10.2,1.100000023841858,180.0,25.513036727905277,-0.0397588685154914,-79.78279860133938,40.45903008139208,268.7826019847393,-0.0326005555689334,0.0286663360893726,-0.9990572333335876,0.0005170796066522,0.0092820669295824,-0.0189994240648969,-0.0027856020557366,-0.0017446909332647,-0.0016499748453497,-0.0087516168132424,-0.5849900620803238,0.6518370759487152,-9.774087570905683,14933.0
10.3,1.2999999523162842,185.0,25.51428985595703,-0.0397588685154914,-79.78279862423554,40.45903011972675,268.78246838092804,-0.0325992219150066,0.0286697912961244,-0.9990570545196532,0.0006317351362667,0.0090914998822531,-0.0229032695880378,-0.0021520340395313,-0.0009151510894298,-0.0008219782030209,-0.0034260591492056,-0.5838734997063876,0.6313216082006693,-9.774734857678414,14933.0
10.5,1.2999999523162842,187.0,25.51178550720215,-0.0318070948123931,-79.78279853076961,40.45903005167926,268.7686347985268,-0.0326163135468959,0.0286800637841224,-0.9990561604499816,0.0006743354024365,-4.700683595662062e-06,-0.0148342249580579,-0.001809184098213,0.0018057104898616,0.0006711972528137,-0.0037665653508156,-0.5840265505760909,0.6483158826828003,-9.772861409783363,14933.0
10.6,1.399999976158142,190.0,25.52180099487305,-0.0318070948123931,-79.7827984930491,40.45902999903755,268.7555519068241,-0.0326122641563415,0.0286983214318752,-0.9990557432174684,0.0007741974550299,0.0029547034301351,-0.0077401167175743,-0.0013217065729125,-0.0056233154609799,-0.0016546963015571,-0.0085947541519999,-0.5816356971859932,0.6317151258140803,-9.775050022602082,14933.0
10.8,1.2999999523162842,192.0,25.509281158447266,-0.0318070948123931,-79.78279849723295,40.45903000697019,268.75549483537674,-0.0326071791350841,0.0286926589906215,-0.9990559816360474,0.0008241376490332,0.0038077953891608,-0.0097569572604673,-0.0012068657185061,0.0026797677855938,0.0041700485162436,0.0055259312503039,-0.5834993144497276,0.638900476768613,-9.774729010462762,14933.0
10.9,1.2999999523162842,189.0,25.51554107666016,-0.0318070948123931,-79.7827984635192,40.459029983609206,268.741021784544,-0.0325955227017402,0.0286751445382833,-0.9990568161010742,0.000948010070715,0.0040926629562052,-0.0126133179446335,-0.0042626746313012,-0.005555132869631,-0.0010431081755086,-0.0099048195406794,-0.5825826537609101,0.6308503957092763,-9.775189771056176,14933.0
11.1,1.2999999523162842,187.0,25.516794204711918,-0.0238553211092948,-79.78279846922233,40.45902999616343,268.7407125854492,-0.0326043255627155,0.0286747720092535,-0.9990564584732056,0.0009978089947253,0.0051578917250148,-0.0145135724906515,-0.0040800511682323,0.0049660955555737,0.0044780215248465,0.0037056347355246,-0.5843451872840524,0.632680793479085,-9.774877529740332,14933.0
11.2,1.2000000476837158,177.0,25.516794204711918,-0.0318070948123931,-79.78279846464022,40.45902995376596,268.72760647773737,-0.0325686819851398,0.0286603160202503,-0.999057948589325,0.0011217629071325,0.0105928339753671,-0.011717830707459,-0.0032542971175079,-0.0015072807436808,0.0032735364511609,-0.0107803456485271,-0.5833263099566103,0.6336553050577641,-9.776267412900925,14933.0
11.4,1.2000000476837158,178.0,25.51053237915039,-0.0318070948123931,-79.78279843750485,40.45902993062183,268.7144538187981,-0.0325762070715427,0.0286637730896472,-0.9990574717521667,0.0012398441322147,0.0097539969925233,-0.0138772783017675,-0.0030931315019214,-0.0037238218355923,-0.0042782444506883,-0.0051541100256145,-0.5827020831406117,0.6317298169434071,-9.774744797945024,14933.0
11.5,0.8999999761581421,180.0,25.50802993774414,-0.0238553211092948,-79.78279844995555,40.4590299443301,268.71430331707,-0.0325744971632957,0.0286571662873029,-0.9990575909614564,0.0012791123008355,0.0102651033554364,-0.0157888240609981,-0.0029046596612632,0.0024374527856707,0.0017105670413002,0.0005362239899113,-0.5857216218486428,0.6381401194632054,-9.77496289908886,14933.0
11.7,0.8000000119209291,182.0,25.50802993774414,-0.0318070948123931,-79.78279838393945,40.45902990351557,268.7023792886734,-0.0325785540044307,0.0286562070250511,-0.9990574717521667,0.0013281719293445,0.0045515690431469,-0.0128677758964068,-0.0025100472209827,0.0008588883210904,0.0032070484012365,0.0027384515851736,-0.5813277316465975,0.6313505519181489,-9.77462083697319,14933.0
11.8,0.6000000238418579,175.0,25.51554107666016,-0.0397588685154914,-79.78279839423912,40.45902993022436,268.7021605396271,-0.0325644835829734,0.0286515336483716,-0.999057948589325,0.0014271691907197,0.0046873742287837,-0.016705392527095,-0.0020184602481876,0.0030475896783173,0.0035290885716676,0.0049386862665414,-0.5866842928156257,0.6435283286869526,-9.773292934298516,14933.0
12.0,0.6000000238418579,170.0,25.51428985595703,-0.0477106422185897,-79.78279835917456,40.45902989847262,268.69005182623863,-0.0325610563158988,0.0286567024886608,-0.9990577697753906,0.001462985179387,0.0062136308214772,-0.0161991555947369,-0.0024002263869037,-0.0018844915321096,0.0008646068163216,0.0050656218081712,-0.5830251418054104,0.6304391902685166,-9.774567627310754,14933.0
12.2,0.6000000238418579,164.0,25.516794204711918,-0.0318070948123931,-79.78279833307607,40.45902986163848,268.6781185144186,-0.0325338877737522,0.0286491531878709,-0.9990587830543518,0.001537300995551,0.0078845196644422,-0.0113626474373252,-0.0023047480296431,0.0047421115450561,-0.0015696684131398,0.0044671399518847,-0.5853940681368113,0.6494128203392029,-9.772245697975158,14933.0
12.3,0.6000000238418579,163.0,25.51554107666016,-0.0397588685154914,-79.78279834199152,40.45902987271953,268.67802369832987,-0.0325357019901275,0.0286591872572898,-0.9990583658218384,0.00159632996656,0.0074053585422148,-0.0131614416568138,-0.0020626470925538,-0.0013105293037369,-0.0038848635740578,0.0051216855645179,-0.5828157749399543,0.6303333556652071,-9.774495121836663,14933.0
12.4,0.6000000238418579,159.0,25.513036727905277,-0.0397588685154914,-79.78279831861872,40.45902980692029,268.6685567522049,-0.032516960054636,0.0286843497306108,-0.9990580677986144,0.0016773857641965,0.0093401202670569,-0.0048502117649403,0.003143206628738,0.0054458798840641,0.0025077767204493,0.006316830869764,-0.5853201374039054,0.6507923246920109,-9.772774286270144,14933.0
12.6,0.6000000238418579,155.0,25.52054977416992,-0.0079517737030982,-79.78279832880631,40.45902981186353,268.6689773225784,-0.0325003080070018,0.0286839623004198,-0.9990585446357728,0.0017593529773876,0.0089069937904403,-0.006494128576087,0.0034592268031429,0.0008815131732262,-0.0034720189869403,0.0020684457849711,-0.5832617347687483,0.6317659965902567,-9.775633574724198,14933.0
12.7,0.699999988079071,149.0,25.509281158447266,-0.0159035474061965,-79.78279825765856,40.459029797238735,268.657785552144,-0.0325246453285217,0.0286490768194198,-0.9990585446357728,0.0018538578879088,0.002749583098343,-0.0111953633563296,0.0021308146515458,0.0066785952076315,0.0019730734638869,0.0047123217955231,-0.5848197253793478,0.6518209230154753,-9.772924559712411,14933.0
12.9,0.8000000119209291,148.0,25.51178550720215,-0.0238553211092948,-79.78279826009808,40.45902980783789,268.6581019484997,-0.0325384438037872,0.0286434739828109,-0.999058187007904,0.0019106897525489,0.0021045191667148,-0.012787419236513,0.0025246890561925,0.0015996111324056,-0.001776578137651,0.0001066317927325,-0.5823247550055385,0.6315484070777894,-9.775769230127333,14933.0
13.01,0.8000000119209291,148.0,25.509281158447266,-0.055662415921688,-79.78279823872873,40.45902979763419,268.64932427048683,-0.032549824565649,0.0286352783441543,-0.9990578889846802,0.0019947167020291,0.0059452670884242,-0.0157480325041914,0.0047192023758082,0.0072610895149409,0.0042350236326456,0.0036395760253071,-0.5853749915957451,0.651656835526228,-9.77265032529831,14933.0
13.2,0.8000000119209291,147.0,25.51428985595703,-0.0636141896247863,-79.78279820904001,40.45902977831093,268.6382205659151,-0.0325429588556289,0.0286308638751506,-0.9990581274032592,0.0020381140056997,0.0064151245347335,-0.0153830785515867,0.0022621208988698,-0.0041356054134666,-0.0031957367900758,0.0016191618051379,-0.5842468444257974,0.63217983327806,-9.77515000998974,14933.0
13.3,1.100000023841858,144.0,25.51053237915039,-0.0795177370309829,-79.78279822505074,40.45902980882421,268.63899955391884,-0.032529029995203,0.0286116376519203,-0.9990589022636414,0.0021235591266304,0.0076707865465192,-0.0191419836883892,0.0025998737148163,0.0063635823316872,0.0041362103074789,0.0048337159678339,-0.5851216975226998,0.6522683081030846,-9.77227142572403,14933.0
13.5,1.100000023841858,145.0,25.51428985595703,-0.0397588685154914,-79.7827981667221,40.45902976536341,268.6302205348015,-0.0325504541397094,0.0286281611770391,-0.9990575909614564,0.0022017878945916,0.0036206975216029,-0.0124753868700299,0.0054111393910953,-0.0023514791391789,-0.0033183330669999,-0.0016036878805607,-0.5835092912614346,0.6331313214451075,-9.774475241303444,14933.0
13.6,1.0,151.0,25.513036727905277,-0.0318070948123931,-79.78279815108348,40.4590297343124,268.6220026934147,-0.032550361007452,0.0286124814301729,-0.9990578293800354,0.0023070331662893,0.0070834058503237,-0.0073236875469451,0.0069936475563252,0.0046276156790554,0.0030960878357291,0.0040796701796352,-0.5858015459775925,0.651834590882063,-9.771874984502794,14933.0
13.8,0.8999999761581421,150.0,25.513036727905277,-0.055662415921688,-79.78279815820805,40.45902974117968,268.622808727026,-0.0325584970414638,0.0286162458360195,-0.9990572929382324,0.0023844831157475,0.0062286811517572,-0.0088491536297028,0.0074460841885361,-0.0035441224463284,-0.0021059834398329,-0.0051415213383734,-0.5841122488304973,0.6336868800222873,-9.776103106141091,14933.0
13.9,1.0,149.0,25.513036727905277,-0.0715659633278846,-79.78279814205555,40.459029741727726,268.6147527867556,-0.0325687937438488,0.0286090783774852,-0.9990569353103638,0.0024729676079005,0.0084974220501969,-0.0127917716356696,0.0077365143214239,0.0056831426918506,0.0036889198236167,0.0036861922126263,-0.5847604126855731,0.6511159680783749,-9.773164295554162,14933.0
14.11,1.100000023841858,149.0,25.516794204711918,-0.0477106422185897,-79.78279815088374,40.45902975323901,268.61567348480224,-0.0325623676180839,0.0286018121987581,-0.999057114124298,0.0025510559789836,0.0076072910013021,-0.0142626336665216,0.0081558229349452,-0.0093468371778726,-0.0019588922150433,-0.005061786621809,-0.585012939311564,0.6371253351867199,-9.774790406227114,14933.0
14.2,1.100000023841858,145.0,25.50802993774414,-0.0477106422185897,-79.78279814238462,40.45902975525739,268.6078970903158,-0.0325676463544368,0.028583824634552,-0.9990571737289428,0.0026727120857685,0.0094957276173237,-0.0163971425759793,0.0082220738006079,0.0047009768895804,0.0026378314942121,0.0031022115144878,-0.5841928307712079,0.6480567779392005,-9.773649614453316,14933.0
14.4,1.0,143.0,25.51428985595703,-0.0397588685154914,-79.78279815223911,40.459029769849714,268.60888830065727,-0.0325550809502601,0.0285858903080225,-0.999057412147522,0.0027187457308173,0.0085237110716453,-0.0179207293294274,0.0086184141520131,-0.001999337458983,-0.0018008258193731,-0.004733714275062,-0.5855466804653406,0.6377606351673604,-9.774968746304513,14933.0
14.5,1.0,141.0,25.51053237915039,-0.0238553211092948,-79.78279814328762,40.459029754876816,268.6008968824148,-0.0325502008199691,0.0285769440233707,-0.9990575909614564,0.0027913635130971,0.0100222118448876,-0.0145966448885635,0.0085883916590887,0.0018707436975091,0.003532825037837,0.003165275324136,-0.5838068414479495,0.6467298254370689,-9.773954839110376,14933.0
14.7,1.100000023841858,139.0,25.51554107666016,-0.0238553211092948,-79.78279812524605,40.45902974030637,268.59144270658487,-0.0325545333325862,0.0285918060690164,-0.9990569353103638,0.002848639851436,0.0090840387349395,-0.0119967827232342,0.0057453830308632,-0.0056691523641347,-0.0016514580929651,-0.0069633931852877,-0.5862325223162771,0.6413699752092362,-9.774448344111445,14933.0
14.9,0.8999999761581421,136.0,25.513036727905277,-0.0318070948123931,-79.78279814766069,40.459029764119975,268.5929130488634,-0.0325740575790405,0.0285782720893621,-0.999056339263916,0.002946849912405,0.0103521818732103,-0.0155117437917462,0.0062387144265832,-0.0006286971038207,0.0002617421851027,0.0041604307480156,-0.5819666495919228,0.63092772513628,-9.775898453593255,14933.0
15.0,0.8999999761581421,136.0,25.51178550720215,0.1590354740619659,-79.7827981096278,40.45902974328597,268.58322376251215,-0.0325753763318061,0.0285951439291238,-0.9990557432174684,0.0029927396681159,0.0052935505622445,-0.0111525014506358,0.0036482951922995,-0.0065929102711379,-0.0030474737286567,-0.0117571940645575,-0.5855324278771877,0.6458750355988742,-9.774933663010597,14933.0
15.1,0.8999999761581421,132.0,25.45544242858887,0.9780681729316713,-79.78279810632607,40.459029753689215,268.5742304944992,-0.0325970761477947,0.0285737384110689,-0.9990551471710204,0.0031413240358233,0.0078222964130854,-0.0133527739201424,0.0014894364324082,-0.0005805942346341,0.0051454617641866,0.009894173592329,-0.5839742179960012,0.6353673698008061,-9.77511668086052,14933.0
15.3,0.8999999761581421,132.0,25.49926567077637,0.2624085247516632,-79.78279811496027,40.45902976652416,268.57451440632343,-0.0325840935111045,0.0285605192184448,-0.9990558624267578,0.0031796288676559,0.0068038633004802,-0.0156246364898432,0.0017065386953035,-0.0028132183942943,-0.0005796222249045,-0.0120691079646348,-0.583357154019177,0.6441118077188731,-9.77588792860508,14933.0
15.51,0.8999999761581421,133.0,25.4942569732666,0.2703603208065033,-79.78279807167627,40.45902974155021,268.5654014223814,-0.0325837358832359,0.0285938531160354,-0.9990543723106384,0.0033380999229848,0.0002090196616794,-0.0093574704118524,0.0010959527112996,0.0010706403991207,0.0019534989260137,0.0005048416205681,-0.5819536395370961,0.6279574857652188,-9.777233957648278,14933.0
15.6,0.8999999761581421,136.0,25.49926567077637,0.2703603208065033,-79.78279808172293,40.45902976095277,268.55695262789726,-0.032563678920269,0.0285710617899894,-0.9990553259849548,0.0034293851349502,0.0066674194511796,-0.015611012565537,-0.0002933665653938,0.0024752127937972,0.0031130681745707,0.0074769295752048,-0.5835760226100684,0.6460719405859711,-9.773594650626183,14933.0
15.71,0.8999999761581421,140.0,25.49550819396973,0.2624085247516632,-79.78279808894345,40.45902977511152,268.55707550287246,-0.0325639471411705,0.0285684522241354,-0.99905526638031,0.0034843375906348,0.0058317164598241,-0.0169781376719531,1.942280704711683e-05,-0.0047338772565126,-0.0040286262519657,0.0017913852352648,-0.583521095328033,0.6339608220756054,-9.779234290122986,14933.0
15.9,0.8999999761581421,140.0,25.496761322021484,0.3498780429363251,-79.7827980964273,40.459029790570455,268.5572290146351,-0.0325613543391227,0.0285691581666469,-0.9990550875663756,0.0035466065164655,0.0061100975572789,-0.0185412078624572,0.00022927134328,-0.0021914266981184,0.0028419436421245,-0.0047328369691967,-0.587019557543099,0.6531914372742177,-9.7740133112669,14933.0
16.1,0.8999999761581421,143.0,25.48924827575684,0.4214440286159515,-79.78279811423786,40.459029750159566,268.55147866398096,-0.0325682759284973,0.0285824593156576,-0.9990540742874146,0.00366015243344,0.0083492420809659,-0.007035509595923,0.0051385371166366,-0.0052033420652151,-0.0083389244973659,-0.005211186595261,-0.5814118219166995,0.6328664425760507,-9.777935038805008,14933.0
16.2,0.8999999761581421,142.0,24.219669342041016,27.79145050048828,-79.78279809457597,40.45902975088944,268.54434763878584,-0.0325781069695949,0.0285722184926271,-0.9990537762641908,0.0037380130961537,0.0054198886228118,-0.0100966695880131,0.0065961595369018,0.0065515697933733,-0.0065647074952721,0.0014508654130622,-0.5800019485875965,0.6441579276323319,-9.77305378317833,14933.0
16.3,0.8999999761581421,142.0,25.381572723388672,2.1151719093322754,-79.78279810812802,40.45902977002631,268.54607866197824,-0.0321130417287349,0.0289569664746522,-0.999057948589325,0.0036703101359307,0.0093895545533924,-0.016103044177571,0.0053331455118606,0.0058380523696541,-0.0048959534615278,0.0109114609658718,-0.5719549007713794,0.6565176258981228,-9.764464808106425,14933.0
16.5,0.8999999761581421,145.0,25.493003845214844,0.198794350028038,-79.7827980895803,40.459029752093954,268.53653797000646,-0.0320265404880046,0.0290874503552913,-0.999057114124298,0.003635719185695,0.003612981172169,-0.0105961548272998,0.0041866358695369,-0.0125524261966347,0.0088074514642357,0.0094317244365811,-0.611782223470509,0.5933117463067175,-9.778519760370257,14933.0
16.6,0.8999999761581421,146.0,24.40121650695801,16.094390869140625,-79.7827981097209,40.45902976623189,268.5300342613458,-0.0319795906543731,0.0292065627872943,-0.9990550875663756,0.0036448505707085,0.0065432311929698,-0.0097252442842261,0.0063809562809511,-0.0039176302962005,-0.1030598059296608,-0.0195864681154489,-0.597383674196899,0.6260272467881441,-9.76927355825901,14933.0
16.8,0.8999999761581421,142.0,25.475475311279297,0.3339745104312897,-79.7827981144803,40.45902977805383,268.5306272679568,-0.0319500416517257,0.0292635541409254,-0.9990537762641908,0.0038105545099824,0.0049574485474708,-0.0120605781549342,0.0054833398650469,-0.0372709445655345,-0.1114903464913368,-0.036987118422985,-0.6054712870717049,0.6560063599795103,-9.756831268072126,14933.0
16.9,0.8999999761581421,141.0,25.4942569732666,0.2226496636867523,-79.78279813052842,40.459029746469405,268.52593440800905,-0.0318836346268653,0.0292911492288112,-0.9990545511245728,0.0039462065324187,0.0115538367893875,-0.0068479873502477,0.0065144204321256,0.0205471124500036,-0.026472769677639,-0.0059167728759348,-0.6242857266962528,0.6930419661104681,-9.755568269491196,14933.0
17.11,0.8000000119209291,143.0,25.432905197143555,1.9561363458633425,-79.7827981397494,40.459029751836034,268.526710870266,-0.0319192968308925,0.0292907077819108,-0.999053418636322,0.0039512044750154,0.0126265217576404,-0.0073725778073634,0.007249166620328,0.0174007043242454,0.0066715707071125,0.0233082734048366,-0.6164487035572529,0.6328209073841572,-9.777025212049487,14933.0
17.2,0.8000000119209291,148.0,25.29267692565918,3.999742269515991,-79.7827981740494,40.45902976135897,268.51901080697775,-0.0318630039691925,0.0292505547404289,-0.9990561604499816,0.0039988062344491,0.0068373841842225,-0.0110518172682825,0.0040235359476584,-0.0178188029676675,-0.0066298497840762,-0.0053012194111943,-0.6146020797640086,0.6414140485972166,-9.7772386354208,14933.0
17.4,0.8000000119209291,153.0,25.16997528076172,6.377322673797607,-79.78279818623783,40.45902977230463,268.5195850306749,-0.0318002998828887,0.0292500127106905,-0.9990576505661012,0.0041233748197555,0.011265610903954,-0.0141659906769095,0.0041159692174606,-0.0035095603670924,-0.035820834338665,-0.008817246183753,-0.5944863788411021,0.6151624622941018,-9.772815216779712,14933.0
17.5,0.699999988079071,161.0,25.09109687805176,7.41105318069458,-79.78279820439869,40.45902976281523,268.5127964788676,-0.0315250530838966,0.0294641237705946,-0.9990603923797609,0.0040499637834727,0.0089857883718435,-0.0094825809120357,0.0053661956046814,0.016140766441822,-0.0535380132496356,-0.0040685813874006,-0.6067593555897475,0.6883802734315396,-9.781136389374732,14933.0
17.7,0.8000000119209291,163.0,24.95462226867676,10.249836921691896,-79.7827982395165,40.45902972697908,268.50538371741766,-0.0311200190335512,0.0297891087830066,-0.9990641474723816,0.0038727414794266,0.020017462420226,-0.0006565682067818,0.0079015320645119,0.1312332153320312,0.009197031147778,-0.1279488354921341,-0.5279797825589776,0.483517883643508,-9.801230930685998,14933.0
17.9,0.8000000119209291,172.0,24.774328231811523,13.50211238861084,-79.78279826186964,40.4590297326134,268.5078944066167,-0.0297896023839712,0.0297707729041576,-0.9991056323051452,0.0037844816688448,0.0075968583644278,-0.0045654444944745,0.0150019971580921,-0.0078617576509714,0.0019270527409389,0.0131957959383726,-0.5761310187354685,0.4909515219926834,-9.785980222821236,14933.0
18.0,0.8000000119209291,174.0,24.68668365478516,15.672945976257324,-79.78279828484577,40.45902973059301,268.50164672970766,-0.0286611709743738,0.0294770039618015,-0.9991474151611328,0.0037671395111829,0.009551040823317,-0.006498909687059,0.0198975997046721,-0.0140987085178494,-0.0359410233795642,0.0772618502378463,-0.6790535990148783,0.6391773424297571,-9.774337247014047,14933.0
18.11,0.8000000119209291,184.0,24.584014892578125,17.724504470825195,-79.7827983033977,40.45902973775753,268.49643616989255,-0.0262806452810764,0.0251014791429042,-0.999336302280426,0.002501503098756,-0.0133851750125849,-0.0099395864759756,0.0298947020936663,-0.0124822072684764,0.1320812702178955,-0.0540419965982437,-0.5918336067348718,0.4738294127583504,-9.911960238218306,14933.0
18.3,0.8999999761581421,188.0,24.38994789123535,21.23123550415039,-79.78279826450925,40.45902973886595,268.50026570126414,-0.0287078134715557,0.0216773636639118,-0.9993395805358888,0.0051369303837418,-0.0431996860878453,0.0123198476835629,0.0523107840631433,-0.0477504357695579,0.0193389821797609,-0.0330262221395969,-0.3020794945769012,0.305215922780335,-10.055238071680073,14933.0
18.4,0.8999999761581421,199.0,24.27851486206055,23.21122741699219,-79.78279823521144,40.45902953464818,268.50633834540844,-0.0318011455237865,0.0054931254126131,-0.9992677569389344,0.0205541010946035,-0.1161905858916472,0.0283199854487055,0.2159025339091512,-0.0209138598293066,0.2881307899951935,-0.2670949101448059,-0.2949523051455617,0.208031361401081,-10.365271478891373,14933.0
18.6,0.8999999761581421,206.0,24.794361114501957,12.28549098968506,-79.7827980699205,40.4590294823217,268.5337663242221,-0.0261832661926746,-0.0024582834448665,-0.9992188811302184,0.0294967032968998,-0.1163885875290233,0.0606330893902696,0.3502600016817014,0.4119579493999481,0.2757955491542816,-0.1680701673030853,-0.0054328479187097,0.4055342993885279,-11.014332296848297,14933.0
18.7,0.8999999761581421,210.0,24.65538215637207,16.332942962646484,-79.78279746938902,40.45902944109546,268.5826097899676,0.0062462487258017,-0.0025722028221935,-0.9994962215423584,0.0310142934322357,-0.1774297207248092,0.0893304231789416,0.2291795198393414,0.1412850320339203,0.051960963755846,0.0635083764791488,0.1371398832835257,0.0061135197803378,-9.985975463390352,14933.0
18.9,0.8999999761581421,215.0,24.57024383544922,17.501853942871097,-79.78279724698115,40.45902936664686,268.6014464074373,0.0098676234483718,-0.0047437907196581,-0.9995534420013428,0.027804160490632,-0.1802964173395996,0.0856850453542871,0.1516895981630009,0.0595700480043888,0.1699507236480713,0.0621918626129627,0.0371417650720104,-0.1325004739779979,-9.195673397183418,14933.0
19.0,0.8999999761581421,227.0,24.513900756835927,17.978960037231445,-79.78279679812896,40.45902929773517,268.6060621911288,0.010012999176979,-0.0085838753730058,-0.9996858835220336,0.0213130731135606,-0.1500681671902913,0.0904321140993621,-0.0059952816025187,-0.0162702705711126,0.0143800470978021,0.0514987036585807,0.0510401352960616,-0.1573931582272053,-9.06373448431492,14933.0
19.2,0.8999999761581421,232.0,24.31858062744141,21.86737823486328,-79.78279654870131,40.45902914416353,268.6204836243391,0.0096908984705805,-0.0087159872055053,-0.9997191429138184,0.0197959244251251,-0.1488539804340653,0.0896351785321147,-0.0040059450563325,-0.0242494605481624,-0.0042479075491428,0.0132261896505951,0.0538835174962878,0.0226402408489957,-9.385212646722792,14933.0
19.4,0.8999999761581421,240.0,24.44378662109375,19.799917221069336,-79.78279621581947,40.45902900374272,268.6227224045992,0.0076637305319309,-0.0107161942869424,-0.999727427959442,0.0192745849490165,-0.1260523461664602,0.0770757235566104,0.0395828385125838,0.0203119162470102,0.0845442414283752,-0.004155502654612,0.1556029783375561,-0.0547984559973701,-10.110668506622314,14933.0
19.51,0.8999999761581421,248.0,24.43001365661621,19.632930755615234,-79.78279587029877,40.45902893534351,268.64789702236646,0.0071756904944777,-0.0105454036965966,-0.9997230768203736,0.0197798125445842,-0.147614593352994,0.0806813466144969,0.0871095315912304,-0.0921202898025512,-0.1043889001011848,-0.0643345341086387,0.137864289348945,-0.0431423650681972,-9.958329827785493,14933.0
19.6,0.8000000119209291,264.0,24.386192321777344,20.348588943481445,-79.78279545827252,40.45902878861608,268.6693256670237,0.0069350921548902,-0.006909349001944,-0.9997048377990724,0.0222392342984676,-0.1381886248283269,0.08149890582193,0.1342418451742261,-0.053413450717926,0.0024560040328651,-0.0840139836072921,0.1979494459927082,-0.1018579484894871,-10.049085631370543,14933.0
19.8,0.8000000119209291,273.0,24.41373634338379,19.720399856567383,-79.78279530645618,40.459028720734224,268.6842272156477,0.0084992246702313,-0.0059892698191106,-0.9996811151504515,0.0230132471770048,-0.1200346527265739,0.083115376295143,0.1635127462962461,0.0189400855451822,-0.0205242000520229,-0.0028557407204061,0.1656318850815296,0.0092466771975159,-10.087231696844102,14933.0
19.9,0.8000000119209291,293.0,24.386192321777344,20.141843795776367,-79.78279491577099,40.4590285839016,268.7120791697501,0.0127576831728219,-0.0089333616197109,-0.9996160268783568,0.0229228157550096,-0.1023317730528007,0.0868253294401826,0.2047216423960302,-0.0624941885471344,0.0859656408429145,-0.0753651037812233,0.0542208515899255,-0.0763052734779194,-10.14668033838272,14933.0
20.1,0.8000000119209291,309.0,24.45630645751953,18.83775329589844,-79.78279481421811,40.45902850927706,268.7330454015732,0.0121974619105458,-0.0116748781874775,-0.9996039271354676,0.0225148387253284,-0.0692224932071055,0.089853773806516,0.2059047818205705,0.0003251388843636,0.0510636270046234,-0.0251749418675899,0.2618383900076151,-0.0102933744806796,-9.88608981728554,14933.0
20.2,0.8999999761581421,338.0,24.36741065979004,19.92714500427246,-79.78279469201003,40.4590283229851,268.765913399458,0.0119078019633889,-0.0116887399926781,-0.999649465084076,0.020559586584568,-0.0084974030561494,0.0911133997356121,0.1840126441309,0.0330378785729408,0.0342242643237113,0.0536972843110561,0.2413460918515921,-0.0572057866584509,-9.72524577856064,14933.0
20.4,1.0,351.0,24.303556442260746,21.08015251159668,-79.78279469211402,40.45902824878575,268.78512075781816,0.0123613737523555,-0.0115496395155787,-0.9996784329414368,0.0188916586339473,0.0142059680116727,0.085441302924569,0.1960856211044125,0.0344771519303321,0.0324016846716404,0.0200935993343591,0.2481280214712024,0.0010291327955201,-9.902111188173295,14933.0
20.5,1.0,8.0,24.36741065979004,19.83172416687012,-79.78279468330327,40.45902807833472,268.82266423344606,0.0079048061743378,-0.0143010476604104,-0.9997350573539734,0.0162172000855207,0.0484545149139094,0.0774207915604952,0.2088967147273168,0.0710837990045547,-0.0200801454484462,0.124968945980072,0.2243751331418752,-0.1295371873117983,-9.964235515594485,14933.0
20.7,1.0,16.0,24.37492370605469,19.89533805847168,-79.78279480571092,40.45902784757775,268.83499947428703,0.0071187815628945,-0.0152057707309722,-0.9997349977493286,0.0157542284578084,0.0648733451433872,0.092868570314129,0.2049091168977376,0.0062682512216269,0.0291726384311914,0.0046356078237295,0.1678200410865247,-0.0394743518717587,-9.909518440961838,14933.0
20.8,1.0,27.0,24.30731201171875,20.746177673339844,-79.78279488663742,40.459027778631686,268.8558262014389,0.0068759680725634,-0.018115485087037,-0.999687910079956,0.0157698895782232,0.0726812742517761,0.0757638327998397,0.21036193993008,-0.0460809431970119,0.0481233559548854,-0.0657668113708496,0.1581090036034584,0.1052379954513162,-9.877935290336609,14933.0
21.0,0.8999999761581421,33.0,24.289783477783203,21.811716079711918,-79.78279502701446,40.459027568418094,268.900047185421,0.0046088173985481,-0.020135223865509,-0.999641478061676,0.0170386638492345,0.0945030418015244,0.0530788649520711,0.1633935105089892,-0.0254980269819498,0.0435586422681808,-0.0349678397178649,0.1965697040967644,0.0826439064927399,-9.073813329935074,14933.0
21.1,0.8999999761581421,34.0,24.08820343017578,24.35628318786621,-79.78279514035555,40.459027520961406,268.9064803445339,0.0016470237169414,-0.017521996051073,-0.9997074604034424,0.0165948998183012,0.0992530832660946,0.0449733427998958,-0.0097375294573036,-0.089262880384922,-0.0744918659329414,-0.0165842026472091,0.2745893766358495,0.0378912250860594,-8.558606387972832,14933.0
21.3,1.0,32.0,24.16207504272461,23.227130889892567,-79.78279525259197,40.45902728681324,268.9425192499161,-0.0046686469577252,-0.0079405652359128,-0.9998762011528016,0.0127620538696646,0.0988644159213062,0.0478708405216662,0.1347420427451728,-0.0845014378428459,-0.053511057049036,0.0114667369052767,0.1254061385896057,0.1327923231292516,-10.422141498327257,14933.0
21.4,1.100000023841858,23.0,24.13703346252441,23.736045837402344,-79.78279536583995,40.459027244665535,268.96113282680506,-0.0057788752019405,-0.0072296662256121,-0.9999096989631652,0.0097455913200974,0.0961017334478573,0.0499884036318789,0.2426328274663315,-0.0349958203732967,-0.0130446860566735,0.125459536910057,0.1404459812399,-0.1264180266670883,-10.836313816308978,14933.0
21.6,1.100000023841858,16.0,23.99930763244629,26.24880599975586,-79.78279551108862,40.45902700118217,269.05787194013595,-0.0062818839214742,-0.0106615647673606,-0.9999189972877502,0.0029819561168551,0.0647377079170214,0.0837329095038423,0.5805423290237944,-0.0685127228498458,0.0371762067079544,0.1248190999031066,0.1658993221074342,-0.0209362845495343,-11.538511791229247,14934.0
21.7,1.2000000476837158,6.0,23.78520774841309,30.75746154785156,-79.7827956616657,40.45902678293676,269.21170461416244,0.0021707152482122,0.0118392473086714,0.999923825263977,0.0027471496723592,0.0629357236146023,0.0889863063070337,0.9999496761242452,0.1425888836383819,0.0576561763882637,0.0933243408799171,0.2552149930223822,0.2129774845764041,-11.833517854213715,14934.0
21.9,1.2000000476837158,356.0,23.86408615112305,29.190961837768555,-79.78279571060804,40.45902672218429,269.323122742176,0.0013880694750696,0.0122437542304396,0.999911904335022,0.0049320766702294,0.0487196944143045,0.0910371857564689,1.2182000770274093,0.0195690002292394,-0.0088017098605632,0.1004206910729408,0.2326970000937581,-0.1523200773820281,-11.963060578107836,14934.0
22.0,1.2000000476837158,341.0,23.748897552490234,30.96420669555664,-79.78279571465784,40.45902660623153,269.45756834983825,0.000778826943133,0.0128654856234788,0.9998963475227356,0.0064213098958134,0.0350405697697614,0.0969968678946247,1.4092247521185892,-0.0253613945096731,-0.0057825716212391,-0.1064907014369964,0.2486274467781186,0.1167717562336474,-11.912297390699385,14934.0
22.2,1.100000023841858,336.0,23.67252349853516,31.512880325317383,-79.78279574866517,40.45902643977013,269.78283339977264,0.0044871196150779,0.0106158126145601,0.9999091625213624,0.0069959345273673,0.0248466292376677,0.1162169037725078,1.9076156030560445,0.013176305219531,-0.0861301347613334,0.0473948158323764,0.3615621413290501,-0.2007567307725548,-12.548935214281082,14934.0
22.3,1.2999999523162842,325.0,23.97927474975586,26.717960357666016,-79.78279575675599,40.45902632112804,270.22217089176183,0.0059607815928757,0.0058275223709642,0.9999500513076782,0.0055296756327152,0.0149293402388522,0.10371788925993,2.4332919840169365,-0.0150074586272239,-0.0335285067558288,-0.0837594419717788,0.2396991139277816,0.0201284460257738,-12.685121544599536,14935.0
22.5,1.399999976158142,326.0,23.798980712890625,29.365901947021484,-79.78279566913673,40.459026220541226,270.46508282661443,0.0047227046452462,0.007250643800944,0.9999541640281676,0.0041198059916496,0.0035396377496896,0.1112265394146792,2.6194825390758867,0.0201768092811107,0.0149988485500216,-0.0801988095045089,0.2679560759291053,0.0876107141934335,-12.012770097255707,14935.0
22.6,1.7000000476837158,322.0,23.957990646362305,26.622539520263672,-79.78279563070856,40.45902614271166,270.7386390590668,0.0051581631414592,0.0077725411392748,0.9999526739120485,0.0027653258293867,-0.0118384884865429,0.1318888566178499,2.8454075701337795,0.0033359501976519,-0.0022087006364017,-0.1228064894676208,0.2942393833771348,0.0980436087213456,-12.042470444440848,14935.0
22.8,1.7000000476837158,323.0,23.96174621582031,25.501338958740234,-79.7827954184909,40.45902592194116,271.34990710258484,0.0061087124049663,0.0120810354128479,0.9999080896377563,0.0008313924772664,-0.0249643208669569,0.1496760996511504,3.11735630136213,-0.0041456259787082,0.1277899891138076,-0.0478954836726188,0.2172539188340306,0.1926545729488134,-10.91213583111763,14936.0
22.9,1.7999999523162842,334.0,24.00932502746582,25.294591903686523,-79.78279533689155,40.45902583525786,271.6652440452576,-0.008607898838818,-0.0141734173521399,-0.999862551689148,3.196609759470448e-05,-0.0337195282144525,0.170693535163524,3.1864393459039766,-0.048711609095335,-0.0153660206124186,0.034673273563385,0.3111494214087725,-0.215592103600502,-10.632655295133592,14936.0
23.1,1.8999999761581416,338.0,24.18461227416992,22.034364700317383,-79.78279498779116,40.45902554994858,272.350941362381,-0.0160129927098751,-0.013208033517003,-0.9997845888137816,0.000196056542336,-0.03849484447429,0.1823089888896281,3.2917783157847613,-0.0800641924142837,0.0469791442155838,-0.0024702078662812,0.1444003526866436,0.0562900213245302,-10.222337461709976,14937.0
23.2,2.0,343.0,24.006820678710927,25.191219329833984,-79.78279424179314,40.459025188425954,273.1056231880188,0.0152782788500189,0.0145787429064512,0.9997766017913818,0.0009468305506743,-0.0679102364325668,0.1756484645262926,3.3177606153329022,0.1533569693565368,0.0670113712549209,0.0907423049211502,0.1530323413386941,-0.061401940472424,-9.865985920429232,14938.0
23.4,2.200000047683716,344.0,23.97551918029785,24.96061897277832,-79.78279400112882,40.4590251087142,273.4366993331909,0.0139586925506591,0.0157121215015649,0.9997780323028564,0.0014774807495996,-0.1125606585813335,0.1796065323882744,3.30323984538078,0.116827555000782,0.041324358433485,-0.0127441510558128,0.203288246244192,0.1057548984512686,-9.650520701408386,14938.0
23.51,2.200000047683716,349.0,24.10823631286621,23.219179153442383,-79.78279326570402,40.45902483377784,273.8466352844238,0.0132262706756591,0.0165333803743124,0.9997740387916564,0.0019300365820527,-0.1839334012692131,0.1879865087041372,3.3313283302126173,-0.1317162960767746,0.0107734529301524,-0.0806762650609016,0.157692864574492,0.2035944941639901,-9.70550850212574,14938.0
23.7,2.0999999046325684,349.0,24.09947204589844,23.96664619445801,-79.7827925359495,40.45902451502774,274.51946968078613,0.0133233303204178,0.0162811391055583,0.9997737407684326,0.0031408034265041,-0.2158287414690513,0.1887621183407827,3.2763946684396577,0.0063562025316059,-0.0944145545363426,-0.0241886246949434,0.2778960501775145,-0.024764584545046,-9.620692884922027,14939.0
23.8,2.0999999046325684,343.0,23.92543792724609,26.09772109985352,-79.78279216591281,40.45902445274621,274.84510272979736,0.0112599646672606,0.0151290772482752,0.9998170733451844,0.0032071322202682,-0.2239314915683068,0.1614940905512333,3.2387574060962767,0.245324045419693,0.0787995904684066,0.1049741357564926,0.1933745479211212,-0.1872683919779956,-9.491465325951577,14939.0
24.0,2.0,344.0,24.09571647644043,22.821590423583984,-79.78279152844716,40.45902403428518,275.4818648719788,0.0042708734981715,0.0144328363239765,0.9998835921287536,0.0024992034304887,-0.2766184042234174,0.1554193806765814,3.1997696010679,0.1334457397460937,-0.0106458943337202,0.0551368109881877,0.1290136331040412,-0.2004212833195925,-9.687927678823472,14940.0
24.1,1.7000000476837158,336.0,23.909160614013672,26.034107208251957,-79.78279113104006,40.459023625651305,276.0609807395935,-0.0024795024655759,0.01470089238137,0.9998880624771118,0.0012817261740565,-0.3159422886257449,0.1489384684938362,3.107029347804501,-0.0260761957615614,0.0488009750843048,-0.033446442335844,0.1887346361204981,-0.0261689852457493,-9.551006938219071,14941.0
24.31,1.600000023841858,339.0,23.9104118347168,25.5570011138916,-79.78279077062088,40.4590235732898,276.37161916732794,-0.0033975150436162,0.0166988521814346,0.999854564666748,0.000721878663171,-0.3327947111188956,0.1446548821840588,3.103605605810404,-0.1199385523796081,0.0425087288022041,-0.0438713692128658,0.0914441305026412,0.1208941529039293,-9.754317550063131,14941.0
24.4,2.0,323.0,24.10197639465332,23.52134704589844,-79.78279041816147,40.45902353371815,276.68330043792724,-0.0040984898805618,0.0188025645911693,0.9998146891593932,0.000657168100588,-0.3008918229042686,0.1373085489703343,3.12255886803757,0.1581121534109115,0.0398924238979816,0.0846098139882087,0.2322367876768112,-0.3040846692770719,-9.999944461584091,14941.0
24.6,1.8999999761581416,318.0,23.94296646118164,25.31049728393555,-79.78279022008229,40.45902305703221,277.1962732696533,-0.0100607350468635,0.0189592558890581,0.9997689127922058,0.001192919909954,-0.2645018998958182,0.155716296302246,3.03056018221991,0.0264791324734687,0.0167578626424074,-0.0183769296854734,0.1845684401504695,0.1738258624635636,-9.736507515907288,14942.0
24.7,1.8999999761581416,321.0,24.03186225891113,23.5849609375,-79.7827894476604,40.459023122775896,277.5326513671875,-0.0124065587297081,0.0170553792268037,0.9997762441635132,0.0016641088295727,-0.2836146681017173,0.1124266430570105,2.999970570142081,-0.0202950276434421,-0.1131315901875496,-0.0114993350580334,0.1808128648996353,-0.1363942353799939,-9.70013900399208,14942.0
24.9,2.0,326.0,24.03937339782715,23.664478302001957,-79.78278897337239,40.45902313356682,278.133416595459,-0.0155822411179542,0.0152863385155797,0.9997588992118835,0.0023984787985682,-0.2739805226383714,0.0817006553103152,2.9895241359328883,-0.0385115928947925,-0.0054711257107555,-0.01954997330904,0.2346096791513264,-0.0623547305585816,-9.750202279686928,14943.0
25.0,2.0,316.0,23.99680328369141,24.28471755981445,-79.78278835249104,40.45902306347934,278.7896294021606,-0.0149345584213733,0.0174371935427188,0.99973326921463,0.0025091064162552,-0.2217706759079429,0.07398061161415,2.95762258612397,0.0423210896551609,-0.0575380437076091,0.0299516916275024,0.1824250884354114,0.1049925494380295,-9.669810081124307,14943.0
25.2,2.0,317.0,23.931697845458984,25.77169990539551,-79.7827878541902,40.45902275732425,279.123180809021,-0.0139235220849514,0.0158644989132881,0.9997740387916564,0.0025501607451587,-0.2127319714632792,0.0912273296331129,2.920240924820201,0.1149094551801681,0.0392959862947464,0.0481901131570339,0.2644351019337773,-0.0899907319620251,-9.415633370876312,14944.0
25.3,2.299999952316284,311.0,24.09822082519531,22.66255569458008,-79.78278770661797,40.459022764268425,279.4138073348999,-0.0121531141921877,0.013229333795607,0.9998365044593812,0.0020944436546415,-0.2122624607813249,0.0816402054200379,2.888247868076833,-0.2076346725225449,-0.0669647827744484,-0.0911477580666542,0.2017278802022338,0.1845880100503564,-9.483220167160033,14944.0
25.5,2.400000095367432,316.0,24.018089294433597,23.78375625610352,-79.78278709799633,40.45902228422823,280.050592842102,-0.0118566947057843,0.0134134534746408,0.9998388290405272,0.0014178893761709,-0.1728191952683647,0.1029230920324259,2.89917215139616,-0.0769309252500534,-0.0303936768323183,0.0595359802246093,0.2057538343593478,-0.216061836015433,-9.783766466975214,14945.0
25.6,2.700000047683716,319.0,23.907907485961918,26.137481689453125,-79.78278645567906,40.45902169281982,280.6552557373047,-0.0137614468112587,0.0172327049076557,0.9997536540031432,0.0025173013564199,-0.1776272093171097,0.1787316956803753,2.9031314532802304,-0.1137157306075096,-0.0381593704223632,-0.0094007886946201,0.3722723766043782,-0.223378566596657,-9.79800151348114,14945.0
25.8,2.799999952316284,323.0,23.937957763671875,25.286640167236328,-79.78278635823501,40.459021614809096,280.94741004943853,-0.0134261390194296,0.0173809695988893,0.99975323677063,0.0033373739570379,-0.1595095268755472,0.1872356631019708,2.926847409121605,-0.0412793830037117,0.0663523748517036,-0.0153259262442588,0.2330528579838574,0.0358442176692187,-9.918105661869047,14945.0
25.9,2.900000095367432,316.0,24.050642013549805,22.81363868713379,-79.78278627937945,40.45902154370443,281.24095195770263,-0.0124238030984997,0.0182797238230705,0.99974924325943,0.0036123867612332,-0.1387024790555677,0.1754643338152841,2.9292571726274423,-0.044032022356987,-0.0650040209293365,-0.0344512350857257,0.2552249332889915,-0.2290486664324999,-9.89975242137909,14946.0
26.11,3.0,315.0,23.88286781311035,24.722064971923828,-79.78278593322841,40.45902121144145,281.8564323806762,-0.0112452339380979,0.0183317512273788,0.999764323234558,0.0029845633544027,-0.1142700830252362,0.1802471680267717,2.939273214025098,-0.0712225586175918,-0.0254944059997797,-0.116149865090847,0.3114012171328068,0.1085879292525351,-9.744469669461251,14946.0
26.2,3.0,311.0,23.87660789489746,25.779651641845703,-79.78278597896455,40.45902129206141,282.1670965576172,-0.012677788734436,0.0143207283690571,0.9998137950897216,0.0025675313081592,-0.086365294874132,0.1341530037471118,2.9365763525453423,-0.0460465550422668,-0.1145411506295204,-0.0196286626160144,0.2842064383998513,-0.0410879549849778,-9.71393609404564,14947.0
26.4,3.0,309.0,23.861581802368164,26.23290252685547,-79.78278597692102,40.45902123565133,282.754208984375,-0.0147330500185489,0.0081556607037782,0.999855637550354,0.0023005532566457,-0.0653712039434159,0.0848644713349403,2.931870526792244,0.1071183681488037,0.0738459601998329,-0.0384795889258384,0.2487546785362065,-0.0473251890577375,-9.784692081213,14947.0
26.5,3.0,306.0,23.9104118347168,25.14350891113281,-79.78278594813459,40.45902099653541,283.37697166442865,-0.0137133104726672,0.0129360277205705,0.999821662902832,0.0011702354531735,-0.0551404637007801,0.1188759982059229,2.9621118596352223,-0.2438749372959137,-0.0307235959917306,-0.1125239729881286,0.2681837701611221,-0.1805011169426143,-9.873696058988571,14948.0
26.7,3.0,302.0,23.9003963470459,25.23097801208496,-79.78278600224583,40.459020886651366,283.7013906860352,-0.0131809553131461,0.0158974416553974,0.9997867345809937,0.0003545529325492,0.0116170528171269,0.1218734894326199,2.9805740569023067,0.1424582302570343,0.1030076816678047,0.0872245207428932,0.3002096098288894,-0.3216810607910157,-9.914046524763108,14948.0
26.8,3.0,301.0,23.905405044555664,25.27868843078613,-79.78278610052752,40.45902084561648,283.99992221832275,0.0126547152176499,-0.0186096727848052,-0.999746561050415,0.0006134691648185,0.0085442497823464,0.1351476572044032,2.985577405437593,-0.0368543788790702,0.0588057972490787,-0.0407746918499469,0.2825166844390333,-0.0705699452105909,-9.85488556623459,14948.0
27.0,3.0,300.0,23.86659049987793,25.453628540039062,-79.78278626334469,40.45902065018547,284.6142248535156,0.0106655750423669,-0.0185813009738922,-0.9997699856758118,0.0010655141668394,0.0562129233572355,0.152004736400088,2.971424823809992,0.0886343568563461,-0.0395724214613437,0.0966105833649635,0.3021733241155743,-0.3139216959849,-9.7617160320282,14949.0
27.1,3.0999999046325684,295.0,23.931697845458984,25.3900146484375,-79.78278654957296,40.459020540579466,285.22574371337885,-0.0073015368543565,0.0157318152487278,0.9998496770858764,0.0001867684622993,0.0640135981011139,0.1196333964082384,2.9849391989812344,-0.1292849034070968,-0.0020377605687826,-0.0406925156712532,0.3073562595248222,-0.197732020933181,-9.855924031734467,14950.0
27.3,3.0999999046325684,293.0,23.937957763671875,24.17339324951172,-79.78278670664322,40.4590205279622,285.525111618042,-0.0056401067413389,0.0151037788018584,0.9998696446418762,0.0009405034361407,0.0951842014493704,0.1096099834872447,3.0055299963589595,0.011120923794806,-0.0163513887673616,0.0615847110748291,0.2695393740199506,-0.2898412539437413,-9.975960352420806,14950.0
27.4,3.2000000476837163,291.0,23.964250564575195,23.84737014770508,-79.78278686662418,40.45902051818603,285.8264364624024,-0.0063641630113124,0.0148085476830601,0.9998692274093628,0.0013634212082251,0.1032427729773413,0.0985037290144153,3.0139910096799056,0.0214295201003551,-0.0690586268901825,-0.0132316006347537,0.2511687563359737,-0.1468829525448382,-9.883308881521224,14950.0
27.6,3.0999999046325684,291.0,23.798980712890625,26.78952598571777,-79.78278729802419,40.45902022797673,286.4598345184326,-0.0066896872594952,0.0152681097388267,0.99986070394516,0.0008887398289516,0.0968747440834404,0.1247691567537648,2.9977034025342544,-0.1975789368152618,-0.0720963552594184,-0.1075002327561378,0.2517990679107607,-0.0162735503353178,-9.610470197796824,14951.0
27.7,3.0,289.0,23.8465576171875,25.779651641845703,-79.78278748658637,40.459020064198974,286.78960365295416,-0.0065296189859509,0.0151650346815586,0.9998634457588196,0.0007243531872518,0.1099094047596071,0.1325566479497368,3.0099245949723787,0.0529670976102352,-0.0026579867117106,0.0144205400720238,0.2567472924292088,-0.1475825718976557,-9.697531730532653,14951.0
27.9,3.0,287.0,23.85657501220703,25.73194122314453,-79.7827878297424,40.45901999947219,287.39255088806146,-0.0053421212360262,0.0147164734080433,0.9998774528503418,0.0002473571512382,0.0938118151877566,0.1235387526795324,3.0247488622374714,-0.1396368741989135,0.0167024713009595,-0.139914259314537,0.2828059023432434,0.1410464628785848,-9.849487416744232,14952.0
28.01,3.0999999046325684,283.0,23.87285041809082,24.89700508117676,-79.78278811679289,40.45901973938419,288.0146955871582,0.003362416755408,-0.0147762531414628,-0.9998850226402284,0.0005928695318289,0.1398029653603798,0.1287138959686583,3.0198269605350334,0.1696686297655105,-0.0253763776272535,0.0870232135057449,0.1852110491506755,-0.1946221244707704,-9.775238302946091,14953.0
28.2,3.0999999046325684,282.0,23.90665626525879,24.594837188720703,-79.78278846806117,40.45901945138852,288.3392156982422,0.0054620294831693,-0.0147332577034831,-0.999876081943512,0.0009859716519713,0.1406321729937505,0.1690157131551721,3.040741665182485,0.0095591936260461,0.073458731174469,-0.1028492823243141,0.2979181591048837,0.1391510331071913,-9.866391717195512,14953.0
28.3,3.0999999046325684,281.0,24.003063201904297,22.583038330078125,-79.78278866363935,40.45901937867141,288.6438326263428,0.0065313861705362,-0.0141974845901131,-0.9998769164085388,0.0013971654698252,0.1287612809168089,0.1714011400868638,3.047494886595341,-0.006690755020827,0.0073994817212224,0.0484045036137104,0.1633515988849103,-0.1939563824236393,-9.804136412143707,14953.0
28.5,3.0999999046325684,279.0,23.72135353088379,27.7039794921875,-79.7827889472001,40.45901911830429,289.2666429901123,0.006028713658452,-0.0145679600536823,-0.999874472618103,0.0016407835064455,0.1146671020106011,0.1635161340550645,3.0273202042364264,0.0866042301058769,0.0503185540437698,-0.0180123187601566,0.2728607386909425,-0.0925147739611566,-9.693517616987233,14954.0
28.7,3.0999999046325684,278.0,23.822769165039062,25.87507247924805,-79.78278950864356,40.45901878803648,289.8911203765868,0.0048368060961365,-0.0153753524646163,-0.9998688101768494,0.0016627763397991,0.1337831902918277,0.1941281201981577,3.0451934669569503,-0.0252235513180494,-0.0248182211071252,-0.0399606078863143,0.1955595062300563,-0.0821018421929329,-9.852144391536712,14954.0
28.8,3.0999999046325684,278.0,23.909160614013672,24.63459587097168,-79.78278970019585,40.459018696501865,290.19594139099115,0.0048794541507959,-0.0155870113521814,-0.9998652935028076,0.0016245559090748,0.1337131755742195,0.1881145368031464,3.045795230861524,0.0873446092009544,0.0282551441341638,0.0648945942521095,0.2140422625467181,-0.1310604052618146,-9.846230517625813,14955.0
28.9,3.0999999046325684,274.0,23.796476364135746,25.827362060546875,-79.78278996635291,40.459018562628025,290.8188108825684,0.0042739515192806,-0.0150074576959013,-0.9998743534088136,0.0028118777554482,0.1104969812570161,0.1674968689150442,3.0445397707653745,-0.0466642975807189,-0.0805119797587394,0.0030144194606691,0.2395092438720167,0.0010819633025676,-9.755190539360049,14955.0
29.11,3.0999999046325684,273.0,23.7639217376709,25.859169006347656,-79.78279012308025,40.45901850239615,291.1235174560547,0.004236418288201,-0.0148978326469659,-0.9998741745948792,0.0034258256200701,0.1068127316387368,0.1536209727659398,3.0434354399513137,0.0281976535916328,-0.0674718171358108,-0.027302773669362,0.2431855710782111,-0.1763738049566746,-9.825594524145128,14956.0
29.2,3.0999999046325684,270.0,24.01934051513672,22.54327964782715,-79.78279020143408,40.459018424646295,291.4420923614502,0.0046500233002007,-0.0145112173631787,-0.9998775720596312,0.0035631305072456,0.0887678279472754,0.1449773943683452,3.0535854230768,0.0119889788329601,0.0525120981037616,-0.0397701188921928,0.2070720891281962,0.0601701696775853,-9.86332894563675,14956.0
29.4,3.2000000476837163,269.0,23.821516036987305,25.350255966186523,-79.78279046956158,40.459018336847045,292.04816764831537,0.0052045732736587,-0.0133936889469623,-0.9998929500579834,0.0027948548085987,0.078532304574507,0.1300670861938242,3.009861828117566,-0.0410148128867149,-0.0946007892489433,-0.0315182954072952,0.1945591389946639,-0.2119252598471939,-9.68918599963188,14957.0
29.5,3.0999999046325684,268.0,23.89538764953613,24.61869239807129,-79.78279033458568,40.459018325772455,292.3548063659668,0.0045720753259956,-0.0128228589892387,-0.9999045729637146,0.0023911402095109,0.0476322440331955,0.1006043065658638,3.023159711017972,0.1035674586892128,0.0304549280554056,0.0795115381479263,0.2104092230089009,-0.1776962624117732,-9.858651173114778,14957.0
29.7,3.0999999046325684,268.0,23.901647567749023,24.141586303710927,-79.7827904858107,40.45901819387874,292.9782251739502,0.0041334922425448,-0.0135834962129592,-0.9998961091041564,0.0024860450066626,0.0508636051861216,0.1082888017364695,3.0352149751695423,-0.0507463440299034,-0.0422260053455829,-0.0261333007365465,0.2089452263899147,-0.1709999396838248,-9.788831325173376,14957.0
29.9,3.0999999046325684,267.0,23.90665626525879,23.855321884155277,-79.78279064781267,40.45901814915519,293.5837702178955,0.0053603956475853,-0.01384465303272,-0.9998866319656372,0.0025272262282669,0.0303708342977344,0.1068294853785307,3.0240261866943823,0.0275059342384338,0.07480039447546,-0.0204145368188619,0.2497491802833974,-0.0983539314195513,-9.794434127211572,14958.0
30.0,3.0999999046325684,268.0,23.91667175292969,24.26086235046387,-79.78279062203531,40.459018155979656,293.905669631958,0.0042269001714885,-0.0131532801315188,-0.9999008774757384,0.002746938727796,0.0081936476574193,0.0958146402316142,3.030634645325493,-0.2275865077972412,-0.0744260102510452,-0.0988416969776153,0.1710351874306798,0.066979416757822,-9.75344689965248,14958.0
30.1,3.0999999046325684,269.0,23.81275177001953,25.326400756835927,-79.78279068493762,40.459018149767104,294.2075495147705,0.0038022603839635,-0.0127412173897027,-0.9999075531959534,0.0028753958176821,0.0339226485479269,0.0834615836993854,3.0051847529460955,0.0927840024232864,0.024846501648426,0.0659540668129921,0.1339079444669187,-0.2233170794695616,-9.62590216934681,14959.0
30.3,3.2000000476837163,271.0,23.94922637939453,23.43387794494629,-79.78279064033218,40.45901809336775,294.8228716278076,0.0033777977805584,-0.0112250475212931,-0.9999266862869264,0.0030570279341191,0.0013839177281061,0.0846525449245123,3.035750985172184,0.0324656032025814,0.0145014906302094,-0.0149023197591304,0.2875129109434784,-0.0312448709271848,-9.938866785764697,14959.0
30.4,3.2000000476837163,272.0,23.89413642883301,23.17146873474121,-79.78279066343285,40.45901808026415,295.1273035430908,0.004173937253654,-0.0112178856506943,-0.999923050403595,0.0032751832623034,-0.0058924560325791,0.0876852545499241,3.04600904268637,0.0233392007648944,0.0789694115519523,-0.0062959399074316,0.2404293946176768,-0.0245217971876263,-9.86313832640648,14960.0
30.6,3.2000000476837163,275.0,23.87911033630371,24.451704025268555,-79.78279064866368,40.45901802262594,295.7472891235352,0.0058992612175643,-0.0141192069277167,-0.9998763203620912,0.0036352172028273,-0.0112967174489447,0.0966074791025615,3.0490877943379084,0.0968624129891395,0.0776256471872329,0.038282711058855,0.2616611462831497,-0.108957034740597,-9.870223982334135,14960.0
30.7,3.0999999046325684,279.0,23.77393913269043,26.23290252685547,-79.78279055227931,40.4590180226238,296.3688330078125,0.0081798117607831,-0.0177831854671239,-0.9998010993003844,0.0038378359749913,-0.0529885220356562,0.1066078716958215,3.054162171015399,-0.1533699780702591,0.0335464216768741,-0.1187301725149154,0.290410882383585,-0.3823647073656321,-9.853924283981325,14961.0
30.9,3.0999999046325684,282.0,23.904151916503903,23.93483924865723,-79.78279056094462,40.45901801787769,296.67423957824707,0.0064796954393386,-0.0173080265522003,-0.9998225569725036,0.0036413006018847,-0.0380562283655914,0.1115225440353983,3.0437939185763363,0.0116785038262605,-0.0190332680940628,0.0284401550889015,0.2511217958852649,-0.216506114769727,-9.714287511706347,14961.0
31.0,3.0999999046325684,290.0,23.775190353393555,25.906879425048828,-79.7827904544832,40.45901801792064,296.9840330505371,0.0042609358206391,-0.0158470422029495,-0.9998583793640136,0.003752993652597,-0.0290871692790691,0.1008811505445237,3.0165688331761578,0.0262206904590129,-0.0492318645119667,0.0179164875298738,0.3431322292238474,-0.2660554384812713,-9.666014068722726,14961.0
31.2,3.2000000476837163,290.0,23.92293357849121,23.282794952392567,-79.78279037310696,40.45901801118311,297.5989431762696,0.0013593777548521,-0.0128739839419722,-0.9999110102653505,0.0032365203369408,-0.019631028026161,0.0880849078036686,3.050230533177253,-0.0207965038716793,0.0090321348980069,0.0890154764056205,0.1973017572239041,-0.1956376031041145,-10.055416996479035,14962.0
31.3,3.299999952316284,293.0,23.77644348144531,25.67627716064453,-79.78279035425075,40.459018012919024,298.2101606750488,0.005948613397777,-0.0162113849073648,-0.9998468160629272,0.0028901111800223,-0.0313217362226947,0.0919379603812839,3.0461141514755226,0.07313734292984,0.082313448190689,-0.0298487991094589,0.2932916593551636,-0.1610257409512996,-9.907749073505403,14963.0
31.51,3.299999952316284,296.0,23.85031318664551,24.920860290527344,-79.78279024549141,40.45901786233503,298.5144380950928,0.0063254800625145,-0.0145513527095317,-0.9998696446418762,0.0030002859421074,-0.0454275838855347,0.1232325902951372,3.0304175891351064,-0.0537793152034282,-0.0792784914374351,0.0732408538460731,0.2413256631419062,-0.2111344604752958,-9.839170589447024,14963.0
31.61,3.400000095367432,301.0,23.82026481628418,25.382062911987305,-79.78279023443123,40.45901784027706,298.81844467163086,0.006375084631145,-0.0138229634612798,-0.9998806118965148,0.0026609487831592,-0.0449168884451713,0.1110339068152655,3.04165396500168,0.0203251391649246,-0.0045088077895343,-0.0499780289828777,0.3311232177168131,-0.11726283098571,-9.893922747373582,14963.0
31.8,3.400000095367432,302.0,23.849061965942383,24.197248458862305,-79.78279011299685,40.45901775998829,299.4305834197998,0.0066058286465704,-0.018567843362689,-0.9998014569282532,0.0029458454810082,-0.0658162431444013,0.1237275009037859,3.05124285217143,-0.1904964596033097,0.0012273604515939,-0.1041437461972236,0.2504771038144827,0.1025369655434042,-9.957832814455031,14964.0
31.9,3.400000095367432,304.0,23.82652473449707,23.86327362060547,-79.78279009737106,40.45901773763296,299.73754638671875,0.0066680335439741,-0.0198052879422903,-0.9997758865356444,0.0033999632578343,-0.0404250408105292,0.1380439182002811,3.0798500000346385,0.1745213866233825,0.011099231429398,0.0571881905198097,0.4221096939593554,-0.2914868066087365,-10.080510907173156,14964.0
32.1,3.400000095367432,305.0,23.85907745361328,24.141586303710927,-79.78278999697486,40.45901764284928,300.36407417297363,0.0079699559137225,-0.0182329453527927,-0.9997931122779846,0.0042346138507127,-0.063009705295124,0.1395207843302026,3.09136697257129,-0.1664360463619232,-0.0060757948085665,-0.143690824508667,0.2909728911705315,0.2476109448820353,-9.783143738508224,14965.0
32.2,3.5,307.0,23.875354766845703,23.799659729003903,-79.78278995767005,40.45901762106399,300.97900146484375,0.0068659912794828,-0.0187116600573062,-0.999789535999298,0.0048605129122734,-0.0589375267416343,0.1300840465181244,3.0342330726240982,-0.1265975385904312,-0.0544618107378482,0.0253901090472936,0.2902271519042552,-0.3045808237977326,-9.703590030670169,14965.0
32.4,3.5,309.0,23.85031318664551,24.63459587097168,-79.78278995679375,40.45901760546228,301.2811788940429,0.0043361317366361,-0.0181843303143978,-0.999814748764038,0.0045794546604156,-0.0401814229349264,0.1301531860977353,3.0049716246966582,-0.0328312776982784,-0.0945353060960769,0.0606494881212711,0.2876142504997551,-0.2898616461083293,-9.568246284127236,14966.0
32.5,3.5999999046325684,310.0,23.897891998291016,23.489540100097656,-79.78278983463977,40.459017548096746,301.59904235839844,0.0037498637102544,-0.0183794535696506,-0.9998158812522888,0.0040416354313492,-0.0370635034648741,0.1253898689865968,3.008282718170725,0.0304964873939752,0.0200890656560659,0.117787629365921,0.2520668155699968,-0.2771407726407051,-9.658659440875054,14966.0
32.71,3.5999999046325684,309.0,23.822769165039062,24.24495887756348,-79.7827897197576,40.45901744971994,302.2202276611328,0.0067647970281541,-0.021223034709692,-0.9997383952140808,0.0052113584242761,-0.0297006550056792,0.1446754356234705,2.997419213618564,0.1766008734703064,0.0401735603809356,0.0845761522650718,0.3946549334004521,-0.2672608785331249,-9.657591154575348,14967.0
32.8,3.5,310.0,23.89664077758789,22.92496490478516,-79.7827896901251,40.45901740700605,302.8189710998535,0.0094187399372458,-0.0203973483294248,-0.9997258186340332,0.0066083292476832,-0.0715994323649871,0.1420035686442711,2.9806120990923213,-0.1309246569871902,0.0077064530923962,-0.0990136042237281,0.2740433563292027,-0.0520808940008282,-9.713912705183027,14967.0
33.01,3.5,312.0,23.827777862548828,25.31049728393555,-79.78278957811638,40.45901727096742,303.1394934082031,0.0084193553775548,-0.0199437271803617,-0.9997433423995972,0.0066853472962975,-0.0708067201342224,0.1587277866699956,2.9921634261592613,-0.0914938151836395,-0.0113541726022958,-0.1069386377930641,0.3015595126524568,0.1402637399733066,-9.70170254945755,14968.0
33.1,3.400000095367432,312.0,23.70632743835449,25.588808059692383,-79.78278953236054,40.4590172004328,303.75577301025385,0.0069730314426124,-0.0205731187015771,-0.9997483491897584,0.005611028522253,-0.0361127378748484,0.1463116962866055,3.0402152023975244,0.1405564099550247,0.0744275972247123,0.0262978728860616,0.3033584633655846,-0.1984083793312311,-9.829843111038208,14968.0
33.31,3.400000095367432,312.0,23.81024742126465,22.535327911376957,-79.78278952860448,40.459017178735536,304.06134170532226,0.0055095069110393,-0.0224740076810121,-0.9997207522392272,0.004802621435374,-0.0607941320403768,0.1493434504611206,3.063330146149629,-0.1989533603191376,-0.0210511349141597,-0.0980171337723732,0.314243841022253,0.1014125002920627,-9.9864642906189,14969.0
33.4,3.5,315.0,23.76141929626465,25.175315856933597,-79.78278952581748,40.459017160538025,304.36925262451166,0.0044983173720538,-0.022907679900527,-0.9997185468673706,0.0042423056438565,-0.0296944498454283,0.1576268072949196,3.082761999375452,0.0663027316331863,0.00117738021072,0.0369980260729789,0.3309301134198904,-0.0504617588734254,-9.963961865901949,14969.0
33.6,3.400000095367432,315.0,23.75015068054199,25.23892974853516,-79.78278951534547,40.45901692451013,304.993955078125,0.0084707960486412,-0.0209967568516731,-0.9997290372848512,0.0054136291146278,-0.0178616040486591,0.1766872747711286,3.082429540058512,0.0506060309708118,0.0647210404276847,0.0112628629431128,0.4344625217467546,-0.0788038755208253,-9.822219511270523,14969.0
33.7,3.5,318.0,23.801483154296875,24.09387588500977,-79.78278949988763,40.45901689524121,305.30908721923834,0.0079102059826254,-0.0207949951291084,-0.9997348189353944,0.005954666994512,-0.0442692940451787,0.1789718084154026,3.0760165248193583,-0.1614254415035247,0.0094619095325469,-0.1294800788164138,0.3861711716651917,0.1549450021237135,-9.825385193824768,14970.0
33.91,3.400000095367432,320.0,23.748897552490234,24.3721866607666,-79.78278956708921,40.459016802504784,305.92656845092773,0.0072598299011588,-0.02368139103055,-0.9996694922447203,0.0068892412818968,0.0032223671240774,0.1902121687206432,3.0960422513115056,0.0927299261093139,0.047349989414215,0.1724642366170883,0.4681470520421863,-0.3554564787447453,-9.95469753742218,14970.0
34.0,3.400000095367432,326.0,23.96925926208496,21.326658248901367,-79.78278945170881,40.45901673810114,306.55474609375,0.0022541938815265,-0.0280417501926422,-0.9995702505111694,0.0082479799166321,-0.0040534144098341,0.1964898428656172,3.083151396707524,-0.0343505777418613,0.0763420686125755,-0.0828468278050422,0.465188251286745,-0.1033532733935862,-9.950572911500933,14971.0
34.21,3.400000095367432,327.0,23.711336135864247,25.54904937744141,-79.78278951521756,40.4590166756771,306.86683029174804,0.0026549012400209,-0.029950987547636,-0.9995067119598388,0.0090705417096614,0.0319088956856253,0.2000682439152842,3.0554744574389705,0.1454504281282425,0.1256148219108581,-0.0378118455410003,0.5053802575170994,-0.032028754139319,-9.723112714290618,14971.0
34.3,3.5999999046325684,329.0,23.67502593994141,26.3521785736084,-79.78278955641483,40.45901664988107,307.17240661621094,0.0051171826198697,-0.0320804640650749,-0.9994271993637084,0.0094879176467657,0.0259222525299706,0.2054938689965668,3.043179034373672,0.1351664513349533,0.0601713210344314,-0.0231207758188247,0.4526249602809549,0.0131333945319056,-9.694594089388849,14972.0
34.5,3.700000047683716,331.0,23.81024742126465,23.410022735595703,-79.78278964014098,40.459016482066815,307.80643218994135,0.0005160322180017,-0.0340986140072345,-0.999374508857727,0.0093634473159909,0.0207127435048756,0.2322453008655316,3.1036441457364643,0.0356057621538639,0.0145334778353571,0.026779655367136,0.5058735432475806,-0.0104009084310382,-10.074312858581544,14972.0
34.7,3.799999952316284,334.0,23.778947830200195,24.35628318786621,-79.7827897283175,40.4590164008226,308.4369596862793,-0.0002221170871052,-0.0332392007112503,-0.9994122982025146,0.0083810668438673,0.0490122104715079,0.2231549039486542,3.0949826099079227,0.0291934590786695,0.0392135009169578,-0.0770585909485817,0.4669419774413109,0.2030440884456038,-9.7791600304842,14973.0
34.8,3.900000095367432,335.0,23.74138641357422,25.382062911987305,-79.78278978067472,40.4590163993336,308.7475866699219,-0.0017134823137894,-0.0322639048099517,-0.999441921710968,0.008492468856275,0.038939144136718,0.200321951148614,3.099932756650816,-0.1669646501541137,-0.0989126786589622,-0.0682049766182899,0.4176822553575039,0.1292017581313848,-9.809511172771458,14973.0
34.9,4.0,338.0,23.92168045043945,21.37436866760254,-79.78278987113228,40.45901635027187,309.3813146972656,-0.0020897334907203,-0.0321607142686843,-0.9994404315948486,0.0089571643620729,0.0608698441517323,0.1774316641719065,3.0551638498197025,0.0446409247815609,-0.0095866071060299,-0.1099362894892692,0.4874202788248658,-0.3245843495428562,-9.733574552536007,14974.0
35.11,4.0,339.0,23.72385597229004,26.12952995300293,-79.78278992212482,40.45901637276248,309.6844953918457,-0.0028944457881152,-0.0312769338488578,-0.9994633197784424,0.0092973401769995,0.0559301787645004,0.160149708878366,2.997464820293146,-0.0040939524769783,-0.0492883324623107,-0.0573947466909885,0.5563444064185024,0.0665732454042881,-9.319204013943672,14974.0
35.2,4.099999904632568,342.0,23.67377471923828,26.050010681152344,-79.78278984761911,40.459016374834405,310.00645965576166,-0.0032941924873739,-0.0306299421936273,-0.9994781613349916,0.0097143007442355,0.0621825058133969,0.1469362062133227,2.987110608212725,0.1077884584665298,0.0054633771069347,0.0810450911521911,0.4535354813933373,-0.0268858493166044,-9.429043959975242,14975.0
35.41,4.099999904632568,342.0,23.70632743835449,26.09772109985352,-79.78278993399806,40.45901646783064,310.6031774902344,-0.0028704770375043,-0.0273497682064771,-0.999564528465271,0.0107087465003132,0.0595535420066463,0.1168382558988252,2.983827829440944,0.0239412151277065,-0.079781137406826,0.091977834701538,0.4509067559614778,-0.1338865107670426,-9.813468568325042,14975.0
35.5,4.199999809265137,345.0,23.72010040283203,25.366159439086918,-79.7827900883298,40.45901643945276,311.23936599731445,-0.0016926511889323,-0.0231346003711223,-0.9996691346168518,0.0111204553395509,0.0504271713983162,0.0896022980394743,3.0353383334280406,0.0714673325419426,0.1107648238539695,0.0330512598156929,0.4980718226730824,0.1316817724239081,-9.858779811859131,14976.0
35.7,4.199999809265137,345.0,23.7639217376709,24.39604187011719,-79.78279005864741,40.4590164241409,311.5628790283203,-0.002279306994751,-0.023271320387721,-0.999664843082428,0.0111138606444001,0.0269860027269522,0.0948165923888026,3.0687300768273778,-0.2242100238800048,-0.0571500584483146,-0.0570899508893489,0.2722981451824308,0.1423263635672629,-9.93477841258049,14976.0
35.8,4.099999904632568,346.0,23.81400489807129,23.736045837402344,-79.78279009548565,40.45901646604749,311.87050003051763,-0.0032961128745228,-0.0241697859019041,-0.9996453523635864,0.0106824208050966,0.0598007601985029,0.0918412686855731,3.0795825296063537,0.1696267575025558,0.0904277935624122,0.11309514939785,0.4008329918235541,-0.1176234488748014,-9.913606814146044,14976.0
36.0,4.0,347.0,23.61868476867676,27.218921661376957,-79.78279013131406,40.45901657550535,312.4901708984375,-0.0034419302828609,-0.0261239018291234,-0.9996061921119692,0.0096507789567112,0.0475458544556441,0.0951149926425084,3.0480825998231333,-0.0284104160964489,0.1223363205790519,-0.0466193333268165,0.4299856010824442,0.15302130471915,-9.648837288022042,14977.0
36.11,4.0,348.0,23.662506103515625,26.21699905395508,-79.78279016140124,40.45901662549353,312.79473251342773,-0.0042927041649818,-0.0284832622855901,-0.999538004398346,0.0097043272107839,0.03699788974855,0.1023155296171006,3.048020777434483,-0.134358525276184,-0.0365262106060981,0.010766671039164,0.4148014418408275,0.040914740357548,-9.773852512836458,14977.0
36.3,4.0,348.0,23.72636032104492,25.723989486694336,-79.78279013994144,40.45901673421064,313.417970123291,-0.0043432507663965,-0.0281688012182712,-0.9995420575141908,0.0101681621745228,0.0380097341321096,0.1058102032157336,3.095395199641197,-0.1535540223121643,-0.0588506460189819,-0.1726385951042175,0.4243704833462834,0.4266634689643979,-9.986062002182008,14978.0
36.4,4.0,349.0,23.78019905090332,24.18929672241211,-79.78279016135346,40.45901681849725,314.0434049987793,-0.0030355399940162,-0.0240671094506979,-0.9996488690376282,0.0106634423136711,0.0407375542952612,0.0851042059952405,3.099096231133585,-0.0414055474102497,-0.0077231810428202,0.0062292222864925,0.4894133022800088,-0.0216414770297706,-9.958990563154224,14979.0
36.61,4.0,350.0,23.718849182128903,26.07386589050293,-79.78279019224945,40.45901688589178,314.35234970092773,-0.0031080439221113,-0.0223487466573715,-0.9996883869171144,0.0106818610802292,0.0382809755547935,0.0716884796404094,3.0798584117074013,-0.0778755918145179,-0.0156319662928581,-0.0472733452916145,0.3176125681400299,0.2260045146010816,-9.62338903605938,14979.0
36.7,4.0,351.0,23.73387336730957,24.3801383972168,-79.78279016915722,40.45901694896853,314.66395706176763,-0.0031886093784123,-0.0223165601491928,-0.9996877908706664,0.0107836574316024,0.0517961241513969,0.0585118705790302,3.0512154243384533,0.0444952361285686,-0.0471511669456958,-0.0176870618015527,0.3712627817317843,-0.0275721982307732,-9.681006914377212,14979.0
36.9,4.0,352.0,23.796476364135746,23.577009201049805,-79.78279023525765,40.459017087926114,315.27356857299804,-0.0028498736210167,-0.0232939254492521,-0.9996652007102966,0.0108961788937449,0.0320450999973296,0.0568158253374104,3.0451807527325987,-0.1589502990245819,-0.0111488215625286,-0.1361202746629715,0.3676917774975301,0.2147178717702627,-9.728961099386217,14980.0
37.0,4.0,353.0,23.802736282348643,24.09387588500977,-79.78279028759377,40.459017223055454,315.8864988708496,-0.0045232404954731,-0.0233267825096845,-0.999657154083252,0.0110045280307531,0.0615826045626964,0.0576262644353958,2.981263248180324,0.0071279620751738,-0.0406986586749553,-0.1284340769052505,0.3709924941882491,-0.1300849069654941,-9.64263514637947,14980.0
37.2,4.0,352.0,23.72636032104492,25.18326759338379,-79.78279017491253,40.4590173294548,316.2007498168945,-0.0036136659327894,-0.0221011620014906,-0.9996915459632874,0.0107422042638063,0.0555861164484042,0.0531213261059917,2.979325080145016,0.0456330925226211,0.0710129141807556,0.0352467745542526,0.3711729538813234,0.1760278690606355,-9.578008210659029,14981.0
37.3,4.099999904632568,352.0,23.70758056640625,24.82543754577637,-79.78279024774575,40.45901747823524,316.79149002075195,-0.0027755163609981,-0.0205765571445226,-0.9997231960296632,0.0110704451799392,0.0605579157263239,0.038511317110682,2.928481735168413,0.0655274018645286,-0.0142714483663439,0.1080998852849006,0.3302666006237269,0.3206258941814303,-9.515467561483383,14981.0
37.5,4.099999904632568,352.0,23.62744903564453,27.10759735107422,-79.78279040209296,40.45901753394861,317.10557693481445,-0.0018961658934131,-0.0207049548625946,-0.9997267723083496,0.010685920715332,0.0451231048672491,0.0529291952874177,2.9601101419715685,0.0302815213799476,0.0283695068210363,0.0377484075725078,0.4384722864255309,0.1067468785867095,-9.759535605311395,14982.0
37.6,4.099999904632568,353.0,23.59364318847656,27.48133087158203,-79.78279043685677,40.4590175895632,317.4022230529785,-0.0018867267062887,-0.0203274581581354,-0.9997364282608032,0.0105021502822637,0.0438324067914126,0.0660423854873964,2.976882391066769,-0.0138077670708298,0.016338299959898,0.1226398721337318,0.3627696279063821,-0.1217918375506997,-9.880988706350328,14982.0
37.8,4.099999904632568,353.0,23.71384048461914,25.5570011138916,-79.78279048494213,40.459017627181005,318.02447265625,-0.0036003268323838,-0.0230597592890262,-0.999664545059204,0.011237402446568,0.0453377225204754,0.0766399242359297,3.045796568693905,-0.019525634124875,0.121832326054573,-0.066160537302494,0.3031700916588306,0.2721875414438546,-9.854999002218246,14983.0
37.9,4.099999904632568,353.0,23.66501045227051,26.209047317504893,-79.78279052428628,40.4590176705444,318.3275427246094,-0.0030392426997423,-0.0248419176787138,-0.9996126890182496,0.0121718002483248,0.0552735187900023,0.0881500120733053,3.01829631538042,-0.066122367978096,-0.066253513097763,-0.0094279013574123,0.3014279685728252,0.0687903908081352,-9.649578714966774,14983.0
38.11,4.099999904632568,354.0,23.68754768371582,25.24688148498535,-79.78279048076723,40.45901771947837,318.93296188354486,-0.0023069535382092,-0.0205777436494827,-0.9996892213821412,0.0138835757970809,0.0216736219843845,0.0991277689492589,3.0118864471343696,-0.213813230395317,-0.0963131338357925,-0.0940560027956962,0.3798459461331368,0.1836630170792341,-9.793600314259528,14983.0
38.2,4.099999904632568,354.0,23.64873313903809,25.652421951293945,-79.78279045880849,40.45901773378432,319.24271530151367,-0.0063405698165297,-0.0165752489119768,-0.9997317790985109,0.014884122647345,0.0398024001636841,0.1019743579801957,3.027643249978704,-0.0468370169401168,-0.0466359592974185,-0.0561419464647769,0.3951470496878028,0.1890190848894416,-9.935942008495331,14984.0
38.4,4.099999904632568,350.0,23.778947830200195,23.250986099243164,-79.78279052504803,40.459017768484266,319.85807556152344,-0.0032031110022217,-0.0203073527663946,-0.9996584057807922,0.0161368027329444,0.0712401905325356,0.090396676719866,3.1069975143510224,0.1040208041667938,0.0804103463888168,0.0546464771032333,0.4353273614868522,0.0704388853535056,-10.071916669607162,14984.0
38.5,4.099999904632568,349.0,23.78520774841309,23.50544357299805,-79.78279042898765,40.45901772520676,320.1629194641113,-0.0020407836418598,-0.0246579125523567,-0.9995736479759216,0.0155039578676223,0.0353827465384568,0.128425439066143,3.0774067781847965,-0.0681802704930305,-0.0221914369612932,0.0663680508732795,0.5038209878280759,-0.0113759225048124,-9.876413844823835,14985.0
38.7,4.099999904632568,348.0,23.827777862548828,22.20135307312012,-79.78279047672585,40.45901769975427,320.77356475830084,-0.0051059140823781,-0.0305348969995975,-0.999444842338562,0.0123161887750029,0.0542964435653328,0.1740280173591266,3.0332049615657226,0.125328242778778,0.0573405884206295,0.1965201050043106,0.5556890797242523,-0.1505106747709214,-9.66317933857441,14985.0
38.8,4.0,347.0,23.77393913269043,23.282794952392567,-79.78279049005164,40.45901769619335,321.3772177124024,-0.0053846039809286,-0.0306430757045745,-0.9994797706604004,0.0085052549839019,0.0329623085696019,0.1874586833572002,2.9898944336508326,0.1149593964219093,-0.0806142836809158,0.0459513701498508,0.5341577678918839,-0.0892590899672359,-9.585239462256432,14986.0
39.0,4.0,347.0,23.756410598754893,23.147613525390625,-79.7827904525212,40.45901766504681,321.68274444580084,-0.0031761399004608,-0.0289807710796594,-0.9995462894439696,0.0075683346949517,0.0194784404678385,0.1873322523861161,2.9930021988644966,0.0836101323366165,-0.0593153573572635,-0.039550993591547,0.6027083314955235,-0.0511374411871656,-9.758334002494813,14986.0
39.11,3.900000095367432,344.0,23.670019149780277,25.30254554748535,-79.7827904277902,40.45901766887505,321.98229736328125,-0.0002277640160173,-0.0284798461943864,-0.999562919139862,0.0079321516677737,-0.0010285050926946,0.1675486635431247,2.984438146474288,0.0983831509947776,-0.0173480063676834,-0.0359502211213111,0.6169947604089976,-0.0999988628178834,-9.755322686433791,14986.0
39.3,3.900000095367432,343.0,23.71759605407715,24.47555923461914,-79.78279029770599,40.45901767284498,322.58821624755865,0.0037712692283093,-0.0287230741232633,-0.9995124340057372,0.0116479136049747,-0.0315064617508711,0.1595278768137399,2.983431679320494,0.1110267639160156,-0.0237740892916917,0.0492822527885437,0.4420869255065918,-0.158787152711302,-9.785258676409722,14987.0
39.4,3.799999952316284,340.0,23.75265312194824,23.49749183654785,-79.78279026161684,40.459017684558354,322.8870558166504,0.0065001617185771,-0.0287824179977178,-0.999466359615326,0.0140182161703705,-0.0404065357282631,0.1563766091899551,2.982773091417097,0.1530761122703552,-0.0051535693928599,0.0525175742805004,0.4214143869280815,-0.1596855956688523,-9.773566583991052,14987.0
39.6,3.799999952316284,340.0,23.85407066345215,21.565210342407227,-79.78279020836085,40.45901762276126,323.49828094482416,0.0078169321641325,-0.0295870993286371,-0.99937242269516,0.017840277403593,-0.0565143171447606,0.1670783152880507,2.976186922619525,-0.095455028116703,-0.0522840358316898,-0.029805589467287,0.4343436770886183,-0.0208905483596026,-9.742070556879042,14988.0
39.7,3.700000047683716,337.0,23.68253898620605,25.533145904541016,-79.78279006205702,40.45901756847463,323.81245941162115,0.0052411179058253,-0.0289302319288253,-0.999395489692688,0.0185529123991727,-0.0522385837227058,0.1905352191565147,2.996083312540182,-0.0081988852471113,0.0171964894980192,-0.0052148215472698,0.5630837609991431,0.0383078323490917,-9.737062416672709,14988.0
39.91,3.700000047683716,336.0,23.835289001464844,21.40617561340332,-79.78279004707142,40.45901755699423,324.4136671447754,0.0030275571625679,-0.0276818126440048,-0.9994465708732604,0.0181988570839166,-0.0134167874859354,0.1773775307450514,3.0052025423137647,6.775388465030119e-05,0.0316853821277618,-0.1310743987560272,0.6181597450375558,0.0540096391970291,-9.829098175764084,14989.0
40.0,3.5999999046325684,334.0,23.849061965942383,21.660633087158203,-79.78278991668152,40.45901759590136,324.72327560424804,0.0048693660646677,-0.0289104729890823,-0.9994189739227296,0.0173857379704713,-0.0163714837861556,0.1731091819023654,2.9944087260452155,0.0996659770607948,0.0382365174591541,-0.0142782684415578,0.6454637570679188,0.0838314394466579,-9.666078388094904,14989.0
40.21,3.700000047683716,335.0,23.7251091003418,23.56110572814941,-79.7827898466395,40.45901757838982,325.3302931213379,0.0072022266685962,-0.0305873062461614,-0.9993965029716492,0.0148115456104278,-0.0328732888935264,0.18227188925924,2.963205922970231,-0.0068530500866472,0.0334454737603664,-0.0312470272183418,0.5198076408728958,0.0129766160622239,-9.595924664139748,14990.0
40.4,3.5999999046325684,333.0,23.821516036987305,22.2331600189209,-79.78278987000091,40.45901758527764,325.92200225830084,0.0069064237177371,-0.031999684870243,-0.9993847608566284,0.0125899957492947,-0.0248434589785683,0.180263021467078,2.9526445763294875,0.0272849835455417,-0.0190151259303092,-0.0689468309283256,0.5993708869814873,0.0245719187892973,-9.785077412724496,14990.0
40.5,3.5999999046325684,334.0,23.829029083251957,22.47171401977539,-79.78278972812777,40.45901752114346,326.2347654724121,0.0052854148671031,-0.0312555432319641,-0.999424934387207,0.0120462626218795,-0.0336873193900464,0.1918354881017768,2.970250247163036,0.0148920165374875,-0.0779737308621406,0.0501219816505909,0.5358552145957947,-0.1998233689740299,-9.81592673778534,14991.0
40.6,3.5999999046325684,334.0,23.77143478393555,23.38616752624512,-79.78278973132797,40.45901752737532,326.53302139282226,0.0033940242137759,-0.0310996808111667,-0.9994416832923888,0.0117323147132992,-0.0269354717447962,0.1751358165672107,2.9793419855789254,-0.059602353721857,-0.0850012898445129,0.1218474432826042,0.4436550391092897,-0.1874818336218595,-9.84730172753334,14991.0
40.8,3.5999999046325684,333.0,23.78771209716797,22.81363868713379,-79.78278970152121,40.45901750426208,327.1396726989746,0.0010276774410158,-0.0327462032437324,-0.9994001984596252,0.0112262330949306,-0.0172235652373942,0.1746021323109543,2.9865217060016374,-0.0407001487910747,-0.0122902877628803,0.0233264472335577,0.4957129096984864,-0.124328533289954,-9.782002362012864,14992.0
40.91,3.5,333.0,23.8077449798584,22.14569091796875,-79.78278968675625,40.45901752798296,327.4382147216797,0.0008499732357449,-0.0318307653069496,-0.999428689479828,0.0113310702145099,-0.0188526482664767,0.1672489735058494,2.974215418104732,0.0073317345231771,0.040260374546051,-0.0797933936119079,0.5545408692955971,0.0062033339263871,-9.695152498483658,14992.0
41.1,3.5999999046325684,333.0,23.74138641357422,23.219179153442383,-79.78278957296821,40.459017553566426,328.0404638671875,0.0080548869445919,-0.0293107684701681,-0.9994581341743468,0.01262894179672,-0.0456480995431977,0.1433981623104727,2.9478098160035606,0.0183713939040899,-0.0269421730190515,0.0770158171653747,0.4819741090759635,-0.167545185405761,-9.716904725432396,14993.0
41.2,3.5,334.0,23.772686004638672,22.66255569458008,-79.78278948823083,40.459017604455305,328.6466841125488,0.0085071362555027,-0.0270683690905571,-0.9994942545890808,0.0143597451969981,-0.0575201637320592,0.127351210038121,2.9876778295989785,0.0086331572383642,0.0088815987110137,-0.1058490201830864,0.4805446841195226,-0.0840015294682234,-9.839727244377135,14993.0
41.4,3.5,334.0,23.74388885498047,23.10785484313965,-79.78278948722804,40.45901764326473,328.9465116882324,0.0087273623794317,-0.0269793402403593,-0.999481737613678,0.0152422562241554,-0.0460478684973753,0.1205889614228956,3.002862045916949,0.0216630101203918,-0.0107432045042514,-0.0969604179263114,0.5617483300343156,0.0434165263921022,-9.912574195861817,14993.0
41.5,3.5,333.0,23.92293357849121,20.213409423828125,-79.78278939811128,40.4590176973313,329.24958557128906,0.0083873020485043,-0.027676185593009,-0.9994491338729858,0.0162884779274463,-0.0379878130346466,0.1181867692975096,3.007968985319001,0.1108467504382133,0.0310847368091344,0.0035069847945123,0.5298613800108433,-0.208027761708945,-9.981005330085756,14994.0
41.7,3.5,334.0,23.72636032104492,23.577009201049805,-79.78278933291176,40.459017763144494,329.8518232727052,0.0058262925595045,-0.0298112444579601,-0.9993951320648192,0.0169328767806291,-0.0333217712557237,0.1297047929754546,2.979569616690388,0.0414475910365581,0.0302234124392271,0.1108367666602134,0.4900392467156053,-0.2325094689242542,-9.739209514260294,14994.0
41.8,3.5,331.0,23.66751480102539,24.348331451416016,-79.78278933429681,40.45901780255512,330.15015167236334,0.0045706839300692,-0.0307129304856061,-0.9993756413459778,0.016860444098711,-0.033645797611384,0.1372495528819858,2.983520153058816,-0.0566264800727367,0.016533400863409,-0.0653558224439621,0.6041462714597583,-0.026115117771551,-9.822585546970368,14995.0
42.01,3.5999999046325684,331.0,23.795223236083984,21.39027214050293,-79.78278929042149,40.459017889555646,330.7552503967285,0.0052783726714551,-0.0291527919471263,-0.9994132518768308,0.0171913132071495,-0.0258549164008593,0.1312073885869355,2.994037497260801,-0.0339374504983425,0.0118464352563023,-0.0160208921879529,0.5698955479636789,-0.1444093884620815,-9.793352977037433,14995.0
42.2,3.5999999046325684,330.0,23.66501045227051,24.69820976257324,-79.78278930088295,40.45901795324002,331.35966247558594,0.0077368924394249,-0.0290871020406484,-0.9993953704833984,0.0174073372036218,-0.0329087228681078,0.1345206003429322,2.9510691169523464,0.0384885817766189,-0.037718504667282,0.0067683206871151,0.5530394504964352,-0.1814102676138282,-9.598207417130473,14996.0
42.31,3.5999999046325684,330.0,23.67252349853516,25.47748374938965,-79.78278931185041,40.45901798903604,331.65534729003906,0.0087642734870314,-0.0292649548500776,-0.9993835687637328,0.0173012129962444,-0.0307477089408528,0.1318394706461412,2.9610659333689213,0.0127962715923786,-0.0141908572986722,-0.0618769787251949,0.5150965757668019,0.0083808918530121,-9.776497793197631,14996.0
42.4,3.5999999046325684,333.0,23.808996200561523,22.46376037597656,-79.78278932786267,40.459018026732224,331.95212692260736,0.0093829976394772,-0.0297551304101944,-0.999368131160736,0.0170287452638149,-0.0263220389830525,0.133436189466418,2.972424287331326,0.0158102829009294,0.0567240826785564,-0.0315235517919063,0.5841394749283791,-0.0702030461328104,-9.89600435614586,14996.0
42.6,3.700000047683716,330.0,23.686294555664062,24.04616355895996,-79.78278931157209,40.45901813928079,332.55994171142584,0.0103580262511968,-0.0304845031350851,-0.9993511438369752,0.0161468144506216,-0.039956892236407,0.1263807074909314,2.9958115068645577,-0.0461255386471748,0.0460743233561515,0.0813635513186454,0.4656734240055084,-0.1901641524396836,-9.829291133880618,14997.0
42.71,3.5999999046325684,329.0,23.86909484863281,21.41412734985352,-79.78278930521526,40.45901821393456,333.16540283203125,0.0069546997547149,-0.0303936507552862,-0.9993865489959716,0.0159524902701377,-0.0219880928165868,0.1260624822841894,3.0074732089433973,-0.0010209224419668,-0.0019132558954879,0.0528444647789001,0.4246433655917645,-0.0528177071269601,-9.894763576984406,14998.0
42.9,3.700000047683716,329.0,23.75015068054199,23.74399757385254,-79.78278934016741,40.45901826842087,333.46610778808594,0.0069662197493016,-0.0305609479546546,-0.9993793368339542,0.0160763915628194,-0.0098801307988328,0.1220895346431891,3.006598329198639,-0.0018873759545385,-0.0303759258240461,-0.0144298821687698,0.615455261617899,-0.0656773149222135,-9.82057644367218,14998.0
43.0,3.5999999046325684,329.0,23.77143478393555,22.59894180297852,-79.78278931559099,40.4590182635878,333.77201599121094,0.0073452512733638,-0.0307950023561716,-0.999359667301178,0.0166774969547987,-0.0050876658714251,0.13483428344804,3.0180177753908377,0.0619184598326683,-0.0222467444837093,-0.0152128878980875,0.6508256538212299,-0.2239564359560609,-9.966991893053056,14998.0
43.2,3.5999999046325684,328.0,23.75140190124512,22.28087043762207,-79.78278937617429,40.45901834194744,334.3796896362305,0.0072011798620224,-0.030837845057249,-0.99932461977005,0.0186452139168977,-0.0007098095778056,0.1287154071041212,3.027128250800384,0.0991328209638595,-0.0062596378847956,0.0908025652170181,0.5247387805581093,-0.2938199918344617,-9.833343254327772,14999.0
43.3,3.5999999046325684,328.0,23.83779335021973,21.38232040405273,-79.78278941888313,40.45901839244232,334.68256896972656,0.0074111516587436,-0.0300154294818639,-0.9993269443511964,0.0197478421032428,-0.0072195788116067,0.130344219237933,3.0280697298226604,-0.0367533564567565,-0.0229732077568769,-0.1574132293462753,0.5522444484382868,0.0046278701908886,-9.790843352079392,14999.0
43.51,3.5999999046325684,328.0,23.851566314697266,21.485692977905277,-79.78278944712633,40.459018473189495,335.28967803955084,0.0075212987139821,-0.0299242455512285,-0.9993136525154114,0.0205014944076538,-5.386750738769477e-05,0.118522048146392,2.983947807357753,0.0129038514569401,0.0563035272061824,-0.0985565483570098,0.5684294682741166,0.0089732467755675,-9.628024123907087,15000.0
43.7,3.5999999046325684,327.0,23.75390625,22.91701316833496,-79.78278955757149,40.45901854930543,335.89783233642584,0.0087402481585741,-0.0310197714716196,-0.9992996454238892,0.0190210901200771,0.0034165422832703,0.1335700268695701,2.9684240616621667,-0.0584009625017643,-0.0098059065639972,-0.024403665214777,0.5522713090851903,-0.0701346108689904,-9.621110376119614,15000.0
43.81,3.5999999046325684,325.0,23.65749740600586,24.58688545227051,-79.78278962402328,40.45901859653355,336.1941961669922,0.0076877074316143,-0.0306517034769058,-0.9993308186531068,0.0184199754148721,0.002541683893336,0.1226317486877536,2.958101455861612,-0.0616307780146598,0.0185276828706264,0.0302972737699747,0.5173629565536976,-0.1725980568118393,-9.728981564641,15001.0
43.9,3.5,323.0,23.768930435180664,22.614845275878903,-79.78278969096486,40.4590186510569,336.49083465576166,0.0055074514821171,-0.0303119271993637,-0.9993619322776794,0.0180729925632476,0.0011923638357643,0.1136842749983258,2.97729464039289,-0.1432746797800064,0.0039027885068207,-0.126561239361763,0.4678953659534454,0.0203202164266258,-9.922293437719343,15001.0
44.1,3.5,323.0,23.772686004638672,23.06014442443848,-79.78278980262013,40.45901868394309,337.1071447753906,0.0032845982350409,-0.0287552084773778,-0.999400794506073,0.018984630703926,0.024967718795728,0.1163185291030522,3.0192996534143584,-0.0106304977089166,0.0363035798072814,0.0079247625544667,0.4719821311533451,-0.1265366520546376,-9.934390157461166,15002.0
44.21,3.5,324.0,23.691303253173828,24.91290855407715,-79.78278983978021,40.45901880049756,337.71870941162115,0.0055777602829039,-0.0297908596694469,-0.9993332028388976,0.0203623119741678,0.0197829043191465,0.1028006538684643,3.0339736874980865,0.0825815349817276,-0.0066173863597214,-0.0325951501727104,0.5014789586886764,0.0998602472618222,-9.849212597608568,15002.0
44.4,3.5,323.0,23.755157470703125,23.61676788330078,-79.78278988592815,40.45901886922648,338.0229162597656,0.0071002310141921,-0.0297354944050312,-0.9993109703063964,0.0210488252341747,0.0074073662445283,0.1007231816203279,3.0450463343949234,0.048616137355566,-0.066926397383213,0.0513806976377964,0.4400854235887528,-0.2135025828145444,-9.861350247859956,15003.0
44.5,3.5,323.0,23.76016616821289,22.821590423583984,-79.782789947028,40.45901891999621,338.3310446166992,0.0080594522878527,-0.0286448784172534,-0.9993264079093932,0.0214767307043075,0.0155590184909507,0.105632278308492,3.0441146994523662,0.0914215743541717,-0.0365627966821193,0.179390862584114,0.5045222151651979,-0.3339958451315761,-9.89669783592224,15003.0
44.71,3.5,323.0,23.74764633178711,23.07604789733887,-79.78279000796125,40.45901902380618,338.94572204589844,0.0084898071363568,-0.0260967090725898,-0.9993939399719238,0.0214190259575843,0.0004769923731471,0.0985307289149577,3.038705582067668,-0.0176280532032251,-0.019569432362914,0.0143870320171117,0.4796086910739542,-0.1027690908685326,-9.8137199985981,15003.0
44.81,3.5,325.0,23.662506103515625,24.39604187011719,-79.78279007568356,40.45901908156623,339.2501501464844,0.0070808394812047,-0.0255743898451328,-0.9994264841079712,0.021036222577095,0.0053584759167011,0.0968524052716228,3.0488171196415754,-0.0571292974054813,-0.0241976603865623,-0.0485817641019821,0.5742952853813768,-0.0162763802963309,-9.840212563276287,15004.0
45.01,3.5,324.0,23.79772758483887,21.98665428161621,-79.78279010941506,40.4590191896666,339.8686727905273,0.003887727856636,-0.0260813143104314,-0.9994511008262634,0.0200558807700872,0.0257873087057158,0.099497089754762,3.061940169698933,0.083035297691822,0.058882899582386,-0.0281000304967165,0.5232588137313724,-0.1613151781260967,-9.835355865955352,15004.0
45.1,3.400000095367432,324.0,23.738882064819336,23.40207099914551,-79.78279016424868,40.459019238583934,340.1739324951172,0.0032339093741029,-0.026927487924695,-0.9994364976882936,0.0197805147618055,0.0253421733452258,0.10109046294059,3.0394554164950187,0.0354572124779224,0.0197396632283926,-0.06179865822196,0.4847801147773862,-0.0064573086518794,-9.623244025111196,15005.0
45.3,3.400000095367432,324.0,23.76642608642578,22.7977352142334,-79.78279019654522,40.45901932894356,340.7880224609375,0.0047018290497362,-0.02779839374125,-0.999409794807434,0.0196277480572462,0.0110661491330883,0.109971270612112,3.0100628697861738,-0.0049777561798691,0.0494188666343688,0.1238981932401657,0.4366506594792008,-0.2295533542335033,-9.694225714802744,15005.0
45.4,3.400000095367432,323.0,23.7639217376709,22.59099006652832,-79.78279023114808,40.45901937797629,341.08873504638666,0.0042826537974178,-0.0282048545777797,-0.9993921518325806,0.020036868751049,-0.0130367423917861,0.1100382996916573,2.9979314673383493,-0.0933903902769088,-0.0155052710324525,0.0801472440361976,0.4063663581758738,-0.1393257186748087,-9.607869356274604,15006.0
45.5,3.299999952316284,324.0,23.74764633178711,23.52134704589844,-79.78279025271824,40.45901941337403,341.7062429809571,0.0027757140342146,-0.0267827231436967,-0.9994184374809264,0.0209268257021904,0.0018569041855326,0.1157604634955256,2.982110799994344,0.0280685797333717,-0.0420293882489204,-0.1077665761113166,0.5439349337294698,-0.1098005869612097,-9.574128583073618,15006.0
45.7,3.299999952316284,324.0,23.718849182128903,23.38616752624512,-79.78279011480285,40.45901944086196,342.02554840087885,0.0037741486448794,-0.0250333528965711,-0.9994497895240784,0.0214301813393831,-0.0162519913784612,0.1163994416453398,3.0034195978108595,0.0374199487268924,-0.0695006623864173,0.0110024400055408,0.5037424524128438,-0.2190900541841984,-9.747316678762436,15007.0
45.9,3.299999952316284,325.0,23.62494468688965,25.366159439086918,-79.78279010695131,40.45901953121835,342.6250509643555,0.0060653993859887,-0.0239458102732896,-0.9994601607322692,0.0216625444591045,-0.019982954585794,0.0914744622175571,2.978349910061786,0.0928739234805107,0.0168734919279813,0.0272646471858024,0.4287324696779251,-0.1720975351519882,-9.642629883885382,15007.0
46.01,3.299999952316284,325.0,23.755157470703125,22.86134910583496,-79.78279003263464,40.45901956706162,343.2415975952148,0.0060682543553411,-0.0221888441592454,-0.9994956851005554,0.0218919087201356,-0.037811973771139,0.1007941318141238,2.9863966899733265,-0.0059009748511016,-0.0294634606689214,-0.0299035757780075,0.4154462800920009,-0.1161073480825871,-9.73346170127392,15008.0
46.21,3.299999952316284,326.0,23.74764633178711,21.326658248901367,-79.7827899215809,40.45901961392688,343.55505889892584,0.005786414258182,-0.0226399861276149,-0.9994804859161376,0.022199222818017,-0.0509657663926555,0.0963174622028294,3.0007226930880204,-0.1103379428386688,-0.0370574928820133,-0.0256271045655012,0.4288666998222471,-0.0019852302130311,-9.752776808738709,15008.0
46.3,3.2000000476837163,326.0,23.61117172241211,25.11170196533203,-79.78278991447986,40.45901965347921,343.85571044921875,0.0062623028643429,-0.0236694235354662,-0.999445140361786,0.0225837044417858,-0.0293208120810472,0.0940306172847533,3.0032076245822354,0.0643041878938674,0.0215067639946937,0.0377312451601028,0.4600497912615538,-0.1215439612884074,-9.801254904270172,15008.0
46.4,3.2000000476837163,326.0,23.64873313903809,24.849292755126957,-79.7827897213303,40.45901964473364,344.467946472168,0.0062317103147506,-0.0235374234616756,-0.9994277358055116,0.0234820544719696,-0.055468219223156,0.1328216549136608,3.0306010365665528,-0.1153596267104148,-0.1072414815425872,0.0576989986002445,0.4337999225780368,-0.0780142273195088,-9.800915181040764,15009.0
46.61,3.2000000476837163,327.0,23.65749740600586,23.68833541870117,-79.7827897143136,40.459019659652576,344.7719320678711,0.0063136466778814,-0.0221895780414342,-0.9994543194770812,0.0236428286880254,-0.0260251570118916,0.1280383291966906,3.042932308827135,0.1182978302240371,-0.0398077815771102,0.1328328996896743,0.3963390776887537,-0.2902853865176439,-9.925350362062456,15009.0
46.7,3.2000000476837163,328.0,23.70132064819336,24.08592414855957,-79.78278971461998,40.45901956909758,345.08672088623047,0.0069669228978455,-0.0218054261058568,-0.9994616508483888,0.0235057584941387,-0.0193797526867273,0.1431619032348386,3.067004459099015,0.094232365489006,0.0077988351695239,0.1159137785434722,0.3187159377336502,-0.2493859768286347,-10.00907313466072,15010.0
46.9,3.2000000476837163,328.0,23.65624618530273,24.92881202697754,-79.78278974342047,40.45901955645024,345.70290130615234,0.0076826545409858,-0.0244456715881824,-0.999408483505249,0.0229383166879415,-0.0208478006319078,0.1452614312364664,3.0793374511664773,0.04123155772686,-0.0167718902230262,0.0245385486632585,0.3699269487708807,-0.1781351142190397,-9.810195297002794,15010.0
47.0,3.2000000476837163,330.0,23.74388885498047,23.012434005737305,-79.78278976951262,40.45901955138529,346.3177160644531,0.0071258847601711,-0.026380630210042,-0.9993736743927002,0.0224841423332691,-0.0120468087440197,0.1556154681066334,3.0626875932934867,-0.0054394816979765,-0.0207595601677894,-0.03169472143054,0.4240734447911382,-0.3414382908493281,-9.831306084394456,15011.0
47.2,3.2000000476837163,331.0,23.66876602172852,23.52134704589844,-79.78278975077448,40.45901956612013,346.6285681152344,0.0060216472484171,-0.0264505334198474,-0.99938303232193,0.0223107151687145,-0.0006558189591053,0.1520328282246194,3.0530541931759214,0.0461048074066638,-0.0079927779734134,-0.0071194567717611,0.5325557038933039,-0.1324953119829297,-9.799822336435318,15011.0
47.3,3.2000000476837163,331.0,23.712589263916016,23.71219062805176,-79.78278979088182,40.459019575458825,346.9342321777344,0.0048066754825413,-0.0260695498436689,-0.9993961453437804,0.0224654991179704,0.0112145233607432,0.1456669644565066,3.0514449025940915,0.0937791019678115,0.0216376334428787,-0.0845508649945259,0.518470748104155,-0.1746296718902886,-9.831775031089784,15011.0
