time,wind_speed,wind_angle,battery_voltage,battery_current,position_x,position_y,position_z,orientation_x,orientation_y,orientation_z,orientation_w,velocity_x,velocity_y,velocity_z,angular_x,angular_y,angular_z,linear_acceleration_x,linear_acceleration_y,linear_acceleration_z,node_ids
0.0,3.400000095367432,91.0,24.332353591918945,-0.0477106422185897,-79.78281344082164,40.45901315907258,267.8332620854377,0.032669324427843,-0.0154822375625371,0.983193337917328,0.1789523512125015,-0.0035517022212302,-0.0274020569043842,0.0038010734445534,-0.0055979937314987,0.0004199532850179,-0.0087291439995169,-0.2211611562408507,0.6832935612648726,-9.7844312953949,14932.0
0.1,3.299999952316284,99.0,24.32734489440918,-0.0477106422185897,-79.78281340896888,40.45901319537074,267.83810576748846,0.032669898122549,-0.0155098158866167,0.9832120537757874,0.1788468062877655,-0.001346886902952,-0.0215371978532632,0.0032679210584543,-0.0056613092310726,-0.005419828929007,-0.0111547634005546,-0.2229601434990764,0.6822830162197352,-9.78527621805668,14932.0
0.3,3.5,96.0,24.32108497619629,-0.0159035474061965,-79.78281339838023,40.45901321346495,267.83848538947103,0.0326716676354408,-0.0155282644554972,0.9832202196121216,0.1787999272346496,-0.0014707859709543,-0.0250013129085098,0.0036676715551535,0.0050521483644843,-0.0021446084138005,0.0039328034035861,-0.2207430985942483,0.6627415484189988,-9.787159021496771,14932.0
0.41,3.700000047683716,94.0,24.33110237121582,-0.1033730581402778,-79.7828133513219,40.45901328123333,267.84382483315466,0.0326613448560237,-0.0155337722972035,0.9832369089126588,0.1787098348140716,-0.0004305502859871,-0.0274139639596787,0.0037883614850091,0.0026505589485168,6.348783790599555e-05,0.0047208024188876,-0.2227171916887164,0.6689058293402196,-9.787060788273813,14932.0
0.6,3.799999952316284,94.0,24.3148250579834,-0.1113248318433761,-79.78281330670488,40.45901332623842,267.84845775318144,0.032662458717823,-0.0155406249687075,0.9832484126091005,0.1786457151174545,0.0005327329514286,-0.0264212041070347,0.0036335885145916,0.0006982836639508,0.0002955881645902,0.0002673924027476,-0.2189765999279916,0.6626285509765149,-9.789202038645746,14932.0
0.71,3.2000000476837163,95.0,24.3148250579834,-0.1272283792495727,-79.78281328101009,40.459013374610656,267.84938040328024,0.0326673313975334,-0.0155404238030314,0.9832619428634644,0.1785703003406524,-0.0017844136799801,-0.0331066069364396,0.0046818621230737,0.0038813860155642,0.0054257158190011,0.0043522589839994,-0.2172204617969692,0.6615811684727669,-9.7884793227911,14932.0
0.9,3.0,92.0,24.302305221557607,-0.1431319266557693,-79.78281320950819,40.45901338534979,267.85378429245947,0.0326789394021034,-0.0155831901356577,0.9832695126533508,0.178522989153862,-0.0083243127001045,-0.0251032076068808,0.0046218800936744,-0.0075421319343149,-0.0044663506560027,-0.0099204834550619,-0.22149598242715,0.6825220942497254,-9.785746334195135,14932.0
1.0,2.700000047683716,89.0,24.31357192993164,-0.0238553211092948,-79.78281317154385,40.45901342492655,267.858521282196,0.032676450908184,-0.0156189817935228,0.9832842946052552,0.1784389168024063,-0.0040611315378947,-0.0195138339596668,0.003936177052564,-0.006626546382904,-7.234315125970171e-05,-0.0077478163875639,-0.2228017204999924,0.6741270274668932,-9.786898235678674,14932.0
1.2,2.5,84.0,24.33110237121582,-0.0079517737030982,-79.78281315781436,40.45901344127571,267.85894036245344,0.0326745696365833,-0.0156111391261219,0.983291745185852,0.178398847579956,-0.0045202262784538,-0.022875418622005,0.0042489633106419,0.0062570483423769,-0.000487456418341,0.0017404672689735,-0.2226416895166039,0.6652282961457968,-9.786854966282846,14932.0
1.3,2.400000095367432,77.0,24.33360481262207,0.0,-79.78281313774103,40.459013474343344,267.8633046443462,0.0326668173074722,-0.0156529825180768,0.9833070635795592,0.1783118247985839,-0.0009960501230158,-0.0170830470120428,0.0034543525406463,0.0039265602827072,-0.0005696137668564,0.0012943512992933,-0.2200924496725201,0.6647410038113595,-9.787903372049332,14932.0
1.5,2.200000047683716,76.0,24.332353591918945,0.0,-79.78281312875916,40.4590134885398,267.8636976177692,0.0326408073306083,-0.0156709011644125,0.9833159446716307,0.1782662123441696,-0.0023826896994363,-0.0200495137377126,0.003928659667384,0.001188039779663,0.0025621729437261,0.0029468447901308,-0.217459411919117,0.6618882934749126,-9.78753090441227,14932.0
1.61,2.200000047683716,69.0,24.33110237121582,-0.0079517737030982,-79.78281306246727,40.459013552615744,267.8700470919609,0.0326526090502738,-0.0156722292304039,0.9833319783210754,0.1781755238771438,-0.0032165054527851,-0.0242241250909149,0.0068144950145159,0.0016270414926111,0.0034237573854625,0.0010063677327707,-0.2185111250169575,0.6626925048977137,-9.78729467689991,14932.0
1.8,2.200000047683716,65.0,24.33110237121582,0.0,-79.78281304824833,40.45901357181381,267.8707749838829,0.0326535739004612,-0.0156758036464452,0.9833388328552246,0.1781370937824249,-0.0052395593598918,-0.0270870477709445,0.007348797249608,-0.0046121161431074,-0.0023826484102755,-0.008571851067245,-0.2227976091764867,0.6837719365954399,-9.785769138336182,14932.0
1.91,2.0,65.0,24.328598022460927,-0.0238553211092948,-79.78281302991952,40.45901361888036,267.87541750025747,0.0326177440583705,-0.0157005824148654,0.9833555817604064,0.1780488342046737,-0.0002467956760251,-0.0223345615102398,0.005867477935909,-0.0046143615618348,-0.0015612333081662,-0.0120481997728347,-0.2216318571008741,0.6812560258805752,-9.785617695450783,14932.0
2.1,1.7999999523162842,67.0,24.32609367370605,0.0079517737030982,-79.78281295586851,40.459013665291785,267.87935343337057,0.0326301157474517,-0.0157021693885326,0.9833602905273438,0.1780209988355636,-0.0035782510236844,-0.0226596027749699,0.0042982025328004,0.0035498864017426,0.0026968626771122,0.0004939824575558,-0.2217073958180845,0.6627364321053029,-9.786956123113631,14932.0
2.21,1.7000000476837158,70.0,24.329849243164062,-0.0079517737030982,-79.78281292268126,40.45901370413129,267.88034728121755,0.0326201245188713,-0.0156975705176591,0.983372449874878,0.1779558360576629,-0.0064078023686679,-0.0289074990588028,0.0052514722550542,0.0050370111130177,-0.0012216395698487,0.0053308173082768,-0.221991625316441,0.6647557680308819,-9.78630591273308,14932.0
2.41,1.600000023841858,70.0,24.33110237121582,-0.0159035474061965,-79.7828129000233,40.459013729460594,267.88474166345594,0.032619796693325,-0.0157281104475259,0.983383059501648,0.177894115447998,-0.0031378092786735,-0.0207742334417224,0.0040588330675419,-0.0044315657578408,-0.0002239119639853,0.0030590291135013,-0.2192091181129217,0.664456098228693,-9.787835544347764,14932.0
2.5,1.5,69.0,24.33110237121582,0.0,-79.78281287030437,40.45901378361437,267.89152809929845,0.0326059199869632,-0.0157456211745739,0.9833967685699464,0.1778197884559631,0.002173274483349,-0.0171325219324747,0.0066918953829111,-0.0009724182309582,0.0003183875523973,0.0059544737450778,-0.21864500798285,0.6605611947923901,-9.788437222838402,14932.0
2.7,1.600000023841858,68.0,24.32358932495117,0.0,-79.78281286372932,40.45901379953332,267.8922676439285,0.0326079130172729,-0.0157463531941175,0.9834043979644777,0.1777765899896621,0.0004033213625315,-0.0200274951587535,0.0072046647413444,-0.0072051719762384,-0.0021395753137767,-0.004832187667489,-0.2225416107662022,0.6836313110589981,-9.784771603345874,14932.0
2.8,1.399999976158142,72.0,24.332353591918945,-0.0079517737030982,-79.78281279486899,40.45901383939053,267.8990257079601,0.0326180085539817,-0.0157694462686777,0.983421504497528,0.1776782125234604,-0.004044799708171,-0.0159021979886169,0.0096752375568943,-0.009499654173851,-0.0025312360376119,-0.0095650870352983,-0.2214483458921313,0.675094376206398,-9.784980348944664,14932.0
3.01,1.399999976158142,74.0,24.32609367370605,-0.0159035474061965,-79.78281278407724,40.4590138515572,267.9000071878433,0.0326026678085327,-0.0157604273408651,0.9834293127059937,0.1776387691497802,-0.0043117888833512,-0.018765848895245,0.0100048608776712,0.0037678938824683,0.0010560393566265,0.0034923027269542,-0.2226999606750905,0.6662586486339569,-9.786069100499152,14932.0
3.11,1.2000000476837158,76.0,24.32734489440918,-0.0079517737030982,-79.78281274815359,40.45901390017582,267.90690389227865,0.0325982235372066,-0.0157508291304111,0.983443558216095,0.1775616854429245,-0.0011852961921449,-0.0156972164228696,0.0111698914330388,-0.000192478968529,-0.0009163449285551,-0.0048159630969166,-0.2203242004103958,0.6805876891314984,-9.785656871795656,14932.0
3.3,1.2000000476837158,75.0,24.33110237121582,-0.0079517737030982,-79.78281273902907,40.45901391286932,267.9080520863533,0.0325890444219112,-0.0157606955617666,0.98345547914505,0.1774965971708297,-0.0019663390580084,-0.0185683748663342,0.0114677661023976,0.0028555958997458,0.00091387424618,0.0028648639563471,-0.217886441387236,0.6635226633399726,-9.786115878224372,14932.0
3.41,1.2000000476837158,75.0,24.329849243164062,-0.0159035474061965,-79.78281266262147,40.45901397340796,267.91546344709394,0.0325956605374813,-0.0157570634037256,0.9834712147712708,0.1774079799652099,-0.0041542510242138,-0.0202353945326931,0.0124721049013156,0.0091006020084023,0.0025356952100992,0.0028441257309168,-0.2220118713006377,0.6635209091752768,-9.787835544347764,14932.0
3.6,1.100000023841858,76.0,24.32609367370605,0.0,-79.78281263652755,40.45901403138702,267.9213111395836,0.0325658209621906,-0.0157601833343505,0.9834794402122498,0.1773679107427597,0.0015817128785844,-0.0185740703470371,0.0122451438519678,-0.0065010692924261,-0.003397136926651,-0.0003757167723961,-0.2194642942585051,0.6651928474009038,-9.78812381207943,14932.0
3.71,1.100000023841858,77.0,24.324840545654297,-0.0079517737030982,-79.7828126194963,40.45901406608213,267.9239388103485,0.0325491987168788,-0.0157437492161989,0.9834935665130616,0.177293911576271,-0.000364919302851,-0.0242372293851532,0.0131317404156868,0.0020847024861723,0.0029246972408145,0.0025729301851242,-0.218979249447584,0.6624116192758084,-9.787468923926356,14932.0
3.9,1.100000023841858,79.0,24.329849243164062,-0.0318070948123931,-79.78281254487432,40.45901408231885,267.9282999033928,0.0325787514448165,-0.0157580226659774,0.9834986925125122,0.1772591471672058,-0.0084097263546192,-0.0150224437126753,0.0102748231974157,-0.0054624676704406,0.0015350790927186,-0.0118186622858047,-0.2233587774261832,0.6848983296006919,-9.784720732569696,14932.0
4.01,1.0,81.0,24.329849243164062,-0.0079517737030982,-79.78281251308023,40.45901410985937,267.9332977528572,0.032536219805479,-0.0158155988901853,0.9835134148597716,0.1771799772977829,-0.0036543933234545,-0.0063919080031055,0.0062743015980347,-0.0051041217520833,-0.0008667795918881,-0.0033213980495929,-0.2218870515190065,0.6710594319552183,-9.785924674272538,14932.0
4.2,1.0,80.0,24.332353591918945,-0.0159035474061965,-79.78281250533024,40.459014115121306,267.93393337678907,0.032539777457714,-0.0158143397420644,0.9835204482078552,0.1771402955055236,-0.0039649688650985,-0.0093790709219195,0.0066676163044,0.0045618475414812,-0.0007652408094145,0.0018063959432765,-0.2222121201641857,0.6675145574659109,-9.786996468901632,14932.0
4.3,0.8999999761581421,79.0,24.329849243164062,-0.0238553211092948,-79.78281245886538,40.4590141916001,267.9394678468704,0.0325428135693073,-0.0158069133758544,0.9835338592529296,0.1770658642053604,-0.0005386722076717,-0.0141875361004789,0.0050221900324745,-0.0013341738376766,-0.0018921967130154,-0.0022246830631047,-0.2205200273171067,0.6805776757746935,-9.784121977686883,14932.0
4.5,0.8999999761581421,78.0,24.33110237121582,0.0159035474061965,-79.78281245194741,40.45901420358399,267.94000679206846,0.0325536243617534,-0.0158071145415306,0.9835429191589355,0.177013874053955,-0.0011493720270288,-0.0169634043158191,0.0053634229187826,0.0022879694588482,0.0043540438637137,0.0036069992929697,-0.219155323728919,0.6638262069225311,-9.785658041238785,14932.0
4.6,0.8999999761581421,75.0,24.33110237121582,0.0079517737030982,-79.78281240622672,40.45901428192322,267.9479074473381,0.0325586088001728,-0.0157903060317039,0.9835602045059204,0.1769179850816726,0.0026217765877013,-0.0192472279485398,0.0082888810300592,0.0066433884203433,-0.000542658905033,0.0043719056993722,-0.2215277218446136,0.6817099159955978,-9.784059997200966,14932.0
4.8,1.0,74.0,24.329849243164062,-0.0079517737030982,-79.7828123997736,40.45901429862371,267.9488151068687,0.0325594693422317,-0.0157866459339857,0.9835692048072816,0.1768681406974792,0.000477927646743,-0.0217998675136118,0.0088439402639116,-0.0009573917486704,-0.001283916644752,-0.0010787403443828,-0.2203767888061702,0.6644264966994524,-9.788059492707252,14932.0
4.92,1.0,71.0,24.32358932495117,-0.0238553211092948,-79.78281232957245,40.45901434791784,267.95639800977705,0.0325868539512157,-0.0158046055585146,0.983584463596344,0.1767767369747162,-0.0026900682285102,-0.0199406059666264,0.010621165561519,0.003749564057216,0.0021387462038546,-0.0005738229956477,-0.2186599732004106,0.6641143284738065,-9.786750885844231,14932.0
5.1,1.0,73.0,24.328598022460927,-0.0238553211092948,-79.78281227087527,40.459014408244734,267.96264183473585,0.0325810946524143,-0.0157999750226736,0.9835946559906006,0.1767214834690094,-0.0024321360937981,-0.0196885032306409,0.0111938598005512,-0.0034527671523392,-0.0040807579644024,-0.0119233634322881,-0.2230734333023429,0.6790371537208557,-9.785590798258784,14932.0
5.2,0.8999999761581421,74.0,24.328598022460927,0.0,-79.78281225855966,40.45901442492642,267.9637937541008,0.0325879380106926,-0.0157874505966901,0.9836060404777528,0.1766578406095504,-0.0027053647116761,-0.0227241827856482,0.0114446428629845,0.0038349204696714,0.0007348243962042,0.00393489561975,-0.2208417155407368,0.6662356252223254,-9.786840348243716,14932.0
5.4,0.8999999761581421,75.0,24.324840545654297,-0.1033730581402778,-79.78281222817667,40.45901443982551,267.9710603947639,0.0325588472187519,-0.0158517118543386,0.9836232662200928,0.1765618175268173,-0.0032385982192204,-0.0068307681173785,0.012221745492726,-0.0062622092664241,-0.0009492544922977,-0.0074824094772338,-0.2217918332666159,0.6830826960504055,-9.784992628097532,14932.0
5.5,0.8999999761581421,74.0,24.33360481262207,-0.0159035474061965,-79.78281216530844,40.45901451743634,267.980025290966,0.0325475633144378,-0.0158598832786083,0.9836398959159852,0.1764702945947647,-0.002276748902644,-0.0134332105101592,0.0161652777435811,-0.0047863824293017,-0.0032724370248615,-0.0015448904596269,-0.2228395629487932,0.6662271467596292,-9.785311301350594,14932.0
5.7,0.8999999761581421,75.0,24.329849243164062,0.0,-79.78281215533713,40.4590145284766,267.98166859102247,0.0325410589575767,-0.0158426668494939,0.983647644519806,0.1764297038316726,-0.0032371582827971,-0.0160750739936688,0.0166995428566242,-0.0011788968695327,-0.0018530866364017,-6.96959177730605e-05,-0.2204847612977028,0.6780791605263948,-9.78538439154625,14932.0
5.81,0.8999999761581421,75.0,24.329849243164062,0.0,-79.78281210135417,40.45901461840681,267.98746722888944,0.0325369201600551,-0.0158236678689718,0.9836697578430176,0.1763091087341308,-0.001375205884399,-0.0216094187777428,0.0134426947824714,-0.0043514547869563,-0.0040399152785539,-0.0079410020262002,-0.2179063584655523,0.6644984174519778,-9.786353275179865,14932.0
6.0,0.8999999761581421,78.0,24.33110237121582,-0.0079517737030982,-79.78281209069243,40.45901463625866,267.9888629312515,0.0325242914259433,-0.0158231183886528,0.9836756587028505,0.1762784272432327,-0.0014454631429127,-0.0243286695231389,0.0138175627629142,0.0048573375679552,-9.372163913212717e-05,0.0034515184815973,-0.2212087745033204,0.6678173701465129,-9.786421687602996,14932.0
6.1,0.8999999761581421,78.0,24.329849243164062,-0.0159035474061965,-79.78281206778746,40.45901466881314,267.9926320309639,0.0325242765247821,-0.0158411394804716,0.9836907982826232,0.176192358136177,-0.0012439796981512,-0.0122697298311517,0.0084664306479485,-0.0036508913617581,-0.0017009642906486,-0.0085581094026565,-0.2216881182789802,0.6830832076817751,-9.78497216284275,14932.0
6.3,0.8000000119209291,78.0,24.328598022460927,-0.055662415921688,-79.78281206047949,40.45901467898437,267.993514775753,0.0325245521962642,-0.0158413369208574,0.9836981296539308,0.1761512607336044,-0.001495345107446,-0.0150020650232301,0.0089024979584557,0.0066829426214098,0.0022862213663756,0.0041953600011765,-0.2214257792942226,0.6631979966908693,-9.787654280662537,14932.0
6.4,0.8000000119209291,77.0,24.32734489440918,-0.055662415921688,-79.78281199951108,40.45901474757802,267.99914097738264,0.0325208157300949,-0.01583200879395,0.9837101101875304,0.1760857552289962,-0.0040016117700124,-0.0172978262573352,0.0104816123264366,-0.0004289351345505,-0.0037230364978313,0.0019098744960501,-0.220558399669826,0.6737553638219834,-9.785618280172349,14932.0
6.6,0.699999988079071,78.0,24.328598022460927,-0.0238553211092948,-79.78281199419288,40.45901478953347,268.0034263129234,0.0325114056468009,-0.0158641096204519,0.9837164282798768,0.1760493367910385,0.0016603469193625,-0.0106156443525663,0.01053555029248,0.0011950948974117,0.0004959421348758,0.0048088352195918,-0.218729317523539,0.6623311469703913,-9.786122894883157,14933.0
6.71,0.8000000119209291,81.0,24.32734489440918,-0.0238553211092948,-79.78281198951412,40.45901479947711,268.0045287604332,0.032496839761734,-0.0158406049013137,0.9837250709533693,0.1760061234235763,-0.0002278644823057,-0.0132165938714476,0.0109825242194205,-0.0055397464893758,-0.0013972027227282,-0.0104453582316637,-0.2227242266200483,0.6796725267916918,-9.78399918615818,14933.0
6.9,0.8000000119209291,80.0,24.329849243164062,-0.0477106422185897,-79.78281193890284,40.459014852094384,268.0108844037056,0.0325163006782531,-0.015838474035263,0.9837401509284972,0.1759184449911117,-0.0028234433783375,-0.0140059128546146,0.0139565979382629,-0.003403449896723,0.0001778475852916,0.0014848667196929,-0.2206479717046022,0.6635287298262119,-9.78681988298893,14933.0
7.0,0.8999999761581421,78.0,24.319833755493164,-0.0079517737030982,-79.78281193156111,40.45901490872669,268.01542544317243,0.0324817821383476,-0.0158531218767166,0.983752191066742,0.1758556813001632,0.0042582475103981,-0.0111564563674356,0.012746418434015,0.0072475257329642,0.0033766038250178,0.0020662555471062,-0.2182177775166928,0.6638575626164676,-9.78574984252453,14933.0
7.2,0.8999999761581421,78.0,24.32233619689941,-0.055662415921688,-79.78281192913849,40.459014919763725,268.0167658920288,0.0324791260063648,-0.0158417280763387,0.9837602972984314,0.1758120357990265,0.0022723783482398,-0.0137787440132342,0.0132381502932308,-0.0073921317234635,0.000137639028253,-0.0030346158891916,-0.2218000924587249,0.6726004656404257,-9.786547987461091,14933.0
7.3,1.100000023841858,72.0,24.32734489440918,-0.0159035474061965,-79.78281191760254,40.45901498832464,268.02258688163755,0.0324944928288459,-0.0158235765993595,0.9837719202041626,0.1757461130619049,0.0054311142591608,-0.0163478537093046,0.0163684010596833,-0.0019565913826227,0.003710956312716,0.0040606865659356,-0.2199880768731236,0.6709559362381697,-9.787339115738869,14933.0
7.5,1.2999999523162842,71.0,24.33360481262207,-0.0079517737030982,-79.78281191517709,40.4590150034905,268.02431333017347,0.032500185072422,-0.0158276595175266,0.9837777018547058,0.1757120490074157,0.0036906684871425,-0.0188685322091791,0.0169534419679161,-0.0051525025628507,-0.0014865150442346,-0.0101432213559746,-0.2240419149398804,0.6832097268104553,-9.7845675355196,14933.0
7.6,1.5,61.0,24.328598022460927,-0.0079517737030982,-79.78281187836696,40.45901503578733,268.0271700019836,0.0325086079537868,-0.0158502720296382,0.9837925434112548,0.1756252646446228,-0.0018675866184711,-0.0132308523523703,0.0154284947290355,-0.0037586467806249,-0.0030693116132169,-0.0019172705942764,-0.2202853895165026,0.6662197646498681,-9.787777656912803,14933.0
7.8,1.600000023841858,59.0,24.329849243164062,0.0,-79.78281187007269,40.45901504627686,268.02874296855924,0.0324990637600421,-0.0158474799245595,0.9837995767593384,0.175587847828865,-0.0025472473512518,-0.0158859870176093,0.015808943348841,0.0023292566183954,0.0017898030346259,0.0005726182134822,-0.2212580372951925,0.6744291823357345,-9.785403102636336,14933.0
7.91,1.7999999523162842,59.0,24.328598022460927,-0.0318070948123931,-79.7828118325581,40.459015102865685,268.0313591952324,0.0324876531958579,-0.0158174093812704,0.9838145971298218,0.1755087673664093,-0.0046717115150672,-0.0176690301552748,0.0152469535007534,-0.0046037677675485,-0.0025019929744303,-0.0073752691969275,-0.2218009147234261,0.6817468265444041,-9.78557384133339,14933.0
8.1,2.0,59.0,24.328598022460927,-0.0159035474061965,-79.78281183764406,40.45901514456563,268.03005689334867,0.0324785970151424,-0.0158110652118921,0.9838255643844604,0.175449252128601,0.0006616509578424,-0.0123864146495061,0.0091707699895855,0.0049314452335238,0.0028190820012241,0.002830421552062,-0.2201060261763632,0.6629515365511179,-9.787267779707909,14933.0
8.2,2.0999999046325684,56.0,24.328598022460927,-0.0159035474061965,-79.78281183082728,40.45901515556295,268.0310207004547,0.032480664551258,-0.0157995726913213,0.983833372592926,0.1754062920808792,-0.001469231144183,-0.0149441710642403,0.009618730585128,-0.0065289391204714,0.0002766064717434,0.0017901171231642,-0.2216090164147317,0.6649863675981761,-9.786176689267158,14933.0
8.4,2.0999999046325684,55.0,24.33360481262207,-0.0159035474061965,-79.7828118030577,40.45901521677658,268.0306557412148,0.0324635431170463,-0.0158019680529832,0.9838489294052124,0.1753221899271011,-0.0023757086779758,-0.0161155599157185,0.0073147748492585,0.0043756491504609,-0.0002646048960741,0.0048697064630687,-0.2178459311462939,0.6642442097514868,-9.785442863702777,14933.0
8.5,2.200000047683716,51.0,24.332353591918945,-0.0079517737030982,-79.78281186881026,40.45901526195961,268.03132200193403,0.0323855467140674,-0.0158162992447614,0.9838627576828004,0.1752571910619735,0.011188627025137,-0.0086404974441192,0.0080930596043013,0.0089966347441077,0.0031084856018424,0.0028521453496068,-0.2227671305648982,0.6812918400764466,-9.784006787538528,14933.0
8.7,2.200000047683716,47.0,24.33110237121582,0.0,-79.78281187545838,40.459015273157135,268.0322483177185,0.0323816873133182,-0.0158172808587551,0.9838717579841614,0.1752076148986816,0.0095255410145651,-0.0112532635240007,0.0086202849632099,-0.0009505472844466,0.0016047101235017,0.0009099603630602,-0.2191287371702492,0.6647905589640141,-9.787998096942903,14933.0
8.8,2.400000095367432,38.0,24.32609367370605,-0.0159035474061965,-79.78281188566862,40.45901534465472,268.03087991428373,0.032375618815422,-0.0158185362815856,0.9838852882385254,0.1751327961683273,0.0091929500941352,-0.0152891395566324,0.0069446733000563,0.0061761988326907,0.0019647446461021,0.0034143158700317,-0.2189873990043997,0.6620221216231585,-9.787146157622338,14933.0
9.0,2.299999952316284,42.0,24.32734489440918,-0.0159035474061965,-79.78281188843665,40.4590153602006,268.031692325592,0.0323856547474861,-0.0158146806061267,0.983894944190979,0.1750768274068832,0.0074315325759339,-0.0176362083738146,0.0075355235380053,-0.0081831598654389,-0.0027207732200622,-0.0101494723930954,-0.2205108910426497,0.6776121872663499,-9.785938122868536,14933.0
9.1,2.200000047683716,47.0,24.32734489440918,0.0,-79.78281188177306,40.4590154187304,268.0271799559593,0.032389111816883,-0.0157984308898448,0.9839098453521729,0.174993559718132,0.0028144116011539,-0.0173013778684018,0.0020055810651921,0.000639178615529,0.0007039728807285,0.0032391133718192,-0.2201043451018632,0.6623524162173271,-9.788553582429888,14933.0
9.3,2.0999999046325684,50.0,24.32233619689941,-0.0159035474061965,-79.78281187792706,40.45901543431493,268.02745360088346,0.0323529914021492,-0.0157842617481946,0.9839174151420592,0.1749591082334518,0.001983452432705,-0.0197266789649247,0.002456650403832,0.0012799821561202,-0.0002547746116761,-0.0024667193647474,-0.2198738186247646,0.6811250482499599,-9.785426491498947,14933.0
9.4,2.0999999046325684,53.0,24.328598022460927,-0.0238553211092948,-79.78281189854394,40.45901551350333,268.0243566031456,0.0323324352502822,-0.0157710462808609,0.9839351773262024,0.1748645454645156,0.0037928843038612,-0.0216766309108502,0.0017522678746213,-0.0039681405760347,-0.004145985469222,-0.0073957573622465,-0.2225069294683636,0.6734071621298791,-9.78482715189457,14933.0
9.6,2.0,53.0,24.33110237121582,0.0,-79.78281188163884,40.459015519001454,268.0202891821861,0.0323344506323337,-0.0158038083463907,0.9839391112327576,0.1748390644788742,-0.0039138978069323,-0.0112360173414641,0.0016364723252164,0.0043703508563339,0.0007973472820594,0.0069023114629089,-0.2221239185705781,0.6678269449621439,-9.786682473421097,14933.0
9.7,1.7999999523162842,50.0,24.328598022460927,0.0,-79.78281187122587,40.45901552792736,268.0204626317024,0.0323310606181621,-0.0158045776188373,0.9839449524879456,0.1748065799474716,-0.0051955167758349,-0.0136646278916113,0.001981521154965,0.0004326186317484,0.0015134348068386,0.0068815411068499,-0.219161481577903,0.6619306126981974,-9.787556632161143,14933.0
9.9,1.7999999523162842,50.0,24.33110237121582,-0.0159035474061965,-79.78281192033896,40.45901559836161,268.01527541828153,0.032284889370203,-0.0158076472580432,0.9839606881141664,0.1747260391712188,0.003617889877583,-0.0153415089481759,-0.00138956470687,0.0029700065497308,-0.0006046144408173,0.0044283391907811,-0.2202884410321712,0.6627582860738039,-9.786466126441956,14933.0
10.01,1.7999999523162842,46.0,24.32734489440918,-0.0159035474061965,-79.78281196492894,40.459015670933255,268.0111947054863,0.032273955643177,-0.0158164668828248,0.9839749336242676,0.1746473312377929,0.0083221466370015,-0.016473013427597,-0.0012696981394347,0.0035753340926021,0.0005490983021445,0.0017552414210513,-0.222733216714114,0.6700222089886666,-9.786207679510118,14933.0
10.2,1.7999999523162842,46.0,24.32233619689941,0.0874695107340812,-79.78281196622758,40.45901568831221,268.011175453186,0.0322704873979091,-0.0158077422529459,0.9839850664138794,0.1745917797088623,0.0073425844810408,-0.0189950323494988,-0.0009123998548956,0.0013477115426212,-0.0019502238137647,0.0028858571313321,-0.2196085560321808,0.6617335615307093,-9.7869970536232,14933.0
10.31,1.7000000476837158,47.0,24.32734489440918,0.0238553211092948,-79.78281203175175,40.45901576020163,268.0069698090553,0.0322501137852668,-0.0158103387802839,0.9839997887611388,0.1745119839906692,0.0130494481102831,-0.0181603654951177,-0.0010648418020866,0.0041348240338265,0.00111648614984,0.0010592030594125,-0.2238102007471025,0.6838834722340107,-9.783992169499395,14933.0
10.5,1.7000000476837158,49.0,24.3148250579834,-0.0159035474061965,-79.78281203773895,40.45901577954892,268.0070098633766,0.0322440825402736,-0.0158063359558582,0.9840060472488404,0.1744783669710159,0.0113765373727238,-0.020456343051512,-0.0005898689299578,-0.0053905216045677,-0.0029569338075816,6.042591849109158e-06,-0.2209337726421654,0.6654062707722187,-9.787533243298531,14933.0
10.6,1.600000023841858,44.0,24.324840545654297,0.1033730581402778,-79.78281208825115,40.45901581380495,268.0055334563255,0.0322535336017608,-0.0158160831779241,0.9840173721313475,0.1744114160537719,0.0103679237678788,-0.0141774081433819,0.0046459760784757,0.0044608293101191,0.0001543116813991,0.0012932996032759,-0.2172650650888681,0.6642632862925529,-9.785606585741045,14933.0
10.8,1.600000023841858,45.0,24.319833755493164,0.0795177370309829,-79.782812093094,40.45901582918177,268.0061179990768,0.0322527661919593,-0.015834180638194,0.9840256571769714,0.174363762140274,0.0087829224524471,-0.0165990627854799,0.0050986978017574,-0.0072490503080189,-0.0042629889212548,-0.0077248848974704,-0.2231694190017879,0.6748897236585617,-9.785590798258784,14933.0
10.9,1.5,44.0,24.32233619689941,0.0795177370309829,-79.78281209044121,40.45901584846464,268.0035298461914,0.032279971987009,-0.01586439833045,0.9840381145477296,0.1742855757474899,0.0020436369366439,-0.013175156543069,0.0070008312510473,0.0006543077761307,-0.0012470979709178,0.0045151393860578,-0.2195582334324717,0.6621840164065361,-9.787558386325836,14933.0
11.1,1.399999976158142,39.0,24.32609367370605,0.0715659633278846,-79.78281215233825,40.45901590027784,268.0020593996048,0.0322578698396682,-0.0158682856708765,0.9840484857559204,0.174230620265007,0.0094846810731771,-0.0122201275157604,0.0114295634718138,-0.0025204860139638,-0.0007730725337751,-0.0100183971226215,-0.2232032597623765,0.6845930318534375,-9.783814998865129,14933.0
11.2,1.5,37.0,24.324840545654297,0.0874695107340812,-79.78281215666388,40.45901591413881,268.00329816293714,0.0322656072676181,-0.0158682111650705,0.9840600490570068,0.174163818359375,0.0097382822652423,-0.0146526577584094,0.011580246718666,0.0060214241966605,0.0033366871066391,0.0008038401720114,-0.22135179374367,0.663184475004673,-9.785921750664713,14933.0
11.4,1.5,37.0,24.32358932495117,0.0397588685154914,-79.7828122002602,40.459015955008375,268.0008639688492,0.0322543941438198,-0.0158892795443534,0.9840741157531738,0.1740844845771789,0.0086256249922374,-0.0114796692285001,0.0110395780206466,-0.002475582063198,-0.0011428067227825,-0.001033280743286,-0.2200301402807236,0.6777173640578985,-9.78556507050991,14933.0
11.5,1.600000023841858,41.0,24.324840545654297,0.0874695107340812,-79.7828122455561,40.459016012049695,268.000043153286,0.0322426557540893,-0.0159085486084222,0.9840921759605408,0.1739829778671264,0.0097395616897889,-0.0135472335470219,0.0143822925785736,-0.0063000842928886,-0.0011425478151068,-0.0067517389543354,-0.2219438426010311,0.6724621789902449,-9.786101260185244,14933.0
11.7,1.600000023841858,36.0,24.32609367370605,0.1351801604032516,-79.78281224958411,40.45901602707976,268.0015966887474,0.0322474054992198,-0.0159156043082475,0.9841001629829408,0.1739362329244613,0.0099109362822817,-0.0160768993530966,0.0147722445776552,0.0023242563474923,-0.0009244763641618,0.0021142361219972,-0.2213464947044848,0.6718597695976496,-9.786556173563003,14933.0
11.8,1.600000023841858,39.0,24.32609367370605,0.0636141896247863,-79.78281227227438,40.45901605908512,267.99903887462614,0.0322609692811965,-0.0159188117831945,0.9841169118881226,0.173838198184967,0.004491981980584,-0.0129564233164862,0.0139180455180331,-0.0062217870727181,-0.0015831823693588,-0.0096946582198143,-0.2186591874808073,0.6635019788146019,-9.78627258360386,14932.0
12.01,1.5,39.0,24.324840545654297,0.0636141896247863,-79.78281227155867,40.45901607149092,268.0004955525398,0.0322842709720134,-0.0159290414303541,0.9841259121894836,0.1737821400165558,0.0048355093026212,-0.0152290411239421,0.0141095339875362,0.0052801477722823,0.002525090938434,0.0016213261988013,-0.2211542126722634,0.6679534640908241,-9.785563901066778,14933.0
12.12,1.600000023841858,42.0,24.32233619689941,0.0874695107340812,-79.78281229267836,40.459016112465136,267.99791854572294,0.0322869420051574,-0.01594446785748,0.9841424822807312,0.1736863851547241,0.0015932522428997,-0.0150672183900526,0.0131937883601942,-0.0055020949803292,-0.0013561057858169,-0.009757550433278,-0.221461575217545,0.6827806873619556,-9.784155891537669,14932.0
12.3,1.7000000476837158,41.0,24.32233619689941,0.0954212844371795,-79.78281228754425,40.45901612541308,267.99929219436643,0.0322954095900058,-0.0159515719860792,0.9841509461402892,0.1736364215612411,0.0018812838780987,-0.0172855772514248,0.0134165500854818,0.0059492234140634,0.0003613937296904,-5.376939952839166e-05,-0.2207218293473124,0.6643368881195784,-9.786494193077088,14932.0
12.4,1.7999999523162842,34.0,24.32108497619629,0.0636141896247863,-79.78281234427732,40.45901614624077,267.99592256498335,0.0322910621762275,-0.0159893371164798,0.98417067527771,0.1735213994979858,0.003962965739063,-0.0117474379913733,0.011780504108816,-0.0019947609398514,-0.0026467752177268,-0.0004201948759146,-0.2197500769235194,0.6807981888949871,-9.783744247555733,14932.0
12.6,1.8999999761581416,34.0,24.32609367370605,0.055662415921688,-79.78281237101389,40.4590161540631,267.9914339776039,0.0323174335062503,-0.016024425625801,0.9841770529747008,0.1734774708747863,0.0011337808125209,-0.0060778299297444,0.0109663719343422,0.0040492084808647,0.0045110518112778,0.0040034395642578,-0.2201330147311092,0.6635768231749535,-9.783613269925118,14932.0
12.7,2.0,35.0,24.32233619689941,0.0715659633278846,-79.78281236314585,40.45901616621983,267.9937111134529,0.0322982631623744,-0.0160307399928569,0.9841939210891724,0.1733847856521606,-0.0007701757389922,-0.0100098227949113,0.0115002148421831,0.0041244612075388,-0.0002161640441045,0.002756998874247,-0.2219721650518476,0.6705658538639546,-9.783640751838684,14932.0
12.9,2.200000047683716,37.0,24.32233619689941,0.0477106422185897,-79.78281238598052,40.45901620775767,267.9893203372955,0.0322826579213142,-0.0160347390919923,0.9842028617858888,0.1733365654945373,-0.0001376394670345,-0.0125301558813821,0.0109664950819268,0.0013590701855719,-0.0015221142675727,-2.388035318290349e-05,-0.2180774626135826,0.6625016663968564,-9.785887252092364,14932.0
13.0,2.0,37.0,24.32358932495117,0.0795177370309829,-79.78281240463295,40.45901625477699,267.98558491420744,0.0322486013174057,-0.0160096231848001,0.9842169284820556,0.1732650399208068,0.0007341057669172,-0.0151275991820556,0.0106132126070483,0.0053943614475429,0.0014503948623314,0.0066079767420887,-0.2203168365731835,0.6652157246321441,-9.786217619776728,14932.0
13.2,1.8999999761581416,36.0,24.319833755493164,0.0636141896247863,-79.78281239726206,40.45901626794125,267.9866982693672,0.0322750322520732,-0.0160033274441957,0.9842230677604676,0.1732261031866073,-0.0006289723733291,-0.0171201503927116,0.0109879584475726,0.0004544367839116,0.0004283822199795,0.0032930425368249,-0.218743131570518,0.6624876330792904,-9.786899989843368,14932.0
13.3,1.8999999761581416,45.0,24.32358932495117,0.0238553211092948,-79.78281247495777,40.45901629913608,267.9820994133949,0.0322289355099201,-0.0160274542868137,0.9842405915260316,0.1731325984001159,0.0087450724413878,-0.0099958490351543,0.0100039930852414,0.0036951578222215,0.0038067765999585,0.0012017294066026,-0.2224102311395109,0.6635386700928212,-9.785769138336182,14932.0
13.5,1.8999999761581416,46.0,24.32108497619629,-0.0477106422185897,-79.78281247878515,40.45901630993158,267.98319733095167,0.03223692253232,-0.0160396825522184,0.9842479228973388,0.1730885803699493,0.0071477046369875,-0.0118136813134177,0.0104410205447062,-0.0066677588038146,0.0009250773582607,-0.0031205499544739,-0.2216620068065822,0.6664072410017252,-9.786537462472916,14932.0
13.61,1.8999999761581416,49.0,24.32734489440918,-0.0397588685154914,-79.78281250046422,40.45901634248713,267.9784599537849,0.0322583690285682,-0.0160368159413337,0.984262466430664,0.173002228140831,0.0040164900334633,-0.0115840568250382,0.0103370452905761,0.0028538077604025,-0.0017831512959674,0.0006942489999346,-0.2170483709312976,0.6646663787215948,-9.785138808488846,14932.0
13.8,1.7999999523162842,51.0,24.32734489440918,-0.0159035474061965,-79.78281249908933,40.45901635335401,267.9795528049469,0.0322442203760147,-0.0160360429435968,0.984272301197052,0.1729486286640167,0.0025242388567612,-0.0133397242077123,0.010635628250045,-0.0039375470951199,-0.0004875472804997,-0.011015236377716,-0.2208091173134744,0.6786840549856424,-9.784279267787934,14932.0
13.91,1.7000000476837158,54.0,24.31858062744141,-0.0397588685154914,-79.78281253612222,40.45901640669162,267.97473263692854,0.0322483144700527,-0.016023552045226,0.9842901229858398,0.1728474795818328,0.0043103495563422,-0.0162702301826924,0.0103391235885842,0.0018741994863376,0.002416341099888,0.0052121053449809,-0.2186725995317101,0.6621001819521191,-9.787404604554176,14932.0
14.1,1.7000000476837158,56.0,24.32734489440918,-0.0079517737030982,-79.78281256114273,40.4590164293948,267.9686018819809,0.0322364456951618,-0.0160302519798278,0.9842954277992249,0.1728193163871765,0.0022131410799005,-0.0124360322257326,0.0100513682101718,-0.005304574035108,0.0006365005392581,-0.0086446283385157,-0.2211860799975693,0.6838684887439013,-9.784468132853508,14932.0
14.2,1.8999999761581416,60.0,24.319833755493164,-0.0238553211092948,-79.78281255763684,40.45901644112265,267.9696578974724,0.0322374589741229,-0.0160260032862424,0.9843035936355592,0.1727725565433502,0.0025919162855767,-0.0146194900661218,0.0102675500477015,0.0039431666955351,0.0031480994075536,0.0035463555250316,-0.2220839382335544,0.6633039043843747,-9.786418763995169,14932.0
14.4,1.8999999761581416,59.0,24.319833755493164,-0.0318070948123931,-79.7828126109438,40.45901646930837,267.9620087738037,0.0322192087769508,-0.0160372741520404,0.98431795835495,0.1726931631565094,0.0042985686743681,-0.0103423928010693,0.0054168391392817,-0.0010669567855075,-0.0008202345343306,-0.005912649910897,-0.2199690551497042,0.6799447146803141,-9.783545442223549,14932.0
14.51,1.8999999761581416,62.0,24.32609367370605,-0.0159035474061965,-79.78281263864554,40.45901650776676,267.9543745512962,0.0322334766387939,-0.0160665716975927,0.9843342304229736,0.172595128417015,0.0019089605351265,-0.0107454171208148,0.003457046132771,-0.0038565285503864,-0.0038544926792383,-0.0012642331421375,-0.2212168326973915,0.6666666381061077,-9.785313640236856,14932.0
14.7,2.0,62.0,24.32734489440918,-0.0079517737030982,-79.78281263599102,40.4590165182724,267.9547730679512,0.0322390124201774,-0.0160457026213407,0.9843418598175048,0.172552615404129,0.0018373779375653,-0.0127852948785593,0.0037915209513207,-0.0013936039758846,-0.0016471388516947,0.0004712268710136,-0.2198540294542909,0.67799057520926,-9.784891471266748,14932.0
14.8,2.299999952316284,60.0,24.329849243164062,0.0,-79.78281267081101,40.45901655640765,267.9487265343666,0.032244499772787,-0.0160545986145734,0.9843560457229614,0.1724694967269897,0.0023564988838507,-0.0124536816423637,0.0052893860427819,-0.0041610142216086,-0.0055218036286532,-0.0072870659641921,-0.2176307901553809,0.6649654638022184,-9.785915318727492,14932.0
15.0,2.700000047683716,64.0,24.32734489440918,-0.0079517737030982,-79.78281266867474,40.45901656800669,267.9493052358627,0.0322369150817394,-0.0160553883761167,0.9843648672103882,0.1724207103252411,0.0026720291374883,-0.0143629933085948,0.00541823627454,0.0054084849543869,-0.0005956432432867,0.002363663399592,-0.2205943235009908,0.6682651206851006,-9.785815331339837,14932.0
15.1,3.0999999046325684,58.0,24.32734489440918,0.0079517737030982,-79.78281270903784,40.459016607009374,267.94147378158567,0.0322031490504741,-0.0160631388425827,0.984380841255188,0.172334998846054,0.0031565951966414,-0.0128561297183666,0.0033678692484579,-0.0033245501108467,0.0014398971106857,-0.0054902276024222,-0.2204818559624254,0.6836241482198239,-9.783374118804932,14932.0
15.3,3.2000000476837163,51.0,24.328598022460927,0.0,-79.78281270728665,40.45901661886391,267.9418647880554,0.0321968123316764,-0.0160787124186754,0.9843856692314148,0.1723073720932006,0.0036820348576109,-0.0147699911454357,0.0034257491014701,0.0047264285385608,0.0026162848807871,0.0029281266033649,-0.2205549278855324,0.6642621899396182,-9.78498210310936,14932.0
15.4,3.299999952316284,47.0,24.32233619689941,-0.0397588685154914,-79.78281272640955,40.45901665783223,267.93312227678297,0.0321686826646328,-0.016077097505331,0.9844004511833192,0.1722279042005539,0.0013689137145036,-0.0143927968176092,0.0019036444930613,0.0023794723674654,0.0018981101457029,0.0003832201182376,-0.221440342515707,0.6698559287935496,-9.785824102163316,14932.0
15.6,3.299999952316284,42.0,24.32609367370605,0.0079517737030982,-79.78281275292616,40.459016683385634,267.92362058115003,0.0321702621877193,-0.0161047782748937,0.9844062328338624,0.1721918433904647,0.0003232671721386,-0.0117286330551772,0.0003382511990154,-0.0030236793681979,0.0008847675053402,0.0041628330945968,-0.2197819077037275,0.6610202743113042,-9.787281228303913,14932.0
15.7,3.5,43.0,24.324840545654297,0.0,-79.78281274225388,40.45901670555525,267.9237815732956,0.0321376174688339,-0.0161069314926862,0.984422504901886,0.172105073928833,-8.996778480771446e-05,-0.0150846286615789,0.0006987375968671,0.0060502444393932,0.0014101499691605,0.001079945708625,-0.2184059847705066,0.6648352901637554,-9.785136469602586,14932.0
15.9,3.400000095367432,40.0,24.32358932495117,-0.0238553211092948,-79.78281280718986,40.45901674808719,267.9167234892845,0.032118123024702,-0.0160891823470592,0.9844324588775636,0.1720533370971679,0.0056163700361773,-0.0137937997832464,0.00238921633473,-0.0073819630779325,-0.0020259809680283,-0.0104676513001322,-0.2207840656489134,0.6792953813821078,-9.78335482299328,14932.0
16.0,3.2000000476837163,43.0,24.328598022460927,-0.0079517737030982,-79.78281285111542,40.459016764716274,267.9096600706577,0.0320919007062912,-0.0161116998642683,0.9844508171081544,0.1719509661197662,0.0054042973130866,-0.0063189989405254,0.0049888959836483,-0.0028056404553353,-0.0036593333352357,-0.0025022730696946,-0.2216789454594254,0.6669732514768839,-9.785725868940354,14932.0
16.2,3.0999999046325684,45.0,24.31858062744141,-0.0079517737030982,-79.78281285431002,40.45901677231531,267.9102198476791,0.0320733003318309,-0.0161045044660568,0.984458327293396,0.1719125807285308,0.0059496158392838,-0.0082874218611452,0.0051947508530281,0.0043229926377534,-0.000895052042324,0.0058343242853879,-0.2237596771493554,0.6679197695106268,-9.78613458931446,14932.0
16.3,3.2000000476837163,44.0,24.324840545654297,-0.0079517737030982,-79.78281292157376,40.45901682910758,267.90278890681265,0.0320499017834663,-0.0160969495773315,0.9844729900360109,0.1718333214521408,0.0119954042869706,-0.0095552888974042,0.005750535583714,-0.0015522160101681,0.0010440382175147,0.0016827814979478,-0.2196770232729614,0.662596245110035,-9.787248483896256,14932.0
16.5,3.0,40.0,24.32734489440918,-0.0079517737030982,-79.78281293050294,40.45901684099377,267.9034724230766,0.0320387147367,-0.016114292666316,0.9844788312911988,0.1718002557754516,0.0118876243471838,-0.0111913186366236,0.0057998035522982,0.0038286079652607,-0.0026821750216186,0.0044980682432651,-0.2187834225408733,0.6617619936168194,-9.78422196507454,14932.0
16.6,2.700000047683716,34.0,24.328598022460927,-0.0079517737030982,-79.7828129455785,40.45901686208556,267.8957141931057,0.0320207960903644,-0.0161176454275846,0.9844942688941956,0.1717147678136825,0.0070717853102641,-0.0080223871565789,0.0068059359542965,0.0057122115977108,0.0022277534008026,-0.0006759354728274,-0.2180229190550744,0.6638302268832922,-9.784171094298364,14932.0
16.8,2.5999999046325684,32.0,24.328598022460927,-0.0079517737030982,-79.78281294908685,40.45901687090039,267.8964661056995,0.0320055224001407,-0.0161136277019977,0.9845014810562134,0.1716768890619278,0.0056968280300912,-0.009427374660732,0.0070520140517743,-0.0006098899175412,-0.0028495148289948,-0.0128971012309193,-0.2214790620468557,0.6814438676834107,-9.783378796577454,14932.0
16.9,2.700000047683716,34.0,24.32734489440918,-0.0238553211092948,-79.78281295739869,40.459016911858505,267.8893600697517,0.0319894142448902,-0.0161024574190378,0.9845162034034728,0.1715967804193496,0.0037470341991212,-0.0104520094729918,0.0077627557627146,-0.0060822027735412,-0.0002569125790614,-0.003595212707296,-0.2217196749709546,0.6710304882377387,-9.784816626906396,14932.0
17.1,2.700000047683716,34.0,24.328598022460927,0.0,-79.78281298837057,40.45901693999539,267.88115051341055,0.0319808907806873,-0.0161089729517698,0.9845214486122132,0.1715674549341201,0.0070932226377689,-0.0069898882196976,0.0078240029740131,0.0038659088313579,0.004323354922235,0.0065237930975854,-0.2204750403016805,0.6685153084248304,-9.78530311524868,14932.0
17.2,2.5999999046325684,43.0,24.32609367370605,-0.0079517737030982,-79.78281299194498,40.459016948178416,267.8819992239475,0.0319908484816551,-0.0161039121448993,0.9845277070999146,0.17153000831604,0.0062527861895573,-0.0085529165588023,0.0079505694210323,-0.0015140984905883,0.0001682529400568,0.0052818311378359,-0.2181211888231336,0.6629397690296174,-9.78648776113987,14932.0
17.4,2.5999999046325684,39.0,24.32609367370605,-0.0159035474061965,-79.78281299525797,40.45901698872484,267.8741024429798,0.0319738313555717,-0.0161178782582283,0.9845448136329652,0.1714337021112442,0.0045174368354536,-0.0085130884412988,0.0080655083819074,0.0062716258689761,0.0003903212491422,0.0038463941309601,-0.2181027883663773,0.6636930365860463,-9.784000940322878,14932.0
17.51,2.5999999046325684,39.0,24.324840545654297,-0.0079517737030982,-79.7828130219464,40.45901702612687,267.8681440050602,0.0319478474557399,-0.0161230750381946,0.9845555424690248,0.171376347541809,0.0072404995888691,-0.006488084857379,0.0125797193115336,0.0031911311671137,0.0003500361926853,0.0036856590304523,-0.2194992496445775,0.6664736799895764,-9.784891471266748,14932.0
17.7,2.799999952316284,33.0,24.32609367370605,0.0,-79.782813025726,40.45901703381932,267.86947369527815,0.0319460891187191,-0.0161123760044574,0.9845633506774902,0.1713330000638961,0.0067342404028925,-0.0080917648550141,0.0127991405006747,-0.0032274979166686,0.0006769691826775,0.0045284749940037,-0.2191042336821556,0.6624776928126812,-9.786110031008723,14932.0
17.8,3.0,29.0,24.328598022460927,0.0,-79.78281302386378,40.45901707877797,267.86377391171453,0.0319449566304683,-0.0160885769873857,0.9845771193504332,0.1712560951709747,0.0057306595204877,-0.0094379248746863,0.0143436077400798,0.0037038305308669,0.0019474140135571,-0.0003646734403446,-0.2229827100969851,0.6832021254301072,-9.783067724704743,14932.0
18.0,3.0999999046325684,30.0,24.31732940673828,-0.0159035474061965,-79.78281302466313,40.45901708797175,267.8652779157161,0.0319384820759296,-0.0160873532295227,0.9845861792564392,0.1712052673101425,0.0045931787963736,-0.010844222859924,0.0146524813244172,-0.0048401560634374,-0.0040045417845249,-0.0058888914063572,-0.2221370748057961,0.6763035804033279,-9.783506265878678,14932.0
18.1,2.700000047683716,38.0,24.32734489440918,-0.0079517737030982,-79.78281301506532,40.45901711526321,267.8596700723171,0.031927689909935,-0.0161177199333906,0.9846006631851196,0.1711214184761047,0.0022240036998751,-0.0077311880908658,0.0162666692137711,0.0001616022491361,-0.0017344469670206,0.0006474161637015,-0.2188859315402806,0.6649145199358464,-9.785287912487984,14932.0
18.3,2.700000047683716,39.0,24.32108497619629,-0.0079517737030982,-79.78281301383169,40.45901712220255,267.8613206441402,0.0319255627691745,-0.0160957667976617,0.9846039414405824,0.1711049079895019,0.0025041925727096,-0.0093436878276837,0.0162534674937557,0.0007483040681108,0.0004059688653796,0.0012183582875877,-0.2197686418332159,0.6764132156968117,-9.78294259428978,14932.0
18.4,2.5999999046325684,44.0,24.32609367370605,-0.0238553211092948,-79.78281303095955,40.45901715883647,267.85571038675306,0.0318778753280639,-0.0161205269396305,0.984620213508606,0.1710178554058075,0.005600822025701,-0.0081882816969446,0.0168826777040936,-0.0052490113303065,-0.0026576665695756,-0.0106896758079528,-0.2224188923276961,0.6842794749140739,-9.781620538830758,14932.0
18.6,2.5999999046325684,44.0,24.31732940673828,0.0,-79.78281306790038,40.45901718405922,267.8460885579586,0.0318661294877529,-0.0161375012248754,0.9846262931823728,0.1709832996129989,0.0131864900846919,-0.0032806026530106,0.0123028534582931,0.0057183769531548,-7.601025572512299e-05,0.0058206301182508,-0.2193561938591301,0.6620926536619663,-9.784963976740835,14932.0
18.71,2.5999999046325684,43.0,24.32734489440918,0.0,-79.78281307933337,40.45901719073931,267.84742143702505,0.0318655744194984,-0.0161251667886972,0.9846330285072328,0.1709459573030471,0.012027450373429,-0.004778055764662,0.0125162610152433,-0.0058263461105525,-0.00176338176243,-0.0040385192260146,-0.2243310414813459,0.6735857214778662,-9.78456636607647,14932.0
18.9,2.5,41.0,24.329849243164062,-0.0159035474061965,-79.78281309052882,40.45901724289817,267.8388228709697,0.0318671576678752,-0.0161325223743915,0.9846450686454772,0.1708750128746032,0.0125947274868054,-0.0081195751010054,0.0089653968944738,-0.0030693288426846,-0.0003803462313953,0.0060626626946032,-0.2184122157096863,0.6626935281604529,-9.785008415579798,14932.0
19.0,2.400000095367432,42.0,24.32108497619629,-0.0079517737030982,-79.7828130865932,40.45901729960672,267.82958733987806,0.0318748317658901,-0.0161252059042453,0.9846588373184204,0.1707950234413147,0.0104609089698157,-0.0116844253855939,0.0053843199510752,0.0059131104499101,0.0033763437531888,0.0034141670912504,-0.2201046374626457,0.6647876353561879,-9.783774653077126,14932.0
19.2,2.299999952316284,41.0,24.32609367370605,0.0,-79.78281309227299,40.45901731291911,267.83022284460066,0.0318728685379028,-0.0161225367337465,0.9846660494804382,0.1707542091608047,0.0093514437862756,-0.0131170686604381,0.0055437147461345,-0.0074140764772892,-0.0011682853801175,-0.0043910318054258,-0.2227345506101846,0.6717548851668835,-9.784421939849857,14932.0
19.3,2.0,45.0,24.319833755493164,0.0,-79.7828131059487,40.4590173530592,267.82238426756857,0.0318760089576244,-0.016129694879055,0.9846814870834352,0.1706641018390655,0.0101544040763338,-0.0090989295405987,0.0064450566848876,0.0042021512053906,0.0009737293003126,0.0031816307455301,-0.2169315910711884,0.6634857527911664,-9.78540778040886,14932.0
19.5,1.8999999761581416,48.0,24.32734489440918,0.0,-79.78281311297876,40.459017363889046,267.8231271202564,0.0318562537431716,-0.0161280166357755,0.9846875071525574,0.1706328988075256,0.0097305793203276,-0.0105608577780565,0.0066737881789018,-0.0038487447891384,-0.0016874056309461,-0.012835269793868,-0.220523992460221,0.682953472584486,-9.78322793841362,14932.0
19.6,1.7999999523162842,48.0,24.328598022460927,0.0,-79.7828130971636,40.45901740840756,267.8128694887161,0.0318397991359233,-0.0161273498088121,0.9847018122673036,0.1705536246299743,0.0058376502890183,-0.0098313993526055,0.0031538089629393,-0.0030471421778202,0.0012017054250463,0.0046863066963851,-0.2190367897041142,0.6641163749992848,-9.785355155467988,14932.0
19.8,1.7000000476837158,52.0,24.28477478027344,0.8667433857917786,-79.78281309987928,40.45901741883483,267.8132501835823,0.0318239964544773,-0.0161143876612186,0.9846983551979064,0.170578122138977,0.0060959675367146,-0.0112910169080377,0.0032517189593391,-0.0017541839042678,0.0013078690972179,-0.006090932060033,-0.2208221273683012,0.6789577777683735,-9.782757822275162,14932.0
19.9,1.600000023841858,50.0,24.30856513977051,0.2703603208065033,-79.78281310373934,40.4590174910039,267.8037663693428,0.0318277217447757,-0.0160955749452114,0.984715461730957,0.1704801321029663,0.0074367569767871,-0.0139487040223676,0.0018186254312505,-0.0034790127538144,-0.0048486180603504,-0.0052816388197243,-0.2214744390919804,0.6690053050965071,-9.785506598353388,14932.0
20.1,1.600000023841858,48.0,24.31232070922852,0.2862638533115387,-79.78281309079867,40.45901751577684,267.79404491138456,0.0318181179463863,-0.01608750782907,0.9847274422645568,0.1704135090112686,0.0037597345400558,-0.0072446406994105,0.0004613105962902,-0.0008642441243864,-0.0018217737087979,-0.0009457981796003,-0.2169195494614541,0.6803739733994008,-9.78222280204296,14932.0
20.2,1.600000023841858,47.0,24.309816360473643,0.278312087059021,-79.78281309189352,40.45901752341293,267.7941322619915,0.0318114608526229,-0.0160830449312925,0.9847336411476136,0.1703794449567794,0.0039583357954602,-0.0081529130364404,0.0003913583587178,0.0005725669907405,0.0044445311650633,-0.0002564189780969,-0.2152279865182936,0.6611024276912213,-9.78474646031857,14932.0
20.4,1.600000023841858,49.0,24.306060791015625,0.2624085247516632,-79.78281310448598,40.4590175927076,267.7842351491451,0.0317834392189979,-0.0160682946443557,0.9847530722618104,0.1702733486890792,0.0078308150887848,-0.011273185347502,-0.0011055073874331,-0.0004984076367691,-0.0048394706100225,0.0030754478648304,-0.2190984230116009,0.6739437172561884,-9.78363022685051,14932.0
20.5,1.5,53.0,24.29479217529297,0.3101191818714142,-79.7828131080583,40.45901760492874,267.7842154796123,0.0317988879978656,-0.016077185049653,0.9847549200057985,0.1702593117952346,0.0081862029425531,-0.0134773147434949,-0.0009421692570294,0.0029439136851578,0.0037706457078456,0.000877573271282,-0.2215032183565199,0.6576832683384419,-9.786772520542144,14932.0
20.61,1.399999976158142,54.0,24.29604339599609,0.326022744178772,-79.78281312950827,40.45901768058789,267.7770769293308,0.0317845195531845,-0.0160853452980518,0.984770655632019,0.1701700687408447,0.0114621373917982,-0.0136848068956178,0.0025946442879617,0.0004712041991297,0.0016022501513361,0.0016737652476876,-0.2257954949140549,0.6646710564941168,-9.782335653305054,14932.0
20.8,1.5,61.0,24.303556442260746,0.4293957948684693,-79.78281312880202,40.45901773569739,267.77038067531583,0.031794499605894,-0.0161096695810556,0.9847822785377502,0.1700986176729202,0.0088897667058745,-0.0114541175287643,0.005929428816695,-0.0048688342794775,0.0002336278266739,-0.0091963922604918,-0.2176371672749519,0.6667729112505913,-9.782746127843858,14932.0
20.9,1.5,66.0,23.37328338623047,13.279462814331056,-79.7828131343813,40.459017748526136,267.771126329422,0.0317324213683605,-0.0161083601415157,0.9847829937934875,0.1701060831546783,0.0107234552592883,-0.0101240221269233,0.0072456399452676,0.0071422718465328,-0.0355188585817813,-0.0091294599696993,-0.2088827708177268,0.674537136554718,-9.78284903883934,14932.0
21.11,1.600000023841858,64.0,24.298547744750977,0.2862638533115387,-79.78281311274722,40.45901779622125,267.76352921080587,0.031667485833168,-0.0162086952477693,0.9847899675369264,0.1700682193040847,0.0010308795282827,-0.0112382931788912,0.0092726357755111,0.008551531471312,-0.0198924429714679,-0.0017045990098267,-0.2248513888567686,0.6828321428596974,-9.770121989250184,14932.0
21.3,1.600000023841858,68.0,23.907907485961918,5.916119575500487,-79.78281310959268,40.45901781742575,267.7654129559993,0.0316845327615737,-0.0162376202642917,0.9848026633262634,0.1699890941381454,0.0059991706048949,-0.0152858598307492,0.0089638057136045,0.0186534207314252,0.0103382151573896,0.0103402184322476,-0.2618539399467409,0.6418080778419972,-9.794839339256288,14932.0
21.4,1.600000023841858,64.0,24.255977630615234,0.8190327286720276,-79.78281313707555,40.45901786643597,267.75903519940374,0.0316615402698516,-0.0161628797650337,0.9848096966743468,0.1699598729610443,0.0126199190302772,-0.0083321615900463,0.0119048657916763,0.0131639204919338,-0.0111724762246012,0.0261148046702146,-0.2169035244360566,0.6063029073178768,-9.78605857551098,14932.0
21.5,1.600000023841858,65.0,24.29729652404785,0.2862638533115387,-79.78281313315469,40.45901794021319,267.7512623364925,0.0316785424947738,-0.0161831751465797,0.9848403334617616,0.1697769612073898,0.0113395867580052,-0.0085467865053571,0.0106126389184006,0.0109598496928811,0.0025770214851945,0.0052186083048582,-0.1846468293853104,0.6375293046981096,-9.77608497977257,14932.0
21.71,1.600000023841858,68.0,24.27100372314453,0.9462611079216005,-79.78281313629941,40.459017951532026,267.7523303623199,0.0316984355449676,-0.0160655789077281,0.9848377704620358,0.1697994768619537,0.0078854566926584,-0.0126563930216174,0.0097237463659986,0.0029150352347642,0.0086804563179612,-0.0127817364409565,-0.1668411075510084,0.6617105381190778,-9.783119180202483,14932.0
21.81,1.600000023841858,67.0,24.21215629577637,2.806976079940796,-79.78281313713774,40.45901801958839,267.7445083553791,0.0317463912069797,-0.016176139935851,0.9848601818084716,0.1696498841047287,0.004711708902545,-0.0130113254378021,0.0091105825964558,-0.0095311431214213,-0.0020459906663745,-0.0117770107463002,-0.2254972869157791,0.6801235663890839,-9.793671065568924,14932.0
22.0,1.7000000476837158,61.0,24.09321212768555,5.550338268280028,-79.78281313881865,40.45901803151162,267.74550455760954,0.031735636293888,-0.0162109788507223,0.984850823879242,0.169702798128128,0.0042808250064314,-0.0129291909524349,0.0094890498141441,-0.0080278562381863,-0.0238143764436244,-0.0030509275384247,-0.2641343905963004,0.6947793931514025,-9.787658958435062,14932.0
22.2,1.7000000476837158,62.0,23.980527877807607,7.760931491851807,-79.7828131362228,40.45901812178805,267.73814704966543,0.0316653735935688,-0.0162401422858238,0.9848782420158386,0.1695538610219955,0.0099314054602041,-0.0152026847977073,0.0078690138500465,0.0148594630882143,0.03735938295722,0.0132999429479241,-0.1791944104246795,0.5460184063017368,-9.831991378068924,14932.0
22.3,1.600000023841858,67.0,23.9291934967041,8.87417984008789,-79.78281316573337,40.459018169767646,267.7340360577106,0.03115058504045,-0.0163979995995759,0.9849274158477784,0.1693482995033264,0.0114108952073207,-0.0087841423148005,0.007561796864058,0.009115831926465,0.0047970013692975,-0.0036545780021697,-0.279126377440989,0.6469256340712309,-9.74720441222191,14932.0
22.5,1.5,63.0,23.79397201538086,11.752721786499023,-79.78281317229084,40.45901817835809,267.734934538126,0.0310059264302253,-0.0164237935096025,0.9849212169647216,0.1694081425666809,0.0044078099534631,-0.008887299474678,0.0084642701586729,3.312344051664695e-05,-0.1395514607429504,-0.0056065912358462,-0.2786053539812565,0.5577876819670201,-9.746555956006052,14932.0
22.61,1.7000000476837158,64.0,23.722604751586918,13.279462814331056,-79.78281313714969,40.45901824545845,267.7258056695461,0.0297577455639839,-0.0161022804677486,0.9850003719329834,0.1692026406526565,-0.0032160850243439,-0.0168911383288584,0.0067405097924768,-0.0086568361148238,-0.0123970275744795,0.029660940170288,-0.2304631627164781,0.5948593946546317,-9.827289047241214,14932.0
22.8,1.8999999761581416,58.0,23.53604888916016,16.929327011108402,-79.78281313443752,40.45901826029581,267.7269846792221,0.0289821438491344,-0.0155471870675683,0.9850744009017944,0.16895791888237,0.0087641112157217,-0.0157335775316892,0.0143740265023385,0.0549509562551975,0.0585497692227363,-0.0311565715819597,-0.205792023986578,0.5902584764733911,-9.867676935195924,14932.0
22.9,1.8999999761581416,55.0,23.46843910217285,18.44016456604004,-79.78281313521508,40.459018335612505,267.71975693058965,0.027416106313467,-0.0145255122333765,0.9851960539817808,0.1686007380485534,0.0083736369976908,-0.0099026888176733,0.0106467813930153,0.0090169375762343,-0.0189934317022562,-0.0027585127390921,-0.2029270893149078,0.6110421852394938,-9.777281904816627,14932.0
23.1,2.0,59.0,23.295656204223643,21.930992126464844,-79.78281316845572,40.45901842700379,267.7143044168949,0.0256866719573736,-0.0121334213763475,0.9856823086738586,0.1662030667066574,0.0013170852163398,0.0029194878201733,0.0172270042025947,0.0291934609413146,0.0199651196599006,-0.030318034812808,-0.1150725096836686,0.3368805324286222,-9.873947489261628,14932.0
23.2,2.0,61.0,23.19048309326172,24.252910614013672,-79.78281315918503,40.45901841297695,267.7164208884239,0.0261711869388818,-0.0118653355166316,0.9860278964042664,0.1640831083059311,-0.0235938789039464,0.0183663682915092,0.0276185228195626,0.0344505682587623,0.0789734050631523,-0.0699636191129684,0.0627303090970963,0.4250395144522191,-9.910213090181353,14932.0
23.31,2.0,62.0,23.08781433105469,26.16133689880371,-79.78281313371792,40.45901844210846,267.71384602737425,0.0204407609999179,-0.0060073705390095,0.9866435527801514,0.1614952683448791,-0.0680565107237851,0.0593349550493188,0.1327470460806699,0.1124112457036972,0.0522916428744792,-0.1113438084721565,0.2313917736522853,0.2413421267084777,-10.540611934661868,14932.0
23.5,2.0999999046325684,66.0,23.295656204223643,20.14979553222656,-79.78281284826903,40.45901844475527,267.74191433143613,0.0052185109816491,-0.0041142664849758,0.9870097637176514,0.1605231463909149,-0.08814581389152,0.1017159545243505,0.3252247722778358,0.0876940712332725,-0.0274668782949447,-0.0361623875796794,0.1666608488559723,0.3559922664240003,-10.822115607261658,14932.0
23.61,2.0999999046325684,72.0,23.301916122436523,20.69051551818848,-79.78281278925597,40.45901833831781,267.7763863201141,0.000861985317897,0.0021603365894407,0.9870337843894958,0.1604959815740585,-0.075892302048726,0.1025674609744721,0.3522149629493882,0.012637504376471,0.0845711901783943,-0.0111006135120987,0.0502468874026089,0.3112320133298635,-10.16144923567772,14932.0
23.8,2.299999952316284,70.0,23.29941177368164,20.571239471435547,-79.78281275339134,40.45901822517183,267.8110543484688,-0.00144141796045,0.0077292006462812,0.9868793487548828,0.1612679064273834,-0.0481881595381904,0.1217902522433141,0.338109401848139,0.0964827612042427,-0.0131231322884559,0.0920238271355629,0.1957772784680128,0.1526906081289053,-9.778846619725226,14932.0
24.0,2.299999952316284,68.0,23.280630111694336,20.865455627441406,-79.78281272974888,40.459017835539015,267.8546274001598,-0.0021496925037354,0.0093441428616642,0.986884355545044,0.1611438393592834,-0.0069651202807112,0.1355773483508285,0.2769892581836382,-0.0111608784645795,0.0570067204535007,0.0381065122783184,0.2049033568426966,0.0725428231805563,-9.65457457602024,14932.0
24.1,2.299999952316284,75.0,23.23806190490723,21.565210342407227,-79.78281278975456,40.45901772928514,267.86693993163107,0.0014311664272099,0.0109797194600105,0.9869700074195862,0.1605229228734969,0.0186612273630935,0.1457183975615552,0.2189322242123667,-0.0046644955873489,-0.0079396534711122,0.0130032198503613,0.2371111910976469,0.0814374797232449,-9.563527581095697,14932.0
24.2,2.200000047683716,71.0,23.19674301147461,22.082077026367188,-79.78281295136719,40.45901749059005,267.9064337904453,0.0054548932239413,0.0079878084361553,0.9873224496841432,0.1584326922893524,0.0415735403985934,0.1528986483768159,0.1757176257983675,-0.0382366031408309,-0.0532189421355724,-0.053100474178791,0.2160774955898523,0.1606057098694145,-9.603438920974734,14932.0
24.4,2.0,77.0,23.19924736022949,22.33653259277344,-79.78281324311389,40.45901730208176,267.9441905016899,0.0063356542959809,0.0094429440796375,0.9876059889793396,0.1565413773059845,0.0925882389746052,0.1477523101154813,0.1422771973359262,-0.0298294406384229,0.0508100055158138,-0.032891072332859,0.1065873592346906,0.213169894516468,-9.574171852469442,14932.0
24.61,2.0999999046325684,79.0,23.14040184020996,22.92496490478516,-79.78281302034313,40.45901723727983,267.96376669359205,0.0086332494392991,0.0126387141644954,0.987690806388855,0.155668556690216,0.0426662806241454,0.1483240001341206,0.152314081725293,-0.1966891139745712,0.0368552915751934,-0.0744509324431419,0.1612152090109884,0.2423781254142523,-9.71068855047226,14932.0
24.71,2.0999999046325684,75.0,23.177963256835927,22.272918701171875,-79.78281313523969,40.459017132076944,267.97963505935667,0.0112562496215105,0.0156863443553447,0.9876639246940612,0.1553943306207656,0.0613318918836671,0.1420076619511585,0.1601241061233636,-0.0462206602096557,0.0797325819730758,0.0603776052594184,0.1944241962209344,0.0978171204775571,-9.890995631217956,14932.0
24.8,2.0999999046325684,77.0,23.129133224487305,23.5849609375,-79.78281335365428,40.45901694210917,268.02733164978025,0.0134507492184638,0.0202057790011167,0.987265408039093,0.1572195142507553,0.0705570007874411,0.1375914515432148,0.2059533646787018,-0.1587312519550323,0.0064981640316545,-0.0707632526755333,0.242143524158746,0.2982843775302172,-9.919769779443742,14933.0
25.0,1.8999999761581416,74.0,23.11661148071289,23.56110572814941,-79.78281346812916,40.45901672184833,268.08035343837736,0.0129176964983344,0.020446678623557,0.986647129058838,0.1610670536756515,0.0651266664520185,0.1143179032530703,0.1880487880156575,0.0028399841394275,0.020901184529066,-0.0034136974718421,0.2157925351895392,0.1978537343814968,-9.6700188267231,14933.0
25.1,1.8999999761581416,74.0,23.062774658203125,24.10977935791016,-79.78281356997823,40.459016658531645,268.0998926157951,0.0120087312534451,0.0208773631602525,0.9864916801452636,0.162031665444374,0.0628631971033657,0.0917245236519763,0.1980140081350206,-0.0350528731942176,0.0356473661959171,-0.0883881747722625,0.2298797567747533,0.2819525925815105,-9.85251744389534,14933.0
25.3,1.7999999523162842,72.0,23.791467666625977,10.981399536132812,-79.78281366202286,40.459016614465625,268.1212212438583,0.0117806810885667,0.0217106230556964,0.9864009022712708,0.1624907851219177,0.0657883557196545,0.0724213197602023,0.21964441219587,0.0039308387786149,-0.0249695982784032,0.104615144431591,0.2136620656214654,-0.0842399040050804,-9.954694029092789,14933.0
25.5,1.7999999523162842,72.0,22.950090408325195,26.272661209106445,-79.7828137363353,40.45901654045436,268.15972721529005,0.0099785784259438,0.016735415905714,0.9865544438362122,0.1622673720121383,0.0529709959077726,0.0635503806883933,0.0438731821795733,0.0227849259972572,-0.2291157990694046,-0.0192735735327005,0.3500433092191815,0.1417083859629929,-8.871397342085839,14933.0
25.6,1.7999999523162842,69.0,22.89499855041504,28.07771301269531,-79.78281377284256,40.459016293722776,268.1989485616684,0.0054350746795535,0.0065236240625381,0.9867746829986572,0.1618756353855133,0.0557672082171729,0.0612231069952333,0.0960960168202178,0.0669949874281883,-0.2136757373809814,0.0201059821993112,0.1721378992125392,-0.0339007630711421,-9.7297908192873,14933.0
25.7,1.7000000476837158,65.0,22.76478576660156,30.065656661987305,-79.78281393939395,40.45901622266536,268.234849214077,0.0061059757135808,0.0029826720710843,0.987198770046234,0.1593502461910247,0.0520302659918976,0.0696606456844147,0.29163337947009,-0.0313996560871601,0.0477460734546184,-0.0247938763350248,0.1748923215083778,0.2932895945571363,-10.85792863368988,14933.0
25.9,1.600000023841858,65.0,22.68340301513672,32.252395629882805,-79.78281380081944,40.45901614704217,268.2870481009483,0.0063362559303641,0.0074290004558861,0.98765230178833,0.1563577204942703,0.0612382669005329,0.0869090176831266,0.4537967072783204,0.0852127447724342,0.0674297213554382,0.0450599566102027,0.1847743717767298,0.0982049279194325,-11.1421945309639,14933.0
26.0,1.600000023841858,63.0,22.46429443359375,36.124908447265625,-79.78281391518226,40.459016041323984,268.4105398650169,0.0054518589749932,0.0140037098899483,0.988766312599182,0.1487124562263488,0.0762412045743238,0.103359453956496,0.8229710272579576,0.0070227151736617,0.011806015856564,-0.0265865940600633,0.3326257328689098,0.1662243724800646,-11.865581645965571,14933.0
26.21,1.8999999761581416,67.0,22.614540100097656,33.087329864501946,-79.78281402782622,40.459015995387865,268.5050826663971,0.0066272323019802,0.0139028839766979,0.9893271923065186,0.144895315170288,0.086847838230197,0.1063900089990666,1.0576202103649222,-0.0478634573519229,-0.015415352769196,-0.0505336113274097,0.3465934519842267,0.1185262589715421,-12.064595139026643,14933.0
26.4,1.8999999761581416,67.0,22.406700134277344,38.32754898071289,-79.78281413690738,40.459015950064725,268.7624898548126,0.0095223998650908,0.0135415457189083,0.99016135931015,0.1389479786157608,0.1124986775781776,0.0970672535119764,1.5172321432053637,-0.0532375909388065,-0.0172920580953359,-0.1384075134992599,0.2371481930091977,0.3575509148463607,-12.18896658539772,14933.0
26.5,2.0,70.0,22.449268341064453,35.68756103515625,-79.78281426361076,40.45901593216243,268.9276553983688,0.0132187195122241,0.0118565568700432,0.9903551936149596,0.1374097466468811,0.1244877590354055,0.0966064287679955,1.782472001233047,-0.0938417539000511,-0.0411241091787815,-0.0923783108592033,0.2459689370915294,0.2840904077142477,-12.402892817258834,14933.0
26.6,2.0999999046325684,70.0,22.35787010192871,36.49864196777344,-79.78281439281301,40.45901591815921,269.3333873147964,0.020943121984601,0.0070847771130502,0.9901231527328492,0.13844595849514,0.1586053278340218,0.0907079954015145,2.293585404525243,-0.0375170037150383,0.0307117160409688,0.031819075345993,0.2716531607508659,0.1760089569725096,-12.439236770868304,14934.0
26.8,2.200000047683716,70.0,22.3353328704834,37.69141006469727,-79.7828144289443,40.45901595546248,269.84480339241026,0.0232515204697847,0.0052410955540835,0.9896076321601868,0.1418049037456512,0.1519802613206893,0.0849143379646951,2.7465252245459264,-0.0550118722021579,0.0544022843241691,0.0185775533318519,0.2002359265834093,0.4420924803614617,-12.162965186834334,14934.0
27.0,2.200000047683716,72.0,22.71220016479492,30.200838088989247,-79.78281446088033,40.4590159199896,270.13114505958555,0.0242124591022729,0.0070250653661787,0.9895100593566896,0.1422477513551712,0.1368434170880515,0.0963837481675761,2.963906259314416,0.0520167350769043,0.035649798810482,0.0076573477126657,0.2568812119401991,0.158634887561202,-11.995455322265624,14935.0
27.11,2.400000095367432,71.0,22.66086578369141,30.74950981140137,-79.78281433339481,40.459015917058295,270.43879538726804,0.0267437566071748,0.0084816068410873,0.9895913004875184,0.1411454975605011,0.1042167286207481,0.1102671063146146,3.1202672428901805,-0.0403109416365623,-0.0127643756568431,-0.1323800235986709,0.2130127688683569,0.2448639777861536,-11.516894634962082,14935.0
27.3,2.400000095367432,71.0,22.886234283447266,25.01628112792969,-79.78281419624756,40.45901580565628,271.0884769554138,0.0284175984561443,0.0097091039642691,0.9901418685913086,0.1368114948272705,0.076409006690612,0.1282305571972792,3.3413588967247034,-0.0278400648385286,-0.0026426748372614,-0.0236483737826347,0.2357778432033956,0.2195750807225704,-10.75794592380524,14936.0
27.4,2.5999999046325684,76.0,22.794836044311523,27.51313781738281,-79.78281392030864,40.45901581820538,271.43516999435417,0.027482159435749,0.0116010103374719,0.990296185016632,0.135733813047409,0.0399544858819783,0.1162553959502006,3.3599971182673847,-0.0153429144993424,-0.0292660724371671,-0.0788862705230712,0.2851616176217794,0.1803925414569676,-10.162770706415175,14936.0
27.5,2.700000047683716,78.0,22.833648681640625,26.19314384460449,-79.78281334147884,40.45901576989407,272.1073659057617,0.0296459943056106,0.0163583662360906,0.9901453852653505,0.1358882933855056,-0.0201157394225277,0.118559788158197,3.3687387204189583,0.0447992719709873,0.0033460499253124,0.0997668132185936,0.2534020272642374,0.0200036171078682,-9.879181916713716,14937.0
27.7,2.5999999046325684,75.0,22.84491729736328,26.3521785736084,-79.78281279250642,40.45901568028162,272.77716523361204,0.0297263171523809,0.0133180078119039,0.9899607300758362,0.1375384032726287,-0.0889831533823221,0.1029661675409935,3.3320495921726137,0.0248775072395801,-0.0269899424165487,0.0561907067894935,0.2322914225980639,0.3491339575499296,-9.56115302681923,14937.0
27.8,2.5,70.0,22.81612014770508,25.342304229736328,-79.7828123502164,40.45901573420378,273.05634766769407,0.0286473631858825,0.0108234547078609,0.990060031414032,0.1372715830802917,-0.1201271031201926,0.0763385443759783,3.289353275953863,-0.0545278787612915,-0.0844848677515983,0.0158052388578653,0.2429283118620515,0.1873118806444108,-9.686613224744796,14938.0
28.01,2.5999999046325684,64.0,22.803600311279297,27.27458381652832,-79.78281198305467,40.459015694455,273.38352376174925,0.0271171946078538,0.0098656276240944,0.9900519847869872,0.1377113461494445,-0.1455418960071271,0.052017408275272,3.2736248634681893,0.0506333373486995,-0.0199815854430198,0.0768154263496398,0.2265205496549606,0.2016786539554596,-9.625857145786286,14938.0
28.2,2.5999999046325684,63.0,22.837404251098643,26.511213302612305,-79.78281129526495,40.45901573680389,273.95793086242674,0.0247396565973758,0.0139746079221367,0.9898340106010436,0.1393609493970871,-0.1959957596237456,0.0316084647984771,3.1872778489177,0.1242349967360496,0.1457142084836959,0.0247962530702352,0.2497433147951961,0.3583704021200538,-9.608384495973588,14938.0
28.31,2.5999999046325684,61.0,22.76854133605957,28.125423431396484,-79.78281086557128,40.45901570070728,274.2740190620422,0.0224839877337217,0.018419075757265,0.9897044897079468,0.140144407749176,-0.237974508481814,0.04496198793451,3.1652764921325334,-0.1189505010843277,0.0691917836666107,-0.1068664193153381,0.2459705633483827,0.3684729289636016,-9.584826064109803,14939.0
28.4,2.700000047683716,63.0,22.94883728027344,23.20327568054199,-79.7828101009026,40.45901579480604,274.8341596717834,0.0181958843022584,0.0240148194134235,0.9894773960113524,0.141515776515007,-0.2552913168676169,0.0602762112181601,3.123771531433228,0.0193994436413049,-0.0010337569983676,-0.0705510377883911,0.357125712633133,0.440414110198617,-9.810054963827133,14939.0
28.6,2.700000047683716,54.0,22.84992599487305,25.15146064758301,-79.78280910501367,40.45901539866276,275.4174235458374,0.01102374214679,0.0196507982909679,0.9894452691078186,0.1431447863578796,-0.300101663045031,0.078567659501881,3.0765298122717084,-0.0156140578910708,-0.089487686753273,-0.0724328532814979,0.4655947789549828,0.3300510576367379,-9.8100958943367,14940.0
28.7,2.799999952316284,52.0,22.81236457824707,26.050010681152344,-79.7828086654713,40.459015360584935,275.7242968673706,0.0080845793709158,0.0195992607623338,0.98948872089386,0.1430474817752838,-0.3043433595565055,0.0621071240597473,3.057278157820538,0.0149542391300201,0.0168589185923337,0.0014446823624894,0.3905473009496928,0.167165061570704,-9.65894186139107,14940.0
28.9,2.900000095367432,48.0,22.807355880737305,26.82928466796875,-79.78280828331694,40.459015389275216,275.92686206054685,0.004414293449372,0.0218221060931682,0.989580512046814,0.1422492414712906,-0.2738986213211948,0.0536922767818373,2.956659360229475,0.2242199629545212,0.0732306092977523,0.0064798593521118,0.4507844395190478,0.1472793206758797,-9.653878757357598,14940.0
29.1,3.0,45.0,22.754770278930664,27.29048728942871,-79.78280737814529,40.45901528664184,276.6037486190796,-0.0064650904387235,0.0299769602715969,0.9900923371315002,0.1370287090539932,-0.2685153854052107,0.0722247666365216,2.947109638415881,0.1057939603924751,0.0910773500800132,-0.0160067453980445,0.4022822242230177,0.2558842799440026,-9.771911821961403,14941.0
29.2,3.0999999046325684,41.0,22.71846008300781,27.32229423522949,-79.78280685900617,40.45901532970785,277.1935027236938,-0.0029300211463123,0.0304140616208314,0.9905794262886048,0.1334875077009201,-0.2242665196523703,0.0902903226840066,2.9369781553770555,0.0275434907525777,0.0071169259026646,0.1899916380643845,0.5869973746687174,-0.0810361688677221,-9.81387085676193,14942.0
29.31,3.2000000476837163,40.0,22.79358291625977,26.28856468200684,-79.78280627317119,40.459015201238735,277.58850032043455,0.0009600835037417,0.0257720183581113,0.990690052509308,0.1336717903614044,-0.1788513115478759,0.0962882146323178,2.9714054647468617,-0.1332673132419586,-0.0839211642742157,-0.024492172524333,0.4925412337481976,0.5453187869489193,-9.766850472092631,14942.0
29.51,3.299999952316284,35.0,22.688411712646484,29.06373405456543,-79.78280549033249,40.45901488787968,278.28771334838865,0.0046699233353137,0.0215215310454368,0.9905899167060852,0.1350805610418319,-0.0796475662312201,0.0848011750387283,3.0203091838515506,0.0868855938315391,0.0275626387447118,0.0123186958953738,0.4776640167832375,0.3760635650530458,-9.901596633195878,14943.0
29.7,3.400000095367432,34.0,22.93381309509277,23.56110572814941,-79.78280538586104,40.459014913769096,278.59037905883787,0.0059097642078995,0.0251148864626884,0.9904519319534302,0.1354231089353561,-0.0567531180898008,0.0790750920684379,3.0215176326286484,-0.0340865701436996,0.107327900826931,0.0243425294756889,0.4017879883199929,0.3166270930320025,-9.78533001244068,14943.0
29.82,3.5,29.0,22.781063079833984,26.78952598571777,-79.78280530773563,40.45901494696823,278.89000827026365,0.0069593512453138,0.0318307988345623,0.990219235420227,0.1356627494096756,-0.0330002048873361,0.0964032579171316,2.959332561081793,0.0007214347133412,0.1725232750177383,0.0544472709298133,0.4710837795585394,0.335356894209981,-9.29290089905262,14943.0
30.0,3.5,29.0,22.7597770690918,27.298439025878903,-79.78280470242875,40.45901455903913,279.5465224380493,0.0094363195821642,0.0378464832901954,0.9899224042892456,0.1361333727836609,-0.0291681530651796,0.169094370400176,2.856020897821316,-0.209255278110504,-0.0820007696747779,-0.1546519845724105,0.5801964050531387,0.5026883821561933,-9.28142281472683,14944.0
30.1,3.700000047683716,24.0,22.754770278930664,26.43964767456055,-79.78280451605175,40.45901440110839,279.925970375061,0.008326981216669,0.0349849574267864,0.989997923374176,0.1364220380783081,0.0262843928920342,0.1608153938952403,2.8463608262113063,0.0858879312872886,-0.1137479543685913,0.1716525554656982,0.5246540690213443,-0.0706134612858295,-9.402677695155145,14944.0
30.21,3.799999952316284,27.0,22.81612014770508,25.70013236999512,-79.7828044919367,40.45901453016742,280.49271613311765,0.0033610132522881,0.0267465524375438,0.99024099111557,0.1367341428995132,0.0310780163223574,0.091947097597805,2.815136734881596,-0.0282793957740068,-0.0586697198450565,-0.0158528424799442,0.4273319153487681,0.2042997049167752,-9.574105778932571,14945.0
30.4,3.900000095367432,26.0,22.85869026184082,25.09579849243164,-79.78280458434782,40.45901429555392,281.19736319732664,0.0033620228059589,0.0247601605951786,0.9903457760810852,0.1363483369350433,0.080472709184274,0.0871574486928518,2.827973993402165,0.0322573818266391,-0.0105725275352597,0.0725861191749572,0.4625935493409634,0.1322054362669587,-9.488678542971613,14946.0
30.5,3.799999952316284,28.0,22.71720886230469,26.16133689880371,-79.78280447835618,40.45901395118359,281.6449654693604,0.0055643701925873,0.0254376977682113,0.9903996586799622,0.1357592046260833,0.0912079660215721,0.1131151275399888,2.9012712425991154,-0.0156827569007873,0.0165374036878347,-0.0362628772854805,0.4880865690484643,0.1912448092550039,-9.569476538300515,14946.0
30.71,3.799999952316284,29.0,22.79859161376953,25.41386985778809,-79.78280466943127,40.45901404658938,282.22132998657224,0.0149801727384328,0.0297361630946397,0.9903173446655272,0.1347704082727432,0.142958008946131,0.1254526632050283,2.8429654689225154,-0.1259614825248718,0.0649364218115806,-0.0102824540808796,0.4416893148422241,0.263589759003371,-9.383849660754205,14947.0
30.9,3.799999952316284,25.0,22.66086578369141,28.022050857543945,-79.78280454470114,40.459013755289895,282.69017344665525,0.0189236961305141,0.0309311151504516,0.9902940988540648,0.1341747939586639,0.1721101062303277,0.1542130220366441,2.9026953046147512,0.0068551786243915,-0.0636979267001152,0.006562054157257,0.5716223038360477,0.161311505343765,-9.374165502190593,14947.0
31.0,3.700000047683716,27.0,22.677143096923828,27.47337913513184,-79.78280465951546,40.45901381005184,282.98032408905027,0.0176195185631513,0.0290285684168338,0.990572154521942,0.1327169984579086,0.2123335769268672,0.1461931220946583,2.8877393827740536,0.2317400723695755,0.0507147572934627,0.0779099538922309,0.5191513274610042,0.2069780403189361,-9.64282342672348,14947.0
31.1,3.700000047683716,29.0,22.69467163085937,26.169288635253903,-79.78280484613806,40.459013720527686,283.6858151550293,0.0120235960930585,0.023866981267929,0.9911845326423644,0.1297653764486313,0.1954738824505591,0.1208191715512105,3.006298024550618,0.0155847165733575,-0.0694996640086174,-0.0554752610623836,0.56054881028831,0.4061943769454957,-9.946491554975507,14948.0
31.31,3.700000047683716,32.0,22.75727462768555,25.89097595214844,-79.78280510984852,40.45901381531592,284.32260066223137,0.0160154048353433,0.0202380884438753,0.991035521030426,0.1310827136039734,0.2288275177836746,0.0943936578961396,3.0178924616664853,-0.0251790564507246,-0.0813371017575264,0.1238798126578331,0.6079619816690683,0.1076171635463833,-9.76993604779243,14949.0
31.5,3.700000047683716,32.0,22.53190422058105,30.8608341217041,-79.78280528274077,40.4590138894426,284.62434130859367,0.0172182116657495,0.016019893810153,0.9908971190452576,0.132551223039627,0.2373966967038592,0.0930150498669367,3.009910918630367,-0.0379574634134769,-0.0350132621824741,0.022938834503293,0.4767330669611693,0.5401214162260294,-9.780975006222723,14949.0
31.6,3.5999999046325684,31.0,22.59701156616211,28.992168426513672,-79.78280541709172,40.45901400875525,284.9384663696289,0.0186630543321371,0.0155584579333663,0.990787148475647,0.1332316100597381,0.2718004332902465,0.0591703936317249,3.0400405778720265,0.0274275299161672,0.0721529871225357,0.1173818483948707,0.2603523201495409,0.0781276267580688,-10.054048748016358,14949.0
31.7,3.5999999046325684,30.0,22.72221565246582,27.32229423522949,-79.7828057530523,40.45901416815351,285.55505114746086,0.0205904729664325,0.0185798592865467,0.9903228878974916,0.135983794927597,0.2645210178194977,0.0975853598592637,3.089970103325823,0.0032490936573594,-0.1247034594416618,-0.1558869481086731,0.5556975581869483,0.3435486971586943,-9.972284792661668,14950.0
31.9,3.5999999046325684,30.0,22.65585708618164,28.30036354064941,-79.78280592147661,40.45901425705795,286.1513589019775,0.013596604578197,0.0112711675465106,0.9906793832778932,0.135064497590065,0.2277294477088837,0.0839916802890899,3.0930225850799724,-0.0775908455252647,-0.0360237471759319,-0.0632413625717163,0.3857147599384189,0.3285595060139895,-9.946677496433258,14951.0
32.0,3.700000047683716,32.0,22.640832901000977,28.77746963500977,-79.78280595584124,40.45901421092806,286.45341426086424,0.0141148418188095,0.0143518475815653,0.9906647801399232,0.134826198220253,0.2454245636641945,0.083856713903708,3.0861574690648816,0.1457875519990921,0.1461523026227951,0.0705034434795379,0.5337719612941146,0.0476215149834752,-10.012425928115846,14951.0
32.2,3.700000047683716,33.0,22.684654235839844,28.85698699951172,-79.78280613847028,40.459014234444425,286.7639878387451,0.0164142530411481,0.0182335507124662,0.9905754327774048,0.1347535103559494,0.2187545460476259,0.1273413178436949,3.1077306937958897,-0.1960376352071762,0.0628712549805641,-0.1336910277605056,0.5457997204363346,0.5636462265998126,-9.936491646766664,14951.0
32.4,3.700000047683716,34.0,22.69216728210449,26.360130310058597,-79.78280640616764,40.45901411151208,287.3745358581543,0.023464260622859,0.0214155800640583,0.9905090928077698,0.1337257325649261,0.265238370644451,0.196217203302643,3.0779116634078862,-0.1589913517236709,-0.0024093075189739,-0.1352195739746093,0.6148839886486529,0.5716865866631271,-9.81995663881302,14952.0
32.5,3.799999952316284,33.0,22.751012802124023,25.87507247924805,-79.7828066149779,40.459014110285565,287.68431407165525,0.0264521799981594,0.0200880840420722,0.9905459880828856,0.1330994069576263,0.3041790761657289,0.2010880898487397,3.086640504724901,0.0213959589600563,-0.025601428002119,0.0430472083389759,0.4084956948459149,0.1940835228189826,-9.838547276258469,14952.0
32.6,3.799999952316284,32.0,22.6420841217041,28.363977432250977,-79.78280713472984,40.459014164485225,288.2792981262207,0.0242933239787817,0.0195830129086971,0.9906694293022156,0.1326667070388794,0.3155882246944557,0.1878620125788016,3.053000934323181,0.0625048354268074,0.0759846121072769,0.0163592919707298,0.5294171012565494,0.3231223994493484,-9.833435640335084,14953.0
32.81,3.700000047683716,32.0,22.70969581604004,25.77169990539551,-79.78280745430891,40.459014066206656,288.8870518798828,0.025309408083558,0.0202277582138776,0.990641951560974,0.1325851529836654,0.3001517606001143,0.1915504356321455,3.0724327143995853,0.0297297406941652,0.1131827384233474,0.0164047870784997,0.4214195032417775,0.2378257391229272,-9.945560678243638,14953.0
33.01,3.700000047683716,33.0,22.59450721740723,28.76951789855957,-79.78280764324164,40.45901405604617,289.1953423614502,0.0296416990458965,0.0208607707172632,0.9906314015388488,0.1316647082567215,0.2701386468521367,0.1977766413562521,3.06212210160026,-0.2328965961933136,-0.0776669979095459,-0.1648832708597183,0.3920083008706569,0.4419469577819109,-9.748988397717476,14954.0
33.1,3.5999999046325684,33.0,22.55068588256836,28.97626495361328,-79.78280776994134,40.45901403979872,289.49825984191887,0.0326301380991935,0.0213718470185995,0.9906591176986694,0.1306641399860382,0.3100513732722557,0.1807135601476243,3.0368451733653083,0.1589842736721038,0.0967157483100891,0.0743265450000763,0.4239053738862276,0.1583727495744824,-9.775854014754296,14954.0
33.2,3.5999999046325684,32.0,22.724720001220703,25.914831161499023,-79.78280801889765,40.45901404215621,290.1124241943358,0.0310206823050975,0.0209288410842418,0.9905860424041748,0.1316780596971511,0.2540576375199388,0.1799816715385521,3.0577916468671984,0.0203260760754346,-0.0747627392411232,-0.0128074940294027,0.4607907431200146,0.1784585931524634,-9.79096906721592,14955.0
33.5,3.5999999046325684,36.0,22.652101516723643,28.22084617614746,-79.78280803980327,40.45901401332315,290.7182419891357,0.024312375113368,0.0176470205187797,0.9904951453208924,0.1342273652553558,0.2091769823200105,0.1519807934170761,3.0044544189367786,0.1833397597074508,-0.0368340536952018,0.0393305905163288,0.4799967269226909,0.0696517861727625,-9.602309238910676,14955.0
33.61,3.400000095367432,41.0,22.64333724975586,26.93265914916992,-79.78280802778617,40.45901391846218,291.02837306213377,0.0202822629362344,0.017298499122262,0.9905099272727966,0.134831428527832,0.1599659841813233,0.13885490904685,3.0006386855740623,-0.0503803379833698,4.098935096408241e-05,-0.2073368281126022,0.3319878747314215,0.5123445106297732,-9.646092020273208,14956.0
33.71,3.400000095367432,42.0,22.59075164794922,28.78542137145996,-79.78280809982171,40.45901392474317,291.6272347564697,0.0219661667943,0.0225653797388076,0.9905571937561036,0.1334349811077118,0.1193534372802875,0.1336337383557914,2.9688084361293883,-0.1398352533578872,0.0783265531063079,-0.0880201905965805,0.4473592867702246,0.263269514311105,-9.567898374795917,14956.0
33.9,3.299999952316284,44.0,22.58073425292969,29.278430938720703,-79.78280800881741,40.45901380739053,291.9386227722168,0.0256611090153455,0.0253472067415714,0.9905595779418944,0.1322527974843979,0.1225017175246399,0.1554827126700604,2.9623077821786072,-0.0930390059947967,-0.026691110804677,-0.1813666373491287,0.4958746583014727,0.444642451107502,-9.609931084513663,14956.0
34.0,3.400000095367432,44.0,22.435497283935547,31.576494216918945,-79.78280794820876,40.45901374671367,292.5496781463623,0.0189891848713159,0.0214254613965749,0.9909902215003968,0.1308387815952301,0.1136632498853326,0.1546208373683228,2.9936234776218447,0.0255418587476015,-0.1179657727479934,-0.1313466131687164,0.4050232527405024,0.4414283828437329,-9.874699441194537,14957.0
34.2,3.299999952316284,44.0,22.483074188232425,30.15312576293945,-79.78280793992823,40.4590137579316,292.8507912750244,0.0146385477855801,0.0164064336568117,0.9912028312683104,0.1305125951766967,0.0830711254714867,0.1273172439260945,3.016684344922848,-0.0353888757526874,-0.1054526418447494,-0.0935600474476814,0.3514641460776329,0.3862652022019029,-9.923076964616776,14957.0
34.4,3.299999952316284,44.0,22.463041305541992,31.17890548706055,-79.78280770248216,40.45901373127192,293.4629166717529,0.0174345113337039,0.0104140425100922,0.9912914633750916,0.1301111429929733,0.076820590787394,0.0831879701955677,3.049813931394441,0.0109721859917044,0.0063087590970098,0.1321477741003036,0.3557409457862377,0.2285881433822215,-9.973021541833877,14958.0
34.5,3.400000095367432,47.0,22.469301223754886,30.39963150024414,-79.7828077008383,40.4590137326125,293.7682088012695,0.0186735037714242,0.0114498194307088,0.9912917017936708,0.1298501789569854,0.1069935434181506,0.0834902995945728,3.0507894034757688,0.0765970796346664,0.1059464439749717,0.0744228735566139,0.3779702324420214,0.284368753451854,-9.86295355439186,14958.0
34.7,3.5,45.0,22.52313995361328,29.84300804138184,-79.78280759828739,40.45901369784493,294.38091784667967,0.0193261504173278,0.0186961535364389,0.9912132620811462,0.1295117884874344,0.1050394067150679,0.1186648397943228,3.0507370205763613,-0.0497348457574844,0.0452218167483806,0.0105206528678536,0.4018571316450834,0.2707660102285445,-9.786957877278333,14959.0
34.8,3.5999999046325684,45.0,22.439252853393555,31.958179473876957,-79.78280750084156,40.459013793053714,295.0084946746826,0.0202755834907293,0.0214126240462064,0.9911055564880372,0.1297702640295028,0.1064586920111837,0.1371270614145213,3.0519349429476805,-0.0615254528820514,-0.058823138475418,-0.1534727364778518,0.4075009738281369,0.436083406470716,-9.824030978679655,14960.0
35.0,3.5999999046325684,45.0,22.52814865112305,28.125423431396484,-79.78280750610978,40.45901380479983,295.315112411499,0.0202417522668838,0.0194899979978799,0.99115389585495,0.1297092139720916,0.1060256290339852,0.1312856244583653,3.0673184221393464,-0.0659380406141281,-0.0440491661429405,-0.1047513037919998,0.3866795870661736,0.4593082546815277,-9.877805482149125,14960.0
35.1,3.700000047683716,48.0,22.478065490722656,30.48710060119629,-79.78280736584449,40.45901362888733,295.6190732116699,0.0206009019166231,0.0180359650403261,0.9912148118019104,0.1293971538543701,0.0974208119146393,0.1408342596065017,3.0544899891936907,0.0162641927599906,-0.042248286306858,-0.0516943596303463,0.4471229861676693,0.4571690142899752,-9.797195182442666,14960.0
35.3,3.700000047683716,50.0,22.25770568847656,34.327808380126946,-79.78280734196284,40.45901362008514,296.22865420532224,0.0204058233648538,0.0167172159999609,0.9914347529411316,0.1279115825891494,0.1089246508432818,0.116508003283857,3.03000915130778,0.1314782798290252,0.0022825158666819,0.0733051374554634,0.3577335672453046,0.2814151421003044,-9.665680777430532,14961.0
35.4,3.700000047683716,52.0,22.46805000305176,28.05385780334473,-79.78280707375477,40.45901360338251,296.53028422546384,0.0185781717300415,0.0162558928132057,0.9915562272071838,0.1273065507411956,0.0943247735072607,0.1023855731439812,3.032309108425572,0.1170810759067535,-0.0247183479368686,0.1008560881018638,0.4322187989205121,0.2531690522655845,-9.89216390490532,14961.0
35.5,3.700000047683716,53.0,22.58073425292969,27.37795829772949,-79.78280695692612,40.45901351733609,297.1458180541992,0.0152949234470725,0.0134913604706525,0.9916331768035888,0.1274668425321579,0.088843733804793,0.1030481468678696,3.0344924248082794,0.0114951385185122,-0.0432526879012584,0.0951796472072601,0.2740738349407911,0.3491387815028429,-9.590409570336345,14962.0
35.7,3.700000047683716,56.0,22.386667251586918,32.093360900878906,-79.78280697669315,40.45901352164017,297.7437813873292,0.0180961675941944,0.0108033018186688,0.9915868639945984,0.1277161091566085,0.1099181623804532,0.085778389045659,2.9552851698985454,-0.031067507341504,-0.0414064712822437,-0.0275448784232139,0.3502805965393782,0.3124484900012612,-9.387022944688796,14962.0
35.9,3.700000047683716,56.0,22.37289428710937,30.90059280395508,-79.78280678636315,40.4590135121195,298.05359584045414,0.0200988259166479,0.010908911935985,0.991521954536438,0.1279116868972778,0.1154814012687052,0.0759345256856531,2.9597665071698653,-0.0816548317670822,0.0026790383271873,0.0633277371525764,0.2727908827364445,0.2675004499219358,-9.604798983335495,14963.0
36.0,3.700000047683716,57.0,22.391674041748047,30.240596771240234,-79.78280680716809,40.45901351821021,298.3491700286865,0.0218072403222322,0.0122862374410033,0.9914094805717468,0.1283774822950363,0.1202189793415156,0.080072939942458,2.9502542703108547,-0.1160488724708557,0.0020678485743701,-0.028667576611042,0.3771482601016761,0.3979473908990621,-9.724119604825974,14963.0
36.21,3.700000047683716,58.0,22.340341567993164,32.68178939819336,-79.78280668665828,40.459013478125954,298.9589875335693,0.0233130622655153,0.0125896660611033,0.9912375211715698,0.1294076889753341,0.1219629209315972,0.1011313217627534,2.9727582828525265,-0.0490989722311496,-0.0351420305669307,-0.0054478025995194,0.312464240938425,0.2684490144811571,-9.856787080764772,14963.0
36.31,3.700000047683716,58.0,22.445512771606445,29.94638061523437,-79.7828066518763,40.4590133365076,299.56691104125974,0.0231000538915395,0.0161730758845806,0.9910512566566468,0.130469262599945,0.1166332242301753,0.1362888189158598,3.0313238780744203,0.0611087568104267,-0.021553723141551,0.0097805196419358,0.3670703281089664,0.2475945726782084,-9.974407331943512,14964.0
36.51,3.700000047683716,61.0,22.545677185058597,28.38783264160156,-79.78280663872543,40.459013306765534,299.8702710266113,0.0207513663917779,0.0155180292204022,0.991058886051178,0.1308856904506683,0.1124795841693832,0.1455831575866915,3.018191503835024,0.0895576477050781,-0.0107073970139026,0.010328808799386,0.3832051715254784,0.270754005163908,-9.707178466916083,14964.0
36.61,3.700000047683716,63.0,22.412960052490234,30.39963150024414,-79.78280658092623,40.459013241401344,300.17199069213865,0.0189174264669418,0.0138697270303964,0.9911330938339232,0.1307865232229232,0.0980793475395866,0.1308772365821939,2.983696442233012,-0.0484484173357486,-0.0778059437870979,0.0267658755183219,0.2502176336199045,0.1816162357851863,-9.5421969383955,14965.0
36.8,3.700000047683716,63.0,22.431739807128903,29.73168182373047,-79.78280658612701,40.45901320970193,300.7673657531738,0.0180707089602947,0.0113130696117877,0.991299331188202,0.1298892647027969,0.093912786141608,0.1095566014229641,2.9824884446627093,-0.057670459151268,-0.0409309454262256,-0.0914310663938522,0.3066841951757669,0.5520334370434284,-9.86349734544754,14965.0
36.9,3.700000047683716,63.0,22.475563049316406,29.84300804138184,-79.7828065338492,40.45901313134123,301.08305484008787,0.0190517976880073,0.0095859393477439,0.9914215803146362,0.1289516985416412,0.1020449554999188,0.1147506204713935,3.01791851555582,0.012358964420855,-0.0106889624148607,-0.0094008697196841,0.3096529727429151,0.4702200727164746,-9.95571378350258,14966.0
37.0,3.700000047683716,62.0,22.48432731628418,28.96831321716309,-79.78280647095052,40.45901302676717,301.69226580810545,0.0231823772192001,0.011866059154272,0.991441011428833,0.1279322654008865,0.1222259605203339,0.1278809893825717,3.0361765125676734,0.0048677613958716,0.0607743859291076,0.0791540220379829,0.3491578214988112,0.2500659897364676,-9.879888260364533,14966.0
37.2,3.799999952316284,61.0,22.49434280395508,28.228797912597656,-79.78280649008562,40.45901298027147,301.99694567871086,0.0246762223541736,0.0131309460848569,0.9914143085479736,0.1277355104684829,0.1360752219951881,0.1466416415263279,3.0528457221481577,0.0401847623288631,0.0763659477233886,-0.0125241819769144,0.4237817052751779,0.3740140794217587,-9.99347042441368,14966.0
37.3,3.799999952316284,60.0,22.49684715270996,29.48517799377441,-79.78280631216046,40.45901293841774,302.6037419433593,0.0212459713220596,0.0181655175983905,0.9913838505744934,0.1279716789722442,0.1129967006639134,0.160442147580081,3.02702978319199,-0.0086167883127927,-0.0255540776997804,-0.069422423839569,0.368535274900496,0.3483661450445652,-9.885632565021517,14967.0
37.5,3.799999952316284,59.0,22.446765899658203,29.38975715637207,-79.78280630982671,40.4590128963528,302.9062626953125,0.0209264960139989,0.0192530993372201,0.9913829565048218,0.1278723925352096,0.0906523456923824,0.1729866238769518,3.014238873662292,-0.094700239598751,-0.0442211590707302,-0.0778586491942405,0.3272831684723497,0.518311923108995,-9.681260098814963,14967.0
37.7,3.799999952316284,61.0,22.33157730102539,31.56854248046875,-79.7828063290098,40.45901277921191,303.5154469604492,0.0205830167979002,0.0200762543827295,0.9915280342102052,0.1266712993383407,0.1386452511004343,0.1745869171325458,3.033196455736848,0.0972371846437454,0.0610406845808029,0.0761754363775253,0.4585468375682831,0.2656144853308797,-10.01165175676346,14968.0
37.81,3.799999952316284,61.0,22.451772689819336,27.98229217529297,-79.78280636327526,40.45901274808927,303.82159167480467,0.0209303852170705,0.0197336059063673,0.991627275943756,0.1258888095617294,0.1353345645234641,0.1776484218957974,3.073598014396961,0.0252556968480348,-0.0406289063394069,-0.019599761813879,0.4543810618668795,0.341203854046762,-10.169280996322634,14968.0
37.9,3.700000047683716,60.0,22.42422866821289,29.668067932128903,-79.7828063083668,40.45901271613033,304.435681640625,0.0243590287864208,0.0157254878431558,0.9917466640472412,0.1248918250203132,0.1463281186467328,0.1553373170909572,3.1003876888964523,-0.0854266583919525,-0.0095209283754229,-0.0074385465122759,0.3614515924081206,0.3582188861444593,-9.917327982187274,14969.0
38.11,3.799999952316284,57.0,22.42422866821289,28.42759132385254,-79.78280642527035,40.45901267444353,305.0457585449218,0.0249810125678777,0.0166243743151426,0.991723656654358,0.1248351857066154,0.1750000197680056,0.1478529821391371,3.0678527702946536,-0.053058061748743,-0.051479622721672,-0.0688412860035896,0.320351586677134,0.5968261056393386,-9.722240894436837,14970.0
38.3,3.799999952316284,55.0,22.44300842285156,29.6760196685791,-79.78280647894016,40.45901265758874,305.3526394958496,0.0244448669254779,0.0188789181411266,0.9916611909866332,0.1251164078712463,0.1807756343923375,0.1467060580178895,3.049548480891773,0.0450299344956874,0.1025244444608688,0.0040694884955883,0.3672850671038032,0.5729177179187537,-9.635205089449885,14970.0
38.41,3.799999952316284,56.0,22.453025817871094,29.98613929748535,-79.78280638076774,40.459012578842895,305.65872698974607,0.0246953200548887,0.0211863983422517,0.99155855178833,0.1255109310150146,0.1803578465954642,0.1555316807246233,3.018269663400525,0.1083178967237472,0.0124509185552597,0.0609791316092014,0.500283641628921,0.2555296463146806,-9.583950151205064,14970.0
38.6,3.799999952316284,56.0,22.412960052490234,30.18493461608887,-79.78280645858001,40.45901242650208,306.27636462402336,0.0262014232575893,0.0172464922070503,0.9914884567260742,0.1263594627380371,0.1786229221827916,0.1614916521534699,3.0340123959534253,-0.1054110676050186,-0.0979789644479751,0.0079774362966418,0.2909754858724773,0.4011388742923737,-9.866772955656051,14971.0
38.7,3.799999952316284,59.0,22.54442596435547,25.93073463439941,-79.78280656930932,40.459012413986784,306.88815432739256,0.0285381339490413,0.0178990848362445,0.9913052916526794,0.1271968781948089,0.1838014376165488,0.1390595872137885,3.0511183424541146,-0.0052003310993313,0.0185747481882572,0.0544758923351764,0.3417287878319621,0.5253700605779886,-9.75249731183052,14971.0
38.82,3.799999952316284,60.0,22.421724319458008,29.548791885375977,-79.78280654089069,40.45901235394867,307.2047551269531,0.028684839606285,0.0176800712943077,0.9913243055343628,0.1270467638969421,0.1997940632202662,0.1401750771828349,3.0326205655490472,0.1143552437424659,0.0817468538880348,0.0680839419364929,0.3081680723279715,0.4494871616363525,-9.63251653969288,14972.0
39.0,3.799999952316284,60.0,22.535659790039062,27.59265518188477,-79.78280648661321,40.459012269404674,307.82692080688474,0.0285518951714038,0.0176508650183677,0.9912475943565368,0.1276776790618896,0.1735492523023628,0.1373263027500971,3.0413999332825923,-0.1084186807274818,-0.0276190806180238,0.0215305928140878,0.3406393053755164,0.4015973690897226,-9.71813673377037,14972.0
39.2,3.799999952316284,60.0,22.45052146911621,29.66011619567871,-79.782806511076,40.45901226556651,308.1311314697265,0.0280105732381343,0.0166567731648683,0.9911654591560364,0.1285655796527862,0.1659608172119167,0.1371833599038909,3.0300654007609915,-0.0644901394844055,-0.0542842000722885,-0.1000358536839485,0.3540693364664912,0.5831318900361657,-9.74248921751976,14973.0
39.31,3.900000095367432,57.0,22.27523422241211,32.80106735229492,-79.7828065316098,40.45901226149351,308.434533416748,0.0261283963918685,0.015186445787549,0.9911609888076782,0.1291763633489608,0.1662035243485922,0.1298228986717116,3.021066151270272,0.0638792142271995,-0.0088275289162993,-0.0285256821662187,0.3962584592029453,0.6227110715210438,-9.685733803510669,14973.0
39.5,3.900000095367432,58.0,22.39793586730957,30.336017608642567,-79.78280647453784,40.459012276194784,309.0588124389648,0.0227642077952623,0.0150691354647278,0.9913625717163086,0.1282769590616226,0.1560723664415753,0.1087147345279731,3.0731237517852006,0.1296839565038681,0.0236138682812452,0.0731059908866882,0.396863097846508,0.2536655722372234,-10.05858034014702,14974.0
39.6,3.799999952316284,57.0,22.34785270690918,31.56854248046875,-79.78280638933406,40.45901226507939,309.3735249633789,0.0221505183726549,0.0161547269672155,0.9914877414703368,0.1272813230752945,0.1384265415589982,0.1050433893689857,3.090440408346628,0.0536708123981952,0.0565806031227111,0.0751597508788108,0.2563538479059935,0.2386801452375948,-9.908088212013244,14974.0
39.71,3.799999952316284,57.0,22.534408569335927,26.71000862121582,-79.78280639762119,40.45901227305684,309.99638873291013,0.0209501776844263,0.0175515860319137,0.9916236400604248,0.1262363791465759,0.1228035399873205,0.126291260708655,3.123902702421973,-0.0384779460728168,0.0459879860281944,-0.0414193421602249,0.4277212302759289,0.3946766046434641,-9.909983879327774,14974.0
39.9,3.900000095367432,58.0,22.481822967529297,29.02397537231445,-79.78280625431269,40.45901230827853,310.6108945007324,0.0210345014929771,0.0197350140661001,0.991599142551422,0.1260923147201538,0.108833469804586,0.1153214677857952,3.0518767543161425,-0.0942543894052505,-0.0142880752682685,-0.1354061514139175,0.374485876634717,0.6704862586408854,-9.500621480941774,14975.0
40.1,3.799999952316284,57.0,22.38165855407715,30.789268493652344,-79.78280624796972,40.45901229145621,310.9263890380858,0.0208683107048273,0.0206615142524242,0.9916090965270996,0.1258937269449234,0.1307556909422675,0.1188248070365295,3.0461509934249347,0.1217890456318855,0.0741496235132217,0.1529527306556701,0.4038448560610413,0.2595606985129416,-9.676510405540466,14975.0
40.2,3.799999952316284,57.0,22.50060272216797,27.51313781738281,-79.78280625560132,40.459012310783095,311.23071795654295,0.0209814365953207,0.0207538194954395,0.9916729927062988,0.1253548562526703,0.1333219444041205,0.1210007219611758,3.030012820044108,0.0498159267008304,-0.0435857996344566,-0.0326862074434757,0.4249892283976078,0.2939646007865668,-9.663560577034946,14976.0
40.4,3.799999952316284,57.0,22.32030868530273,32.832874298095696,-79.78280613272429,40.4590123207906,311.85414248657224,0.0221827458590269,0.0181079879403114,0.9918556809425354,0.1241063103079795,0.1240336729354646,0.0974393681210086,3.0538420374142863,-0.0849344804883003,-0.0123979812487959,-0.066536858677864,0.3700012084096671,0.5487590693682433,-9.8424602329731,14976.0
40.5,3.799999952316284,57.0,22.455530166625977,28.92060089111328,-79.78280615128463,40.45901231840735,312.4798215026855,0.0230453237891197,0.0158672556281089,0.991938054561615,0.1235968843102455,0.1368279969069183,0.0889677646754193,3.0918212001340675,-0.040807731449604,-0.0345394350588321,-0.1351072192192077,0.3524215545505285,0.5108973978459835,-9.916847341060636,14977.0
40.7,3.799999952316284,55.0,22.3891716003418,30.272403717041016,-79.78280615862127,40.45901234925302,312.78953295898435,0.0239823646843433,0.0138792656362056,0.991954505443573,0.1235257387161254,0.1355443291598119,0.0845934010600937,3.094712477862887,-0.0633334591984748,-0.0163798276335001,-0.0821491926908493,0.2962301410362125,0.6180513522773982,-9.789777404665948,14977.0
40.8,3.700000047683716,57.0,22.419219970703125,29.151203155517567,-79.78280616486602,40.45901238128953,313.0992901916504,0.02283226698637,0.0131392711773514,0.9919517040252686,0.1238465458154678,0.1488192287517055,0.0694319287883717,3.0920523139163043,0.072998471558094,-0.0120129073038697,0.0819121673703193,0.2737972616404295,0.3172677285969257,-9.808648708462716,14978.0
41.0,3.700000047683716,57.0,22.34785270690918,30.80517196655273,-79.7828059379439,40.459012419503686,313.721757232666,0.0228337366133928,0.0134766865521669,0.9918891191482544,0.1243107765913009,0.1237537872098499,0.066535831354819,3.0839028527924066,0.0776537284255027,0.0235781222581863,0.1075353398919105,0.3644846162572503,0.2406330787204206,-9.716903555989266,14978.0
41.1,3.700000047683716,60.0,22.426733016967773,29.04783058166504,-79.78280595679416,40.45901237645377,314.03295260620115,0.0219957437366247,0.0125428400933742,0.9918776154518129,0.1246503889560699,0.1370649446175097,0.0755774560863364,3.0868378095666307,0.0504530183970928,-0.0215776897966861,0.0113690141588449,0.2866069396957755,0.247637330442667,-9.777906387448311,14979.0
41.2,3.700000047683716,62.0,22.501855850219727,27.62446212768555,-79.7828059376421,40.45901242163493,314.65137225341795,0.0214400067925453,0.0139059135690331,0.9918285012245178,0.124993085861206,0.1102721204605505,0.0677323556551055,3.0784983949026423,-0.1051187515258789,-0.0083801662549376,-0.009773320518434,0.2953346399590373,0.388393698334694,-9.633521091341972,14979.0
41.41,3.5999999046325684,63.0,22.34910583496093,30.137222290039062,-79.78280577341934,40.459012439644326,315.27479678344724,0.0208672862499952,0.0157146416604518,0.991679310798645,0.1260546594858169,0.1138247175019521,0.0764071035194839,3.0598999122034107,0.111245758831501,0.0082311490550637,0.1184593364596366,0.3699674772843719,0.3178493072837591,-9.757092638611796,14980.0
41.5,3.5999999046325684,64.0,22.37790298461914,29.548791885375977,-79.7828056287468,40.459012431216784,315.59699374389646,0.0195769742131233,0.0158160924911499,0.991652011871338,0.1264633536338806,0.1059697035413978,0.0762843528565156,3.0847182564291256,0.1012054532766342,0.0452714897692203,0.0613693483173847,0.3639100907742977,0.2730086184293032,-9.824054367542267,14980.0
41.7,3.5999999046325684,64.0,22.50436019897461,26.28856468200684,-79.78280559454413,40.45901246166203,315.9056218261718,0.0198804941028356,0.0161222945898771,0.9915849566459656,0.1269026547670364,0.090947186591873,0.0701643167893788,3.081931892280806,-0.0053879595361649,0.0167642682790756,0.0724647492170333,0.2024458269216121,0.1087614636495709,-9.745331549048425,14980.0
41.9,3.5999999046325684,65.0,22.376649856567383,30.510955810546875,-79.78280543489736,40.459012409072926,316.52922183227537,0.0206469669938087,0.0127969207242131,0.9916256666183472,0.1268407702445984,0.0936081101605376,0.0759464272040436,3.0340641561067034,0.0369126200675964,-0.053378265351057,-0.0450585670769214,0.3777086426317692,0.4619684819877148,-9.520572180747989,14981.0
42.01,3.5,66.0,22.37790298461914,29.31818962097168,-79.78280540058613,40.45901243080723,316.83192568969724,0.0191417410969734,0.0110702980309724,0.9917805790901184,0.1260254979133606,0.1013140128338146,0.0627900415529465,3.019788052379995,0.1011526808142662,0.0444742366671562,0.0553158111870288,0.3037532600574195,0.1872014961764216,-9.657680032253266,14981.0
42.1,3.5,66.0,22.380407333374023,30.145174026489247,-79.78280517220831,40.45901241007535,317.4547780151367,0.0186428353190422,0.0115612894296646,0.9920107126235962,0.124232031404972,0.0595112293867189,0.0549292366641045,3.0693318945829247,-0.0825341120362281,-0.002961421618238,-0.1181105077266693,0.3083544888719916,0.4565801265835762,-9.937755814790728,14982.0
42.31,3.5,65.0,22.48432731628418,27.529041290283203,-79.78280504059533,40.45901237318432,318.0809643859863,0.0175462383776903,0.0134809985756874,0.9921582341194152,0.1230140328407287,0.070768798468439,0.0837775118535874,3.118902242606828,-0.0174550451338291,0.016384232789278,-0.0583154559135437,0.3141484217718244,0.5280084704607726,-9.90219538807869,14983.0
42.4,3.5,66.0,22.34284400939941,29.80324935913086,-79.78280500598756,40.459012376993215,318.39259463500974,0.0165441185235977,0.0137661444023251,0.9921916127204896,0.1228524297475814,0.0807203330616922,0.084456438175508,3.1111765060658727,0.1271513253450393,0.0567762330174446,0.1217387467622757,0.3376409628242254,0.2815835236385465,-9.796138590574264,14983.0
42.6,3.5,65.0,22.5494327545166,26.209047317504893,-79.78280485666804,40.45901239279113,318.70117694091795,0.0162291973829269,0.0134952757507562,0.9922558069229126,0.122405394911766,0.0796905896386505,0.0755059114151065,3.1030726607973445,0.0855584517121315,-0.0229918956756591,0.0369017571210861,0.3425223280861973,0.1821240299195052,-9.83200424194336,14983.0
42.8,3.5,65.0,22.508115768432614,26.209047317504893,-79.78280481047689,40.45901242258232,319.32062655639646,0.0159128550440073,0.0128363110125064,0.9923338890075684,0.1218834444880485,0.0770660606783258,0.0715350710076371,3.08480233868759,-0.0544946119189262,-0.0688263699412345,-0.1432864218950271,0.2510272902622819,0.4228966560959816,-9.741936070919037,14984.0
42.9,3.5,64.0,22.326568603515625,30.08156013488769,-79.78280470488862,40.45901241495323,319.63006335449217,0.0157622769474983,0.0139571502804756,0.992292046546936,0.122120089828968,0.0816726548107022,0.0658578665591651,3.0796428640085365,-0.0062228576280176,0.0092027243226766,0.0400468744337558,0.2991085060313344,0.4290274982526899,-9.762510668635366,14984.0
43.0,3.5,64.0,22.329072952270508,30.08951187133789,-79.78280458968395,40.45901237735393,320.252404510498,0.0163032617419958,0.0145970620214939,0.9922276139259338,0.1224973946809768,0.1044583882018568,0.0868608762829025,3.081014392320022,0.0079615106806159,-0.0328428223729133,0.0417864806950092,0.3411971662938595,0.2524952154792845,-9.86574969291687,14985.0
43.21,3.5,64.0,22.33282852172852,30.717702865600582,-79.78280460291239,40.45901239518512,320.56121951293943,0.0166098102927207,0.0146901411935687,0.992160975933075,0.1229839101433754,0.0981323724447524,0.0874521821872311,3.0857301579715504,-0.145514577627182,-0.0158121306449174,-0.0442074835300445,0.2860613762028515,0.4662537967041135,-9.786879524588583,14985.0
43.4,3.400000095367432,64.0,22.545677185058597,25.66037368774414,-79.78280459508929,40.45901237241808,321.1835835571289,0.0171663537621498,0.0153660913929343,0.9920569062232972,0.123662106692791,0.1376445560772475,0.0938474120951564,3.083072243322324,0.108315072953701,0.0053254575468599,0.0539523586630821,0.3549558839946985,0.2345091253146529,-9.774805024266245,14986.0
43.5,3.400000095367432,63.0,22.511871337890625,27.370006561279297,-79.78280463317277,40.4590123910606,321.4919217224121,0.0175467375665903,0.0148722203448414,0.9920529127120972,0.1237013265490532,0.1324251834348612,0.0947753351691978,3.070716341166573,-0.0223826188594102,-0.0049882452003657,0.0342967994511127,0.3599330705031753,0.1887574037164449,-9.67320088148117,14986.0
43.6,3.400000095367432,64.0,22.46805000305176,28.29241180419922,-79.78280463353678,40.45901230612984,322.1118176574707,0.0182098187506198,0.01497657969594,0.9920664429664612,0.1234843805432319,0.1596632559001874,0.1011090425321502,3.023058824403112,0.1109377741813659,0.0749561116099357,0.0286265537142753,0.3456512828171253,0.2976251039654016,-9.583473603129386,14987.0
43.81,3.400000095367432,64.0,22.30904006958008,30.28035545349121,-79.7828046173193,40.45901228553241,322.7323125,0.0175309740006923,0.0136654367670416,0.9922053813934326,0.1226152256131172,0.1304758126952612,0.0981894555483932,3.043091209727621,-0.1107454672455787,-0.0765230804681778,-0.1102417930960655,0.2374730972014368,0.4981110721081495,-9.778116302490234,14987.0
43.9,3.400000095367432,63.0,22.46053695678711,27.179162979125977,-79.78280466988873,40.45901229772592,323.0377286071777,0.0185159798711538,0.0135387293994426,0.9922173023223876,0.1223881691694259,0.1466394610918402,0.0937632722406515,3.0540261198061422,0.0511965155601501,0.0375353619456291,0.0878393203020095,0.3478358025848865,0.3397914956510067,-9.871113928556444,14988.0
44.1,3.400000095367432,62.0,22.402942657470703,28.65024185180664,-79.78280466157305,40.45901225724472,323.3498814697265,0.0198901407420635,0.013302850537002,0.9922015070915222,0.1223262101411819,0.1633022890587595,0.1033562220996465,3.0621111526755374,0.0825215801596641,0.0280935820192098,0.0063236868008971,0.4157294315099717,0.179732427354902,-9.83259714961052,14988.0
44.3,3.400000095367432,61.0,22.431739807128903,27.59265518188477,-79.78280477479323,40.45901226570687,323.9643300170898,0.0208999626338481,0.0147448815405368,0.992168664932251,0.1222583651542663,0.1542659365342671,0.1036654771146487,3.061077801143398,-0.057559035718441,0.0074258409440517,-0.064403511583805,0.3350836830586195,0.4936149652674794,-9.723186973929408,14988.0
44.4,3.299999952316284,61.0,22.37790298461914,29.342044830322266,-79.78280471578228,40.45901225939421,324.27605944824217,0.0210257340222597,0.0156610962003469,0.9921613335609436,0.1221822574734687,0.1674853648968841,0.1052503877422783,3.049845669232324,0.1007320433855056,0.0201819222420454,0.1183044910430908,0.3535674260929227,0.2149892191216349,-9.698307071328164,14989.0
44.5,3.299999952316284,61.0,22.26146125793457,32.761306762695305,-79.78280461553403,40.45901229822539,324.8899930114746,0.0204077176749706,0.0162009187042713,0.9922332167625428,0.1216321662068367,0.1261773092888143,0.0971357623075661,3.058029442528991,-0.0771590173244476,-0.0656535550951957,-0.1753966063261032,0.3005027380585671,0.4601036221906543,-9.906562088727954,14989.0
44.72,3.299999952316284,59.0,22.34159278869629,29.64421272277832,-79.78280463221742,40.45901231443553,325.19778186035154,0.020572567358613,0.0163504965603351,0.9922533631324768,0.1214195191860199,0.1236705647468552,0.1014388400593836,3.08015921721045,-0.0335020683705806,-0.0201470889151096,-0.0224633608013391,0.3167597517371178,0.4592941848188639,-9.886419600248336,14990.0
44.81,3.299999952316284,60.0,22.35787010192871,27.94253349304199,-79.78280439315785,40.459012393521135,325.8053448791504,0.0207093991339206,0.0147141255438327,0.9923929572105408,0.1204611510038376,0.1131672872113473,0.0664313430275487,3.0623087301781227,-0.020392570644617,-0.0422728583216667,-0.0032805227674543,0.2992635120637715,0.2380515512824059,-9.911735705137254,14990.0
45.0,3.299999952316284,59.0,22.421724319458008,28.61843490600586,-79.7828043751298,40.45901243156944,326.11169940185545,0.0202420409768819,0.0136388018727302,0.992457628250122,0.1201342046260833,0.102049860777088,0.0575793887449148,3.0589810559258983,-0.0524630695581436,0.0179887618869543,-0.0245341509580612,0.3552278526127339,0.3675274707376957,-9.812162300348284,14991.0
45.2,3.299999952316284,59.0,22.39668273925781,28.006147384643555,-79.78280424070452,40.45901243948463,326.7170155639648,0.0176574122160673,0.0130633367225527,0.99247944355011,0.1204246580600738,0.1099939311889418,0.057298942075607,3.0139589280848824,0.131311684846878,0.1099793761968612,0.0535558797419071,0.3282319157570601,0.3020946242474019,-9.667265372872354,14991.0
45.3,3.299999952316284,57.0,22.451772689819336,28.316267013549805,-79.78280422513636,40.45901246666256,327.01891452026365,0.0176297947764396,0.0132108982652425,0.9924240112304688,0.1208690553903579,0.0900977581871371,0.0610138067679467,3.0183424153436667,-0.055157721042633,-0.0432691723108291,0.0325510054826736,0.3624808119982481,0.1972896242514252,-9.779614359140396,14992.0
45.5,3.400000095367432,57.0,22.39042282104492,28.363977432250977,-79.78280418319845,40.4590124575324,327.623742401123,0.0199228506535291,0.0161089375615119,0.992283821105957,0.1213118880987167,0.1220596196299958,0.0725970294905167,2.9662378057560983,0.1004015058279037,0.0061879404820501,0.09775972366333,0.3633014687150717,0.1379871539678424,-9.534703731536863,14992.0
45.62,3.299999952316284,56.0,22.37289428710937,28.642290115356445,-79.78280407925246,40.45901241034695,328.226338684082,0.0179952066391706,0.0160525534301996,0.9923399090766908,0.1211613416671752,0.124728137959263,0.0927422687103021,2.9504127533186217,0.1244731023907661,0.0004068666021339,0.0812573432922363,0.4205762616544961,0.3218892947584391,-9.611521527171137,14993.0
45.81,3.299999952316284,56.0,22.352861404418945,29.89071846008301,-79.78280409318927,40.45901242861506,328.52146655273435,0.0179968550801277,0.0155076533555984,0.9923965334892272,0.1207672581076622,0.1175269523193051,0.0909016945865456,2.9508426285628366,0.0264839343726634,0.0628559589385986,-0.0092213321477174,0.3684594438225031,0.285079738330096,-9.757760390639303,14993.0
45.9,3.299999952316284,57.0,22.46805000305176,26.01820373535156,-79.78280406004103,40.45901234659709,328.8300335998535,0.0189067628234624,0.0147060574963688,0.9923837184906006,0.1208343431353569,0.1064568134038922,0.1004610511737757,2.9800136513982487,-0.1105632930994033,-0.0544962026178836,-0.0549630671739578,0.3400063077360392,0.3732469247281552,-9.89953724384308,14993.0
46.1,3.299999952316284,55.0,22.34284400939941,29.30228614807129,-79.78280421381933,40.45901225715453,329.4350178833008,0.0195067450404167,0.015472749248147,0.9923434853553772,0.1209735795855522,0.155189724431936,0.1233890758548037,2.987098454311911,0.1586199104785919,0.1032814681529998,0.0991944223642349,0.3976193986460567,0.1851636318862438,-9.777005331516266,14994.0
46.2,3.299999952316284,55.0,22.34159278869629,28.41168785095215,-79.78280425694766,40.459012241334094,329.7346432800293,0.0194646082818508,0.0169065557420253,0.9922884702682496,0.1212390288710594,0.1278173831586441,0.1344095516359967,2.994550446330828,-0.1099371910095214,-0.0724272429943084,-0.004952001851052,0.3717960477992893,0.2884090515598655,-9.854065786600112,14994.0
46.3,3.299999952316284,55.0,22.436748504638672,26.837236404418945,-79.7828042036618,40.459012198659366,330.3404286499023,0.0181174892932176,0.0167340151965618,0.9922664165496826,0.1216519474983215,0.131024400094975,0.1278122352363999,3.0071408534935284,0.1270690560340881,0.0181039925664663,0.122344858944416,0.3776103363186121,0.2363592757098377,-9.797183488011363,14995.0
46.52,3.299999952316284,55.0,22.405447006225582,27.05193519592285,-79.78280419286232,40.45901213868246,330.94390994262693,0.0179090034216642,0.0153345223516225,0.992372751235962,0.1209977716207504,0.1174849329066327,0.1172955149777348,2.9917933036845046,-0.0390557758510112,-0.0055338470265269,-0.0353572703897953,0.3825122033804656,0.4791885686293245,-9.708913335800167,14995.0
46.71,3.299999952316284,55.0,22.352861404418945,28.05385780334473,-79.7828042270042,40.459012136707685,331.2428525085449,0.0192321762442588,0.0151398871093988,0.99241304397583,0.1204875856637954,0.1324604460081675,0.1146675129276862,2.980005435748467,0.0523874871432781,0.041464302688837,0.067987821996212,0.3352369897440076,0.167767946049571,-9.707257989048962,14996.0
46.8,3.299999952316284,55.0,22.34409713745117,28.594579696655277,-79.78280425981687,40.45901213197983,331.5412343139648,0.0202123634517192,0.013922912068665,0.9924383163452148,0.1202663108706474,0.1190666965236419,0.1164910058797388,2.9808960939949034,-0.1110794320702552,-0.0263276640325784,-0.0561932735145092,0.3639231739193201,0.3118140671029687,-9.800924536585809,14996.0
47.01,3.299999952316284,55.0,22.49809837341309,27.03603172302246,-79.78280419366237,40.4590120470617,332.1446965332031,0.0234904624521732,0.01414230838418,0.9924314022064208,0.1197002828121185,0.1327517428146208,0.1082962948893471,2.958330426323186,0.0685668289661407,0.0988835394382476,-0.0097404727712273,0.3239130891859531,0.3738020447641611,-9.5545901119709,14997.0
47.1,3.299999952316284,54.0,22.38416290283203,28.20494270324707,-79.78280415981739,40.45901194725414,332.7419560546875,0.0223572347313165,0.018195703625679,0.992352306842804,0.1200249120593071,0.111488358789085,0.1248217123125956,2.9157957720673724,0.0434495545923709,0.0771524086594581,0.0396615006029605,0.3509735281392932,0.4512072663009167,-9.51663291156292,14997.0
47.3,3.299999952316284,55.0,22.34409713745117,31.186857223510746,-79.78280414751549,40.45901193287949,333.03287249755857,0.0215396657586097,0.0191493537276983,0.9923264980316162,0.120239071547985,0.1044571216910586,0.1262446962082431,2.8947664783263045,0.0475790053606033,0.0333834923803806,0.0684455335140228,0.3897281791269779,0.0730512020364403,-9.605159756541251,14998.0
47.4,3.299999952316284,56.0,22.33783721923828,29.18301010131836,-79.7828040052327,40.45901189253247,333.33550769042967,0.0219649076461792,0.0203132722526788,0.9922819137573242,0.1203396394848823,0.0653032835927893,0.1164807662761527,2.9054697237988134,-0.0815393924713134,0.0242632962763309,-0.0934116840362548,0.3576022241637111,0.4908089961111546,-9.634032137989998,14998.0
47.61,3.299999952316284,57.0,22.263965606689453,30.4711971282959,-79.78280384595313,40.4590117918073,333.9330418701172,0.0206461492925882,0.0179710071533918,0.9923921823501588,0.1200355142354965,0.0830777378872175,0.1099758674286883,2.9425938295313507,0.1322443336248397,-0.0646753534674644,0.0233426745980978,0.3692826952412725,0.1993665369786322,-9.92908205509186,14998.0
47.7,3.299999952316284,59.0,22.302780151367188,30.16903114318848,-79.7828037887457,40.45901180546538,334.22981768798826,0.0174007806926965,0.0158775262534618,0.992527425289154,0.1197271421551704,0.0732832670148721,0.0942775367074488,2.987126809079348,0.0877678021788597,-0.0359241478145122,0.0944020748138427,0.3007041380926967,0.1581660505011677,-10.14795853972435,14999.0
47.8,3.299999952316284,61.0,22.32030868530273,29.039878845214844,-79.78280352954606,40.4590118338006,334.8259175415039,0.0126166762784123,0.0137098291888833,0.992740035057068,0.118827998638153,0.0224610608673596,0.0568062563187913,3.035815021598823,-0.0763723030686378,-0.0635316595435142,-0.0331817641854286,0.3372499302774668,0.3130364640802145,-10.075359510183334,14999.0
