time,wind_speed,wind_angle,battery_voltage,battery_current,position_x,position_y,position_z,orientation_x,orientation_y,orientation_z,orientation_w,velocity_x,velocity_y,velocity_z,angular_x,angular_y,angular_z,linear_acceleration_x,linear_acceleration_y,linear_acceleration_z,node_ids
0.0,0.3000000119209289,0.0,24.672910690307607,-0.0079517737030982,-79.78278646846361,40.45902907522645,271.05672555828096,0.0029392507858574,-0.0168308392167091,0.99831622838974,0.0554325170814991,-0.0009569343805366,-0.0371867536861998,0.0024769310582157,-0.0029024688992649,-0.0007253641379065,-0.0086459396407008,-0.3671305909752846,0.0689610381424427,-9.804456254839897,14936.0
0.1,0.3000000119209289,354.0,24.680423736572266,-0.0238553211092948,-79.78278661893161,40.45902903276672,271.04573183918,0.0029366735834628,-0.0168528817594051,0.9983187913894652,0.0553811378777027,0.0030904747647892,-0.0319028483178591,0.001135837582324,0.0065199057571589,0.0025765700265765,0.0022690747864544,-0.3643955923989416,0.0521512889955192,-9.805644993782044,14936.0
0.3,0.3000000119209289,352.0,24.676668167114247,-0.0079517737030982,-79.7827867780556,40.45902901426994,271.0338101949692,0.0029208941850811,-0.0168907456099987,0.9983215928077698,0.0553203001618385,0.0046809321496289,-0.0286610065785028,0.0003766418193395,0.0022407965734601,0.0005580260185524,-0.0014091524062678,-0.367339263483882,0.0656729569192975,-9.804419417381286,14936.0
0.41,0.3000000119209289,351.0,24.67040634155273,-0.0159035474061965,-79.78278677859106,40.45902904190225,271.03396826648714,0.0029257824644446,-0.0168745033442974,0.998323142528534,0.055295530706644,0.0033830323782443,-0.0323944334249676,0.0006129731429488,0.0019981779623776,0.0008110175840556,0.0051423590630292,-0.3655420486629009,0.0503198085771873,-9.803955733180048,14936.0
0.6,0.3000000119209289,352.0,24.672910690307607,0.0,-79.78278695296858,40.45902899757858,271.02069002056123,0.0029164508450776,-0.01691235601902,0.9983240962028505,0.055267360061407,0.0049839848064098,-0.0247297577380294,1.7862803297262922e-05,0.0028373932000249,0.0006601284840144,0.0046577816829085,-0.3656553384661675,0.060106165506877,-9.805941447615623,14936.0
0.71,0.2000000029802322,348.0,24.676668167114247,0.0,-79.782786954143,40.45902902167037,271.02080613040926,0.0029116307850927,-0.0169122833758592,0.9983275532722472,0.055205013602972,0.0034983763032677,-0.0283942271173706,0.0004308353805898,0.0009504240006208,0.0009197848848998,-0.0004612752236425,-0.3638991272449494,0.0527862189570441,-9.806304559707645,14936.0
0.91,0.2000000029802322,352.0,24.67040634155273,-0.0397588685154914,-79.78278711361695,40.45902899859254,271.0069922771454,0.0028995580505579,-0.0169467311352491,0.9983310699462892,0.0551321282982826,0.0036430260422453,-0.0266920036959186,0.0001725020658238,0.0046399645507335,0.0043313782662153,-0.0001950905570993,-0.3665747765824199,0.0610805126326158,-9.805299423336985,14936.0
1.01,0.2000000029802322,7.0,24.677919387817383,-0.0159035474061965,-79.78278711384587,40.45902902268404,271.00713330173494,0.0029028730932623,-0.0169480759650468,0.998333215713501,0.0550925098359584,0.0021222491272757,-0.0299248656126545,0.0006586825833233,0.0006979572935961,0.001112618483603,0.0014587658224627,-0.3664380248263479,0.0524082832597196,-9.805719253420827,14936.0
1.2,0.2000000029802322,5.0,24.677919387817383,-0.0159035474061965,-79.782787278163,40.459028997082335,270.9921236600876,0.0028968921396881,-0.0169541258364915,0.9983362555503844,0.0550357103347778,0.0030761904681955,-0.0270889036198312,0.0002653599048914,0.0090000201016664,0.0039119012653827,0.0014497060328722,-0.3667027209699154,0.0569290900183841,-9.805622774362565,14935.0
1.3,0.2000000029802322,11.0,24.6754150390625,-0.0079517737030982,-79.78278745475356,40.45902891238696,270.97592991256715,0.0028574799653142,-0.01702281832695,0.9983375072479248,0.0549944415688514,0.0053808258888769,-0.0114850934765428,-0.0001163109013923,-0.0007225371664389,-0.0005801522638648,-0.0016929195262491,-0.3665817566961049,0.0535163443302735,-9.805752582550053,14935.0
1.5,0.2000000029802322,16.0,24.680423736572266,-0.0159035474061965,-79.78278746136691,40.45902893910382,270.97607391738893,0.0028893474955111,-0.0170007273554801,0.9983421564102172,0.054915752261877,0.0033082096344774,-0.018522282505335,0.0004200156342202,0.0055765379220247,0.0018734289333224,0.0046066176146268,-0.3653463496640325,0.0525241266516968,-9.805447942614556,14935.0
1.61,0.1000000014901161,28.0,24.677919387817383,-0.0079517737030982,-79.78278761343554,40.45902891420634,270.96096771621706,0.0028945826925337,-0.0169944949448108,0.9983444809913636,0.0548738054931163,0.0010525540048196,-0.0193912834192963,0.0033273396956295,-0.0022715411614626,0.000452220061561,-0.0031110716518014,-0.3686798838526011,0.0577317437063902,-9.804813519716264,14935.0
1.8,0.2000000029802322,29.0,24.67416381835937,-0.0477106422185897,-79.78278775929279,40.45902892133008,270.9455305900574,0.0028896983712911,-0.0169958733022212,0.9983473420143129,0.0548210255801677,0.000494125843403,-0.0257660263991767,0.0049046796363427,0.0063463118858635,0.0022353986278176,0.0027226200327277,-0.3653172597661615,0.0514492074167356,-9.805927414298056,14935.0
1.91,0.2000000029802322,32.0,24.677919387817383,-0.0159035474061965,-79.78278775498299,40.45902894571573,270.94613235855104,0.0028724542353302,-0.0169733148068189,0.9983501434326172,0.0547795072197914,-0.0017721437343702,-0.0292252267451903,0.005339915536104,-0.0054946155287325,-0.0001547615538584,-0.0068163042888045,-0.370201256275177,0.0635077466676011,-9.804621146321296,14935.0
2.1,0.2000000029802322,31.0,24.67040634155273,-0.0238553211092948,-79.78278792015321,40.45902892740602,270.928641494751,0.0028675775974988,-0.0169967021793127,0.998354196548462,0.0546978376805782,0.0015709395829131,-0.0246719985032872,0.0030933922055824,0.0019163538236171,-0.0005055202054791,0.004741181153804,-0.3638986887037754,0.0517900955211371,-9.805077229142189,14935.0
2.2,0.2000000029802322,39.0,24.67165946960449,0.0,-79.7827879174709,40.45902895102303,270.9290500249863,0.0028853886760771,-0.0169842839241027,0.9983553886413574,0.0546792186796665,-0.0005605206897823,-0.0281048538807584,0.003352475699816,-0.0044220215640962,-0.004059356637299,-0.0050466284155845,-0.3687514756992459,0.0659769436111673,-9.803503743410111,14935.0
2.4,0.2000000029802322,37.0,24.677919387817383,-0.0159035474061965,-79.78278807228088,40.459028917177626,270.9122164812088,0.0028730458579957,-0.01701645180583,0.9983596205711364,0.0545926950871944,-0.0016846723637945,-0.0234380236260527,0.0046867395969088,-0.0006089406087994,0.0018269969150424,0.0012522340985015,-0.3665975076332689,0.0536975029483437,-9.803766283392909,14935.0
2.5,0.3000000119209289,38.0,24.67040634155273,-0.0079517737030982,-79.78278806716222,40.45902893821949,270.9127799835205,0.0028488866519182,-0.0170323960483074,0.9983614087104796,0.0545560605823993,-0.0033294578767106,-0.0266995210560588,0.0050078212013192,-0.0015327535802498,-0.0004001529014203,-0.0079836817458271,-0.3689574073255063,0.0703415931668132,-9.802720801234246,14935.0
2.7,0.3000000119209289,37.0,24.68167495727539,0.0079517737030982,-79.78278826097166,40.45902892459201,270.8927321996689,0.002844596048817,-0.0170354060828685,0.9983650445938108,0.0544881857931613,0.0010923677422399,-0.0267977157315077,0.0021542112949485,-0.002639319980517,-0.0037925401702523,-0.0007721379515714,-0.3666002119705081,0.0556785989971831,-9.805493550896648,14935.0
2.8,0.3000000119209289,42.0,24.6754150390625,-0.0079517737030982,-79.7827884147739,40.45902889650613,270.8731231060028,0.002826286945492,-0.0170650798827409,0.998365581035614,0.0544697530567646,0.0007900255021254,-0.0250882123635948,0.0007023279538171,-0.0002985588216688,0.001013757311739,-0.0032450787257403,-0.3675163975730539,0.0695379801699891,-9.803778562545777,14935.0
3.0,0.3000000119209289,43.0,24.680423736572266,-0.0079517737030982,-79.78278840763984,40.459028946011216,270.8735079135895,0.0028474815189838,-0.0170595049858093,0.9983694553375244,0.0544006191194057,-0.0019221415216597,-0.0317198598661673,0.0011991393226423,-0.0074292542412877,-0.0009160041809082,-0.008648688904941,-0.3707284193113447,0.0651855366770178,-9.802705598473551,14935.0
3.11,0.3000000119209289,41.0,24.677919387817383,-0.0079517737030982,-79.78278859182299,40.45902891460006,270.85290568733217,0.002840761328116,-0.0170728079974651,0.9983701705932616,0.0543836392462253,0.0028100869953216,-0.0280877084641982,-0.0002897161081451,0.0043358481489121,0.0041121207177639,0.0033458040561527,-0.367277027182281,0.0626666566729545,-9.804558581113817,14935.0
3.3,0.3000000119209289,39.0,24.67416381835937,-0.0159035474061965,-79.78278879898738,40.459028907302425,270.831438955307,0.0028030346147716,-0.0170883443206548,0.9983745217323304,0.0543000809848308,0.0075158987521404,-0.0265666067967496,-0.0014160905617408,0.0025424330960959,-0.0015805673319846,-0.0073741190135478,-0.3683106321841478,0.0700315719656646,-9.803778562545777,14935.0
3.4,0.2000000029802322,44.0,24.677919387817383,-0.0159035474061965,-79.78278880389908,40.45902893337811,270.8314095106125,0.0028054814320057,-0.0170776769518852,0.9983763098716736,0.0542709752917289,0.0072471548233861,-0.0300954515666429,-0.0012154009561515,0.0079133482649922,0.0030467805918306,0.0059073911979794,-0.3662611100077629,0.0528412010567262,-9.805708728432656,14935.0
3.6,0.2000000029802322,47.0,24.676668167114247,-0.0159035474061965,-79.78278891596369,40.45902888749913,270.8088048067093,0.002810034668073,-0.0171307194977998,0.9983783960342408,0.0542151406407356,-0.0055682857763611,-0.023265335742494,-0.0018281260305272,0.0005526347085833,-0.001299881725572,0.0022449749521911,-0.3669923774152993,0.0656070569716394,-9.803922404050828,14935.0
3.7,0.2000000029802322,52.0,24.67917060852051,0.0,-79.7827889054966,40.45902890918138,270.80871981048585,0.0028003053739666,-0.0171343795955181,0.9983800053596495,0.0541843362152576,-0.0065602351982003,-0.0264489011806084,-0.0015366570520537,0.0035965275019407,-0.0027991444803774,0.0047594495117664,-0.364943403415382,0.0511387019930407,-9.80539356350899,14935.0
3.9,0.1000000014901161,56.0,24.66915512084961,-0.0079517737030982,-79.78278907411018,40.459028910559,270.78532236480714,0.0027683705557137,-0.0171504784375429,0.9983832240104676,0.05412308126688,-0.003706122295124,-0.0288453712918052,-0.0040718433351947,0.0050315661355853,0.0015780456596985,0.0038697933778166,-0.3670433578267694,0.0566534531861543,-9.806766489744184,14935.0
4.0,0.1000000014901161,54.0,24.672910690307607,-0.0079517737030982,-79.78278906543082,40.45902893585744,270.785037812233,0.0027533650863915,-0.0171793550252914,0.9983844757080078,0.0540907196700573,-0.0053666118940301,-0.0316147481510821,-0.0037140104341557,-0.0028457094449549,-0.0015866184839978,0.002670784946531,-0.3670480721443892,0.0541646178206428,-9.805521617531776,14935.0
4.2,0.1000000014901161,51.0,24.67917060852051,0.0159035474061965,-79.78278925655269,40.45902894776162,270.7600783672333,0.0026928465813398,-0.0171815603971481,0.9983891844749452,0.0540049113333225,-0.0002264188473497,-0.0341522194956885,-0.0068822867228044,0.0051409667357802,0.0024486526381224,0.0043263980187475,-0.3658488813042641,0.0524293606448918,-9.80564791738987,14935.0
4.3,0.1000000014901161,27.0,24.680423736572266,-0.0079517737030982,-79.78278946095325,40.459028896275846,270.7347422208786,0.0026490506716072,-0.0172284059226512,0.9983910322189332,0.0539584793150424,0.0032421197457656,-0.0253898546881356,-0.0096109715465791,-0.0050143892876803,-0.0021686642430722,-0.00620430521667,-0.3694538359344005,0.0617853990476578,-9.804448068737983,14935.0
4.5,0.1000000014901161,4.0,24.67917060852051,-0.0079517737030982,-79.78278946107096,40.459028947356096,270.733066734314,0.0026249014772474,-0.0172230321913957,0.9983948469161988,0.0538924485445022,0.00215676536956,-0.0315201584962998,-0.0091133980237723,0.0042340466752648,-0.0026301159523427,0.0035410022828727,-0.3646632486954332,0.0502978084282949,-9.805567225813864,14935.0
4.61,0.1000000014901161,353.0,24.67165946960449,-0.0079517737030982,-79.78278967662938,40.45902890442265,270.7085702981949,0.0025920628104358,-0.0172370597720146,0.9983972311019896,0.0538438372313976,0.0058846748110801,-0.0265259143681228,-0.0082316123628847,-0.0070415274240076,0.0016377572901546,-0.0092346835881471,-0.3697808780148625,0.0688567247288301,-9.80451998949051,14935.0
4.8,0.1000000014901161,342.0,24.67165946960449,-0.0079517737030982,-79.78278986893078,40.45902888878203,270.6844983663559,0.0025948612019419,-0.0172606445848941,0.9984015226364136,0.0537573881447315,0.0076352808398725,-0.0228309030689913,-0.0071106603737495,-0.0056476858444511,-0.002157584298402,-0.0024207725655287,-0.3663243695721029,0.0537865039659664,-9.805526880025864,14935.0
4.9,0.1000000014901161,300.0,24.677919387817383,-0.0159035474061965,-79.78278987449109,40.459028911580745,270.68388646507265,0.0025953520089387,-0.0172673743218183,0.998403787612915,0.0537127219140529,0.0066695626449306,-0.0259124773948814,-0.0068880307924043,-0.0029008246492594,0.0006461951998062,-0.0067144818603992,-0.3690596970543265,0.0701095226593315,-9.80372301399708,14935.0
5.1,0.1000000014901161,286.0,24.676668167114247,-0.0238553211092948,-79.78279004870012,40.459028910360665,270.6579872932434,0.0025809535291045,-0.0172902811318635,0.9984065294265748,0.0536547005176544,0.005096715408249,-0.0258123377773723,-0.0092111345851901,-0.0030183214694261,-0.0026548563037067,-0.0033840823452919,-0.3683218880742789,0.0591368250595405,-9.805685339570044,14935.0
5.2,0.1000000014901161,274.0,24.677919387817383,-0.0079517737030982,-79.78279005137013,40.459028935678965,270.6571709480286,0.0025909922551363,-0.0172860249876976,0.9984076619148254,0.053635086864233,0.0048458898237654,-0.0289151182796209,-0.0089417627299776,0.003173106117174,0.0035780596081167,-0.0023478961084038,-0.3676393718272448,0.0674526209570467,-9.805606402158736,14935.0
5.4,0.1000000014901161,281.0,24.68668365478516,0.0397588685154914,-79.78279025297945,40.459028929153206,270.6325014200211,0.0025843624025583,-0.017299335449934,0.998410940170288,0.0535697825253009,0.0071036842677221,-0.027265310250331,-0.0078585945014053,-0.0035449340939521,-0.0064990022219717,-0.0076323957182466,-0.3685627568140626,0.065531477141194,-9.804800655841827,14935.0
5.51,0.1000000014901161,283.0,24.67917060852051,-0.0079517737030982,-79.78279025874531,40.459028954856365,270.6318348016739,0.0025690456386655,-0.0173128154128789,0.998412013053894,0.0535457506775856,0.0073357199659317,-0.0302212262669708,-0.0075931838782504,0.0074792825616896,0.005607790313661,0.0027851574122905,-0.366150670722127,0.0607644340815022,-9.807135449051858,14935.0
5.7,0.2000000029802322,284.0,24.680423736572266,0.0,-79.7827904984167,40.45902891586685,270.6072975959778,0.0025548376142978,-0.0173321608453989,0.9984158277511596,0.0534697137773036,0.0120803690763705,-0.0231800877278277,-0.0062030331658535,-0.0040225088596343,-0.0018060579895973,-0.0080765383318066,-0.3695855079218745,0.0672639980027452,-9.804938065409662,14935.0
5.81,0.2000000029802322,286.0,24.66915512084961,-0.0159035474061965,-79.78279067629359,40.45902888291757,270.5838677253724,0.0025404877960681,-0.0173475258052349,0.9984174370765686,0.0534354373812675,0.0127936897956094,-0.0185739963585058,-0.0056120372880628,0.0040052877739071,0.0035312657710164,0.0041757454164326,-0.3660222512483597,0.056721801655367,-9.80698634505272,14935.0
6.0,0.2000000029802322,287.0,24.672910690307607,0.0318070948123931,-79.78279069910897,40.459028922338646,270.582968410492,0.0025418994482606,-0.0173246469348669,0.9984220862388612,0.0533552914857864,0.0107618410138986,-0.0238105764520235,-0.0050931301007921,-0.0046078437007963,-0.0025419166777282,-0.0137441987171769,-0.3676269830390811,0.0702772966353222,-9.803783825039863,14935.0
6.11,0.2000000029802322,284.0,24.67416381835937,0.055662415921688,-79.7827908553964,40.4590288881889,270.55927067661287,0.0025507539976388,-0.0173347983509302,0.9984235763549804,0.0533247180283069,0.0086948052714182,-0.0190286254699921,-0.0048059512775865,0.0052546709775924,0.0019085687818005,0.0071914438158273,-0.3668753600120545,0.0535839664656668,-9.807038385272024,14935.0
6.3,0.2000000029802322,279.0,24.667903900146484,0.1113248318433761,-79.78279104574493,40.45902888059765,270.53491836452486,0.0025448645465075,-0.0173552837222814,0.9984264969825744,0.0532618798315525,0.0089735982656241,-0.0169657122039639,-0.0046702936850035,-0.0026504755951464,-0.0006450155633501,-0.0051697678864002,-0.3686993623897433,0.0697477581677958,-9.80465915322304,14935.0
6.4,0.2000000029802322,275.0,24.6754150390625,0.0159035474061965,-79.78279105382626,40.45902889802061,270.5345368947983,0.0025581584777683,-0.0173354148864746,0.9984289407730104,0.0532231964170932,0.0090000046267105,-0.0198544576478437,-0.004403223501849,0.0054703904315829,0.0033439469989389,0.0039171604439616,-0.3656462752819061,0.0529650478251278,-9.806711525917054,14935.0
6.6,0.2000000029802322,275.0,24.66665077209473,0.0874695107340812,-79.78279125070873,40.45902892427639,270.510024723053,0.0025290332268923,-0.0173118207603693,0.9984333515167236,0.0531492233276367,0.010409950989635,-0.0243539133285075,-0.0045858843512596,-0.000748781429138,0.004773614462465,-0.0005358077469281,-0.3665130519121885,0.0661330368602648,-9.805090093016624,14935.0
6.7,0.2000000029802322,272.0,24.67165946960449,0.1192766055464744,-79.7827912593424,40.459028948451646,270.5096763935089,0.002525953343138,-0.0173129756003618,0.9984356164932252,0.05310695245862,0.010188302696526,-0.0272879348581375,-0.0043193135917097,0.0018456536345183,0.0023325288202613,0.0049410900101065,-0.3651368366181851,0.0542732938053086,-9.80649810254574,14935.0
6.9,0.2000000029802322,276.0,24.657886505126957,0.0238553211092948,-79.78279144025403,40.4590289636379,270.4860669937134,0.0025310537312179,-0.017325347289443,0.9984382390975952,0.0530517660081386,0.0103497428493869,-0.027714639773152,-0.0041683666240307,0.0064519392326474,0.0008219074807129,0.0031990157440304,-0.3669897461682558,0.0609615354984998,-9.806598089933397,14935.0
7.0,0.1000000014901161,272.0,24.67165946960449,0.0636141896247863,-79.78279144848153,40.45902898935636,270.485771235466,0.0025308735202997,-0.0173420943319797,0.9984399080276488,0.053014937788248,0.0095039083536431,-0.0302087142826938,-0.0038709723411129,0.0001864573423517,-0.0034763857256621,0.0031181680969893,-0.3672427478805185,0.0539648212026804,-9.806770582795144,14935.0
7.2,0.1000000014901161,275.0,24.64536666870117,-0.0397588685154914,-79.78279166595524,40.45902892825357,270.462754067421,0.0025181155651807,-0.0173923131078481,0.998441219329834,0.0529757551848888,0.0140828639063434,-0.0159626443718442,-0.0025691035753849,0.006716021336615,0.0017856971826404,0.0055888183414936,-0.3664795766025782,0.05479631354101,-9.806232054233552,14935.0
7.31,0.1000000014901161,276.0,24.667903900146484,0.055662415921688,-79.78279185094618,40.45902893963871,270.4392877187729,0.0024848184548318,-0.0173898730427026,0.9984419345855712,0.0529639013111591,0.0164335723937558,-0.018837581624117,-0.0031162412085359,-0.0009114632266573,0.0020878403447568,-0.0018269388237968,-0.3668949481844902,0.0559321488859132,-9.806800988316535,14935.0
7.5,0.1000000014901161,276.0,24.67416381835937,0.0636141896247863,-79.78279188408669,40.459028980813954,270.43887895011903,0.0024785872083157,-0.0173745043575763,0.9984449744224548,0.0529116727411747,0.0163572568388214,-0.0242842135157392,-0.0026637068205536,0.0068445336073637,0.0033025064039975,0.0054125851020216,-0.365576437599957,0.0538558665616437,-9.80689278960228,14935.0
7.6,0.1000000014901161,271.0,24.66665077209473,0.055662415921688,-79.78279203059641,40.45902897441997,270.41320508384706,0.0024700621142983,-0.0173712763935327,0.998447597026825,0.0528641939163208,0.0114848565804985,-0.0224300573115431,-0.0064681573826805,-0.0065544797107577,-0.0040543475188314,-0.0020605251193046,-0.3673714597150684,0.0592373103741556,-9.805232765078545,14935.0
7.8,0.1000000014901161,267.0,24.67165946960449,0.055662415921688,-79.78279220155677,40.459028998344,270.38949602508546,0.0024503781460225,-0.0173900630325078,0.9984495639801024,0.0528223030269146,0.0124882178158696,-0.0238640469953528,-0.0058499775451025,0.0035553504712879,0.001237898832187,0.0045609306544065,-0.3648699843138457,0.0532199544506147,-9.807231343388557,14935.0
7.9,0.1000000014901161,259.0,24.66665077209473,0.0397588685154914,-79.78279221230494,40.459029022110784,270.3890253868103,0.0024521939922124,-0.017378544434905,0.99845153093338,0.0527875572443008,0.0111639219621455,-0.0263519715104404,-0.0054960798720728,-0.005271344911307,-0.0038933861069381,-0.0082956366240978,-0.3681027636677026,0.063091973089613,-9.805406427383422,14935.0
8.11,0.1000000014901161,257.0,24.67416381835937,0.0079517737030982,-79.78279240429713,40.45902904664084,270.36373144054414,0.0024470484349876,-0.0173769537359476,0.9984548687934875,0.0527252964675426,0.0149825489412118,-0.0260876233178914,-0.0081481713727592,0.0025384342297911,0.0008146074251271,0.0039996658451855,-0.3650204404816032,0.0527106117177754,-9.806224452853202,14935.0
8.2,0.1000000014901161,255.0,24.67040634155273,0.0795177370309829,-79.7827924179293,40.45902907282307,270.363033946991,0.0024699778296053,-0.0173662267625331,0.9984563589096068,0.0526999980211257,0.0137855029072618,-0.0287305637826157,-0.0078369748482972,-0.0029662500601261,-0.0009388105827383,-0.0087035540491342,-0.369881230853498,0.0650425859587267,-9.805675399303436,14935.0
8.4,0.1000000014901161,249.0,24.672910690307607,0.0795177370309829,-79.78279259694496,40.45902909090439,270.3383105363846,0.0024921116419136,-0.0173798408359289,0.9984590411186218,0.0526432059705257,0.0137377490808871,-0.0276627337387663,-0.0071136665692172,-0.0017205791082233,-0.0010966055560857,0.0019325006287544,-0.3653282963857055,0.0534525457257404,-9.80566019654274,14935.0
8.51,0.2000000029802322,233.0,24.672910690307607,0.0636141896247863,-79.78279261009506,40.45902911692344,270.3377159204483,0.002464585006237,-0.0173837374895811,0.998459815979004,0.0526284947991371,0.0128979158677267,-0.0301495975830256,-0.0068650873835121,-0.0061540035530924,0.000878669321537,-0.0089194811880588,-0.3686312423273921,0.0706703117536381,-9.80420307040215,14935.0
8.7,0.2000000029802322,226.0,24.672910690307607,0.0954212844371795,-79.78279279424976,40.45902909991701,270.3126506175995,0.0024739606305956,-0.0174326933920383,0.998462736606598,0.0525567270815372,0.0123460629063879,-0.02358917232614,-0.0058001162500205,-0.0010760700097307,-0.0004837498127017,-0.0016182018443942,-0.3661336407065392,0.0552534881466999,-9.806516228914262,14935.0
8.8,0.2000000029802322,217.0,24.66915512084961,0.1272283792495727,-79.782792939581,40.45902908989526,270.28828602695467,0.0024566377978771,-0.0174597930163145,0.9984639883041382,0.0525256618857383,0.009959051745982,-0.0203719420327481,-0.0056453608023557,0.0010687414323911,0.0002791557053569,-0.0092365937307477,-0.3679382741823793,0.0711356998700648,-9.80410893023014,14935.0
9.0,0.2000000029802322,211.0,24.67416381835937,0.0795177370309829,-79.78279295691512,40.45902913182843,270.2873727645874,0.0024478193372488,-0.0174617171287536,0.9984684586524964,0.0524396896362304,0.008851849835791,-0.0252338793494648,-0.0051091113166948,-0.007018085103482,0.0024468628689646,-0.0035251807421445,-0.3661369663104415,0.0538596398429945,-9.80633671939373,14935.0
9.1,0.2000000029802322,203.0,24.672910690307607,0.0477106422185897,-79.78279312224241,40.45902914907131,270.2621846761704,0.0024214782752096,-0.0174659434705972,0.9984694123268129,0.0524215698242187,0.0107525708001772,-0.0263728018700611,-0.0053250141080377,0.0013717560796067,3.6926901429978898e-06,-0.0020819942001253,-0.3689038687571883,0.0679919032612815,-9.805309363603593,14935.0
9.3,0.2000000029802322,200.0,24.677919387817383,0.0,-79.78279330174367,40.45902916999026,270.23585778141023,0.0023982047569006,-0.0174661595374345,0.9984728097915648,0.0523575544357299,0.0112454727300179,-0.0242569777953979,-0.0051595916379414,-0.0037027671933174,-0.0003241395461373,-0.0048858141526579,-0.3675770624354482,0.0606060978770256,-9.805268433094025,14935.0
9.41,0.2000000029802322,196.0,24.66915512084961,0.0,-79.78279331211591,40.45902919409385,270.23544364833833,0.0024049275089055,-0.0174748674035072,0.9984743595123292,0.0523245073854923,0.0115367032174094,-0.0268932427431423,-0.0049636634779106,0.0030296402983367,-0.0011095391819253,0.001258389907889,-0.3665916238725185,0.0645754482457414,-9.806543126106265,14935.0
9.6,0.2000000029802322,194.0,24.66665077209473,-0.0318070948123931,-79.78279346004513,40.45902917394866,270.2088864412308,0.0024122283793985,-0.0175197292119264,0.9984777569770812,0.0522437058389186,0.0060659861671453,-0.01863109420869,-0.0039832470625865,-0.007715499959886,-0.0016869233222678,-0.0066854394972324,-0.3690994581207633,0.0631325061712414,-9.804605358839035,14935.0
9.7,0.3000000119209289,192.0,24.677919387817383,0.0,-79.78279346513214,40.45902919252864,270.2085656490326,0.0024202752392739,-0.0175337623804807,0.998478889465332,0.0522181019186973,0.0063370859733464,-0.0212036495970818,-0.0038936493380717,0.0040056742727756,-0.0002599394938442,-0.0016575190238654,-0.3678062001988292,0.0665593902440741,-9.80491876959801,14935.0
9.9,0.3000000119209289,189.0,24.67416381835937,-0.0159035474061965,-79.78279363384799,40.45902923636304,270.18202572727205,0.0023899623192846,-0.0175391715019941,0.9984830021858216,0.052138302475214,0.0072756609867725,-0.0252056541893332,-0.0040670526129296,-0.0028691787738353,-0.00190524244681,-0.0014839670620858,-0.3674391412362457,0.0611193555034697,-9.805930337905885,14935.0
10.0,0.3000000119209289,193.0,24.676668167114247,-0.0079517737030982,-79.78279364019008,40.45902925995268,270.1817205514908,0.0023879383224993,-0.017537759616971,0.9984837174415588,0.0521255619823932,0.0074868736530343,-0.0275576154720214,-0.0039124181672232,0.0020655805710703,0.002864857437089,0.0009444736060686,-0.3662307044863701,0.0657559828134253,-9.806098737716676,14935.0
10.2,0.3000000119209289,198.0,24.677919387817383,0.0159035474061965,-79.78279385907976,40.45902929196664,270.1545674171448,0.0023829413112252,-0.0175251122564077,0.9984877109527588,0.0520526394248008,0.0142751368948925,-0.0266228945650284,-0.0040775036683856,-0.003543539205566,0.0003369415935594,-0.0071729500778019,-0.3684428158029914,0.062590154078789,-9.8051696151495,14935.0
10.3,0.3000000119209289,206.0,24.6754150390625,0.0,-79.7827940259137,40.459029312273394,270.1269233789444,0.0023723242338746,-0.0175532605499029,0.9984891414642334,0.0520162247121334,0.0149244733125508,-0.0264938562178203,-0.0044630596269549,0.004895448219031,-6.084424239816144e-05,0.0015691022854298,-0.3679551580175758,0.0633865768276155,-9.806744270324709,14935.0
10.5,0.3000000119209289,211.0,24.67040634155273,0.0,-79.7827940535842,40.45902936555465,270.12629949712755,0.0023791468702256,-0.0175707247108221,0.9984946250915528,0.0519048832356929,0.0138752191832982,-0.0308092951537273,-0.003943796706034,-0.0041863918304443,-0.0021663021761924,-0.0082995351403951,-0.3681159199029208,0.0642137751169502,-9.805840290784836,14935.0
10.6,0.3000000119209289,216.0,24.6754150390625,0.0238553211092948,-79.78279422581085,40.4590293388488,270.0999328460693,0.0023672995157539,-0.017597384750843,0.99849534034729,0.0518830604851245,0.0139589847113034,-0.0218544020697702,-0.0004639637553884,0.0067673991434276,0.0012490975204855,-1.9633984265965413e-05,-0.3657931865751744,0.060174481999129,-9.806648375988008,14935.0
10.8,0.3000000119209289,223.0,24.672910690307607,0.0,-79.78279439954133,40.459029360361406,270.07117694282533,0.0023611935321241,-0.0176087822765111,0.9984981417655944,0.0518248714506626,0.0127309647386185,-0.0202047898335992,-0.001432976018275,-0.007327040657401,-0.0023979200050234,-0.005883858539164,-0.3699055698886513,0.0687199821090325,-9.804154538512226,14935.0
10.9,0.3000000119209289,234.0,24.67165946960449,-0.0079517737030982,-79.78279441229509,40.45902938076667,270.0711200799942,0.0023746604565531,-0.017593890428543,0.9984998106956482,0.0517980270087718,0.0133405253999449,-0.0226084338379895,-0.001389197252179,0.003492125775665,0.0003166425449308,0.0033723260276019,-0.3683755728229881,0.0588628555973991,-9.804800071120262,14935.0
11.1,0.3000000119209289,239.0,24.667903900146484,-0.0079517737030982,-79.78279458775918,40.45902940772104,270.04148351812364,0.0023599062114953,-0.0176138523966074,0.9985033869743348,0.051722414791584,0.0124486103679467,-0.0222482821576202,-0.0021590289593887,-0.0040849894285202,-0.001246697967872,-0.0074544008821249,-0.3697516784816981,0.0708676872588694,-9.804803579449654,14935.0
11.2,0.3000000119209289,253.0,24.67165946960449,0.0,-79.78279459983129,40.45902942997117,270.0413678851128,0.0023586044553667,-0.0176169574260711,0.9985041618347168,0.0517059490084648,0.0131243722987909,-0.0247121058771313,-0.0019861053561893,0.0053974017500877,0.0009943553013727,0.0076032723300158,-0.3664761413633824,0.055616179970093,-9.807426055669785,14935.0
11.4,0.3000000119209289,259.0,24.6754150390625,0.0238553211092948,-79.78279477898822,40.45902945021406,270.01315921211244,0.002333281096071,-0.0176300276070833,0.99850732088089,0.0516430735588073,0.0126480693737032,-0.023200221075513,0.0008358635275089,-0.0030448231846094,-0.0036518247798085,-0.0113043030723929,-0.3679315864294768,0.0702711068093776,-9.804410646557807,14935.0
11.5,0.3000000119209289,269.0,24.66665077209473,-0.0079517737030982,-79.78279479160564,40.45902947206967,270.0133407082558,0.0023282694164663,-0.0176331419497728,0.9985085129737854,0.0516183227300643,0.0132637432975056,-0.0253736424536619,0.0009137563611404,0.0049838656559586,0.0016796267591416,0.0049137980677187,-0.3666895281895996,0.0556477366620674,-9.805712236762046,14935.0
11.71,0.3000000119209289,271.0,24.676668167114247,0.0,-79.78279493411334,40.45902943293628,269.98186158800127,0.0023303169291466,-0.0176522303372621,0.998511016368866,0.0515633635222911,0.0074479292263832,-0.0149063342707634,-0.0005554192548873,-0.0027712841983884,0.001485712477006,-0.0028359498828649,-0.3687753396481276,0.0688805475644767,-9.805174877643584,14934.0
11.8,0.3000000119209289,273.0,24.677919387817383,0.0079517737030982,-79.78279509650044,40.45902944369178,269.95131659173967,0.0023285443894565,-0.0176584292203187,0.9985119700431824,0.051543541252613,0.0095801302368268,-0.0156020914241486,-0.0016483626695077,0.0031326506286859,0.0028050236869603,0.0047712391242384,-0.3650875372812152,0.0525447472231462,-9.807745313644409,14934.0
12.0,0.3000000119209289,280.0,24.667903900146484,-0.0159035474061965,-79.78279511378116,40.45902947622828,269.9511697258949,0.0023197289556264,-0.0176365859806537,0.998515486717224,0.0514835640788078,0.0090999514690052,-0.0197250768053366,-0.0013178172167357,0.0041700359433889,0.0012046222109347,0.0033654514700174,-0.3653544626757503,0.0639590968983248,-9.805978285074234,14934.0
12.11,0.3000000119209289,272.0,24.672910690307607,-0.0159035474061965,-79.7827952755154,40.45902948541025,269.9197652306557,0.0023145203012973,-0.0176432784646749,0.9985173344612122,0.0514445677399635,0.0104456274440707,-0.0190410929234496,-0.0023449193018658,0.0015139927854761,0.0003018314600922,0.0012623391812667,-0.3658248346298933,0.051850632475689,-9.806402208209036,14934.0
12.3,0.3000000119209289,273.0,24.66915512084961,-0.0159035474061965,-79.78279546787724,40.4590295088461,269.88752543592454,0.0022702983114868,-0.0176694300025701,0.9985193014144896,0.0513997189700603,0.0151888483862573,-0.0191044163019382,-0.0033154857939226,0.0053276252001523,-0.0018204491352662,0.0077347392216324,-0.3670684643089772,0.0557032395293936,-9.806916763186456,14934.0
12.4,0.4000000059604645,274.0,24.6754150390625,0.0,-79.78279548263376,40.45902952833804,269.88728648090364,0.0022748780902475,-0.0176584664732217,0.9985202550888062,0.0513843595981597,0.0142862537163655,-0.0211126838006085,-0.003093849645162,-0.0041004591621458,-0.0008863360271789,-0.0019001065520569,-0.3685450324416161,0.0564125753100961,-9.806011614203452,14934.0
12.61,0.4000000059604645,275.0,24.67416381835937,0.0,-79.78279565769309,40.45902951760804,269.8544790711403,0.0022757868282496,-0.017680050805211,0.9985226392745972,0.0513308160007,0.0142173860352422,-0.0152042726643426,-0.0032453568085262,0.0036365406122058,0.0030680501367896,0.0038076196797192,-0.3643018176779152,0.0539991507539525,-9.80760381102562,14934.0
12.71,0.4000000059604645,273.0,24.6754150390625,0.0079517737030982,-79.78279567184879,40.459029533460686,269.8542351689339,0.0022649543825536,-0.0176663063466548,0.998525321483612,0.0512847527861595,0.0133666233402152,-0.0171290826589416,-0.0029881225937666,-0.0041734292171895,-0.0009897184791043,-0.002967391628772,-0.3679202939942479,0.0614195643458515,-9.80631976246834,14934.0
12.9,0.4000000059604645,268.0,24.66665077209473,-0.0238553211092948,-79.78279584346828,40.459029546558654,269.8220291104317,0.0022560053039342,-0.0176718886941671,0.998527467250824,0.051240649074316,0.0138777729761309,-0.0173032949508448,-0.0035364421674061,0.0048679234459996,-0.0001902885414892,-0.0009412558865733,-0.3645381182804704,0.0537274242471903,-9.807348872423171,14934.0
13.0,0.4000000059604645,268.0,24.672910690307607,0.0159035474061965,-79.78279585732672,40.45902956342097,269.82175618076326,0.0022491810377687,-0.017667219042778,0.9985294342041016,0.0512046627700328,0.0131241104557133,-0.0191379596421544,-0.0033907872707554,-0.0041359374299645,-0.0023023940157145,-0.0087103126570582,-0.3686270030960441,0.0658476424869149,-9.804659737944602,14934.0
13.2,0.4000000059604645,267.0,24.676668167114247,0.0159035474061965,-79.7827960272147,40.45902960798055,269.7891308631897,0.0022586870472878,-0.0176499094814062,0.9985329508781432,0.0511411763727664,0.0140140067955213,-0.0236162035811157,-0.0041087260808788,-0.0009825878078117,-0.0002123386366292,0.0031479191966354,-0.3658439842611552,0.0547599009191617,-9.805752582550053,14934.0
13.31,0.4000000059604645,259.0,24.67416381835937,-0.0079517737030982,-79.78279616583492,40.45902960959515,269.7561929192543,0.0022390543017536,-0.0176551043987274,0.9985334873199464,0.0511290729045867,0.0105966929117028,-0.0211664385685476,-0.0046884790610021,-0.0028230163734406,-0.0007898394251242,-0.0067696846090257,-0.3681087936088443,0.0701732573099434,-9.8042627120018,14934.0
13.5,0.4000000059604645,258.0,24.66915512084961,0.0079517737030982,-79.78279618583659,40.45902965262521,269.75546174907686,0.0022419947199523,-0.0176335256546735,0.9985378980636596,0.0510507859289646,0.0107110461262014,-0.0253347989132613,-0.0043581864220023,-0.002048249123618,1.1082479431934187e-05,0.0005658522131852,-0.3674937761574984,0.0557523013232275,-9.806258951425551,14934.0
13.61,0.4000000059604645,248.0,24.67416381835937,0.0,-79.78279635171694,40.4590296263061,269.7226160731316,0.002230059588328,-0.0176445487886667,0.9985387921333312,0.0510298982262611,0.0114215516288126,-0.0171996513103347,-0.0043999280829043,-0.000210575206438,0.0012738523073494,-0.0026777351740747,-0.3654898988083005,0.0690104060014709,-9.805734456181527,14934.0
13.81,0.4000000059604645,247.0,24.6754150390625,0.0318070948123931,-79.78279646930811,40.45902964815929,269.6907212104797,0.0022154529578983,-0.0176519937813282,0.9985415935516356,0.0509738437831401,0.0044031687791162,-0.0182978898212884,-0.0039121671487014,-0.00616753147915,-0.0054883994162082,-0.0038910412695258,-0.3680140321701765,0.0605913976114243,-9.805592368841172,14934.0
13.91,0.4000000059604645,239.0,24.67040634155273,-0.0079517737030982,-79.78279647272828,40.45902966614185,269.69039863014217,0.0022266607265919,-0.0176524948328733,0.9985431432724,0.050941064953804,0.0050865085791789,-0.0205493052760696,-0.0038979778669014,0.0040642982348799,-0.0006474502733908,-0.0014448149595409,-0.3672523592412472,0.0653848353680223,-9.8063910984993,14934.0
14.1,0.4000000059604645,233.0,24.667903900146484,-0.055662415921688,-79.78279665207704,40.45902969611983,269.66059910917284,0.0022042011842131,-0.0176721885800361,0.9985461831092834,0.0508770197629928,0.0106615518735231,-0.0201989240659787,-0.0004293517440312,-0.0067415749654173,-0.0009041965822689,-0.0071899960748851,-0.3688715994358063,0.0705243734735995,-9.804835154414178,14934.0
14.21,0.4000000059604645,229.0,24.676668167114247,-0.0079517737030982,-79.78279666271348,40.45902971624543,269.6606379117966,0.0021975953131914,-0.0176660325378179,0.9985475540161132,0.0508525446057319,0.0117977615087065,-0.0223676686086922,-0.0004165159282261,0.0056114634498953,0.00097316224128,0.0028068963438272,-0.3666403019428253,0.056294676256366,-9.807216725349427,14934.0
14.4,0.4000000059604645,227.0,24.667903900146484,-0.0397588685154914,-79.78279679471474,40.45902976442336,269.6295966770649,0.0021790186874568,-0.0176728591322898,0.9985501170158386,0.0508007444441318,0.0085437070188155,-0.0257173295691139,-0.0017283020789226,-0.0042453277856111,0.0012864284217357,-0.0052759172394871,-0.3687849144637585,0.0694345209980383,-9.80502168059349,14934.0
14.5,0.4000000059604645,217.0,24.672910690307607,-0.0079517737030982,-79.7827968021285,40.45902978831225,269.6295268502236,0.0021756479982286,-0.0176703613251447,0.998551905155182,0.050767034292221,0.0093977697227316,-0.0277847594745687,-0.0016327737180804,0.0050733685493469,0.0023625514004379,0.0026381919160485,-0.3647919239848853,0.0529714569216594,-9.807602056860924,14934.0
14.7,0.4000000059604645,213.0,24.672910690307607,-0.0159035474061965,-79.78279696249173,40.459029751007904,269.6019813683033,0.0021668942645192,-0.017690610140562,0.998554825782776,0.0507017560303211,0.0103553118346469,-0.0147319075026243,0.003014135821959,0.002248041331768,0.0008713210700079,0.0040107960812747,-0.3672353657707572,0.0624298672797158,-9.806513305306437,14934.0
14.81,0.4000000059604645,205.0,24.664146423339844,-0.0318070948123931,-79.7827970956272,40.45902977029722,269.57279368901254,0.0021617044694721,-0.0177073962986469,0.9985567927360536,0.0506575815379619,0.0112359238160014,-0.0154548620124417,0.0014272379936984,-0.0001037065303535,-0.0038380597252398,0.0041507557034492,-0.3677871602028608,0.0509532310534268,-9.807219648957252,14934.0
15.0,0.4000000059604645,200.0,24.667903900146484,-0.0079517737030982,-79.78279711817343,40.45902980293892,269.57323658132555,0.0021716512273997,-0.0176870413124561,0.9985606670379642,0.0505885146558284,0.0119550159457728,-0.0195231869564753,0.001628506239365,0.0057456637732684,0.0021160501055419,0.0048964614979922,-0.3670408727601171,0.0553684727288782,-9.807484527826311,14934.0
15.11,0.4000000059604645,194.0,24.672910690307607,-0.0238553211092948,-79.78279723369721,40.45902980863109,269.5441034104824,0.0021918441634625,-0.0176915004849433,0.9985627532005308,0.0505433194339275,0.0090202315489778,-0.0165513858436325,0.0002916068879008,-0.0042712930589914,-0.0043204016983509,-0.0034795540850609,-0.3667992365732789,0.0558046064944937,-9.807728356719018,14934.0
15.3,0.4000000059604645,190.0,24.672910690307607,0.0079517737030982,-79.7827973978903,40.459029823172415,269.5154393877983,0.0021802261471748,-0.0177356302738189,0.998565137386322,0.0504819005727768,0.0149505400206367,-0.0129516353818762,-0.0010921158335343,0.0030237464234232,-0.0013525037793442,0.0068458039313554,-0.3648741504549981,0.0531625421019271,-9.807470494508744,14934.0
15.4,0.5,184.0,24.67165946960449,0.0,-79.78279741328981,40.45902983690617,269.5153996613026,0.0021711816079914,-0.0177248958498239,0.9985664486885072,0.0504606626927852,0.0142509836958524,-0.0147047978652323,-0.0009054153493078,-0.004783091135323,-0.0035044446121901,-0.0014494940405711,-0.3681664983183145,0.0581603354774415,-9.806967633962632,14934.0
15.61,0.5,179.0,24.62282943725586,0.3101191818714142,-79.78279752655642,40.45902984235223,269.4866922464371,0.0021872939541935,-0.0177379418164491,0.998566746711731,0.0504502691328525,0.0093260037531724,-0.0119012291493343,-0.0016206416932968,0.0112967174500226,0.0068866359069943,-0.0198388881981372,-0.3665116997435689,0.0395319149689748,-9.806662409305574,14934.0
15.71,0.5,176.0,24.66039085388184,0.3021674156188965,-79.78279766474729,40.45902986711981,269.4590587284565,0.0021637978497892,-0.0177475530654191,0.9985729455947876,0.0503248758614063,0.0097477742521338,-0.0119597738041193,-0.0020903861225794,-0.0033588847145438,0.0008470902102999,-0.007470388431102,-0.3561705699563026,0.0626952851889655,-9.807490959763529,14934.0
15.91,0.5,173.0,24.65538215637207,0.278312087059021,-79.7827976756578,40.45902988009968,269.4589098956585,0.0021680572535842,-0.0177371446043252,0.9985734224319458,0.0503189228475093,0.0121423158529754,-0.0145832270179787,-0.0020413632947515,0.0067621157504618,0.006725160870701,0.0070375367067754,-0.3608325549960136,0.0524390633683651,-9.816136068105696,14934.0
16.0,0.5,172.0,24.66164207458496,0.2862638533115387,-79.78279768651771,40.45902989398937,269.4587835636139,0.0021432717330753,-0.0177171770483255,0.998579204082489,0.0502107329666614,0.0106898124469388,-0.0162457681208302,-0.0017515792940801,-0.0057037798687815,-0.0024126786738634,-0.0022974945604801,-0.3700919498875737,0.06653493700549,-9.806386420726774,14934.0
16.2,0.5,172.0,24.66039085388184,0.326022744178772,-79.78279782572612,40.459029911988296,269.4311879243851,0.0021347347646951,-0.0177115071564912,0.9985824823379515,0.0501477718353271,0.0123909648401351,-0.0141947695420086,-0.0021075217630513,0.0025497542228549,0.0017753123538568,0.0085221948102116,-0.3652386878058314,0.0570784589694812,-9.806291695833208,14934.0
16.3,0.6000000238418579,169.0,24.651626586914062,0.3498780429363251,-79.78279795770912,40.45902994800788,269.4040229883194,0.0021009079646319,-0.0176965091377496,0.998585283756256,0.0500987991690635,0.0130106158723477,-0.016422561936061,-0.0025797996560476,0.0008263902855105,0.0025735166855156,0.0016275910893455,-0.3609909414499998,0.051891996958293,-9.806603352427484,14934.0
16.5,0.5,170.0,24.650373458862305,0.4134922325611114,-79.78279797097656,40.45902996398856,269.40384092593195,0.0021043121814727,-0.0176988262683153,0.9985895156860352,0.050015065819025,0.013698158371202,-0.0184079624090754,-0.0026026591155631,0.0033556427806615,-0.0029521891847252,0.0042814915068447,-0.3677777681127191,0.0497859623562544,-9.80409431219101,14934.0
16.61,0.5,175.0,24.651626586914062,0.4452993273735046,-79.78279809347279,40.459029982723656,269.3794074174166,0.0020939465612173,-0.0176744293421506,0.9985902309417723,0.0500082746148109,0.013196652831389,-0.017453952080199,0.0012070919129928,-0.0067367604933679,-0.0008775027235969,-0.0031355638056993,-0.367653332054615,0.0619677042681723,-9.809521113038064,14934.0
16.8,0.5,176.0,24.61531639099121,0.7077078819274902,-79.78279821128041,40.459030027042495,269.3539986279011,0.0019493642030283,-0.0177008844912052,0.9985958337783812,0.0498934872448444,0.0125441490377522,-0.020884584464872,0.0002680812258687,-0.0014088818570598,0.0022171430755406,-0.0047375713475048,-0.3885014698281885,0.0771394290402531,-9.812955182790756,14934.0
16.91,0.5,181.0,24.646617889404297,0.2703603208065033,-79.78279822415854,40.45903004681113,269.3541024442912,0.001847424195148,-0.0176272615790367,0.9985995292663574,0.0498493053019046,0.0107825285030439,-0.0237204169275779,-0.0012319354565112,0.0109360544010996,0.0135666988790035,0.002332167699933,-0.3772885567322374,0.043037978564389,-9.79831141591072,14934.0
17.1,0.5,179.0,24.40121650695801,3.8645620346069336,-79.78279833329172,40.45903007939407,269.3295789923668,0.0019291669595986,-0.0176659561693668,0.9986019730567932,0.0497831292450428,0.0154493821723763,-0.0178656683985624,0.0038888178178404,0.0299803055822849,-0.0259152576327323,-0.025410134345293,-0.3957678778097033,-0.0060550476238131,-9.806087628006935,14934.0
17.2,0.4000000059604645,178.0,24.6215763092041,0.6202383637428284,-79.78279834472505,40.459030098303096,269.3299471553564,0.0017011023592203,-0.0175910126417875,0.9986076354980468,0.0497046001255512,0.0112353990337633,-0.0236462628626522,-0.0007324016058313,0.0171022415161132,0.0552993491291999,0.0886878445744514,-0.2832112605683505,0.1107839059084654,-9.808796058297158,14934.0
17.41,0.4000000059604645,182.0,24.64787101745605,0.2544567584991455,-79.78279845046268,40.45903014203121,269.3064377125502,0.0018209040863439,-0.0176684204488992,0.9986070394515992,0.049684178084135,0.0145233662791488,-0.0225852559005081,0.0023918085357121,0.0290459431707859,0.0032227525953203,0.0049117156304419,-0.3553383284434676,0.0371397619438357,-9.819893488883972,14934.0
17.5,0.4000000059604645,187.0,24.646617889404297,0.6997560858726501,-79.78279846242026,40.45903016217318,269.3067731078864,0.0018339500529691,-0.0176616292446851,0.9986073970794678,0.0496784746646881,0.0107849116220468,-0.0233630430466701,0.0031363274047979,-0.0069370190612971,0.0050773816183209,0.0016543748788535,-0.3630773376300931,0.0599254180211573,-9.80976260304451,14934.0
17.7,0.5,191.0,24.471330642700195,4.866485595703125,-79.7827986290799,40.45903017414097,269.2797021534443,0.001841148477979,-0.0177677795290946,0.9986103177070618,0.0495837368071079,0.0158628265582068,-0.0145045560717639,0.0008624552004215,-0.0179090127348899,-0.0432683750987052,0.005299418233335,-0.3736214023455977,0.0438056129124015,-9.805276619195936,14934.0
17.81,0.5,198.0,24.42375373840332,5.423110008239746,-79.78279871651999,40.459030184407744,269.25546639823915,0.001855150796473,-0.0177504196763038,0.9986116290092468,0.0495627224445343,0.0074513965587852,-0.0167556843987145,-0.0009628023377178,-0.0193415991961956,0.0487186685204505,0.0094749815762043,-0.3317284045368433,0.126158035704866,-9.82273406624794,14934.0
18.0,0.6000000238418579,203.0,24.303556442260746,7.665510177612305,-79.78279874162412,40.45903021502585,269.25571343714,0.0015338533557951,-0.0176700390875339,0.9986233115196228,0.0493651293218135,0.0091464004623212,-0.0138366621619909,0.0045406815953653,-0.0567012019455432,-0.0592513531446456,-0.1355397850275039,-0.4233067651838064,0.119713070159778,-9.788315600752831,14934.0
18.1,0.6000000238418579,207.0,24.24846649169922,9.28767204284668,-79.7827988763154,40.45903026075798,269.2313725616932,0.00113759143278,-0.0176485255360603,0.9986236691474916,0.0493766479194164,0.0196588666150021,-0.0203864460975338,0.0020415964236506,0.0782995596528053,0.1311689466238022,-0.1158606261014938,-0.3458572875335812,0.0182348069641739,-9.82173770070076,14934.0
18.3,0.699999988079071,206.0,24.10698509216309,12.038985252380373,-79.78279901757438,40.459030310226034,269.20910905712844,0.0001725245965644,-0.017716895788908,0.998625874519348,0.0493212230503559,0.0188514364328758,-0.020860715517717,0.0027279832056833,0.0130920531228184,0.024136546999216,0.0453986227512359,-0.4549884413927794,-0.1384261245466768,-9.790061579346656,14934.0
18.4,0.699999988079071,204.0,24.033113479614247,13.565726280212402,-79.78279904188726,40.45903033010231,269.20950430297853,-0.0009179413318634,-0.0175915788859128,0.9986348748207092,0.0491747520864009,0.0261952898459602,-0.0212864505127073,0.0035773869565296,0.0685683935880661,-0.0096226073801517,-0.1085176542401313,-0.2177568524703383,0.1188782796263694,-9.878372662067411,14934.0
18.6,0.8000000119209291,205.0,23.85907745361328,17.446191787719727,-79.7827992273378,40.459030353120006,269.18583187499644,-0.0037006698548793,-0.0174821875989437,0.9986059665679932,0.049666691571474,0.0216230189996722,-0.0143966559685559,0.0114370576094356,0.022535840049386,-0.0077741527929902,0.0554379187524318,-0.4520832157507539,-0.1458411066234111,-9.867274646759034,14934.0
18.71,1.0,207.0,23.802736282348643,19.028594970703125,-79.78279924618205,40.45903036926602,269.187695037961,-0.0039769876748323,-0.0166186299175024,0.9985470175743104,0.0511081665754318,0.0152460668650075,-0.0072740372455423,0.0174981435883363,-0.0139589495956897,0.037904005497694,-0.0256114620715379,-0.2253537377715111,-0.257317432500422,-9.78379161000252,14934.0
18.9,1.2000000476837158,208.0,23.602407455444336,22.789783477783203,-79.7827993492943,40.45903035431459,269.1665815193355,0.002918864833191,-0.022587152197957,0.9985241293907166,0.0493036583065986,-0.0107766918159661,0.0526193833414798,0.0518929629740184,-0.0040197283960878,-0.1231015250086784,0.0120137268677353,-0.0394490443915128,-0.1397340187802911,-10.01623129606247,14934.0
19.01,1.399999976158142,207.0,23.50975608825684,25.07194328308105,-79.78279933089695,40.459030271182286,269.1752399880588,0.0052181142382323,-0.0293911434710025,0.998410165309906,0.0478133000433445,-0.0413446209005457,0.1190735821529888,0.1396732060643402,-0.1211713850498199,-0.2058180272579193,-0.0159765183925628,-0.0229367586364969,-0.138828942887485,-10.553786880970003,14934.0
19.2,1.600000023841858,199.0,23.78645896911621,18.29703140258789,-79.78279940563458,40.459030068576034,269.1934820193946,0.0036550504155457,-0.0247040279209613,0.998688578605652,0.0446943156421184,-0.0618955180296813,0.185041142163969,0.3736826920732623,-0.0122448336333036,0.3385292291641235,-0.0505512468516826,-0.2783342624455689,-0.014790497731883,-10.747280602455142,14934.0
19.31,1.5,188.0,23.728864669799805,18.97293281555176,-79.78279953629082,40.45902966422906,269.1975732188821,0.0056077190674841,-0.0062627694569528,0.9989977478981018,0.0439640842378139,-0.0793170890498182,0.2267083852140189,0.3456048031248205,-0.0684850513935089,0.3174906671047211,-0.0773936063051223,0.0281656038248911,0.059073716243729,-10.06052863240242,14934.0
19.5,1.5,185.0,23.712589263916016,19.6965446472168,-79.78279940264518,40.459029215414034,269.2608593817949,0.0004815552965737,0.0197736155241727,0.9987951517105104,0.0449127368628978,-0.0891698157349985,0.2549426066246522,0.2787214410997439,0.0650178492069244,0.0160099025815725,0.0789044126868248,0.2580532315000892,-0.1247588792257011,-9.5032860571146,14934.0
19.6,1.600000023841858,190.0,23.71008491516113,19.36256980895996,-79.78279941591403,40.45902864278448,269.22914102339746,-0.005178153514862,0.0267032999545335,0.9985495209693908,0.046466514468193,-0.0883213862516584,0.2337863448720435,0.1753774552942083,0.0532798208296299,0.015373389236629,0.0512967333197593,0.2531900839693845,0.0626921651512384,-9.359167978763582,14934.0
19.8,1.7999999523162842,189.0,23.57110595703125,21.87532997131348,-79.78279935036525,40.45902842366024,269.2319825407267,-0.0063814655877649,0.028038764372468,0.9984051585197448,0.0485822819173336,-0.0650206945074427,0.1268997374715415,0.0982020480339619,-0.0595925487577915,-0.0775308012962341,0.0554659999907016,0.1510540455579757,-0.197497127316892,-9.443421093821526,14934.0
19.91,1.8999999761581416,177.0,23.71008491516113,18.87751197814941,-79.78279929195055,40.45902832056525,269.24238268697263,-0.0017508335877209,0.0195057094097137,0.9986153841018676,0.0488256923854351,-0.0585064623774937,0.1034307937505172,0.1004319635678939,-0.026269294321537,-0.2469499856233597,-0.0417178906500339,0.1741474045068025,0.0030973980389535,-9.761145343780518,14934.0
20.11,1.8999999761581416,182.0,23.623693466186523,21.30280303955078,-79.78279902668731,40.459027895583546,269.2949937846661,-0.0005381404189392,0.0056343688629567,0.9988273978233336,0.0480811707675457,-0.060337696558084,0.0685232342368778,0.1606633025148989,0.0380361378192901,-0.043322455137968,0.0211152601987123,0.0755532073415816,-0.0203880007308907,-9.848308618068694,14934.0
20.2,1.8999999761581416,189.0,23.65249061584473,19.903289794921875,-79.78279896677861,40.45902783652773,269.3132461425066,-0.0036861184053123,0.0062766969203948,0.9988595843315125,0.0471878051757812,-0.049012481343272,0.0542011245365484,0.2012834572798781,0.1024236381053924,0.0218649022281169,-0.0650350451469421,0.038777208449319,0.0012624778132885,-10.187932444810867,14934.0
20.41,1.8999999761581416,183.0,23.597400665283203,20.73822593688965,-79.78279883967815,40.459027729506815,269.3460296210051,-0.0012407478643581,0.0044171228073537,0.9990119338035583,0.0442069694399833,-0.0556207230831405,0.0443984352450163,0.2132601882069878,0.0328490026295185,-0.0691070929169654,0.0306359324604272,0.0090919726621359,-0.1471393894962966,-9.80730618774891,14934.0
20.51,1.7999999523162842,183.0,23.59489631652832,20.61894989013672,-79.78279877407455,40.45902768750359,269.36750302875043,-0.0007235283846966,0.0037954831495881,0.9990668296813964,0.0430199839174747,-0.0594588634481377,0.0371865054057162,0.2188052306906873,-0.0160680096596479,0.0549281723797321,-0.0146961640566587,0.0365910076070576,-0.1161568027362227,-9.877895529270171,14934.0
20.6,1.8999999761581416,185.0,23.60491180419922,20.69051551818848,-79.78279863540303,40.45902760311336,269.3793691065312,-0.0005295721348375,0.0063000791706144,0.9990740418434144,0.0425587706267833,-0.0783043865924267,0.0313355622399045,0.2379576764110469,0.0012037390843033,0.1025561392307281,-0.0012013053055852,-0.0201284734345972,-0.0998093673493713,-9.910928789377213,14934.0
20.8,1.7999999523162842,190.0,23.64497756958008,18.88546371459961,-79.78279841928419,40.459027461174045,269.4173853662014,-0.0046291914768517,0.0078517375513911,0.9990819096565248,0.0418612547218799,-0.0779131120137045,0.0355423986537732,0.2670606549773269,0.0323522314429283,-0.1054213866591453,-0.0378585420548915,0.0660011775791645,-0.0084509647940285,-9.893340364694597,14934.0
20.9,1.8999999761581416,192.0,23.81400489807129,17.74835968017578,-79.78279833777792,40.459027435677,269.4434933629036,-0.007323698606342,0.0054756393656134,0.9990554451942444,0.0424818806350231,-0.0697810311434089,0.0184181107576447,0.2290331226846397,0.0653428435325622,-0.087228924036026,-0.0173909794539213,-0.044204799584113,-0.0400498183909803,-9.380392202138902,14934.0
21.1,1.8999999761581416,189.0,23.420860290527344,24.65049934387207,-79.78279831356059,40.459027391999605,269.4674210216999,-0.0109805911779403,0.0022687420714646,0.9990180134773254,0.0428649298846721,-0.0367998332012337,-0.001675325279199,0.0829275995890922,0.0125192767009139,0.004972530528903,0.0211274325847625,-0.0148636610177345,-0.1014525811281055,-9.517135187387469,14934.0
21.3,1.8999999761581416,187.0,23.261850357055664,27.44157218933105,-79.7827979448914,40.459027372801,269.5147043731213,-0.0058079096488654,0.0032964146230369,0.9991198182106018,0.0414131022989749,-0.0589649782147416,0.0054214513870476,0.2956595286174738,-0.2541900277137756,-0.0506027117371559,-0.072743609547615,-0.0489784253295511,0.2075683715566993,-10.743857642412186,14934.0
21.41,1.7000000476837158,188.0,23.27186584472656,28.16518402099609,-79.78279790911569,40.45902737065983,269.55209192299844,-0.003295068629086,0.0028157683555036,0.9991722702980042,0.0404498688876628,-0.0189219600210835,0.0024608928480869,0.4549252471921366,0.1489110887050628,-0.0424711145460605,0.1146997585892677,0.1027095223590731,-0.3275352931022644,-11.297937458753587,14934.0
21.5,1.8999999761581416,188.0,23.09657859802246,31.10733985900879,-79.78279788218586,40.45902737212628,269.6065704789162,-0.0032780820038169,0.0020804326049983,0.9992059469223022,0.0396556593477726,-0.0185729376666452,-0.0003124280619724,0.6382565989207766,0.0665820688009262,0.0264844056218862,-0.0333799347281456,0.1169096682965755,-0.0800025547295808,-11.55646742105484,14934.0
21.7,2.0,183.0,23.11786460876465,30.2962589263916,-79.78279786918826,40.45902747977468,269.7308849658966,-0.0028775730170309,0.0022262267302721,0.9992299675941468,0.0390685014426708,-0.0207324545033712,-0.0126840728371776,1.0366266687437389,0.0331944189965724,0.0039841150864958,0.1351277381181717,-0.0221358317043632,-0.070772194918245,-11.938188861608506,14934.0
21.8,2.0,180.0,23.09282302856445,30.980112075805664,-79.78279787682969,40.45902750780474,269.82129823827745,-0.0022822606842964,0.0016072300495579,0.9991998672485352,0.0398980118334293,-0.0123113742702508,-0.0175449488827891,1.21948716612277,0.0490393191576004,0.0049191610887646,0.0542568415403366,0.0682270983746275,0.0531673614867031,-11.88621997833252,14934.0
22.0,2.0,185.0,23.08656311035156,30.08156013488769,-79.78279786263325,40.45902754324918,270.11142462158205,-0.0024250887800008,0.0018170838011428,0.9990757703781128,0.0428790375590324,-0.012561262656161,-0.019582142783416,1.702457071559118,-0.0144744953140616,0.0325066819787025,0.1186159923672676,0.0278226189455017,-0.1546807810664177,-12.339848138093949,14935.0
22.2,2.0,185.0,23.03522872924805,31.94227600097656,-79.78279788096873,40.45902758837478,270.4702712860108,0.0003805187880061,0.0007316127885133,0.9990195631980896,0.044265016913414,-0.0036427665319796,-0.0007201184750218,2.1225410404832057,0.0444557294249534,-0.0337461158633232,0.1538943201303482,0.0584199016029015,-0.2536956671252847,-11.889814846515652,14935.0
22.31,2.0999999046325684,186.0,22.953845977783203,31.94227600097656,-79.78279799077373,40.45902762947032,270.6403648223877,0.0023782595526427,-0.0019881466869264,0.9989774823188782,0.0451057888567447,0.0009520552489073,0.0015288027270933,2.272893218810345,-0.005373568739742,-0.0337252169847488,0.1517152041196823,0.0437404301622882,-0.2709492108039558,-11.827489374876023,14935.0
22.4,2.0999999046325684,189.0,23.01644897460937,30.55071449279785,-79.78279797841421,40.459027625262046,270.87922387981416,0.0045487280003726,-0.0023335604928433,0.9989383220672609,0.0457840822637081,-0.0023330745936332,0.0025746146803104,2.5058747305877875,-0.0325946770608425,0.0760197043418884,0.0710397809743881,0.0573418212169781,-0.0658799483533948,-12.02662565946579,14935.0
22.61,2.0999999046325684,188.0,23.234304428100582,26.622539520263672,-79.7827981410065,40.459027683419855,271.326284822464,0.0073764021508395,0.0060486560687422,0.9989134669303894,0.0456171706318855,0.005815698421543,0.023069677215749,2.7959054365237748,-0.0054270373657345,0.1753817051649093,0.0139314550906419,0.1045041972957551,-0.006993068922311,-11.475636681318283,14936.0
22.8,2.0999999046325684,188.0,23.258094787597656,26.12952995300293,-79.78279838645709,40.45902777812784,271.77199285888673,0.0113551458343863,0.014128977432847,0.9989245533943176,0.0426751896739006,-0.0036133752406434,0.070554187009153,2.8743875087113016,-0.1273382008075714,-0.0334760881960392,-0.0962651222944259,0.2228511660173535,0.0359723105211742,-10.553889791965483,14936.0
22.9,2.200000047683716,193.0,23.28188323974609,25.81941032409668,-79.78279831375035,40.459027778497685,272.0613865222931,0.015027224086225,0.0148540809750556,0.998939037322998,0.0409197770059108,-0.0095853542683556,0.0695582960032976,2.913385496398558,0.0176254007965326,0.1127359047532081,-0.0578148402273654,0.1725729137845337,0.0846379349380731,-10.290535876750944,14937.0
23.0,2.400000095367432,195.0,23.276874542236328,25.040136337280277,-79.78279820691647,40.45902779066783,272.3546614017487,0.0174198150634765,0.0143906632438302,0.9989758729934692,0.0392026044428348,-0.0154226966341113,0.0636480569917669,2.9573971741835714,-0.0337797626852989,-0.0251823309808969,0.0065809115767478,0.1717394297383725,-0.0628869322501123,-10.27764510512352,14937.0
23.21,2.400000095367432,190.0,23.265605926513672,23.147613525390625,-79.78279832825038,40.459028020021,272.80413812065126,0.0129615627229213,0.0097574554383754,0.999162495136261,0.0375641621649265,-0.0473928217689523,0.0077425191594998,2.895684550639124,0.0688696354627609,0.0021388765890151,-0.1005662232637405,0.1193179445620626,0.2897954994812608,-9.84770401597023,14937.0
23.3,2.5999999046325684,186.0,23.328208923339844,24.467607498168945,-79.78279842164112,40.45902813466081,272.9800779190064,0.0073145837523043,0.0077534774318337,0.9992470145225524,0.0373080149292945,-0.0584092049385971,-0.0190782845629014,2.815322125306952,0.1108286157250404,0.043430458754301,0.0508908629417419,0.0596056164382025,-0.0887050023302435,-9.748163940310477,14937.0
23.5,2.799999952316284,179.0,23.34698867797852,23.56905746459961,-79.78279805960986,40.45902827132209,273.5373422470093,0.0036101166624575,0.0064191301353275,0.9992371797561646,0.0383525863289833,-0.1156813152729959,-0.0587478081296045,2.7686134581876054,0.1219491064548492,0.0083030946552753,0.0533870086073875,0.1000233297608792,-0.2053514545597136,-9.673972129225731,14938.0
23.7,2.900000095367432,172.0,23.23680877685547,26.447599411010746,-79.78279796685719,40.45902859520906,273.967918094635,-0.0009364299476146,0.0050250724889338,0.9992105960845948,0.0393976159393787,-0.1072523046540152,-0.0887321056371215,2.62895040999072,0.1993858516216278,0.0411732904613018,0.0422729849815368,0.158094641380012,-0.1688983224704861,-9.5568009442091,14938.0
23.8,3.0,164.0,23.231800079345703,25.68422889709473,-79.78279848058428,40.45902827559316,274.13404959106447,-0.0018567169317975,0.0056692659854888,0.9991952776908876,0.0396642871201038,-0.0911892239293629,-0.0499335371289827,2.5510327636674868,-0.1361556947231292,0.0687411874532699,-0.0730025023221969,0.008858038354665,0.2406885724514723,-9.590508388280869,14939.0
23.9,3.0,158.0,23.336973190307607,23.855321884155277,-79.78279838362931,40.45902834359208,274.38918035888673,0.0019760068971663,0.0073717762716114,0.9992089867591858,0.0390289276838302,-0.0872313143216707,-0.0560030893884773,2.5559458834033464,-0.0988694727420806,-0.0499844215810298,-0.0097857555374503,0.0691034498205408,-0.1375513810850679,-9.831234748363496,14939.0
24.1,3.0999999046325684,151.0,23.24557304382324,26.65434646606445,-79.78279730708698,40.45902826066187,275.0744673576355,0.0014327550306916,0.0086847711354494,0.9992220401763916,0.0384454429149627,-0.079362231175098,-0.0419944531151997,2.5956455384453205,0.0930274650454521,0.0681168437004089,0.0638613775372505,0.1381804135814309,0.1706508243642747,-9.658974605798722,14940.0
24.3,3.0999999046325684,152.0,23.288143157958984,24.11773109436035,-79.78279623428385,40.459028087705896,275.70477884674074,-0.0037718226667493,0.0068813115358352,0.9992140531539916,0.0388548448681831,-0.1115505692074707,-0.0396197816814546,2.617801023308709,0.1315783560276031,-0.0018252320587635,-0.0107780313119292,0.0585158187802881,0.1406640367023647,-9.793009745478631,14940.0
24.41,3.0,155.0,23.29189872741699,24.38809013366699,-79.7827961030858,40.459028152453605,275.9664151039124,-0.0071847005747258,0.0077352970838546,0.999170184135437,0.0393396690487861,-0.1008732063712613,-0.0515783535518285,2.6105548690218567,0.2356076836585998,0.0492891110479831,0.1308253407478332,0.1454413763433694,-0.2799340423755348,-9.779443620443343,14940.0
24.6,2.900000095367432,154.0,23.25183296203613,24.793630599975582,-79.78279469963441,40.459027997406935,276.6478535499573,-0.0084721883758902,0.0090121943503618,0.9990832209587096,0.0409860834479332,-0.1782433463790448,-0.0315277977018959,2.6515610576941087,-0.102949284017086,-0.0463561303913593,0.066629908978939,0.0854204842541366,-0.1566052641905844,-9.786636280417444,14941.0
24.7,2.5999999046325684,156.0,23.25934600830078,24.22110366821289,-79.78279455472338,40.459028064219055,276.91297024154665,-0.0065988018177449,0.0095830792561173,0.9990689158439636,0.0415455177426338,-0.1548776737311328,-0.0413777411542552,2.6457958387392857,0.0100306561216712,-0.0162079613655805,-0.0274762492626905,0.1453767920192331,-0.0287904610438272,-9.798693239092827,14941.0
24.8,2.5999999046325684,159.0,23.294403076171875,23.974597930908203,-79.7827934032537,40.45902774828996,277.295847114563,-0.0070902965962886,0.010333458893001,0.999059796333313,0.0415027849376201,-0.1679373939525,-0.0313748408958516,2.669155300798032,0.1344387978315353,0.0744915306568145,0.0648673400282859,0.1308018852397799,0.000883422922343,-9.703318719863892,14942.0
25.0,2.200000047683716,169.0,23.249330520629893,25.19917106628418,-79.78279310174322,40.45902788403389,277.8258354034424,-0.0113976895809173,0.0106228422373533,0.999018132686615,0.0414742454886436,-0.1458137045574726,-0.038862941422337,2.629716972922711,0.1790351271629333,-0.0064488612115383,0.0917382836341858,0.141820689048618,-0.1526435745880008,-9.676754234433174,14942.0
25.1,2.0999999046325684,172.0,23.23305320739746,25.18326759338379,-79.78279176459324,40.45902747548053,278.2884160842896,-0.0123814949765801,0.0084578162059187,0.9990389347076416,0.0411871746182441,-0.2038268212219136,-0.0197523765674073,2.710181916951353,0.0029195775277912,-0.0338606014847755,-0.0314437560737133,0.1952088742889464,-0.0610898270644247,-9.810191788673402,14943.0
25.31,1.7000000476837158,180.0,23.2030029296875,24.96061897277832,-79.78278991158372,40.45902691452623,279.0537978973389,-0.0122519452124834,0.0067710233852267,0.9990666508674622,0.0408635400235652,-0.2176937069898782,-0.0120807590554768,2.791018689852264,0.160755306482315,0.0376503132283687,0.0983074307441711,0.159473506193608,-0.3336352546513081,-9.703905195593835,14944.0
25.51,1.7000000476837158,184.0,23.17671012878418,24.14953804016113,-79.78278956955974,40.4590269633507,279.6091958847046,-0.0117744859308004,0.0061415135860443,0.9990431666374208,0.0416716560721397,-0.1851688726569032,0.0014575236366618,2.7589839338552142,0.0142261432483792,0.0443508960306644,0.0794049650430679,0.1017814870085567,-0.1644145678728819,-9.690888124108318,14944.0
25.6,1.8999999761581416,191.0,23.19423866271973,24.34037971496582,-79.78278807566308,40.4590262280824,280.1383115615845,-0.0120495809242129,0.0057803634554147,0.9990213513374328,0.0421643294394016,-0.2173736955545179,0.0363427386415718,2.8635274030055835,-0.0883219987154007,-0.0736972466111183,-0.0660113766789436,0.1705679949000478,0.067551950532943,-9.828622212409972,14945.0
25.71,1.8999999761581416,195.0,23.205507278442383,25.350255966186523,-79.78278792209484,40.459026216021215,280.4256135787964,-0.0117079941555857,0.006480049341917,0.9990071654319764,0.0424919016659259,-0.1800797462777335,0.0291284709393456,2.872907857083084,0.1407531052827835,0.1295003741979599,0.0352210961282253,0.1251214157324284,-0.2047564638219773,-9.900852867364884,14945.0
25.9,2.0,201.0,23.14916610717773,25.437725067138672,-79.78278649426694,40.45902534765363,281.19375151062013,-0.009530633687973,0.0093887839466333,0.9990317821502686,0.0419103763997554,-0.1753973357969069,0.0854525582181252,2.9490442924720552,0.1508433073759079,-0.001278753275983,0.1028173565864563,0.1469270076602697,-0.3085980619490147,-9.927483426332476,14946.0
26.0,2.0,200.0,23.162939071655277,25.827362060546875,-79.78278636305485,40.45902530579427,281.49077146911617,-0.0101142330095171,0.0089388629421591,0.999039888381958,0.0416790246963501,-0.1768131069602846,0.0900253252466077,2.981540527213462,-0.1133107617497444,-0.0545491650700569,-0.0588620081543922,0.0442466117441654,0.1862280809506774,-10.017811213731768,14946.0
26.2,2.0999999046325684,203.0,23.19048309326172,25.00832939147949,-79.78278508835955,40.459024272821225,282.2993175354004,-0.0107066733762621,0.0044801700860261,0.9990820288658142,0.0412373766303062,-0.1562705492537462,0.1319020320459667,3.077090768206616,0.0258859824389219,-0.04720264300704,-0.041206020861864,0.1703764254972338,-0.0174685179325751,-9.900590912103654,14947.0
26.41,2.200000047683716,204.0,23.23806190490723,25.24688148498535,-79.7827844409453,40.459023218958784,283.19125193023683,-0.0074477852322161,0.0005641091265715,0.9991400837898254,0.0407846830785274,-0.1178375251309382,0.1526108894898289,3.1644707522326088,-0.097711943089962,-0.0694751217961311,-0.0486464947462081,0.0513025702117011,0.0183958612103015,-9.689978297352791,14948.0
26.51,2.400000095367432,206.0,23.17045021057129,24.197248458862305,-79.78278439892338,40.45902308623953,283.5076143112183,-0.006544591858983,0.002031278098002,0.9991636872291564,0.0403123795986175,-0.0749912438530762,0.1472024845263511,3.1589119220158617,0.1244522780179977,0.0258738882839679,0.0569041743874549,0.1686606696993112,-0.3407209105789661,-9.789447036981583,14948.0
26.6,2.400000095367432,204.0,23.1929874420166,24.82543754577637,-79.78278405400016,40.45902317496307,284.0109235610962,-0.0052280174568295,0.0050212764181196,0.9991637468338012,0.0402411371469497,-0.062533196556275,0.1218318783521104,3.2324352640698604,-0.0063537959940731,0.1507532298564911,0.012752347625792,0.1260077074449509,0.049053936637938,-9.763801149129868,14949.0
26.8,2.5,204.0,23.27061462402344,23.537250518798828,-79.78278374660471,40.45902294582945,284.74730509185787,-0.0026442457456141,0.0109840855002403,0.9991180896759032,0.0404420085251331,-0.0081356370704001,0.1367942664639096,3.241894124231344,0.1361511945724487,0.017746165394783,0.0715290531516075,0.1327100875228643,-0.3114689717441797,-9.776548663973813,14949.0
27.0,2.5999999046325684,204.0,23.13664436340332,25.68422889709473,-79.78278376833407,40.45902280567272,285.3930312957764,-0.0064782886765897,0.0104469479992985,0.9991441369056702,0.0394981503486633,-0.0397899408984702,0.1443884221358455,3.200157008350837,-0.0887482538819313,-0.0879361405968666,-0.0922208055853843,0.0954087985306978,-0.0274210385698825,-9.53869504094124,14950.0
27.11,2.5999999046325684,207.0,23.22679328918457,23.46568489074707,-79.78278379785671,40.459022668761314,285.77204626464845,-0.0071447393856942,0.0078525971621274,0.999220848083496,0.0380129516124725,0.0009611382429319,0.1207776154760928,3.197119937165698,0.1665274947881698,-0.0328072160482406,0.0799621865153312,0.168182276096195,-0.3683232402428985,-9.730141652226449,14950.0
27.2,2.700000047683716,208.0,23.24306869506836,23.147613525390625,-79.78278383712558,40.4590226208955,286.0919181671143,-0.0070309862494468,0.0043782796710729,0.9992946982383728,0.0366267636418342,-0.026544335565849,0.1030945131406898,3.194916884265397,-0.0966886207461357,-0.0976519212126732,-0.1206493377685546,0.1450163020379841,0.0275665885582566,-9.761485651731492,14951.0
27.4,2.900000095367432,214.0,23.17545890808105,24.04616355895996,-79.7827838024953,40.459022695628725,286.74347036743166,-0.0047352113761007,-0.0001631295890547,0.999349057674408,0.0357648804783821,-0.0149995475337668,0.0566586260782977,3.150621192901892,-0.1976104080677032,-0.0818565338850021,-0.1077819019556045,0.0273344769375398,0.1010569347627461,-9.58951202273369,14951.0
27.5,3.0,216.0,23.235557556152344,24.42784881591797,-79.78278384764292,40.45902265214403,287.05775946044923,-0.0019244415452703,0.000286541879177,0.999342679977417,0.036202136427164,0.0120427759379328,0.0520987885087578,3.1354264436701063,0.0334858372807502,-0.0066838134080171,0.073020190000534,0.1320544227864593,-0.3322404013574123,-9.677349480986596,14952.0
27.7,3.0999999046325684,221.0,23.159181594848643,24.70616149902344,-79.78278441990246,40.45902281231041,287.6638767089844,-0.0063961795531213,0.0086994729936122,0.9992344975471495,0.03760277479887,0.0731406509737232,0.057171087337534,3.0761407055954884,0.1246329993009567,0.1560376137495041,0.0572464726865291,0.1228168179094791,-0.1473181315697729,-9.688757983446123,14952.0
27.9,3.0999999046325684,222.0,23.209264755249023,23.89508056640625,-79.78278441056499,40.45902284009785,288.2857143249512,-0.0097513971850276,0.0068015293218195,0.9991850852966307,0.0385742597281932,0.0334466073586984,0.0679264982965326,3.06387744484821,0.1272242367267608,-0.0262545216828584,0.0582670867443084,0.1450777526199817,-0.2911636383086443,-9.85961011648178,14953.0
28.0,3.0999999046325684,223.0,23.16794586181641,24.32447624206543,-79.78278450642874,40.45902283563945,288.5928890075684,-0.0080540040507912,0.0020089333411306,0.999230980873108,0.0383216366171836,0.0125644005146179,0.0558218217968311,3.0788953766380014,-0.1595491766929626,-0.1530659794807434,-0.1350797712802887,0.1338629483152181,-0.0375462279422208,-9.907540912628177,14953.0
28.1,3.0999999046325684,221.0,23.280630111694336,22.59894180297852,-79.7827844881208,40.45902292616869,288.9012786712646,-0.0058349026367068,-0.0023503729607909,0.9992657899856568,0.0377957858145237,0.0505583148452995,0.0149636699968849,3.0763151070943486,0.1247814297676086,-0.0811080113053321,0.1536187827587127,0.0477736704982817,-0.3484846607968211,-9.987129703760148,14953.0
28.3,3.2000000476837163,222.0,23.260597229003903,23.36231231689453,-79.7827846925607,40.459022840877225,289.5176441040038,-0.0033438890241086,-0.00448301108554,0.999327838420868,0.0362317413091659,0.0822936580617355,4.4833974817770975e-05,3.076686049339292,-0.014518903568387,0.0670497342944145,0.0707291811704635,-0.0540272128209471,-0.1828330596350133,-9.891113744974136,14954.0
28.5,3.299999952316284,221.0,23.112855911254893,25.54109764099121,-79.78278493920142,40.459022786222384,290.1332485046387,-0.0001050392238539,-0.0004026205569971,0.9993575811386108,0.0358368791639804,0.0871980493365459,0.0364531438209825,3.0753873651139503,-0.0403165556490421,-0.0710999518632888,0.0570207983255386,0.0904015902243554,-0.2217335072904824,-9.813593698740004,14955.0
28.6,3.2000000476837163,219.0,23.16794586181641,23.71219062805176,-79.78278483554409,40.45902270024816,290.4336921539307,0.0008140527643263,0.000983337056823,0.9993402361869812,0.0362978018820285,0.0923729180373361,0.0612836219361893,3.04744404623622,0.086512267589569,0.0702370330691337,0.0463182143867015,0.1392270834557712,-0.134469469031319,-9.774665275812149,14955.0
28.7,3.0999999046325684,213.0,23.28939437866211,22.59099006652832,-79.78278493884119,40.459022648557344,290.73780172729494,8.355934369319583e-06,0.0028559055645018,0.9993244409561156,0.0366411507129669,0.0899858366419403,0.0734821237824851,3.0315042026838173,0.0467620491981506,-0.0314913392066955,-0.0070870337076485,0.1510779551882297,-0.1028234060201794,-9.705895587801932,14955.0
28.9,2.900000095367432,206.0,23.112855911254893,25.461580276489247,-79.78278489021227,40.459022209751176,291.3228828277588,-0.001130833174102,0.0084650982171297,0.9992626309394836,0.0374349802732467,0.0509391719015612,0.1322858758740894,2.959934753744518,-0.0853978469967842,0.1128458529710769,-0.0363343842327594,0.091018179114908,0.2148196498677134,-9.648897514343265,14956.0
29.0,2.799999952316284,201.0,23.21302032470703,23.489540100097656,-79.78278498353917,40.4590221276041,291.6193420257568,0.0013829639647156,0.0104561364278197,0.9992591738700868,0.0370139703154563,0.0546945144841043,0.1463993767902497,2.97020421124642,-0.1622025072574615,-0.0486941523849964,-0.1080690547823906,0.0836075641773641,0.1016346579417586,-9.84139370083809,14956.0
29.2,2.799999952316284,194.0,23.14666175842285,24.47555923461914,-79.78278535259648,40.45902190532178,292.20844190979005,0.0027160202153027,0.0082396557554602,0.9993400573730468,0.0352747216820716,0.0912779029874274,0.151717421901656,2.967389980692964,-0.176339104771614,-0.0422037355601787,-0.1176584437489509,0.1021731682308018,0.3014624488726258,-9.862364155054092,14957.0
29.3,2.700000047683716,190.0,23.14165306091309,25.10375022888184,-79.78278549530775,40.45902185113178,292.51512831115724,0.0045061907730996,0.0060291322879493,0.9993781447410583,0.0344514623284339,0.1292758437462721,0.1296015677189606,2.983478519932865,0.0176912453025579,-0.0495882891118526,0.0950867235660553,0.1071747851371765,-0.2234401085413992,-9.966397815942765,14957.0
29.51,2.799999952316284,194.0,23.1641902923584,24.332427978515625,-79.78278572781028,40.459021715902594,293.11790007019044,0.0088932178914546,0.003890324383974,0.999371349811554,0.0340996459126472,0.1296587446799039,0.1105202540051785,3.0459993176185187,0.0416936315596103,0.0880388468503952,0.0072633177042007,0.1398955846577882,0.1540269161760807,-10.108410311937332,14958.0
29.6,2.799999952316284,196.0,23.19924736022949,23.608816146850582,-79.78278565837095,40.4590217207056,293.42655104064943,0.0088131073862314,0.0039208084344863,0.9993528723716736,0.0346530489623546,0.1006225334853644,0.1011833372490035,3.066890988421107,-0.1353787034749984,-0.0081659248098731,-0.0952827781438827,0.0216397023084573,0.0551738883554935,-10.106264383792878,14958.0
29.81,2.900000095367432,194.0,23.21051597595215,24.23700714111328,-79.78278568377613,40.45902163134329,294.04016416931154,0.0035311307292431,0.0097777396440505,0.999320387840271,0.0353665836155414,0.0715185576048577,0.1156128636813203,3.0365175373521005,0.0471330061554908,-0.076932705938816,-0.0194558501243591,0.1656038732640445,-0.2176309546083212,-9.766932917833328,14959.0
29.9,2.900000095367432,197.0,23.126628875732425,24.56303024291992,-79.7827857210635,40.45902156983283,294.3427230682373,-0.0014358053449541,0.0103379590436816,0.9993399381637572,0.0347969345748424,0.0613111020122794,0.1271871456285812,3.0068712331071525,0.3096437752246857,0.0821994021534919,0.0730432793498039,0.1949354621395468,-0.2766305848024785,-9.5991154897213,14959.0
30.1,3.0,198.0,23.19423866271973,23.33050537109375,-79.78278567738775,40.459021479213405,294.9532253112793,-0.004054132848978,0.0091640017926692,0.9993839859962464,0.0336349830031394,-0.0039937292340017,0.1072093405321079,2.9788012089437563,0.0777470022439956,0.1004051193594932,0.0180587004870176,0.1342323553003371,-0.1952293760888278,-9.6977849149704,14959.0
30.3,3.0,200.0,23.105342864990234,25.77169990539551,-79.78278550736019,40.459021413975634,295.56460874938966,0.0012101678876206,0.0076639666222035,0.9994048476219176,0.0336128994822502,0.005858846903461,0.0863927575248518,2.9708090030677523,0.0543017871677875,-0.0028917761519551,0.095320738852024,0.0948396725859493,-0.2994365165568888,-9.78632053077221,14960.0
30.4,3.2000000476837163,211.0,23.13664436340332,25.07194328308105,-79.7827855152654,40.45902138157306,295.86249464416505,0.0010628829477354,0.0064721875824034,0.9994259476661682,0.0332397706806659,0.0042500353750348,0.0837081621312894,2.985715357413835,-0.0420536585152149,-0.1114224791526794,-0.0696820616722107,0.1867141672968864,-0.0991230869572609,-9.92617014169693,14960.0
30.5,3.2000000476837163,214.0,23.13038444519043,24.21315193176269,-79.78278551802974,40.45902134783715,296.16188162231447,-0.0010761065641418,0.0055433041416108,0.9994375109672546,0.0330590829253196,0.0055572167205159,0.0742235024527487,2.999329802275009,0.1429920345544815,0.0636638328433036,0.012190693989396,0.1700545910932124,-0.1245280238427222,-9.950742480754853,14961.0
30.7,3.2000000476837163,222.0,23.08531188964844,25.946638107299805,-79.78278537300167,40.45902126578349,296.7806732025146,-0.0026971132028847,0.0089308051392436,0.9993823766708374,0.0338810160756111,-0.0435154134776014,0.0742990065887548,3.0185663238721463,-0.0910215973854065,0.0231983829289674,-0.0561863407492637,0.1263310493342578,0.0940929191932082,-9.783547781109812,14961.0
30.8,3.299999952316284,225.0,23.099082946777344,25.15146064758301,-79.78278524577942,40.45902127274967,297.09200971984865,-0.0047512496821582,0.0101705566048622,0.9993206858634948,0.0351040661334991,-0.0386983778901929,0.0812357157878902,3.021183433327908,0.0090140141546726,0.0946661606431007,0.0620008073747158,0.0914686522632837,0.0271496181283146,-9.817558110952378,14962.0
31.01,3.400000095367432,227.0,23.1003360748291,24.793630599975582,-79.78278521171912,40.45902123361493,297.69435804748537,-0.0064170658588409,0.0100594004616141,0.999236822128296,0.0371958389878273,-0.0321002326818004,0.0736247663183522,2.9985970008416656,0.1690334975719452,0.050260990858078,0.1112397983670234,0.1657456865161657,-0.2359138275124133,-9.73184026837349,14962.0
31.21,3.2000000476837163,225.0,23.177963256835927,24.26086235046387,-79.78278500001414,40.45902127334333,298.3053676452637,-0.0073804641142487,0.0130177559331059,0.9991912245750428,0.0373239964246749,-0.0404560836929327,0.0391295097131852,3.0029375428690184,0.0778548046946525,0.1346818506717682,0.0496204793453216,0.1056574874930083,-0.1290908803045749,-9.827209525108335,14963.0
31.31,3.0999999046325684,223.0,23.11536026000977,23.974597930908203,-79.7827848685436,40.459021084822695,298.6136047210693,-0.0062730037607252,0.0131896575912833,0.9992299675941468,0.0364185944199562,-0.0663944094521123,0.0855237881063687,3.020941570978517,-0.2348709106445312,-0.0950466096401214,-0.1361723691225052,0.0781354017276317,0.1821130846627056,-9.840860434770583,14963.0
31.4,3.0999999046325684,222.0,23.112855911254893,23.990501403808597,-79.78278486969901,40.45902108341206,298.91610639953615,-0.0037137691397219,0.0106429131701588,0.999305546283722,0.035517256706953,-0.0184045363885926,0.0730178676574199,3.027243721150916,0.118619903922081,-0.0464260838925838,0.0574594587087631,0.1760457944311201,-0.3383328711614013,-9.938044667243958,14963.0
31.6,3.0999999046325684,221.0,23.12788009643555,23.78375625610352,-79.78278483161375,40.45902097097622,299.5362617340088,-0.0008532524225302,0.0051767122931778,0.9993988275527954,0.0342721901834011,-0.0015068163600479,0.0505665135042943,3.082511649173924,0.0177819970995187,0.0855947211384773,0.0545003488659858,0.0396072435518726,-0.1388957473263144,-10.07923972249031,14964.0
31.7,3.0,220.0,23.08781433105469,25.087846755981445,-79.7827848381993,40.45902096615926,299.84575384521486,0.0002087735920213,0.0046630171127617,0.9994198679924012,0.0337371751666069,-0.0173549354270559,0.0373422727176231,3.1026665275978926,-0.193962275981903,-0.1008396595716476,-0.0759125426411628,0.0435011876793578,0.057551183514297,-9.988478071689606,14964.0
31.9,3.0,220.0,23.112855911254893,25.19917106628418,-79.78278476263868,40.45902108689032,300.459216293335,0.0002922662242781,0.0054092146456241,0.9994277358055116,0.0333906672894954,-0.0031357159037186,0.0209239320205312,3.097087534877074,-0.0282666832208633,-0.0586412064731121,-0.0209884345531463,0.0761662741983309,-0.0330786947999149,-9.900663417577745,14965.0
32.1,3.0,221.0,23.15417289733887,23.4179744720459,-79.78278464017221,40.45902113639005,301.0837337341309,-0.0002352209703531,0.0071070669218897,0.9993832111358644,0.0343925468623638,-0.0284387044051188,0.0297822112576072,3.11387045452626,-0.1375472992658615,-0.0172213781625032,-0.0263139810413122,0.0959939769096672,0.0474444083031267,-9.923806697130203,14966.0
32.2,3.0,218.0,23.06402587890625,24.91290855407715,-79.78278461983567,40.45902114595097,301.3948184814453,0.0001114984625019,0.0070534036494791,0.9993703365325928,0.0347741208970546,-0.0218528092854478,0.0322868887217864,3.1066389461054422,0.0118421502411365,0.026270231232047,0.0668749585747718,0.1023583787865936,-0.0721018106443807,-9.75568112075329,14966.0
32.31,3.0,219.0,23.109100341796875,23.48158836364746,-79.78278458471804,40.45902120642654,301.7032481994629,-0.0014955288497731,0.0075942808762192,0.9993740320205688,0.0345218442380428,-0.0124406289722304,0.0253090514137609,3.0926498399061084,-0.0026967748999595,-0.0620768219232559,-0.0727960839867591,0.0679905008431524,-0.0466758557595312,-9.825212116241458,14966.0
32.52,2.900000095367432,220.0,23.121620178222656,24.18929672241211,-79.78278457004151,40.45902123690212,302.3221446838379,-0.0066525018773972,0.0056788055226206,0.9993804693222046,0.0340916663408279,-0.0427043319459025,0.0276988258136014,3.092576634414456,-0.059691559523344,-0.0652230158448219,-0.0623893924057483,0.1055794819816947,0.0419973934488371,-9.78577673971653,14967.0
32.7,2.799999952316284,221.0,23.06527900695801,24.316524505615234,-79.78278446289255,40.459021258556426,302.9472553100586,-0.0079141184687614,0.0050632515922188,0.9994302988052368,0.0324165262281894,-0.0421896478352337,0.0229984131804894,3.0838623818212314,-0.1070103794336319,0.0642313882708549,-0.0949222519993782,0.0668583885300904,0.1610440317727625,-9.753548641204835,14967.0
32.8,2.799999952316284,216.0,23.10784721374512,23.441829681396484,-79.78278434904273,40.45902130457682,303.26983755493166,-0.0072602261789143,0.0077874171547591,0.999426543712616,0.0321433320641517,-0.020855324863858,0.0219399263723486,3.0882960467565552,-0.088086225092411,-0.040170844644308,-0.0035151375923305,0.1168527675792575,-0.0151791891083121,-9.75658042252064,14968.0
32.9,2.799999952316284,215.0,23.129133224487305,22.89315795898437,-79.78278439697627,40.45902131463265,303.5778705444336,-0.0069444100372493,0.0087007125839591,0.9994130730628968,0.0323982238769531,0.0248955197804986,0.037110501382426,3.0649522237200846,0.2101237624883652,0.0587998330593109,0.1361918747425079,0.2147104348428548,-0.3091906041651964,-9.636352313160897,14968.0
33.11,2.700000047683716,209.0,23.041488647460927,24.761823654174805,-79.78278429770579,40.45902132347322,304.20163458251955,7.011929847067222e-05,0.0085970433428883,0.9994471073150636,0.0321191027760505,0.0153377197549662,0.034977884629752,3.0341433636147324,-0.1137334406375885,0.0322245955467224,-0.0139764631167054,0.1336604884732514,0.0483090835902839,-9.656600051522256,14969.0
33.2,2.700000047683716,204.0,23.04399299621582,25.68422889709473,-79.7827843512745,40.45902133969223,304.50473516845705,0.0030467207543551,0.0083869751542806,0.999445915222168,0.0320678353309631,0.0411984391047531,0.0384754749553507,3.02718285061397,-0.0923095345497131,0.0430022068321704,-0.0049570444971323,0.0730685061402618,0.1873047360777855,-9.641780868172647,14969.0
33.41,2.5999999046325684,194.0,23.095327377319336,23.8076114654541,-79.78278427151608,40.45902135280011,305.1335384216309,0.00080575956963,0.0057957526296377,0.9994686245918274,0.0320685878396034,0.0710141943328765,0.0273871019424094,3.0454245227400474,0.1455655544996261,-0.0256422348320484,0.108560211956501,0.1333089337684214,-0.2696144193783402,-9.86214313030243,14970.0
33.6,2.5999999046325684,185.0,23.179214477539062,22.66255569458008,-79.78278432522939,40.45902137196597,305.4390346374512,0.0016909324331209,0.0062290471978485,0.999436855316162,0.0329305455088615,0.0444276176991606,0.0137246019086869,3.060844308962588,-0.0517784506082534,-0.0340499207377433,-0.0473705194890499,0.1080135225411504,0.1679969376325607,-9.923236008882524,14970.0
33.7,2.5,179.0,23.026464462280277,26.25675773620605,-79.78278423331916,40.45902136976952,306.0675784912109,0.0042198915034532,0.0079412972554564,0.9993390440940856,0.0352235101163387,0.03680971750092,0.0280266545879798,3.067022369410912,-0.0759622529149055,0.039269246160984,-0.0704021379351615,0.061991668716073,0.4002783103287221,-9.652819826602936,14971.0
33.8,2.5,175.0,23.03022003173828,24.68230628967285,-79.78278413846557,40.459021370295545,306.39126318359376,0.0033633953426033,0.006818342488259,0.9993350505828856,0.0356634818017482,0.0329531086996597,0.036127367661094,3.0948918418455458,-0.1928908079862594,-0.1067831292748451,-0.1104308888316154,0.0859746541175991,0.2148453045263886,-9.8620039665699,14971.0
34.0,2.400000095367432,166.0,23.13288879394531,22.217256546020508,-79.78278419590009,40.459021410688464,307.01375692749025,-0.000982460216619,0.0042250175029039,0.9993443489074708,0.0359464175999164,0.0324168411775574,0.0114593404349678,3.1195122818536096,0.033941026777029,-0.0718496069312095,-0.0162670854479074,0.0976910855714231,0.0731361465482041,-9.892418843507768,14972.0
34.11,2.400000095367432,166.0,23.09282302856445,24.29266929626465,-79.78278425618578,40.45902136584359,307.3404666748047,-0.002333543729037,0.0029888257849961,0.9993419647216796,0.0360755398869514,0.0367972721491624,0.0182378267724552,3.118229085732644,0.0368633903563022,0.0302111841738224,0.048461589962244,0.1067427124455571,-0.0647027211170643,-9.783146077394486,14972.0
34.3,2.5999999046325684,163.0,23.13664436340332,23.34640884399414,-79.78278420067336,40.45902137448879,307.97473638916017,-0.0005401522503234,0.002689354121685,0.9993584752082824,0.0357099436223506,0.0142562115831184,0.0215665816170925,3.0935309080063567,-0.1413659155368805,0.011639067903161,-0.0230345148593187,0.0529846679745242,0.2143402512744068,-9.61159344792366,14972.0
34.4,2.400000095367432,165.0,23.15793037414551,22.789783477783203,-79.78278425187881,40.45902136930253,308.28333013916017,0.0005004628910683,0.0030658324249088,0.9993692636489868,0.0353757664561271,0.0289394699163943,0.0323763403445864,3.0843275679915587,-0.1478282958269119,0.0006709457375109,-0.1045894920825958,0.0613032687082886,0.3374567389860749,-9.688001353740692,14973.0
34.6,2.5,156.0,23.147912979125977,22.217256546020508,-79.78278431119685,40.45902123893647,308.91758459472663,0.0007372716208919,0.0042987554334104,0.9994143843650818,0.0339415296912193,0.0651972996663137,0.0670618073473917,3.1078911041444544,-0.0044918078929185,-0.0609986558556556,0.0064707938581705,0.1298353770375251,-0.0063794767297804,-9.879460244178771,14973.0
34.8,2.400000095367432,155.0,23.03522872924805,24.12568283081055,-79.78278431135254,40.459021248730345,309.5488826599121,0.001576057402417,0.006132086738944,0.9994335770606996,0.0330540128052234,0.072409962042648,0.0645774017063295,3.1147518219065,0.0605057850480079,-0.0081121632829308,0.0731001645326614,0.1210194660443812,-0.1614811111427843,-9.843679962158204,14974.0
34.91,2.400000095367432,152.0,23.13288879394531,23.9825496673584,-79.78278438995297,40.45902122451135,309.86123770141603,0.0031728888861835,0.0070140077732503,0.9994122982025146,0.033403493463993,0.0825607133215501,0.0721396820142138,3.1301964490845915,0.0647581592202186,-0.0461123138666152,0.0389691665768623,0.1948354747518897,0.0147040845640003,-9.9465640604496,14974.0
35.0,2.400000095367432,148.0,23.109100341796875,23.163516998291016,-79.78278447472918,40.45902120075935,310.17490881347663,0.0038015968166291,0.0074959397315979,0.9993960857391356,0.0337185934185981,0.0896959443216916,0.0763979014340269,3.138507181387906,0.0122550940141081,-0.0360217168927192,-0.0464181005954742,0.2110135327465832,0.0914711190573871,-9.914068744182588,14975.0
35.21,2.400000095367432,144.0,23.142906188964844,23.17146873474121,-79.78278448359566,40.4590211658286,310.8115245666504,0.0059881834313273,0.0085832420736551,0.9994125366210938,0.0326360203325748,0.0879089365961274,0.0801758303371686,3.162170365889994,-0.037437230348587,0.0344868674874305,-0.0275636855512857,0.1279815173149109,0.1374879022501409,-9.956224830150605,14975.0
35.4,2.400000095367432,142.0,23.12287330627441,23.09990310668945,-79.7827845396411,40.45902110807658,311.4494067993164,0.0078556686639785,0.0073580518364906,0.9994851350784302,0.0302288196980953,0.0786909062804328,0.0790994537149205,3.1444596773317905,-0.1405789256095886,-0.0297281481325626,-0.0870633050799369,0.0604729412449523,0.1877027487382292,-9.612087537646293,14976.0
35.5,2.400000095367432,138.0,23.147912979125977,22.52737617492676,-79.78278459392388,40.459021094165685,311.7624255981445,0.0088719390332698,0.0076424777507781,0.9994985461235046,0.0294212717562913,0.0797141920194833,0.0624803464150192,3.1175037272383457,-0.0998034998774528,-0.0050779120065271,-0.0722377449274063,0.0492695664195343,0.2037028869241476,-9.584352439641954,14976.0
35.6,2.299999952316284,136.0,23.14540863037109,22.88520622253418,-79.78278460439755,40.45902113814099,312.07974356079103,0.0081097763031721,0.0085012586787343,0.9995076060295104,0.0290961861610412,0.0970590475980554,0.0505220627850817,3.095490167428613,0.0844068676233291,0.037946693599224,0.0020056716166436,0.1558037753775716,0.0317082559154369,-9.651234061717988,14977.0
35.8,2.299999952316284,130.0,23.139148712158203,22.60689353942871,-79.78278457592037,40.45902115632778,312.7136813964844,0.0048384624533355,0.0061987126246094,0.9995002746582032,0.0306178163737058,0.0461819942320912,0.0499732764213017,3.096098011694308,-0.1256523728370666,-0.0745747610926628,-0.0461718216538429,0.1316423768084496,0.2721047119796276,-9.72308172404766,14977.0
35.9,2.299999952316284,129.0,23.12287330627441,23.282794952392567,-79.78278460188112,40.45902115972768,313.02260321044923,0.0041545606218278,0.0046534072607755,0.9994763135910034,0.031751200556755,0.0424433435763715,0.0362048059994498,3.0805111102603124,-0.0876562520861625,-0.012711975723505,-0.0049026743508875,0.1131961655896157,0.148765993528068,-9.676501634716988,14978.0
36.1,2.299999952316284,127.0,23.09783172607422,22.85339736938477,-79.7827844922651,40.45902118548828,313.65119665527345,0.0031898654997348,0.003390533151105,0.999439537525177,0.0331501588225364,0.0314983735337685,0.0244551951062606,3.072927506632157,-0.0153259271755814,0.0505078881978988,0.0073062302544713,0.0838499586749822,0.1406098129134625,-9.71592648625374,14978.0
36.3,2.299999952316284,128.0,23.17170333862305,21.581113815307614,-79.78278441548808,40.45902116377169,314.27860372924806,0.0036116826813668,0.003906337544322,0.9994465112686156,0.0328415110707283,0.0237377405620991,0.0266964012255225,3.0836859607644604,-0.1060660257935524,-0.0281123779714107,-0.0416503399610519,0.0682550919195637,0.1154350370541215,-9.819157909154892,14979.0
36.41,2.400000095367432,132.0,23.135393142700195,22.52737617492676,-79.78278442952102,40.45902116073036,314.5867587890625,0.0037311234045773,0.0043613645248115,0.9994526505470276,0.0325823985040187,0.0429956645933344,0.0296798686440316,3.073895255474012,0.0561300851404666,-0.0442854277789592,0.046100053936243,0.1086652312707156,-0.1361476107873022,-9.751713784933091,14979.0
36.5,2.400000095367432,134.0,23.089067459106445,23.56905746459961,-79.78278444495744,40.459021157562354,314.893578704834,0.0037764890585094,0.004319492727518,0.999459445476532,0.0323734208941459,0.0496453246862661,0.0315525700587588,3.0593280066733564,0.133399561047554,-0.0151751087978482,0.0869289338588714,0.1330093370564282,-0.1849116534367204,-9.73453408062458,14979.0
36.71,2.400000095367432,135.0,23.095327377319336,22.439905166625977,-79.78278430523928,40.45902117693005,315.5123302307129,0.0038491275627166,0.0036776533816009,0.9994609355926514,0.0323955900967121,0.0303262178227348,0.0213339660615083,3.0759934631002968,0.0530315190553665,0.0633243843913078,0.0340602099895477,0.0818639244697988,0.1036933986190706,-9.890893889665604,14980.0
36.8,2.5,135.0,23.12412452697754,22.630748748779297,-79.78278423178921,40.4590211454024,315.82962911987306,0.0038352541159838,0.0050710611976683,0.9994531273841858,0.0324519090354442,0.022297900543119,0.0319538714660494,3.0865231780854687,-0.0696396678686142,0.0422295369207859,-0.0213793758302927,0.0764791504852473,0.2173348296806216,-9.817457538843156,14980.0
37.0,2.5,133.0,23.04023742675781,23.79170799255371,-79.78278424893959,40.45902113691393,316.4433376159668,0.0036354304756969,0.0058773830533027,0.9994536638259888,0.0323206968605518,0.0300738769054887,0.0428422671608748,3.0472127319337834,-0.0178564209491014,-0.0022915413137525,0.0211561359465122,0.0987223790958523,0.0694581336993724,-9.65870037138462,14981.0
37.2,2.5,135.0,23.14165306091309,22.59894180297852,-79.78278420506787,40.45902108239972,317.0650073852538,0.0034132909495383,0.0042584729380905,0.9994823336601256,0.0317066498100757,0.0353285631098142,0.036252793859321,3.0629497850007965,0.0117559656500816,-0.0477733835577964,0.0329407341778278,0.0521710781659931,0.0006458660820499,-9.848777564764024,14982.0
37.31,2.5999999046325684,135.0,23.15417289733887,21.811716079711918,-79.78278418336981,40.459021060889256,317.38237493896486,0.0040549151599407,0.0042044380679726,0.9994893670082092,0.0314153134822845,0.0454397608118159,0.0336559099579131,3.0706242301950155,0.0154004096984863,-0.0288684237748384,-0.0004376149154268,0.123541854377836,0.0481604272685945,-9.8626214325428,14982.0
37.4,2.5,135.0,23.06527900695801,23.624719619750977,-79.78278421280406,40.4590210568914,317.68973654174806,0.0041848509572446,0.004187298938632,0.9994859099388124,0.0315124727785587,0.0584723916001273,0.0288968888886352,3.0707732911521712,0.0719354748725891,0.0313371755182743,0.040351964533329,0.0863868005946278,0.0271353723923675,-9.82939755320549,14982.0
37.61,2.5999999046325684,133.0,23.159181594848643,21.899185180664062,-79.78278413916692,40.45902107009591,318.31419485473634,0.0047068195417523,0.0029779106844216,0.9994564056396484,0.0324957855045795,0.0469957925464875,0.0252049551329667,3.0774457031550817,-0.0287412088364362,0.0741863921284675,0.0176546946167945,0.0199320343974977,0.1574878831207752,-9.82706919193268,14983.0
37.8,2.5999999046325684,132.0,23.07028579711914,23.56905746459961,-79.78278411274525,40.45902103494616,318.9387904968262,0.0044820988550782,0.0032738435547798,0.99943870306015,0.0330399572849273,0.0716652506076198,0.0296630769657087,3.0704898977434185,0.1111297756433487,0.0176665987819433,0.0049452246166765,0.0612255738303065,0.0364033530978486,-9.769340216517447,14983.0
37.9,2.5999999046325684,131.0,23.135393142700195,22.583038330078125,-79.78278415321822,40.459021028130266,319.24649923706056,0.0034432418178766,0.0036543880123645,0.9994434714317322,0.0329787619411945,0.0719475245789157,0.0287934475120211,3.0821772309305926,0.121115006506443,0.0063829515129327,0.0299171991646289,0.0849690061155706,-0.0196091264812275,-9.888076701164248,14984.0
38.01,2.5,130.0,23.125375747680664,21.65267944335937,-79.78278419964597,40.45902102212705,319.55506246948244,0.0040049194358289,0.003870144020766,0.9994633197784424,0.0322816856205463,0.0564352806952678,0.0306721336241708,3.086947336150873,-0.053652074187994,0.0419628731906414,-0.0147397071123123,0.0602754469681531,0.2391871171072125,-9.811817314624788,14984.0
38.21,2.5,129.0,23.079050064086918,22.84544563293457,-79.78278417747859,40.45902103933692,320.1761371459961,0.0076797185465693,0.0042574414983391,0.9995294809341432,0.0293885953724384,0.0630601857545602,0.0310220816586576,3.0720396941483417,-0.1805199086666107,0.0236921180039644,-0.0842622220516204,0.0027912460500374,0.3236179875209927,-9.733945266008377,14985.0
38.31,2.400000095367432,128.0,23.159181594848643,21.70834350585937,-79.7827841607358,40.459020967891945,320.4921161499024,0.0097077554091811,0.0038845052476972,0.9995484352111816,0.0281716641038656,0.0917399823052328,0.0440560079429217,3.0803630247149574,-0.0966513901948928,0.0379172712564468,-0.0641668513417244,0.0254451456293463,0.2632666272483766,-9.846714667081834,14985.0
38.5,2.5,125.0,23.05150604248047,23.34640884399414,-79.78278425992616,40.459020947105046,321.1070110168457,0.012145385146141,0.0029043664690107,0.9995418787002563,0.0275719687342643,0.0987230329403382,0.0408698201003359,3.067476288300072,-0.0518621355295181,-0.063027448952198,-0.0073699131608009,0.0610625004675239,0.1057087602652609,-9.782176609039306,14986.0
38.7,2.5,124.0,23.06527900695801,23.1873722076416,-79.7827841737026,40.45902090739169,321.7320682373047,0.0111822178587317,0.0021641785278916,0.9995205998420716,0.028792230412364,0.0831104248512382,0.0363162928926496,3.06559125055647,0.0615839846432209,-0.0344392918050289,0.0230202469974756,0.0739176086476072,0.1079747207835316,-9.75488882303238,14986.0
38.8,2.5,119.0,23.18046760559082,21.915088653564453,-79.78278409402216,40.45902097615389,322.0530254211426,0.0089997220784425,0.0023584847804158,0.9995303750038148,0.029197933152318,0.0819938040161481,0.0264258334367239,3.0732835962951928,0.1253424882888794,-0.0156717412173748,0.0908262208104133,0.0989090697281062,-0.0282178313378244,-9.835089232921598,14987.0
38.9,2.5,120.0,23.23931312561035,20.67461204528809,-79.78278410040728,40.45902096379103,322.36071508789064,0.0065370644442737,0.0025046535301953,0.9995472431182858,0.02926517277956,0.0655289985334532,0.0305428122023285,3.074735619555212,0.1313323378562927,0.0452130362391471,0.009846388362348,0.1121459508407861,0.0388665429409593,-9.808796643018724,14987.0
39.11,2.5,118.0,23.13163757324219,21.620872497558597,-79.78278394445118,40.459020928836665,322.9850665893555,0.0057775597088038,0.0047100256197154,0.999551236629486,0.0290162023156881,0.0341653723175162,0.0430611229485481,3.0548797904374667,0.1047564372420311,0.0257079526782035,0.0333934240043163,0.0903161203768104,0.0038990147598087,-9.729083306193353,14987.0
39.3,2.5,118.0,23.09031867980957,23.25893783569336,-79.78278378504321,40.45902091964612,323.6092235412598,0.0057368138805031,0.0040706689469516,0.9995669722557068,0.0285734068602323,0.0291407963257957,0.045123244450622,3.0401024435667217,0.0012862476287409,0.0116957519203424,-0.0803266093134879,0.1359657441079616,0.3097717443108558,-9.719005045294764,14988.0
39.4,2.5,120.0,23.02521324157715,24.276765823364247,-79.78278378395505,40.45902090715336,323.9130145874024,0.005607180763036,0.004447809420526,0.9995646476745604,0.0286257695406675,0.0287623958350685,0.0371298012200668,3.033934144246282,-0.0544145442545414,-0.0188161972910165,-0.0593966469168663,0.1054738118313253,0.3606015534326433,-9.753436959385873,14988.0
39.5,2.5999999046325684,119.0,23.112855911254893,22.241111755371094,-79.78278379012997,40.45902089573415,324.216576751709,0.0060307127423584,0.0033628556411713,0.9995578527450562,0.0289210546761751,0.0330692352100371,0.0419429197803103,3.0360975813245026,-0.1207058057188987,-0.0491807498037815,0.0151557456701993,0.0844641812704503,0.235949769616127,-9.801730282902716,14989.0
39.7,2.700000047683716,119.0,23.05776596069336,23.37821578979492,-79.78278370524018,40.459020911062105,324.8351985778809,0.0083371568471193,-0.000214091836824,0.9995311498641968,0.0294631700962781,0.0577721917618884,0.008382586420362,2.997897597219209,-0.0237580481916666,0.0376024171710014,0.0257441252470016,0.0201912396401166,0.0874299530033022,-9.553856286406518,14989.0
39.8,2.799999952316284,119.0,23.05776596069336,23.473636627197266,-79.78278355673137,40.45902085994886,325.15010946655275,0.0090544903650879,-0.000547568895854,0.9995097517967224,0.0299670919775962,0.0593292714626683,0.0193229598488417,2.9864506100397907,0.0318682454526424,0.0459996797144413,0.00493283290416,0.0313158049620687,0.215223217383027,-9.550312288999557,14990.0
40.0,2.900000095367432,117.0,23.032724380493164,24.30857276916504,-79.78278357461572,40.45902082774274,325.7445613708496,0.0093342596665024,0.0018967203795909,0.9994859099388124,0.0306162238121032,0.0606916989864498,0.0257501660425906,2.9590202437497743,0.0178114175796508,0.0311146564781665,-0.0278600193560123,0.0513504625624045,0.192424667738378,-9.657926200032234,14990.0
40.1,2.900000095367432,119.0,23.08531188964844,23.09990310668945,-79.78278345925806,40.45902079355702,326.0636531677246,0.009909744374454,0.0022409122902899,0.9994854927062988,0.0304225385189056,0.0453288616326083,0.0355113846618845,2.9649057981861136,-0.0638044700026512,0.0105704171583056,-0.0570784583687782,-0.0237240108498372,0.2869214102625847,-9.619022920131684,14991.0
40.3,3.0999999046325684,120.0,22.97763442993164,24.92881202697754,-79.78278332376837,40.45902075502347,326.6708347167969,0.0092009827494621,0.0017270258395001,0.999517023563385,0.029634041711688,0.0536755326714226,0.0366216242253909,2.927102719199984,0.1043502911925316,-0.0117102293297648,0.0429517887532711,-0.0266929277451708,0.0886797131225466,-9.519364730715752,14991.0
40.4,3.2000000476837163,120.0,22.94132423400879,25.66037368774414,-79.7827833112851,40.459020735327286,326.96301763916017,0.0071188937872648,0.0001638744724914,0.9995471239089966,0.0292396061122417,0.043920854976461,0.0317216826586829,2.9206142464968585,0.0712432041764259,-0.0342249721288681,-0.0626856237649917,0.0473217675229534,0.2189843292161822,-9.713741966485976,14991.0
40.61,3.299999952316284,120.0,22.98765182495117,24.54712677001953,-79.78278320326625,40.45902066956455,327.5699130859375,0.0049531320109963,-0.0005749693373218,0.999599277973175,0.0278657656162977,0.019247307306121,0.0208692198285055,2.9752691285993693,-0.0484661795198917,0.0427044406533241,-0.0159497559070587,-0.0228445005370304,0.0868956454005092,-10.007037134170533,14992.0
40.7,3.299999952316284,120.0,23.052757263183597,22.81363868713379,-79.78278319581226,40.45902064395426,327.8686954345703,0.007890542037785,0.000793328450527,0.9996035695075988,0.0270152706652879,0.0263428134004287,0.0230716836916153,2.999210707119625,-0.0204936470836401,0.0293113440275192,-0.1383019536733627,0.0661812078673392,0.3175557405129075,-10.0588902425766,14992.0
40.9,3.5,118.0,23.05776596069336,23.13966178894043,-79.78278306129243,40.459020620672455,328.47061270141603,0.0075802756473422,0.0013089372077956,0.9995824694633484,0.0278525669127702,0.0437774706988255,0.0427007339405256,2.995256899743316,-0.0675863027572631,-0.1015334501862526,0.0098257679492235,-0.0338761225389316,0.1900172228738665,-9.83759885787964,14993.0
41.1,3.5,118.0,22.925048828125,25.57290458679199,-79.78278294865616,40.45902060951625,329.0687953796387,0.0107121085748076,-0.0008408830035477,0.9994977712631226,0.029812766239047,0.0436143665923628,0.0354775808343982,2.9652079490805265,-0.1265346407890319,0.0573197230696678,-0.0930758044123649,0.1280958851985633,0.0469504008069634,-9.740906376242636,14994.0
41.21,3.5999999046325684,117.0,22.973878860473643,23.529298782348643,-79.78278296066539,40.45902058426022,329.3657352294922,0.0110862217843532,0.0010576468193903,0.999489963054657,0.0299308635294437,0.0732339905783624,0.0248047031441994,2.9750529753355948,0.0086894547566771,-0.0051664728671312,0.047416727989912,0.0091216564178466,0.1814995290152729,-9.918838902711869,14994.0
41.3,3.700000047683716,116.0,23.0177001953125,24.54712677001953,-79.78278295156827,40.459020556965534,329.66950720214845,0.0101234894245862,0.003713630605489,0.9994955062866212,0.0298775397241115,0.0831262161037734,0.0335354186791617,2.9807223384842385,-0.0144677963107824,0.03473537042737,0.1189311817288398,-0.0298607710283249,0.145129820248112,-9.906911752223971,14994.0
41.5,3.799999952316284,116.0,23.00392723083496,22.78183174133301,-79.78278300851937,40.459020519371336,330.26562994384767,0.0110907750204205,0.0037101802881807,0.9994888305664062,0.0297556743025779,0.0867507396987788,0.051442406286359,2.9877751172472764,-0.0657095983624458,-0.0384608171880245,-0.119425281882286,0.0534076180960983,0.4334046507999301,-9.920277317762377,14995.0
41.6,3.799999952316284,116.0,23.00518035888672,23.60086441040039,-79.78278301531384,40.459020517819,330.5668880310059,0.0113080637529492,0.0007800373714417,0.9995125532150269,0.0290919300168752,0.1036082976641705,0.0336561607402405,2.9810165810699827,0.0778155326843261,-0.0362668186426162,-0.0413145087659359,0.0204827461810782,0.1318529405258596,-9.855196638107302,14995.0
41.81,3.900000095367432,116.0,22.953845977783203,25.087846755981445,-79.78278305415644,40.45902053366441,331.1635219421387,0.0141918677836656,-0.0009725444833748,0.9995408058166504,0.0267578065395355,0.0943165228748376,0.0010709792752045,2.9505289034952487,-0.1342281103134155,-0.0342638306319713,-0.0147443199530243,-0.0592788895592093,0.1613924892805517,-9.77337362587452,14996.0
42.0,3.900000095367432,114.0,22.93005752563477,25.40591812133789,-79.7827831086893,40.45902053137456,331.7543308105469,0.0142489066347479,0.0015851872740313,0.999552845954895,0.0262439437210559,0.0872212099455432,0.0049471215396772,2.9549832990457783,-0.1793268024921417,-0.0689355507493019,-0.0724600329995155,-0.0721275703702122,0.4313357597216964,-9.807064697742463,14996.0
42.1,3.900000095367432,114.0,23.01144027709961,23.70423889160156,-79.78278308585408,40.45902055120279,332.05707281494136,0.0121459616348147,0.0011802345979958,0.9995615482330322,0.0269784647971391,0.1270633671396917,0.0041674529544721,2.9585989771275694,0.253680408000946,0.0162811167538166,0.0784037858247757,-0.0477385049778968,0.1151034085638821,-9.899900940656662,14997.0
42.21,4.0,114.0,22.972625732421875,24.88905143737793,-79.78278312011456,40.45902055764938,332.3535854187012,0.0098478337749838,0.0001630193146411,0.999563992023468,0.0278380028903484,0.088546259676243,0.0009803609593828,2.966089068101493,-0.1148068010807037,-0.0395866781473159,-0.0099433436989784,-0.0967355683073401,0.4956218393146992,-9.811936597824095,14997.0
42.4,4.0,118.0,22.87621879577637,26.209047317504893,-79.78278312072523,40.45902061460589,332.9522487487793,0.0130719821900129,-0.0007118477951735,0.9994955062866212,0.0289389919489622,0.0947165054314203,-0.0127591954150538,2.9734767600845893,-0.0215123519301414,0.0505511239171028,-0.0654342696070671,-0.0489175183558836,0.3763585936278105,-9.836330012083057,14997.0
42.6,4.0,116.0,22.98389434814453,23.680383682250977,-79.78278315460112,40.45902062944325,333.2496921386719,0.0147681571543216,-0.0007964607793837,0.9994891881942748,0.02833235822618,0.108349353949086,-0.0194681155287296,2.9740290264541067,-0.053702674806118,-0.023441132158041,-0.1458971947431564,0.0196705085411667,0.3618422229588032,-9.87392877817154,14998.0
42.7,4.0,116.0,23.022708892822266,23.489540100097656,-79.78278321162763,40.459020674977324,333.8491336669922,0.0100401770323514,-0.0022640321403741,0.9995586276054382,0.027869900688529,0.1197713291171917,-0.0215259991894838,2.965150845952093,0.0011197342537343,-0.0362382493913173,0.0843660086393356,-0.0225381475500762,0.2289291091449559,-9.822701321840288,14998.0
42.9,4.0,116.0,22.96511459350586,24.74592018127441,-79.78278321213641,40.45902074656508,334.444302734375,0.0142046948894858,-0.0030730681028217,0.9995265007019044,0.0271225459873676,0.1162502881636698,-0.0272711889227895,2.9515952743329046,-0.0275563262403011,-0.015279047191143,0.0407859347760677,0.0100674709584563,0.0532799021154642,-9.908325608968736,14999.0
43.01,4.0,118.0,22.862445831298828,26.43964767456055,-79.78278325954187,40.45902076232998,334.7401172485352,0.0177666563540697,-0.002390852663666,0.9994927048683168,0.0263253021985292,0.1256150346874316,-0.0341095946390768,2.9560358790361185,-0.0007912427536211,0.0962718352675438,-0.0037422312889248,-0.0424898112332448,0.2895972423255443,-9.84160770893097,14999.0
43.1,4.0,116.0,22.95635032653809,24.66640281677246,-79.78278322043155,40.45902080370732,335.0466434326172,0.0181896034628152,-0.0010279308771714,0.9995148777961732,0.0252638086676597,0.1324581651151225,-0.0285282694154709,2.969809244859732,-0.0079943276941776,0.0084163034334778,-0.1004283353686332,-0.0870003105606883,0.4137103879451752,-9.941423188447953,15000.0
43.31,4.0,115.0,22.992658615112305,25.3900146484375,-79.78278321208387,40.459020879349815,335.6565372314453,0.0079701673239469,-0.0009824610315263,0.9996387958526612,0.0256500113755464,0.1097047730494343,-0.0180490081377871,2.996119814374925,0.0367279984056949,-0.1217509880661964,0.0789701640605926,-0.0800894041545689,0.0492470409348607,-9.875818598270415,15000.0
43.4,4.0,115.0,22.97137451171875,24.89700508117676,-79.78278325066864,40.45902090121992,335.95618170166017,0.0069188084453344,-0.0053500337526202,0.999626398086548,0.0258959103375673,0.0850115835354089,-0.031658739059368,2.9942610958427585,0.0597869642078876,-0.0358229950070381,0.0770730152726173,-0.14479781717062,0.1343258924782276,-9.782511069774626,15000.0
43.6,4.099999904632568,117.0,22.90626716613769,25.708086013793945,-79.78278322741363,40.459020972058354,336.56747930908205,0.0094586927443742,-0.0077435774728655,0.9996030926704408,0.0253822654485702,0.0912796669219433,-0.0644204528523805,3.009226662339425,0.0128531511873006,-0.0232095923274755,0.1048506572842598,-0.0600242176931351,0.0149324914254248,-9.963568933010102,15001.0
43.7,4.0,116.0,22.9788875579834,23.354360580444336,-79.78278326422834,40.45902099030311,336.87046545410163,0.0135263372212648,-0.0050509935244917,0.9995596408843994,0.0259256865829229,0.0869575778592261,-0.0606575666725427,3.0441282954179467,-0.0808155238628387,0.0670737028121948,0.0565285235643386,-0.1820405791886151,0.1503290090896189,-10.03745668888092,15001.0
43.9,4.099999904632568,117.0,22.962610244750977,23.95869445800781,-79.7827832881738,40.45902103694078,337.48476141357423,0.016424112021923,-0.00231957109645,0.9994500875473022,0.0287144370377063,0.1465444862149276,-0.0233005926519497,3.016594295578035,0.1092145219445228,0.0466056764125824,-0.0320134460926055,-0.0321351369190961,0.5223416048660875,-9.641392028331756,15002.0
44.0,4.0,117.0,22.98639869689941,23.545202255249023,-79.78278332432372,40.45902105326713,337.78596228027345,0.0136944772675633,-0.0034519473556429,0.9994269013404846,0.0307665765285491,0.1329381454838332,-0.0294654767054568,3.003991003471184,0.095782533288002,-0.03014980815351,0.0597879216074943,-0.040469461181201,0.2723627203702927,-9.677188097834588,15002.0
44.21,3.900000095367432,117.0,23.022708892822266,23.24303436279297,-79.78278328459402,40.45902121369654,338.3963519897461,0.0110832266509532,-0.003502920968458,0.9993752241134644,0.0333772972226142,0.1053647148542212,-0.0458223822024537,3.0047985849291625,-0.0259154047816991,-0.0584645941853523,-0.0330235920846462,-0.0233320509712211,0.2608833569660783,-9.789303780198097,15003.0
44.4,3.900000095367432,119.0,23.015195846557607,22.59099006652832,-79.78278325498952,40.459021270932176,339.0102893676758,0.0140398573130369,-0.0050347140058875,0.9993736743927002,0.0320917032659053,0.1119183744575881,-0.0412767754301984,2.995726361171735,-0.0206125769764184,-0.0585619807243347,-0.094814620912075,-0.0173158073890954,0.284300797842443,-9.754426892995834,15004.0
44.51,4.0,120.0,23.09657859802246,21.485692977905277,-79.78278329301627,40.45902129237823,339.3096286621094,0.015703422948718,-0.0050429515540599,0.9994059801101683,0.0302614606916904,0.1044039353398497,-0.0505663344904947,2.987806965735184,-0.1641143262386322,0.0102898338809609,-0.1023897379636764,-0.1832251154445112,0.5450691839307547,-9.672794499993325,15004.0
44.6,4.0,119.0,23.05526161193848,22.757976531982425,-79.7827831904315,40.45902135910392,339.62710302734376,0.0149012887850403,-0.0040804571472108,0.9994722604751588,0.0285762809216976,0.127888791246043,-0.0533450883884332,2.9845580229578417,-0.0348904728889465,-0.0632911697030067,-0.031139887869358,-0.1002257804665714,0.2407086357101798,-9.67735240459442,15004.0
44.8,4.0,118.0,23.09783172607422,21.565210342407227,-79.7827831501759,40.459021477775934,340.24070471191413,0.0140574881806969,-0.0026705735363066,0.9995453357696532,0.0265437327325344,0.110034688123843,-0.0499709762010271,2.9960677793497386,-0.1486942023038864,-0.0403733514249324,-0.2143645882606506,-0.0441085078194737,0.5704868111014366,-9.818665573596952,15005.0
44.9,4.0,116.0,23.06402587890625,21.573162078857425,-79.78278319382619,40.459021519438856,340.54021185302736,0.0162298567593097,-0.0047130296006798,0.9995163083076476,0.0261094197630882,0.1337410476554383,-0.0597095217088665,2.9859133244223823,-0.0153916049748659,-0.0597169585525989,-0.0763495936989784,0.0347485590912401,0.3967559476196766,-9.75294170022011,15005.0
45.11,4.0,116.0,23.069034576416016,21.915088653564453,-79.78278320989101,40.45902156760417,341.1595813598633,0.0176121331751346,-0.0099743939936161,0.9994257092475892,0.0271782372146844,0.1664555529806492,-0.0904231947284087,2.9917605089810064,-0.0405981503427028,0.0003236330812796,0.0263843685388565,-0.2296151154488325,0.4179809018969536,-9.7895493632555,15006.0
45.3,4.0,115.0,23.05150604248047,21.811716079711918,-79.78278324322292,40.45902169141736,341.7746097412109,0.0221459660679102,-0.0095445811748504,0.9993024468421936,0.0285171419382095,0.1745302841261579,-0.0990580528080727,2.9775914339040463,-0.1890955716371536,0.0216873530298471,-0.1295631378889084,-0.1270465292595327,0.6720000296831131,-9.653584642410276,15006.0
45.41,4.099999904632568,114.0,23.095327377319336,20.99268341064453,-79.78278332250866,40.45902174145815,342.07172125244136,0.0254959762096405,-0.0095830364152789,0.999225914478302,0.0283862426877021,0.2046620643926229,-0.1091541846309298,2.9513678218943085,-0.0564370118081569,-0.0678011178970336,0.0500618293881416,-0.2030481997691095,0.3185404847189784,-9.617392131686213,15007.0
45.5,4.099999904632568,112.0,23.079050064086918,22.050268173217773,-79.78278340612503,40.45902179465621,342.3665439453125,0.0275194346904754,-0.0093159824609756,0.9991811513900756,0.028159886598587,0.2246724030768462,-0.1060106474653174,2.926550074335111,-0.0334073193371295,0.0089358510449528,0.1084054857492446,-0.2656996354088187,0.6261390747874975,-9.498022978305816,15007.0
45.71,4.199999809265137,111.0,23.07028579711914,20.984731674194336,-79.78278338702479,40.45902191193692,342.97563665771486,0.0321843847632408,-0.0096379732713103,0.9990501403808594,0.027751101180911,0.2357163736076415,-0.0995214811664827,2.906765555789012,0.0519174337387084,0.053382683545351,-0.1011141315102577,-0.0446358535811305,0.5411309745535254,-9.636366931200028,15007.0
45.8,4.199999809265137,110.0,23.11410903930664,21.39027214050293,-79.78278333417056,40.45902202974045,343.29050177001955,0.0345665104687213,-0.0084343720227479,0.9989838004112244,0.0276672262698412,0.2299426913918929,-0.0995844076433821,2.9273457147001487,-0.0428650490939617,-0.0044704731553792,0.0772250667214393,-0.1632207857072353,0.4990081811696291,-9.682593848705292,15008.0
46.01,4.199999809265137,104.0,23.0076847076416,22.121835708618164,-79.78278339587702,40.459022102323374,343.87678259277345,0.0385320857167244,-0.0053159706294536,0.9988471269607544,0.0281338263303041,0.234605933881662,-0.0639348308877157,2.9123133562373846,0.0513757765293121,0.0757592171430587,0.0583744421601295,0.0709025147370994,0.4314627539366484,-9.748432327508928,15008.0
46.22,4.199999809265137,102.0,22.98514747619629,23.219179153442383,-79.78278330702695,40.45902217329277,344.48569982910163,0.0375652611255645,-0.0068287183530628,0.9988617300987244,0.0285922307521104,0.2062123576523279,-0.0317547111528083,2.920154389135053,0.071716271340847,-0.0353117734193801,-0.0894400179386138,0.0572043248545378,0.5687883411347866,-9.699913886189464,15009.0
46.3,4.199999809265137,100.0,23.05025291442871,21.86737823486328,-79.78278316199626,40.45902219861215,344.79259985351564,0.0364400967955589,-0.0080322651192545,0.9989100694656372,0.0280407257378101,0.1588290231641296,-0.0337214075544887,2.9263231376196366,-0.0896501913666725,0.0511714443564415,-0.0244107581675052,-0.1103575159795582,0.7217023859918118,-9.710450568795205,15009.0
46.41,4.199999809265137,98.0,23.032724380493164,23.338457107543945,-79.78278309497792,40.45902219124124,345.08557623291017,0.0342920422554016,-0.0058293836191296,0.9990217089653016,0.0273102298378944,0.1473398274613836,-0.0321261585310418,2.9255005029072407,0.0153631391003727,0.0039918380789458,-0.0303021166473627,-0.0808643794991076,0.5710226718708873,-9.756305603384972,15010.0
46.6,4.099999904632568,95.0,23.09282302856445,22.304725646972656,-79.78278284519834,40.45902220537221,345.6881763305664,0.0283240675926208,-0.0023146120365709,0.9992815852165222,0.0250761173665523,0.0979273856572992,0.0248942408689588,2.9507247115711643,-0.0137149235233664,-0.0490150265395641,-0.0826006978750228,0.0395341396518051,0.5331443357840181,-9.8024237626791,15010.0
46.81,4.0,97.0,22.99766731262207,23.680383682250977,-79.78278254993441,40.45902219840065,346.28474157714845,0.0269573405385017,-0.0034107191022485,0.9994011521339417,0.021426910534501,0.0520697741028746,0.0391712155683392,2.9325670050042705,-0.0996778234839439,0.058161336928606,-0.082669585943222,0.0819633454084396,0.6337099765241146,-9.76135291993618,15011.0
46.9,3.900000095367432,94.0,23.00392723083496,23.10785484313965,-79.78278243804584,40.459022145223,346.5785419311524,0.0240012630820274,-0.0017149419290944,0.9995179176330566,0.0196213871240615,0.0633152512990904,0.0465461602040959,2.9475688210083635,0.0809196904301643,0.016600951552391,0.0552316606044769,0.0181255736667662,0.3440515577048063,-9.909826004505158,15011.0
47.0,3.900000095367432,93.0,22.97137451171875,23.974597930908203,-79.7827823262416,40.45902208082472,346.8742114868164,0.0200318116694688,-0.000235318148043,0.9996236562728882,0.0187442824244499,0.057194677483674,0.0629449172601058,2.9656396928996966,0.2033464163541793,0.0646192282438278,0.0210691895335912,0.2059240796975791,0.3737563633918761,-9.973786357641222,15011.0
47.21,3.900000095367432,90.0,22.962610244750977,24.332427978515625,-79.78278191028024,40.45902197906197,347.4728214111328,0.0161151308566331,0.0018799687968567,0.9996888041496276,0.0189515314996242,0.0014093247368172,0.0963958135444447,3.0001525368701323,-0.0838226452469825,0.0395049452781677,0.0022586432751268,0.1517771816812455,0.3574802000820637,-9.943486086130145,15012.0
47.3,3.799999952316284,91.0,22.92254447937012,24.84134101867676,-79.78278177795079,40.45902197363096,347.7702533569336,0.017258396372199,0.0017184254247695,0.9996622800827026,0.019352488219738,0.0178993838824133,0.0938269413197241,2.987943134836001,0.1028391644358635,-0.0083483280614018,0.1593181937932968,0.0444805643241852,0.1554584972932934,-10.00482220888138,15012.0
47.5,3.799999952316284,89.0,22.980138778686523,23.871225357055664,-79.78278160532851,40.4590218114109,348.37524908447267,0.0179416332393884,0.0029762811027467,0.999622642993927,0.0205913931131362,0.0278836539366351,0.1084400828292774,3.049276760643757,-0.1257164776325225,0.0413300469517707,-0.0706604346632957,0.0178843600326217,0.5957609256729484,-9.918592150211335,15013.0
