time,wind_speed,wind_angle,battery_voltage,battery_current,position_x,position_y,position_z,orientation_x,orientation_y,orientation_z,orientation_w,velocity_x,velocity_y,velocity_z,angular_x,angular_y,angular_z,linear_acceleration_x,linear_acceleration_y,linear_acceleration_z,node_ids
0.0,1.100000023841858,198.0,25.6795597076416,-0.0636141896247863,-79.78283244710029,40.45894470465385,267.2732335968018,-0.0137561643496155,0.0187402050942182,-0.9933881759643556,0.1124261394143104,-0.0152475369654866,0.0004818984182756,-0.0046537381364966,-0.0027395072393119,-0.0010433160932734,-0.0074359118007123,-0.4155194433778525,0.2065471005253494,-9.79862775027752,14932.0
0.1,1.100000023841858,198.0,25.67705535888672,-0.0477106422185897,-79.78283242915386,40.458944707781065,267.2727304143906,-0.0137600237503647,0.0187478065490722,-0.993386685848236,0.1124368980526924,-0.0175635819366837,-0.0013723545177949,-0.004756131292108,0.0060100159607827,0.003697418840602,0.0063919932581484,-0.4096905733644962,0.1818462323583662,-9.80153790950775,14932.0
0.2,1.100000023841858,199.0,25.682064056396484,-0.0238553211092948,-79.78283240720489,40.45894471373276,267.27223700714114,-0.0137622831389307,0.0187466964125633,-0.9933854937553406,0.1124481782317161,-0.022077885264294,-0.0027506831843299,-0.0044147314035887,-0.0094789704307913,-0.0027475731913,-0.0048194397240877,-0.4138642793521285,0.2002587672695517,-9.800356771945951,14932.0
0.4,1.0,199.0,25.68331527709961,-0.0079517737030982,-79.78283236629433,40.4589446458852,267.25634819698337,-0.0137768015265464,0.0187579318881034,-0.9933788180351256,0.1125029325485229,-0.0241224516719223,-0.0012870047771581,-0.0037891813132556,-0.0035716348793357,-0.0022065714001655,-0.0007464872905984,-0.4105502967908979,0.1855767742171884,-9.801863014698029,14932.0
0.5,1.0,197.0,25.6795597076416,-0.0159035474061965,-79.78283234573668,40.45894458476766,267.2423667354584,-0.0137689914554357,0.0187651086598634,-0.9933769702911376,0.1125192493200302,-0.0235109573263952,-0.0010870508036291,-0.0005204125601831,-0.0037331599742174,-0.0014243759214878,-0.0120600229129195,-0.4143337376788258,0.2064663541316986,-9.799269189834597,14932.0
0.7,1.100000023841858,197.0,25.6795597076416,-0.0238553211092948,-79.78283228820466,40.458944599364536,267.2421605033875,-0.0137677611783146,0.0187935810536146,-0.9933716654777528,0.1125615015625953,-0.0300512475811157,-0.0042485951774654,-0.0003640779549841,-0.0058638993650674,-0.0022382328752428,-0.0024240149650722,-0.4133877678215504,0.1918379544652998,-9.80137184858322,14932.0
0.8,1.2000000476837158,200.0,25.68081283569336,-0.0079517737030982,-79.78283225915193,40.45894452380792,267.2285558624268,-0.0137373814359307,0.0188096743077039,-0.9933690428733826,0.1125858202576637,-0.0279011761658208,-0.0017179659329111,0.0014752758645569,0.0001042595758917,0.0018421207787469,-0.0034888763912022,-0.4153279470652342,0.2034918938018381,-9.799687850475312,14932.0
1.0,1.2999999523162842,201.0,25.675804138183597,0.0238553211092948,-79.78283223462705,40.45894446597003,267.21312421989444,-0.0137195074930787,0.0187946427613496,-0.993362307548523,0.1126498878002166,-0.0235508842150886,-0.0029951954827099,0.0002905138372972,-0.0049845166504383,-0.0027836735825985,-0.0066836830228567,-0.4140574567392469,0.199981791973114,-9.801066623926165,14932.0
1.1,1.2999999523162842,200.0,25.672048568725582,0.0079517737030982,-79.78283220894889,40.4589444736061,267.2131121797562,-0.0137078473344445,0.0187996681779623,-0.9933618307113647,0.1126543506979942,-0.0253111655591017,-0.004719838931475,0.0002757953566533,0.0024581518955528,0.0016010188264772,0.0021411585621535,-0.411309046112001,0.1981926170736551,-9.80017901659012,14932.0
1.3,1.399999976158142,195.0,25.66328430175781,-0.0318070948123931,-79.78283215482351,40.45894441189489,267.19710487556455,-0.0136981662362813,0.0188192222267389,-0.9933550953865052,0.1127120852470398,-0.0266586225665339,-0.0042810735268055,-0.0005214237984169,-0.0021219621412456,-0.0005488355527631,-0.0109412549063563,-0.4157492389529944,0.2055671437270939,-9.799419463276864,14932.0
1.4,1.399999976158142,193.0,25.668291091918945,-0.0159035474061965,-79.78283212420338,40.45894442208383,267.19700140190133,-0.013725109398365,0.0188117064535617,-0.993350863456726,0.1127467975020408,-0.0287048759847835,-0.0061846449177234,-0.0006897822087223,0.004847377538681,0.0007729232893325,0.0049511771649122,-0.4119925490766764,0.1837726341001688,-9.801399915218353,14932.0
1.6,1.399999976158142,193.0,25.67455101013184,-0.0079517737030982,-79.78283214956969,40.45894429203232,267.1834073705673,-0.013699141331017,0.0188499726355075,-0.9933476448059082,0.1127725020051002,-0.0167967689902901,0.0026745331189481,0.0021532843873701,-0.0021836450323462,0.0001062203446053,-0.0028921184130012,-0.4146442248299718,0.2043793001398444,-9.7991984385252,14932.0
1.7,1.399999976158142,194.0,25.675804138183597,-0.0159035474061965,-79.78283212819818,40.45894429407848,267.1835717601776,-0.0137203391641378,0.0188408959656953,-0.9933457970619202,0.1127872169017791,-0.0192260028914773,0.0009641960015203,0.002052915160778,0.0037811109796166,0.0025833181571215,0.005290521774441,-0.4086724634841085,0.1829136781208217,-9.801534985899924,14932.0
1.9,1.399999976158142,194.0,25.67329978942871,-0.0079517737030982,-79.78283204148231,40.45894421512948,267.1716063661576,-0.0137325692921876,0.0188622139394283,-0.9933422803878784,0.1128130778670311,-0.0252749158787254,0.0011173378577488,0.0050542829962698,0.0079015223309397,0.0023478467483073,0.0041697779670357,-0.4124395687133074,0.1909544401802122,-9.8006941562891,14932.0
2.0,1.399999976158142,194.0,25.672048568725582,0.0079517737030982,-79.78283199947761,40.45894412721108,267.1593988580704,-0.0137411439791321,0.0188667923212051,-0.9933387637138368,0.1128420978784561,-0.0245979879989492,0.0034552559167556,0.0081734448037165,-0.0016716426471248,-0.0028141639195382,0.0029717751313,-0.4098084678500891,0.1852821841835976,-9.80217174768448,14932.0
2.2,1.2999999523162842,196.0,25.67455101013184,-0.0318070948123931,-79.78283193679516,40.458944133021056,267.1609002990723,-0.0137252248823642,0.0188535582274198,-0.9933356642723083,0.1128739640116691,-0.0295093965529118,0.0004855068447616,0.0081933149007697,0.0070847831666469,0.0046957251615822,0.0041887834668159,-0.4106065031513572,0.1830393932573496,-9.80192441046238,14932.0
2.3,1.2000000476837158,195.0,25.675804138183597,0.0,-79.7828319343669,40.45894400942472,267.14691716861734,-0.0136756338179111,0.0188784077763557,-0.9933336973190308,0.1128925383090972,-0.0224763285907492,0.0068280622203331,0.0081584141444873,-0.0055219545029103,-0.0035730462986975,-0.0020683468319475,-0.4134202198684216,0.1943330892920494,-9.800283681750296,14932.0
2.5,1.100000023841858,196.0,25.67830848693848,0.0079517737030982,-79.78283188956527,40.458943902040936,267.133587305069,-0.013686703518033,0.0188766531646251,-0.9933304786682128,0.1129203215241432,-0.0190302504331424,0.006529668564684,0.0077464663689536,0.0037907504010945,0.0015531467506662,0.0056787910871207,-0.4086823672056199,0.1806638888083398,-9.802647126317025,14932.0
2.6,1.0,196.0,25.67329978942871,0.0159035474061965,-79.78283186556891,40.45894390000981,267.134301607132,-0.0136703178286552,0.0188712868839502,-0.9933308959007264,0.1129193007946014,-0.0228793688041575,0.0053329704672893,0.0080395342929572,-0.0038470567669719,-0.0038338874001055,-0.011063695885241,-0.4160182839632034,0.2080792172066868,-9.799188498258587,14932.0
2.8,0.8000000119209291,198.0,25.664535522460927,0.0159035474061965,-79.78283179066091,40.45894382786221,267.1213937444686,-0.0136618530377745,0.0188703723251819,-0.993327260017395,0.1129526048898696,-0.0254546639693501,-0.0003028658801557,0.0076069506208375,-0.0046736793592572,-0.0038866603281348,-0.002663058694452,-0.4115946095064283,0.190491541698575,-9.801908038258553,14932.0
2.9,0.8000000119209291,200.0,25.669544219970703,0.0159035474061965,-79.78283176035805,40.45894383395722,267.12209386062625,-0.0136660179123282,0.0188633184880018,-0.99332594871521,0.1129650995135307,-0.0276393455549683,-0.0019151440711458,0.0076227728838012,0.0046211211010813,0.0042290347628295,0.0004115049960091,-0.4121685502678156,0.1995661828480661,-9.800420506596566,14932.0
3.1,0.699999988079071,203.0,25.67455101013184,0.0,-79.7828317321015,40.45894370638396,267.1074344558716,-0.0136346202343702,0.0188735630363226,-0.9933221936225892,0.1129998341202736,-0.0221768170013649,0.0022146993560051,0.00484384606756,-0.0032155900262296,-0.0030789789743721,-0.0109269544482231,-0.4150688057765365,0.2083323285542428,-9.79936099112034,14932.0
3.2,0.699999988079071,205.0,25.67455101013184,0.0238553211092948,-79.78283170497329,40.45894370976882,267.10786205959323,-0.0136471893638372,0.0188581254333257,-0.9933187961578368,0.1130314022302627,-0.0238341786928439,0.0004048004545254,0.004807579480991,0.009721964597702,0.0046007661148905,0.0053348471410572,-0.4122245008125901,0.1808808387815952,-9.802197475433353,14932.0
3.4,0.699999988079071,208.0,25.67329978942871,0.0318070948123931,-79.78283162667954,40.458943615107,267.09087032508853,-0.0136313624680042,0.018872495740652,-0.9933142066001892,0.1130711585283279,-0.0264669325554534,-0.0006853362617053,-0.0004339813457352,0.0016447691014036,0.0043479092419147,0.0013610211899504,-0.4107947469502688,0.1958758771419525,-9.800035759806631,14932.0
3.5,0.699999988079071,210.0,25.6795597076416,-0.0159035474061965,-79.78283157618357,40.4589434932396,267.07633394432065,-0.013630942441523,0.0188845172524452,-0.9933120012283324,0.1130878925323486,-0.0253819511839247,0.00303651480996,-0.0010884474042696,-0.0057508931495249,-0.0018410517368465,0.0053811450488865,-0.4106546330451965,0.1898826272785664,-9.802029660344123,14932.0
3.7,0.8000000119209291,212.0,25.68081283569336,-0.055662415921688,-79.78283151347728,40.45894350075221,267.0759853763581,-0.0136109795421361,0.0188910868018865,-0.993312418460846,0.1130862236022949,-0.0299027335418304,0.0003087521318597,-0.0010605690262849,0.0055059106089174,-0.0011180633446201,0.0053088399581611,-0.4087654707580805,0.1809143871814012,-9.802141342163086,14932.0
3.8,0.8000000119209291,212.0,25.6795597076416,-0.0636141896247863,-79.78283151697245,40.45894338391217,267.06155687999734,-0.0135616101324558,0.0189168248325586,-0.9933130145072936,0.113082155585289,-0.0226155074113294,0.0003046087402116,-0.0014041736649338,-0.0096199987456202,-0.0041530737653374,-0.0099071525037288,-0.4153096745163202,0.2014503384567797,-9.800129315257072,14932.0
4.0,1.0,210.0,25.675804138183597,-0.0636141896247863,-79.78283144192956,40.45894327695298,267.04730731678006,-0.0135835129767656,0.0189141277223825,-0.9933069348335266,0.1131334453821182,-0.024060235003203,-0.000611463250838,-0.0016623594846201,-0.0045323031954467,-0.0014444310218095,1.4052920960239136e-05,-0.4116075464710593,0.1854936706647277,-9.803055846691132,14932.0
4.1,1.0,211.0,25.675804138183597,-0.0715659633278846,-79.78283141487698,40.45894328245378,267.0470964355469,-0.013554835692048,0.0189161747694015,-0.993302881717682,0.1131722778081894,-0.026714943793942,-0.0019634203289425,-0.0014697360641711,-0.0035178577527403,-0.0006786443991586,-0.00916188955307,-0.416502981595695,0.2046913587301969,-9.79939665913582,14932.0
4.3,1.2000000476837158,211.0,25.67455101013184,-0.0715659633278846,-79.78283135480258,40.45894314193528,267.03505784702304,-0.0135444281622767,0.0189332049340009,-0.9932963252067566,0.1132279708981514,-0.0234525279687963,0.0031770154618211,0.0012752422472893,-0.0056143505498766,0.000541906862054,-0.0064858426339924,-0.4098663187399506,0.1791100826114416,-9.801914470195769,14932.0
4.4,1.2000000476837158,211.0,25.67705535888672,-0.0636141896247863,-79.78283132627482,40.45894314482364,267.03511482906345,-0.0135419527068734,0.0189233087003231,-0.9932941794395448,0.1132488772273063,-0.0251972001541456,0.0014875808439371,0.0011583384128919,0.0046347696334123,0.0012563405325636,-0.0008119819685816,-0.4123436743766069,0.1963997328467668,-9.799806548953056,14932.0
4.6,1.399999976158142,210.0,25.6795597076416,-0.0636141896247863,-79.78283127781708,40.45894302913658,267.021255437851,-0.0135243013501167,0.0189354382455348,-0.9932907819747924,0.1132784932851791,-0.0233336833940812,-0.0001390503868748,9.129908557230888e-05,-0.0075764926150441,-0.0012970393290743,-0.0084740119054913,-0.4177238802239299,0.2083269198797643,-9.798820708394054,14932.0
4.7,1.5,209.0,25.6795597076416,-0.0636141896247863,-79.7828312504541,40.458943034807,267.0212133569717,-0.0135277677327394,0.0189390387386083,-0.9932913184165956,0.1132727116346359,-0.0245618066026505,-0.0017004764834091,1.8267185766557718e-07,0.0072576771490275,0.00553411943838,0.0043114046566188,-0.4102786205336452,0.1840680463984609,-9.802771672010422,14932.0
4.9,1.5,206.0,25.682064056396484,-0.0636141896247863,-79.78283120690266,40.45894291261861,267.00770050716403,-0.013514544814825,0.0189449079334735,-0.9932881593704224,0.1133012622594833,-0.0218421250959557,-0.0022445952751805,-0.0007159709349701,0.005057240370661,0.0043264105916023,0.0014789688866585,-0.4133327674493194,0.2004664347879588,-9.801085919737815,14932.0
5.0,1.600000023841858,205.0,25.682064056396484,-0.0397588685154914,-79.78283115181739,40.4589427633803,266.9948019428253,-0.0135167948901653,0.0189645532518625,-0.993282437324524,0.1133476942777633,-0.0199528231803498,0.0046852769543661,-0.0007347592562163,0.0003132821002509,-0.0003405920288059,0.004337225575,-0.4101160313934088,0.1809363507851958,-9.802938902378084,14931.0
5.2,1.7000000476837158,199.0,25.669544219970703,-0.055662415921688,-79.78283109899489,40.45894276582689,266.9945516033173,-0.0135068846866488,0.0189630631357431,-0.9932780861854552,0.1133875623345375,-0.0247377861511877,0.0020328422647694,-0.0005669690130273,0.0069132116623222,0.0033055960666388,0.0014214556431397,-0.4132232417911291,0.187757383659482,-9.801574162244798,14931.0
5.3,1.7000000476837158,197.0,25.669544219970703,-0.055662415921688,-79.78283104853955,40.45894266181348,266.9821949644089,-0.0134793575853109,0.018979649990797,-0.9932739734649658,0.1134234443306922,-0.0248237847714484,-0.0011985578069732,-0.0008720843900098,-0.006116185337305,0.0007441983325406,0.0016939135966822,-0.4121465501189232,0.1848048503883183,-9.802479895949364,14931.0
5.5,1.7000000476837158,193.0,25.67705535888672,-0.0477106422185897,-79.78283095621084,40.45894254126116,266.9713543100357,-0.0134679805487394,0.018966345116496,-0.99327290058136,0.1134366393089294,-0.0251090691179196,-0.001105580990521,0.001167179419173,0.0059351078234612,0.0024709478020668,0.006956139113754,-0.410255926027894,0.1811307158879936,-9.803643491864204,14931.0
5.6,1.7000000476837158,190.0,25.67830848693848,-0.0636141896247863,-79.78283092713508,40.45894254749197,266.9714286966324,-0.0134558398276567,0.0189660005271434,-0.9932700395584106,0.1134634390473365,-0.0287656490088136,-0.0020673943035145,0.001357936051273,-0.0109874038025736,-0.0008237271686084,-0.0106683019548654,-0.4119917450845242,0.2010697578079998,-9.80056025505066,14931.0
5.8,1.7000000476837158,187.0,25.6795597076416,-0.0636141896247863,-79.78283089765199,40.45894239545387,266.96117645931247,-0.0134440269321203,0.0189612694084644,-0.9932636022567748,0.1135222613811492,-0.0189561926411045,0.0003254091772241,0.0033944686547836,0.0004516386252362,-0.0025749276392161,0.00238246191293,-0.4137209860235453,0.1983212558180093,-9.7999807959795,14931.0
5.9,1.7000000476837158,185.0,25.68081283569336,-0.0636141896247863,-79.7828308744149,40.45894239973836,266.9614797277451,-0.013433214277029,0.0189696867018938,-0.9932630062103271,0.1135270297527313,-0.0219938273156198,-0.0008062017626074,0.0035927814528161,-0.0066786888055503,-0.0029018889181315,-0.0106019908562302,-0.4167845250293613,0.2079771284759044,-9.798517822623252,14931.0
6.1,1.7000000476837158,180.0,25.67705535888672,-0.0636141896247863,-79.78283078758719,40.45894227591443,266.95354909133914,-0.013403988443315,0.0190094541758298,-0.9932599663734436,0.113550953567028,-0.0244860413240725,-0.0012716343910305,0.0068779001285488,-0.0060824211686849,-0.0016636013751849,-0.004413666203618,-0.4133740999549628,0.1929722229391337,-9.802636016607288,14931.0
6.2,1.600000023841858,178.0,25.67830848693848,-0.0715659633278846,-79.78283075904764,40.45894228265732,266.954178516388,-0.0133997146040201,0.0190090481191873,-0.993258774280548,0.1135616451501846,-0.026203588664928,-0.0027475697452267,0.006792425942365,0.0021173865534365,-0.001533477101475,-0.0023043914698064,-0.4132862455397845,0.1994782370701432,-9.799052258133887,14931.0
6.4,1.5,175.0,25.682064056396484,-0.0477106422185897,-79.78283065092913,40.45894213513613,266.9450055999756,-0.0133663536980748,0.0190192963927984,-0.9932563304901124,0.1135852485895156,-0.0295662853124242,0.0010535188159445,0.0072245464354957,-0.0014690473908558,-0.0019856535363942,-0.0013022824423387,-0.41079237151891,0.1850307904556393,-9.802389848828318,14931.0
6.5,1.5,172.0,25.66703987121582,-0.1351801604032516,-79.78283064694948,40.45894201015923,266.9360809965134,-0.0133414091542363,0.0190190356224775,-0.9932553172111512,0.1135972067713737,-0.0194992762368429,-0.0034302182098233,0.0075208064135387,0.0073725213296711,0.0041676047258079,0.0025454724673181,-0.4101165795698761,0.1812540738657116,-9.802496268153194,14931.0
6.7,1.5,169.0,25.68456840515137,0.0,-79.78283059875754,40.45894202606637,266.9375416679382,-0.0133270053192973,0.0190038606524467,-0.9932523965835572,0.1136261075735092,-0.0237822714710904,-0.0058562418493267,0.0075802873039928,0.0083984341472387,0.0026869785506278,0.0017285945359617,-0.4167344217002392,0.2027052422985434,-9.799812396168711,14931.0
6.8,1.5,168.0,25.67705535888672,-0.055662415921688,-79.78283056291897,40.45894182195259,266.9309231681824,-0.0133246202021837,0.0190290678292512,-0.9932489395141602,0.1136528104543686,-0.0182286700911824,0.0057045213609714,0.0110428835431893,-0.0070886854082345,-0.002895412268117,0.0027856631204485,-0.4105466788262129,0.189107341300696,-9.80259333193302,14931.0
7.0,1.399999976158142,165.0,25.67830848693848,-0.055662415921688,-79.78283050061458,40.45894168306425,266.9242103738785,-0.0133264306932687,0.0190107729285955,-0.9932456612586976,0.1136848032474517,-0.0159106144010153,0.0029672658699669,0.0102200031437991,0.0083158938214182,0.0017817222978919,0.0062575051560997,-0.4101014864444733,0.181525384671986,-9.80227758228779,14931.0
7.1,1.399999976158142,162.0,25.67455101013184,-0.0715659633278846,-79.78283048060584,40.45894168336967,266.9251949234009,-0.0133160427212715,0.0190133657306432,-0.9932428598403932,0.113709732890129,-0.0193362002769096,0.0022254024625165,0.0104511056375462,-0.0072358287870883,-0.0030997681897133,-0.0087839206680655,-0.4140115195512772,0.2011388097703457,-9.80033513724804,14931.0
7.3,1.2999999523162842,158.0,25.67329978942871,-0.0715659633278846,-79.78283040785796,40.45894152781575,266.92052287292483,-0.0133274104446172,0.0190212819725275,-0.9932366609573364,0.1137614697217941,-0.0178911435857184,0.0034823427300194,0.0123976693436656,-0.0008278043242171,0.0001584436977282,0.0053079766221344,-0.4124511535093188,0.1922686201706528,-9.800162059664729,14931.0
7.41,1.2999999523162842,154.0,25.672048568725582,-0.0636141896247863,-79.78283031926301,40.458941364424994,266.91690379810336,-0.01332647819072,0.0190492421388626,-0.993233323097229,0.1137852892279625,-0.0185834873318414,0.0054566671144472,0.0140944303121555,0.0061796754598617,0.0018645962700247,0.0061461008153855,-0.417473911754787,0.2065659029781818,-9.799330585598948,14931.0
7.6,1.2999999523162842,150.0,25.665786743164062,-0.0795177370309829,-79.7828302951748,40.45894136296928,266.91826516819003,-0.0133208855986595,0.0190462581813335,-0.9932311773300172,0.1138054206967353,-0.0220387159876868,0.0047657464917761,0.0144709478473292,-0.0055719427764415,-0.0053142588585615,-0.006978197954595,-0.4172770067676902,0.200589774493128,-9.801857167482376,14931.0
7.7,1.2000000476837158,150.0,25.675804138183597,-0.0715659633278846,-79.78283026782653,40.4589413636032,266.919640247345,-0.013316560536623,0.0190385971218347,-0.993230640888214,0.1138121783733368,-0.0230087817196231,0.0033284316892488,0.0143873111787774,0.010689003393054,-0.0005132749793119,0.0038373917341232,-0.4122136469185352,0.1905539241805672,-9.800767831206322,14931.0
7.9,1.2999999523162842,145.0,25.6795597076416,-0.0715659633278846,-79.78283018522215,40.45894120503317,266.91668302249906,-0.0133106326684355,0.0190706420689821,-0.9932262897491456,0.1138453781604766,-0.0245584867788765,0.0031332592600774,0.015761399096149,2.9283713956829164e-05,-0.0014440707163885,-0.0055246804840862,-0.4159430741518736,0.2076286161504686,-9.798380997776986,14931.0
8.0,1.2999999523162842,142.0,25.67705535888672,-0.055662415921688,-79.78283012638332,40.45894103179272,266.9130564374924,-0.0133199021220207,0.0190792996436357,-0.9932220578193665,0.1138796582818031,-0.0219609751341646,0.0081526308249885,0.016624939827939,0.0043196636252105,0.0016607445431873,0.0059803021140396,-0.4103464482352137,0.1807695224136114,-9.80303655087948,14931.0
8.2,1.2000000476837158,138.0,25.67705535888672,-0.0715659633278846,-79.78283006697217,40.45894102713197,266.91625005435947,-0.0133143793791532,0.019070841372013,-0.99321848154068,0.1139127612113952,-0.0256067811150508,0.006145788604735,0.0168242509961486,0.009613555856049,0.0050000366754829,0.0033795235212892,-0.4095305789262057,0.1836668908596039,-9.802647126317025,14931.0
8.3,1.2000000476837158,136.0,25.67705535888672,-0.0636141896247863,-79.78283003570972,40.45894087315076,266.9155662698746,-0.0132870869711041,0.0190690476447343,-0.9932170510292052,0.113928772509098,-0.021984494782192,0.0052870436989159,0.0206479182740232,-0.010215999558568,-0.0044002034701406,-0.0049703875556588,-0.4114922832325101,0.1998753543756902,-9.802573451399804,14931.0
8.5,1.100000023841858,134.0,25.67455101013184,-0.0954212844371795,-79.78282998349056,40.4589407362694,266.9176654262543,-0.0132697187364101,0.0190477445721626,-0.9932115077972412,0.113982617855072,-0.0179022151277062,-0.000719744078346,0.0238108556439371,-0.0058164866641163,-0.0038288340438157,0.0002267216041218,-0.4129078210517764,0.1856572830677032,-9.8004889190197,14931.0
8.6,1.100000023841858,133.0,25.668291091918945,-0.1033730581402778,-79.78282996280932,40.458940739879175,266.92001170349124,-0.0132364016026258,0.0190538447350263,-0.9932103753089904,0.1139956042170524,-0.0197511030296871,-0.0018641655097325,0.023931902745401,0.0027935253456234,0.0038560950197279,-0.0048406175337731,-0.4162184414640069,0.2031911459192633,-9.800078444480896,14931.0
8.8,1.0,135.0,25.670795440673828,-0.0636141896247863,-79.78282989592334,40.45894053721575,266.92273301315305,-0.0132275177165865,0.0190929323434829,-0.9932053089141846,0.1140336841344833,-0.0172951532912939,0.0050412606710063,0.0258740710807181,-0.0041191894561052,-0.0017335040029138,-0.0084228469058871,-0.4107302083075047,0.1815856840834021,-9.802120292186736,14931.0
8.9,1.0,138.0,25.67455101013184,-0.0715659633278846,-79.78282987349381,40.45894053626782,266.9252520246506,-0.0132275493815541,0.0190955698490142,-0.993202030658722,0.1140624433755874,-0.0179681215253301,0.0036518558142755,0.0257564274869363,0.0060999155975878,0.003362281480804,0.0031375573016703,-0.4118211891129613,0.1837911624647677,-9.802425516843796,14931.0
9.1,0.8999999761581421,143.0,25.66203117370605,-0.0795177370309829,-79.78282982983927,40.45894037807083,266.9306132240296,-0.0132158864289522,0.0191104244440794,-0.9932005405426024,0.1140739843249321,-0.0148311363898581,0.0014919275346432,0.02967535788661,0.0037490755785256,0.0039129434153437,-0.0001613131753401,-0.4127396039664746,0.1970106572471559,-9.803028364777566,14931.0
9.2,0.8999999761581421,143.0,25.67329978942871,-0.055662415921688,-79.78282980973232,40.45894037948468,266.93354481887815,-0.0132281705737113,0.01910319365561,-0.9931970238685608,0.1141048744320869,-0.0173724034093251,0.0006383600231889,0.0297115717690576,0.0006516601424664,-0.0047238823026418,0.0059458604082465,-0.410466389246285,0.1833269118145108,-9.801579424738884,14931.0
9.4,0.8000000119209291,143.0,25.675804138183597,-0.1113248318433761,-79.78282967351413,40.45894021988888,266.9399773521424,-0.0132208382710814,0.0190823283046484,-0.9931942820549012,0.114132322371006,-0.0245212678978544,0.0017052933621354,0.0327688155738138,0.0032233747188001,0.0001643646683078,0.003630903782323,-0.4165858293324709,0.2060384110361337,-9.797921991348266,14931.0
9.5,0.8000000119209291,144.0,25.67705535888672,-0.0636141896247863,-79.78282961667384,40.45894001721901,266.9418537063599,-0.0132229570299386,0.0191114209592342,-0.993190050125122,0.1141640394926071,-0.0219239451441627,0.0090924221551338,0.032512247690173,-0.007021992933005,-0.0015515082050114,-0.0082276072353124,-0.4138866084069014,0.2018450072407722,-9.800849107503891,14931.0
9.7,0.8000000119209291,149.0,25.67455101013184,-0.0795177370309829,-79.7828295578728,40.45894001006335,266.9482048196793,-0.0132259428501129,0.0191030651330947,-0.9931848049163818,0.1142108887434005,-0.0255080288160951,0.0071706634592546,0.032771078254313,-0.0041474192403256,-0.002083814702928,-0.0017500597750768,-0.4106262009590864,0.1869170108623802,-9.803687930703164,14931.0
9.8,0.8000000119209291,152.0,25.6795597076416,-0.055662415921688,-79.7828294755472,40.45893981647615,266.95321375560763,-0.0132103264331817,0.0191161762923002,-0.9931834936141968,0.1142215505242347,-0.0250787630724546,0.0107578257547034,0.0354596436188452,0.0025386270135641,-0.000407440442359,-0.0028015614952892,-0.4149657486006617,0.2028975426033139,-9.798103255033494,14931.0
10.0,0.699999988079071,158.0,25.65201568603516,0.2862638533115387,-79.78282942465013,40.458939623385454,266.9600299043656,-0.0131945805624127,0.0191221088171005,-0.99318265914917,0.1142304614186286,-0.0182671550898791,0.0127213059089837,0.0345105669918356,-0.004775327630341,-0.0001772245886968,-0.0022189829032868,-0.4184325627610088,0.1961719289794564,-9.799579676985742,14931.0
10.1,0.699999988079071,163.0,25.65702247619629,0.2465049922466278,-79.7828293988549,40.45893961529045,266.9633792085648,-0.0131878582760691,0.0191152486950159,-0.9931779503822328,0.1142728999257087,-0.0193805099981869,0.0115140977734351,0.034238307723087,0.0118419313803315,0.0034594547469168,-0.0037706007715314,-0.4019740394130349,0.1802424324676394,-9.802486327886582,14931.0
10.3,0.699999988079071,163.0,25.65201568603516,0.2544567584991455,-79.7828292920008,40.45893942851914,266.9729097528458,-0.0131625207141041,0.0191113147884607,-0.9931769371032716,0.1142850369215011,-0.0236901405147584,0.0117031061428448,0.0367081637683405,0.0013260124251246,0.0033005634322762,-0.0067362221889197,-0.4198421802744269,0.1943185626156628,-9.801046743392943,14931.0
10.4,0.699999988079071,163.0,25.64700698852539,0.2385532110929489,-79.78282925981938,40.458939422046775,266.97647291851047,-0.0131712211295962,0.0191227942705154,-0.9931654334068298,0.114382080733776,-0.0248558682965858,0.0111247205781124,0.0366196326282775,-0.0007879444165155,-0.0043370118364691,0.0048394100740551,-0.414930884577334,0.1849272033758461,-9.801222744584084,14931.0
10.6,0.699999988079071,168.0,25.649511337280277,0.2624085247516632,-79.78282918030862,40.458939207517545,266.9824398202896,-0.0131292445585131,0.0191232524812221,-0.993160367012024,0.1144313216209411,-0.0222882594781424,0.0157236055103997,0.0325363614226043,0.0102568939328193,-0.0005880270618945,0.0035677917767316,-0.4186164942383767,0.2025132343545556,-9.795901193618777,14931.0
10.7,0.699999988079071,166.0,25.65451812744141,0.2942156493663788,-79.78282914796013,40.45893919878378,266.9855735940933,-0.0131257763132452,0.0191215761005878,-0.9931588768959044,0.1144448816776275,-0.0246519019260437,0.0144295852273886,0.0325845839575121,-0.0019533219747245,-0.0010253133950755,0.0030469812918454,-0.4070075419172645,0.2041095973178744,-9.803725937604904,14931.0
10.9,0.699999988079071,167.0,25.6507625579834,0.3657816052436829,-79.78282914561936,40.45893897213834,266.9915680332184,-0.0130988778546452,0.0191689934581518,-0.993150532245636,0.1145124360918998,-0.0146162087876505,0.0146967396778293,0.0287126783683593,0.0032925326377153,0.003519820049405,0.0078626489266753,-0.4149475125968457,0.1874878635630012,-9.801406347155572,14931.0
11.0,0.699999988079071,169.0,25.641998291015625,0.3975887000560761,-79.78282908679839,40.458938792401376,266.9970204277039,-0.0130658913403749,0.0191668272018432,-0.993153154850006,0.1144940108060836,-0.015485522494185,0.0156697464842564,0.0275899531242113,-0.0075803017243742,0.0002692410489544,-0.0093509051948785,-0.4216823721304536,0.20874660378322,-9.7950814139843,14931.0
11.2,0.699999988079071,172.0,25.60944557189941,0.8269844651222229,-79.7828290404316,40.4589387692323,267.0024376554489,-0.012898314744234,0.0193702355027198,-0.9931598901748656,0.1144199222326278,-0.0185039612691583,0.0130987248256869,0.0283740979880452,-0.020131591707468,-0.0207897741347551,-0.0017696254653856,-0.4327601414546371,0.1710010725818574,-9.802295123934746,14932.0
11.3,0.699999988079071,170.0,25.641998291015625,0.2226496636867523,-79.78282898719797,40.45893858474653,267.00824135971067,-0.0128945596516132,0.0193598456680774,-0.9931660890579224,0.1143686398863792,-0.015356925091102,0.0138510063480496,0.0255956587217056,-0.0029421132057905,0.0332146659493446,-0.0058542350307106,-0.4251220698282122,0.1869470143876969,-9.794816535115242,14932.0
11.5,0.699999988079071,165.0,25.33649826049805,3.649864196777344,-79.78282891325367,40.45893838346261,267.02036685180667,-0.0129016796126961,0.0193716660141944,-0.993154764175415,0.1144642159342765,-0.0168146018488581,0.0172511800518112,0.0296860396219517,-0.0041304314509034,-0.001201725564897,0.0124386958777904,-0.4181224045157433,0.2131033641658724,-9.790176184773443,14932.0
11.6,0.699999988079071,163.0,25.60193252563477,0.6838525533676147,-79.78282888871051,40.45893837464189,267.0230900688172,-0.0128500554710626,0.0193246081471443,-0.9931594729423524,0.1144371852278709,-0.020617994276182,0.0146067490717183,0.0289577453935242,-0.0401961505413055,-0.0593424774706363,-0.0256031863391399,-0.4277141039818525,0.2371304503642023,-9.786157393455506,14932.0
11.8,0.8000000119209291,157.0,25.64700698852539,0.1908425688743592,-79.78282877492089,40.45893821250503,267.03796261978147,-0.0129296574741601,0.0192628391087055,-0.9931421875953674,0.1145885810256004,-0.0228111055893774,0.0089828772370062,0.030308797939744,-0.0135428365319967,-0.0188286006450653,0.0023305928334593,-0.4194067454338074,0.145859616715461,-9.7938599306345,14932.0
11.9,0.8000000119209291,158.0,25.62071418762207,0.9701164364814758,-79.78282874388141,40.45893821038669,267.0408436698914,-0.0129525978118181,0.0192820560187101,-0.9931344985961914,0.1146488115191459,-0.0251270023060656,0.0046703281303015,0.0297161947271488,-0.0059067909605801,0.0105923470109701,-0.0106682330369949,-0.4336534863710403,0.2236019302345812,-9.808655140399932,14932.0
12.1,0.8000000119209291,156.0,25.37906837463379,4.810823440551758,-79.78282865330677,40.4589380045708,267.05678540897367,-0.0129159530624747,0.0192514173686504,-0.993133306503296,0.1146683469414711,-0.022848979147874,0.0112863849737682,0.034670452319705,-0.0029060237575322,-0.0131578929722309,-0.0229341145604848,-0.4077040549367666,0.1896201969310641,-9.794285607934,14932.0
12.2,0.8000000119209291,157.0,25.31521415710449,5.7968430519104,-79.7828286212313,40.458937999579135,267.0600532932282,-0.0128687554970383,0.019286872819066,-0.993137001991272,0.1146361604332924,-0.0240987986504808,0.0088633618521205,0.0337193909108567,0.0116014275699853,-0.0121847633272409,-0.0018493115203455,-0.4076000841334462,0.1761741225421428,-9.799248724579812,14932.0
12.4,0.8999999761581421,155.0,25.13366508483887,8.31755542755127,-79.78282856712839,40.45893777808774,267.0784820957184,-0.0126233529299497,0.0194202922284603,-0.9931371212005616,0.1146397143602371,-0.0147950683524455,0.0133297716287896,0.0379723185279473,0.0739073455333709,0.0389991626143455,-0.0255008749663829,-0.3845316854864359,0.2015524637326598,-9.804751539230349,14932.0
12.5,0.8999999761581421,157.0,25.04351806640625,9.71706771850586,-79.78282854964743,40.45893757879039,267.0905535860062,-0.0122326966375112,0.019579404965043,-0.9931414127349854,0.1146178096532821,-0.0132840872419485,0.0118586854215414,0.0367092155143227,0.0455767959356308,-0.0196721274405717,-0.000504832889419,-0.476748415902257,0.2288630173355341,-9.77977281868458,14932.0
12.7,0.8999999761581421,157.0,24.85445785522461,13.080668449401855,-79.78282851209352,40.45893756180462,267.09814447593686,-0.0110098905861377,0.0198077950626611,-0.99316143989563,0.1145289987325668,-0.0163459179147561,0.0040652800285065,0.038106405210925,0.0082456562668085,-0.0066294018179178,-0.0395895950496196,-0.5308108947426081,0.1096477919071912,-9.77640716135502,14932.0
12.8,0.8999999761581421,157.0,24.75554656982422,14.869816780090332,-79.78282847901734,40.45893730174829,267.11194390487674,-0.0098653258755803,0.0192081723362207,-0.993180513381958,0.1145699396729469,-0.0111262257807501,0.0168397251769201,0.0470772735325166,0.0345263369381427,0.0209688730537891,-0.0274539943784475,-0.4976514809578658,0.1951701364852488,-9.846470253467562,14932.0
13.0,1.0,161.0,24.50263214111328,18.71052360534668,-79.78282839966873,40.45893713051561,267.1317917747498,-0.0068326741456985,0.0162246208637952,-0.9932913780212402,0.1142909452319145,-0.0170276222188038,0.010561278679315,0.0578049275319576,0.0412967428565025,0.0532342046499252,0.0302452519536018,-0.3042265373468399,0.1048302343860268,-9.949371893405916,14932.0
13.1,1.0,165.0,24.37367057800293,20.49967384338379,-79.78282837587945,40.45893711681218,267.1378874225617,-0.0046725682914257,0.0126427812501788,-0.9933447241783142,0.1143878474831581,-0.015728149082063,0.0192859264377578,0.0638923272211176,0.0492377616465091,0.1469992846250534,-0.0976710245013237,-0.1681853093393147,0.018592620017007,-9.956089174747468,14932.0
13.3,1.0,169.0,24.130773544311523,24.45965576171875,-79.78282836740021,40.45893681048102,267.1663202686309,-0.0007091739680618,-0.0014546201564371,-0.993169367313385,0.1166708916425705,-0.0136649542975431,0.0517429252847604,0.1305849038931443,0.0923329144716262,0.1823296993970871,0.0025933121796697,-0.0475667612906545,-0.2219860339164734,-10.32151559472084,14932.0
13.4,1.0,170.0,24.003063201904297,26.51916694641113,-79.78282832610691,40.458936775877966,267.1847990198136,0.0014491426991298,-0.0131963845342397,-0.9928746819496156,0.1184215769171714,-0.0312958379474969,0.0333898764108788,0.2486965659416075,-0.0226469431072473,0.2351597100496292,-0.0895684137940406,-0.0342034432757645,-0.0437300193775445,-10.88631218791008,14932.0
13.6,1.0,171.0,24.51014518737793,17.62908363342285,-79.782828152763,40.458936326202895,267.2429953260421,0.0010792941320687,-0.0106395129114389,-0.9925541877746582,0.1213337033987045,-0.0308980798432164,0.043473361104134,0.3471905971421393,0.1380772292613983,-0.1410024017095565,0.0877418145537376,0.2272056423313916,-0.2135964123532176,-10.289731299877166,14932.0
13.7,1.0,173.0,24.46757507324219,18.082334518432614,-79.78282808566604,40.45893631832326,267.277293507576,0.0019382656319066,-0.0032845435198396,-0.9924840927124025,0.1223143264651298,-0.0516369209608627,0.0279667761040708,0.3233782081179533,0.0547464378178119,-0.0635515972971916,-0.0878800675272941,0.1591405620798468,0.0915207016188651,-9.752685007452968,14932.0
13.9,1.100000023841858,173.0,24.425004959106445,18.60715103149414,-79.78282804897366,40.458936353773886,267.3108758373261,0.0008279957692138,0.0030991667881608,-0.9924471974372864,0.1226313486695289,-0.0744415783946537,0.0256498250227078,0.1874066836155095,-0.0454989932477474,-0.0629934668540954,0.0119594288989901,0.0201336491340771,-0.0958217672724276,-9.254979366660116,14932.0
14.0,1.100000023841858,173.0,24.32108497619629,20.56328773498535,-79.78282828229172,40.4589362705836,267.3188408060074,0.0010367690119892,0.000516910222359,-0.99252849817276,0.1220077127218246,-0.0304701337990076,0.0231179303937453,0.1160276271069642,-0.0033167742658406,0.0703175142407417,-0.0181355737149715,0.1990191940963268,-0.0944414315186441,-9.323960723876953,14932.0
14.2,1.2000000476837158,172.0,24.30731201171875,20.52352905273437,-79.78282818754836,40.4589362263736,267.33650416564944,0.0020665363408625,0.0001132489633164,-0.9927244782447816,0.1203909367322921,-0.0311509522792002,0.044429939052,0.0594480675936108,0.0494769103825092,-0.0206032935529947,0.1166256070137024,0.21628161823377,-0.2513925219699741,-9.421579404473308,14932.0
14.3,1.2999999523162842,173.0,24.28853225708008,20.610998153686523,-79.78282810648072,40.458936138854405,267.36381501388547,0.0018166359513998,-0.0006048844079487,-0.9927975535392758,0.1197891235351562,-0.0251467726239858,0.0271896470379659,0.0708450998736158,0.0930623933672905,-0.0093949558213353,0.0642404779791832,0.134869244992733,-0.2010708724334836,-9.696362287402154,14932.0
14.5,1.399999976158142,171.0,24.18961906433105,22.7977352142334,-79.78282785088598,40.45893594983363,267.4055650873184,0.0016241401899605,-0.0015458851121366,-0.9928289651870728,0.1195228546857834,-0.0475664516228444,0.0319270432108699,0.0875204256787845,0.0451035648584365,0.0156093258410692,0.0179430991411209,0.0400584019208326,0.0733997234981507,-9.74434161543846,14932.0
14.6,1.399999976158142,168.0,24.13578224182129,22.43195343017578,-79.78282778013644,40.45893593257518,267.41445082855233,0.0021605296060442,-0.0038501943927258,-0.9928088784217834,0.1196291595697403,-0.0433430135962174,0.0381580114338593,0.0960498919998828,0.1235276460647583,-0.0299529545009136,-0.0166554823517799,0.101835354482755,-0.1275140506960451,-9.829951869249344,14932.0
14.8,1.5,166.0,24.15831756591797,23.266889572143555,-79.78282753023231,40.45893566635279,267.46334141922,0.0034177510533481,-0.0026456981431692,-0.9928486347198486,0.1193021237850189,-0.0708443621998582,0.044720091693381,0.1384063857178519,-0.0909930914640426,0.03549674898386,-0.1030168831348419,0.020611754944548,0.0833115945663303,-9.907360818386078,14932.0
14.9,1.600000023841858,164.0,24.14204216003418,22.09798049926757,-79.78282744790364,40.45893564398457,267.4782601041794,0.0031628473661839,-0.0045948787592351,-0.99288672208786,0.1189322471618652,-0.0624461280678315,0.0370369440918243,0.1637167585130807,-0.0379054248332977,0.1536905020475387,0.0557227991521358,0.0596610051020979,-0.1351275457441806,-10.09066167354584,14932.0
15.1,1.600000023841858,165.0,24.2071475982666,21.795812606811523,-79.7828272388085,40.45893538370477,267.53380603027347,0.0059065115638077,-0.0036158200819045,-0.9930520057678224,0.117472693324089,-0.0448967136514867,0.0429024749334841,0.2053498290760449,0.213648334145546,-0.0094622774049639,0.1829783618450164,0.0907886576279998,0.238610033467412,-10.016604348421096,14932.0
15.2,1.600000023841858,165.0,24.594032287597656,9.96357250213623,-79.78282716573538,40.4589353574329,267.5544024152756,0.0071428953669965,-0.0038472739979624,-0.9931647181510924,0.1164392009377479,-0.0595385962234674,0.0403474779353639,0.2084933587343362,-0.0050361077301204,0.0759349539875984,0.0359408818185329,0.01647881958168,0.0925875717960298,-9.872023755311966,14932.0
15.4,1.600000023841858,163.0,23.80649185180664,27.32229423522949,-79.7828270712025,40.45893514698507,267.5948386235237,0.0041133104823529,-0.0040622954256832,-0.993435561656952,0.1142476573586464,-0.0405404937303345,0.029444421618946,0.0385934954405806,-0.1498143821954727,0.1046035587787628,0.0107513181865215,0.035402021985501,0.0137701517483219,-9.162306261062623,14932.0
15.5,1.600000023841858,161.0,23.937957763671875,25.93868637084961,-79.78282718482065,40.45893482554717,267.6422042889596,-0.0011560000712051,-0.0046611954458057,-0.993539571762085,0.113384872674942,-0.0357750766551263,0.046263032765132,0.1199799926069542,-0.130759984254837,-0.0427616015076637,-0.0171848349273204,0.0012669957010075,0.0516316268406808,-10.036654450893405,14932.0
15.7,1.5,157.0,23.99680328369141,23.89508056640625,-79.78282709073154,40.458934755807775,267.6865188522339,-0.0037440850865095,-0.0028239679522812,-0.9933859705924988,0.1147276386618614,-0.0359903048826452,0.0411061132992393,0.3452710068626845,-0.0597808323800563,-0.0369744263589382,-0.1719928234815597,-0.0764808087190613,0.1585205014050007,-10.924827797412872,14932.0
15.8,1.5,155.0,23.62619781494141,30.48710060119629,-79.78282703044837,40.4589345479409,267.73470807504657,-0.0017732068663462,-0.0036404710263013,-0.9932492971420288,0.1159287393093109,-0.0400251293440497,0.0452241878996718,0.4451959723685927,0.0338754169642925,0.0146616520360112,-0.030479846522212,0.048282634075731,0.2286017016135156,-10.96262069106102,14932.0
16.0,1.399999976158142,148.0,23.57110595703125,31.12324333190918,-79.7828268828152,40.458934300322255,267.8626018805504,-0.0004892504075542,-0.0032646507024765,-0.9927974343299866,0.1197597160935402,-0.0409214353837937,0.0574134540991632,0.7843587142661971,-0.0901538208127021,-0.0382554866373539,-0.0406813845038414,0.0473445625277236,0.0030040801316499,-11.70336117267609,14932.0
16.1,1.399999976158142,147.0,23.45842170715332,33.34973907470703,-79.78282682426601,40.45893426396432,267.95194864702233,-0.0033544828183949,-0.0024941605515778,-0.9924988746643066,0.1221828237175941,-0.0405689313386867,0.0583349247475078,1.0037587584023866,-0.0867507383227348,-0.0174929518252611,-0.07028179615736,0.1040853173844516,0.0474025230528786,-11.954674501419069,14932.0
16.3,1.399999976158142,148.0,23.20175170898437,38.23212814331055,-79.78282673101313,40.45893403647554,268.2074715240002,-0.0066922772675752,-0.0013709550257772,-0.9920915365219116,0.1253311336040496,-0.0284628041305578,0.0636134447386124,1.487857606306412,0.0867434367537498,-0.0304371733218431,0.0011763618094846,0.0425720148626714,0.1046475271694362,-12.298107204437256,14933.0
16.4,1.399999976158142,149.0,23.112855911254893,37.64369583129883,-79.7828266466722,40.45893399330928,268.3699599398375,-0.0037307813763618,5.1294093282194815e-05,-0.9921591877937316,0.1249251887202262,-0.0339381396961323,0.071665023109235,1.774319425105741,0.0751194804906845,-0.046238224953413,0.0714733302593231,0.0704455182887613,0.0331866353144869,-12.642750281095504,14933.0
16.6,1.600000023841858,144.0,23.30942726135254,34.52660369873047,-79.78282651680179,40.458933742659006,268.7815485490561,-0.002279930980876,0.0027546731289476,-0.9924609065055848,0.1225100010633468,-0.0631905523928482,0.0872377460173749,2.346210354919484,-0.077940709888935,-0.0232953578233718,-0.0493211410939693,0.0775809212308377,-0.030765088610351,-12.66971997857094,14933.0
16.7,1.600000023841858,143.0,23.155426025390625,36.411170959472656,-79.7828264170157,40.45893367217713,269.0293334765434,-0.0031053905840963,0.0033476210664957,-0.9925547242164612,0.1217137798666954,-0.05441909851125,0.0822330134584541,2.6053408184708875,0.0369063802063465,-0.0183029994368553,0.0719712749123573,0.025256965784356,0.1209029968176037,-12.472657116651536,14934.0
16.9,1.7999999523162842,143.0,23.72135353088379,26.837236404418945,-79.7828263175929,40.45893338930518,269.587639038086,-0.007936974056065,0.0002385047409916,-0.9924671649932858,0.1222540289163589,-0.0566044154571054,0.1033311429699841,3.027360435328544,-0.124516874551773,-0.0450653359293937,-0.033108651638031,0.0246051245788112,-0.0869609240815043,-12.322576632499697,14934.0
17.0,1.8999999761581416,144.0,23.6612548828125,29.33409309387207,-79.78282635365281,40.458933173725626,269.88327616882333,-0.0118929203599691,0.001893512206152,-0.992347538471222,0.122887872159481,-0.0286677591217211,0.1150529239819243,3.1060722817257025,-0.02069778367877,-0.0345919765532016,0.008835487999022,0.0445897839171811,-0.0082640982884913,-11.072349539995194,14934.0
17.2,2.200000047683716,144.0,23.817760467529297,25.14350891113281,-79.7828260438113,40.4589329853369,270.51968521308896,-0.0154008530080318,0.0056525631807744,-0.9921281933784484,0.1241474002599716,-0.0327408969895704,0.1026604777770898,3.2621488415659514,0.0456091091036796,-0.0176004450768232,0.0214467030018568,-0.0245625152788124,0.060723964953795,-10.620765566825868,14935.0
17.3,2.299999952316284,142.0,23.85031318664551,25.60471153259277,-79.78282602478961,40.45893273902546,270.842585269928,-0.0142583856359124,0.0059954514726996,-0.9921571612358092,0.12403654307127,-0.026228258676498,0.1115857553586875,3.2829552528259365,0.1073540821671486,0.0021306602284312,0.0456502325832843,-0.0360415109479799,-0.0544559873174876,-10.148805216550828,14935.0
17.5,2.5,143.0,23.8077449798584,25.24688148498535,-79.78282563373814,40.458932342929145,271.51063722801206,-0.0149487853050231,0.004083804320544,-0.9921199083328248,0.1243301108479499,-0.0956235182014836,0.1383039258952011,3.2734258009489574,-0.0525335483253002,-0.0037958589382469,-0.1126573458313942,-0.0138734487514011,0.2118988560140133,-9.8175627887249,14936.0
17.6,2.5999999046325684,142.0,23.88286781311035,24.68230628967285,-79.78282543404295,40.458932249846775,271.82304829788205,-0.0139239504933357,0.0020185341127216,-0.9920020699501038,0.1254353821277618,-0.110028048129857,0.1582811971782599,3.2533189278861347,-0.0068229809403419,0.0104313977062702,0.0349048599600791,-0.0035653260396793,0.0630606128275394,-9.667749522328377,14936.0
17.8,2.799999952316284,142.0,23.782703399658203,26.14543342590332,-79.78282494215694,40.45893179308568,272.49597233963016,-0.0095865419134497,-0.0034923767670989,-0.9918953776359558,0.1266472190618515,-0.1383895580044905,0.1905260996085482,3.2245108006950214,0.1538722664117813,0.0670033246278762,0.0233991201967,0.0123325955076143,0.0231115309987217,-9.712117025256156,14937.0
17.9,3.0,139.0,23.96925926208496,22.90110969543457,-79.78282461946118,40.45893167765117,272.8176762504578,-0.0052463812753558,-0.0060675581917166,-0.991901993751526,0.1267525553703308,-0.1642016933613373,0.2038704492480506,3.2163165725839766,0.171012595295906,0.0744583085179328,0.1158106997609138,0.001469473815523,-0.0699405792402103,-9.738556964993476,14937.0
18.1,3.0,139.0,23.81901359558105,25.86712074279785,-79.78282424481796,40.45893131714021,273.44831341934207,0.0002789829159155,-0.0022739120759069,-0.9921520352363586,0.1250165253877639,-0.2162700833968781,0.1877590355978976,3.1463336650807583,0.0280628725886344,-0.0438542403280735,-0.0568895302712917,-0.0296652775956317,0.0851088185235858,-9.529045380949974,14938.0
18.2,3.0,140.0,23.96550178527832,22.511472702026367,-79.78282393474593,40.458931231145584,273.7624604148865,0.0011275402503088,-0.0022417299915105,-0.992260217666626,0.1241512149572372,-0.2372291334940148,0.1668619459751803,3.132450967395865,-0.0295461695641279,-0.0537552498281002,-0.0229530949145555,-0.0891311729885637,0.0485539677226916,-9.641963301301002,14938.0
18.4,3.0999999046325684,147.0,23.821516036987305,24.761823654174805,-79.7828234461757,40.458930982429024,274.3556148452759,0.00187337200623,-0.0011854032054543,-0.99241703748703,0.1228963434696197,-0.221768071868758,0.1417209674907639,3.0561214741033624,0.0846352502703666,-0.0173990428447723,-0.0065180524252355,0.0017729625804349,0.0373856533505022,-9.524717856645584,14939.0
18.5,3.0,150.0,23.66751480102539,27.218921661376957,-79.7828232960837,40.458930973174056,274.6297404212952,0.0040730875916779,-0.0008181630983017,-0.992461323738098,0.1224883794784546,-0.2132011981124824,0.1166171282483965,3.0027259026460964,0.0920308455824852,-0.0286196675151586,-0.0417033284902572,-0.0600500642135739,-0.0635238996008411,-9.540376700162886,14939.0
18.7,3.0999999046325684,151.0,23.73637771606445,24.730016708374023,-79.78282277224585,40.45893089621085,275.22560376358035,0.0103864753618836,0.0009455749532207,-0.9923099279403688,0.1233382746577262,-0.2470253909194704,0.0902112783772203,2.9536452503499486,0.0025363720487803,0.0765034779906272,-0.1125691533088684,-0.0226894259825348,0.1695991843566298,-9.604582636356357,14940.0
18.8,3.0,152.0,23.82402038574219,25.41386985778809,-79.78282242459638,40.4589309742594,275.4402195854188,0.0118062635883688,0.0015117719303816,-0.9921298623085022,0.1246463432908058,-0.2455317512363043,0.06656129816901,2.8726455060421348,0.0761332139372825,0.0220680981874466,-0.0733034387230873,-0.0570748364366591,0.031080354033038,-9.602817361950876,14940.0
19.0,3.0,156.0,23.711336135864247,26.01025199890137,-79.78282242611779,40.45893121572127,275.916050617218,0.0129693951457738,-0.0036945464089512,-0.9917635917663574,0.127370223402977,-0.2039553607655086,0.0179289982455319,2.761014802478149,-0.0017109548207372,0.0969208478927612,0.0154616860672831,0.0172855423379223,-0.2114783133007586,-9.660402495861057,14940.0
19.1,3.0,159.0,23.73011779785156,25.76374816894531,-79.7828222871506,40.45893124165444,276.1923167152405,0.01375462859869,-0.0065918234176933,-0.99164080619812,0.1281252801418304,-0.174002157862385,0.0275754107740429,2.7509724410094094,0.0662911534309387,-0.0239784810692071,-0.0039808191359043,0.0352649824367836,-0.1538113366439938,-9.656858498454094,14941.0
19.3,3.0999999046325684,164.0,23.61242485046387,27.457475662231445,-79.78282146946874,40.45893107941989,276.87401599121097,0.0135707780718803,-0.0087562454864382,-0.9917669892311096,0.1270331889390945,-0.1691638332940514,0.0300076916266028,2.7222935185631587,-0.0244458131492137,-0.008523840457201,-0.0380470566451549,0.0537828677287325,-0.1741117364913225,-9.483412540555,14941.0
19.4,3.0999999046325684,167.0,23.686294555664062,27.11554908752441,-79.78282137954326,40.45893112639949,277.14578932952884,0.0127755235880613,-0.0117279617115855,-0.9918814897537231,0.1259774714708328,-0.1578133331462775,0.019518874733736,2.71067125390535,-0.1518243253231048,0.0337539203464984,-0.1090841814875602,-0.0131300597917288,0.2129571655020118,-9.60598538339138,14942.0
19.6,3.0,173.0,23.660001754760746,26.12952995300293,-79.78282105594239,40.45893094080101,277.83485240173343,0.011830523610115,-0.0142236920073628,-0.9920253157615662,0.1246736794710159,-0.1106832410728767,0.0217509324509538,2.744007942096185,0.0052440767176449,-0.0503505058586597,0.0476778224110603,0.1168252308480441,-0.1345528101269155,-9.684126403927804,14942.0
19.7,2.900000095367432,176.0,23.552326202392567,28.682048797607425,-79.78282102287923,40.45893101498216,278.10945815277097,0.0116589572280645,-0.0126716718077659,-0.9921831488609314,0.1235970556735992,-0.1006554402609296,0.001204347117216,2.750640464453121,0.0171656683087348,0.0122115686535835,0.0447797924280166,0.13466058162041,0.1454293530061841,-9.905007898807526,14943.0
19.9,2.900000095367432,178.0,23.60366058349609,27.62446212768555,-79.78282066333684,40.45893083604821,278.8024026794434,0.0132612911984324,-0.0088801234960556,-0.9925092458724976,0.1211230903863906,-0.0792802709717943,-0.0339413673150585,2.8997664845335214,0.1089259311556816,-0.032416459172964,0.0440037325024604,0.0977988936100155,-0.0272890285402536,-10.307842465639116,14943.0
20.0,2.799999952316284,180.0,23.74639320373535,23.95869445800781,-79.78282041548962,40.45893067463491,279.1647140426636,0.014217703603208,-0.0066498429514467,-0.99261873960495,0.1202566772699356,-0.077275064799874,-0.0338154121797864,2.9625522430731945,0.1138944253325462,-0.0600925981998443,0.1135379895567894,0.159398131929338,-0.115493207713589,-10.377586884498596,14944.0
20.2,2.900000095367432,184.0,23.64497756958008,26.33627510070801,-79.7828204902749,40.45893085017058,279.7608940048218,0.0110903810709714,-0.0049479114823043,-0.992560088634491,0.1211485341191291,-0.0654990508591477,-0.0675110393363889,2.9711391658734505,-0.1443005055189132,-0.0117273945361375,-0.1215879097580909,0.0837573077157139,0.0625854854425415,-9.736202875971795,14944.0
20.3,2.900000095367432,187.0,23.82652473449707,23.64062309265137,-79.78282059413681,40.45893074245481,280.09986323547366,0.0087544033303856,-0.0061504314653575,-0.9923956394195556,0.1226234063506126,-0.0212483944943058,-0.0776044646953039,2.967874497109188,-0.0845221802592277,0.0046205022372305,-0.068906083703041,0.0814937957189977,0.0720714051229879,-9.822790199518202,14945.0
20.5,3.0,191.0,23.702571868896484,24.68230628967285,-79.78282065848664,40.458930756207096,280.7487909240723,0.0067194830626249,-0.0061494391411542,-0.9921043515205384,0.1250843703746795,0.0320850154681551,-0.0770834832241513,2.9683574256876843,0.1364255249500274,-0.0608402453362941,0.094685360789299,0.0806101169809699,-0.250992024242878,-9.81908306479454,14945.0
20.6,3.0,194.0,23.89037895202637,22.36833953857422,-79.7828207647863,40.45893085101519,281.0454303665161,0.0078584197908639,-0.0051894537173211,-0.9920695424079896,0.1253377646207809,0.0286763715838516,-0.0835064773736191,2.9636328394618987,-0.019516535103321,-0.0148219875991344,0.0026198383420705,-0.0011896160244941,-0.1235281865112483,-9.699612169861794,14946.0
20.8,2.799999952316284,193.0,23.64873313903809,28.332170486450195,-79.78282109073568,40.45893084734584,281.6993400497437,0.0091465599834918,-0.0028721180278807,-0.9922947883605956,0.1235279589891433,0.0471199801788733,-0.1018135970469632,2.9237052533933188,0.0611438751220703,0.03364984318614,0.0598701052367687,0.0045819330029189,-0.2002390329167246,-9.524820767641067,14946.0
20.9,2.799999952316284,192.0,23.68253898620605,25.87507247924805,-79.78282124129497,40.45893094358335,281.9910423202515,0.0095501886680722,-0.0033415625803172,-0.9923773407936096,0.1228209435939788,0.0572825051439908,-0.110138917885167,2.9204248292437565,0.0277102086693048,0.0096491044387221,0.0471519269049167,0.0568392667360603,-0.2682594367861748,-9.711397817730903,14946.0
21.0,2.799999952316284,192.0,23.75140190124512,25.14350891113281,-79.78282125829246,40.45893085195265,282.3469983978272,0.010061296634376,-0.0042793275788426,-0.9924151301383972,0.1224447414278984,0.0437330280935194,-0.0973356212568344,2.943684898064605,-0.1660773903131485,-0.031760599464178,-0.1086362898349762,0.0737974255252629,0.106532167000696,-9.736943133473396,14947.0
21.2,2.799999952316284,193.0,23.619935989379893,25.73194122314453,-79.78282160274033,40.45893102928275,282.9325630111693,0.0070300824008882,-0.0034302207641303,-0.9923917055130004,0.1228724122047424,0.0791965259636266,-0.1013421526661373,2.9198338829095234,0.0447206646203994,-0.0510949492454528,0.0773412808775901,0.1063757083006203,-0.2360992025211453,-9.709961156845091,14947.0
21.4,2.900000095367432,197.0,23.84154891967773,23.86327362060547,-79.78282171661745,40.45893098439039,283.291927520752,0.0062598157674074,-0.0020573383662849,-0.9923271536827089,0.1234642192721366,0.1000881063407033,-0.1054382175976622,2.9498362787982293,-0.0547894090414047,-0.0131284808740019,-0.0254386737942695,0.0298235772550106,-0.1106918305344879,-9.692503125071529,14948.0
21.5,2.900000095367432,196.0,23.579870223999023,26.36808204650879,-79.78282209216226,40.458930951808256,283.9416505737305,0.0032671133521944,-0.0027548328507691,-0.9921372532844543,0.1250818371772766,0.1251958435698451,-0.10551629439317,2.9294839005377966,0.0187750477343797,0.0869810730218887,0.0835066139698028,0.0275717642577365,-0.0926291144359856,-9.56801824271679,14948.0
21.7,3.0,197.0,23.61242485046387,26.86109161376953,-79.78282250588958,40.45893107593438,284.5277273101807,0.0025976332835853,-0.0035027107223868,-0.991929531097412,0.1267157793045044,0.1444926795381057,-0.0848747913211442,2.9382929080046063,-0.0041364408098161,-0.0274403616786003,-0.0384537279605865,0.1088075835630297,-0.0973446563165634,-9.852103461027149,14949.0
21.8,2.900000095367432,198.0,23.45216178894043,28.69795227050781,-79.78282255749201,40.45893091277578,284.8875429077149,0.0015460250433534,-0.0023947381414473,-0.9919176697731018,0.1268515586853027,0.1332653620006287,-0.0538519199237128,2.987084940918696,-0.0562694445252418,-0.0906984061002731,-0.0437228232622146,0.1194854216091334,-0.0318137593287974,-9.906045194864271,14949.0
21.9,2.799999952316284,197.0,23.65624618530273,24.793630599975582,-79.78282275036446,40.45893094579617,285.1882993621826,-7.998374348971993e-05,-0.0021039645653218,-0.9919611811637878,0.1265251189470291,0.1348683420912973,-0.0594268326459681,3.0352064206342755,-0.0501791127026081,0.0167449135333299,0.0685391053557396,0.0767805013619363,-0.0333048450015485,-10.188450508117675,14950.0
22.1,2.900000095367432,197.0,23.663759231567383,25.75579643249512,-79.78282309521569,40.458930912162,285.84324855041507,-0.0008067561429925,-0.0062882425263524,-0.9922342896461488,0.124221384525299,0.136179330780945,-0.0431510797007629,3.0711405573974884,-0.097769059240818,0.0185274053364992,-0.0486910752952098,0.0530894016567617,0.0632158609712496,-9.790750966072084,14950.0
22.3,3.0,201.0,23.62995338439941,25.437725067138672,-79.78282328282963,40.45893089356323,286.4853631896973,-0.0027145014610141,-0.0075923143886029,-0.9923700094223022,0.1230320855975151,0.1213691185766667,-0.0229622045762353,3.069127068811837,0.0491171143949031,-0.0300061926245689,0.1473976671695709,0.1605075497366488,-0.2017232389748096,-9.799049334526062,14951.0
22.4,3.0999999046325684,202.0,23.66876602172852,25.44567680358887,-79.78282340224352,40.45893093532248,286.79266375732425,-0.0011999488342553,-0.0051130866631865,-0.9924436211586,0.1225893199443817,0.1005812330742682,-0.0270674542568681,3.0734011791708933,0.0702490508556366,-0.0573409497737884,0.0231926720589399,0.1319509270694107,-0.1928781741298735,-9.854403755664826,14951.0
22.51,3.2000000476837163,206.0,23.62744903564453,26.360130310058597,-79.78282359720512,40.458930903302885,287.1280385894776,0.0029895699117332,-0.0021293910685926,-0.9923455119132996,0.1234387308359146,0.0967759232028916,-0.0442285356249647,3.0698057794979885,0.0948613211512565,-0.0801573097705841,-0.0391823314130306,0.1150801476091146,-0.3323110430315137,-9.747658156156538,14952.0
22.7,3.2000000476837163,210.0,23.716344833374023,24.2052001953125,-79.78282380126703,40.45893099867244,287.7417737884522,0.0089256446808576,0.0007526946719735,-0.9920855164527892,0.1252444386482238,0.0159444058287916,-0.0629788861048044,3.0600910702909507,-0.0012384741567075,0.0243567693978548,-0.0267517548054456,0.1174986382294446,-0.1297215938754379,-9.751006271839143,14952.0
22.81,3.2000000476837163,214.0,23.67753028869629,25.11170196533203,-79.78282385224755,40.45893097324304,288.0788099212647,0.010372120887041,0.0013679742114618,-0.9919793009757996,0.1259671002626419,0.013026669589902,-0.059626107571473,3.051241439328805,0.0915595963597297,-0.0553763546049594,0.1554719805717468,0.1129975338466465,-0.468049842081964,-9.789680925607682,14953.0
23.0,3.2000000476837163,214.0,23.53604888916016,26.996273040771484,-79.78282396436785,40.45893099090997,288.71900767517093,0.0100510055199265,-0.0002854051999747,-0.991804838180542,0.1273664683103561,-0.0208297804037256,-0.0452665612845865,3.0875999017979314,-0.0750710070133209,-0.0304774511605501,0.0037848190404474,0.0383334230538457,-0.2393582212552428,-10.008058058023453,14953.0
23.2,3.299999952316284,216.0,23.59489631652832,26.65434646606445,-79.78282410211861,40.45893105462655,289.34523028564456,0.0124795632436871,-0.0005453577032312,-0.9914645552635192,0.1297772079706192,-0.0331212946079771,-0.0301612665341071,3.1717608303066145,0.0041781775653362,-0.0859882161021232,-0.0516757145524024,0.1064189594238996,-0.394476593323052,-10.179927606582645,14954.0
23.3,3.299999952316284,218.0,23.66501045227051,24.300621032714844,-79.78282412178224,40.458931030157146,289.68107432556155,0.0139576299116015,0.0016400518361479,-0.9912190437316896,0.1314810216426849,-0.0441018520935782,-0.0193783940061282,3.1953702219332243,-0.0686116963624954,-0.0204771514981985,-0.0764448791742324,0.0111919544823467,-0.2055526718683541,-10.126325011253355,14954.0
23.4,3.5,221.0,23.658750534057607,23.96664619445801,-79.7828241725175,40.45893104064722,290.0017663879395,0.0147435506805777,0.0032363466452807,-0.9911054968833924,0.1322200447320938,-0.0550685778582826,-0.0116440858595837,3.2127847912120284,0.0286335498094558,-0.089767001569271,0.0542734712362289,0.1667807898670435,-0.5284565864503384,-9.961071002483369,14955.0
23.61,3.5999999046325684,221.0,23.93294906616211,21.104007720947266,-79.78282410148616,40.4589310665989,290.64570063781736,0.0132161825895309,0.0001369759411318,-0.9917182326316832,0.1277513951063156,-0.1007372980221992,-0.0115197703103403,3.1549157863775017,-0.1799515634775161,0.1110588163137436,0.0061284713447093,-0.0402451153937727,-0.1548430047556758,-9.600513558983804,14955.0
23.8,3.5999999046325684,221.0,23.70632743835449,25.07194328308105,-79.78282384184935,40.45893111100335,291.2831689758301,0.0164997521787881,-0.0052116941660642,-0.9924715161323548,0.1212474331259727,-0.0846338947287306,-0.0082646612614107,3.0189500490026835,0.1026595160365104,0.0556660033762455,0.0530052743852138,0.1675554545782506,-0.5089221718534828,-9.228138892650604,14956.0
23.9,3.5999999046325684,221.0,23.62995338439941,26.84518814086914,-79.78282383996745,40.45893114612815,291.58248728942874,0.0156793259084224,-0.0065039005130529,-0.9928492307662964,0.1181622445583343,-0.1057034615577185,0.0021192175250241,2.96849150752638,-0.0404214672744274,0.026814330369234,-0.0322583466768264,0.0113011055532842,-0.0937878772616386,-9.275521219968796,14956.0
24.01,3.700000047683716,219.0,23.74639320373535,25.09579849243164,-79.78282369635455,40.45893115916599,291.9215166015625,0.0134494379162788,-0.0033321527298539,-0.9930542707443236,0.1168394386768341,-0.0850278890188103,0.000265993449407,2.9876590313697453,0.0814976841211319,-0.0515814535319805,-0.0521620102226734,0.0323366100434213,-0.4424279643595218,-9.513868932724,14956.0
24.2,3.799999952316284,219.0,23.57361030578613,27.7596435546875,-79.78282369761523,40.45893127573361,292.5152112884522,0.0159998312592506,0.0039717918261885,-0.9925410151481628,0.1207919120788574,-0.0970571294054046,-0.0630374805260635,2.958431557927033,0.1912800818681717,-0.0959254205226898,0.0376719385385513,0.0537145786453038,-0.5767802058532835,-9.78240874350071,14957.0
24.3,4.0,216.0,23.58613204956055,25.75579643249512,-79.78282371382568,40.4589310980785,292.85956973266605,0.0168422013521194,0.0069384262897074,-0.9920717477798462,0.1243458092212677,-0.1310115897307573,-0.0631211399670976,3.0153922851742188,0.022262867540121,-0.0926100239157676,-0.0252023059874773,-0.1154888953920454,-0.4951084537804127,-9.971132891178131,14957.0
24.5,4.0,217.0,23.56234169006348,25.3900146484375,-79.78282364033413,40.45893107826959,293.49034136962894,0.0229985639452934,0.0119451712816953,-0.99102520942688,0.1311394274234771,-0.1518895600454801,-0.0769714942187062,3.0646131515601627,0.0217039920389652,-0.0269683636724948,-0.0492057278752327,-0.1511845115572214,-0.4766950966045261,-9.957011865377426,14958.0
24.6,4.099999904632568,217.0,23.756410598754893,23.74399757385254,-79.78282362584324,40.45893110745424,293.7972719116211,0.0230704527348279,0.0118881668895483,-0.990818738937378,0.1326830238103866,-0.1659915855974336,-0.0813980424673073,3.058509497275661,0.0073616714216768,0.0558924078941345,-0.0045024948194622,-0.0932884154096245,-0.3470864088088274,-9.792540798783303,14958.0
24.8,4.199999809265137,216.0,23.66876602172852,24.51531982421875,-79.78282350953891,40.45893111160802,294.4192468566895,0.0199292432516813,0.0072993268258869,-0.9910106658935548,0.1320886015892028,-0.1406694730180472,-0.0511698231943795,2.978501095905528,0.0493292994797229,0.0428855009377002,0.0939162299036979,0.0407678656093776,-0.5316163486987353,-9.434820424318314,14959.0
25.0,4.300000190734863,213.0,23.49723625183105,27.163259506225582,-79.78282327607083,40.45893117827763,295.044763748169,0.0185666549950838,0.0015376009978353,-0.9914262890815736,0.1293326467275619,-0.1680816942112282,-0.0107636552217338,2.9419183021318025,-0.166092574596405,0.0598845295608043,-0.0204786136746406,-0.0180318286386318,-0.2415022125095129,-9.538883321285248,14960.0
25.1,4.300000190734863,211.0,23.54857063293457,25.71603775024414,-79.78282323724744,40.45893118675616,295.3397485656738,0.0191883780062198,0.0011863432591781,-0.9915494918823242,0.1282970160245895,-0.1500680172045684,0.0027760212331398,2.95151414699522,0.0503182224929332,-0.1225621402263641,0.1537260860204696,0.0157702649524435,-0.5920851100981236,-9.810085369348524,14960.0
25.2,4.300000190734863,209.0,23.37954330444336,28.642290115356445,-79.78282319225764,40.45893119771268,295.6361753387452,0.0208018068224191,0.0024537765420973,-0.9916479587554932,0.1272621750831604,-0.1595815663807639,0.0056757075981358,2.9682637899217963,-0.047174297273159,0.0689845383167266,-0.1154843270778656,-0.0643134061899036,-0.2960335649549961,-9.877942306995394,14960.0
25.4,4.400000095367432,209.0,23.48221015930176,27.9266300201416,-79.78282304793642,40.458931201633504,296.2565442962647,0.0254643503576517,0.005007033701986,-0.991741180419922,0.1256026476621627,-0.1737072208080841,-0.0142612885324089,3.0057823086139,0.0799869373440742,0.0036842522677034,0.0466370359063148,-0.0741270623076707,-0.4750348162651062,-9.866500475406648,14961.0
25.6,4.400000095367432,213.0,23.48471450805664,27.163259506225582,-79.78282285995844,40.458931205654174,296.8704912109376,0.0258448086678981,0.0097872484475374,-0.9915953278541564,0.1263927370309829,-0.1983157996155367,-0.0408527116957405,3.026052022253554,0.0200365241616964,-0.0233862567692995,-0.0802792608737945,-0.2613672140613198,-0.5434641597792507,-9.868205523490904,14961.0
25.7,4.400000095367432,212.0,23.526033401489247,25.914831161499023,-79.78282281775496,40.458931223025616,297.1739332122803,0.0252087619155645,0.0102483071386814,-0.9914842247962952,0.1273525059223175,-0.2013641997813936,-0.0462717016091398,3.029458802019464,-0.0189109239727258,0.0171214547008276,0.0147607717663049,-0.0794790370669216,-0.5715625891461968,-9.874007130861283,14962.0
25.8,4.5,212.0,23.46718597412109,27.43362045288086,-79.7828227091834,40.45893119329964,297.48422831726083,0.02432725392282,0.0108940759673714,-0.9913565516471864,0.1284591406583786,-0.19758953558328,-0.0386709028834647,3.0199058469984883,0.0732106193900108,0.0310328714549541,-0.0949500277638435,-0.0131622103415429,-0.5790764074400068,-9.827684319019315,14962.0
26.0,4.5,212.0,23.71008491516113,23.69628715515137,-79.78282271554447,40.45893117438472,298.0945283813477,0.0243637729436159,0.0104717286303639,-0.9911841750144958,0.1298106610774994,-0.175330702783701,-0.0317053654326596,3.0306491120505736,0.1767970770597458,0.0114321568980813,0.0700484067201614,0.1125338861905038,-0.667891922146082,-9.900645875930786,14963.0
26.1,4.599999904632568,211.0,23.36076164245605,28.47530174255371,-79.78282266916119,40.45893116505917,298.39725321960447,0.027733476832509,0.0124388104304671,-0.9911620616912842,0.1291280537843704,-0.1942010093454109,-0.0194241009400297,3.010429645872524,0.0352702289819717,0.0959205105900764,-0.0571569241583347,-0.1234642965439707,-0.2979087670147419,-9.684381342530251,14963.0
26.3,4.699999809265137,215.0,23.407087326049805,28.30036354064941,-79.78282243857848,40.458931184851714,299.0015775604248,0.0357145294547081,0.0110575603321194,-0.9912089109420776,0.1269141435623169,-0.2399686008432866,-0.0198936722795424,2.9856163725650697,-0.0011040051467716,0.0982600152492523,-0.0029930300079286,-0.1447404870484024,-0.4056171105802059,-9.59584572672844,14964.0
26.4,4.800000190734863,214.0,23.32695770263672,28.451446533203125,-79.78282240292226,40.45893116664586,299.3005582733154,0.0368824377655983,0.009646937251091,-0.9912585020065308,0.1263064891099929,-0.2308063803645568,-0.0111406710387575,2.9827380667450067,0.0687784925103187,-0.0464037396013736,0.1303743869066238,-0.0941549088153988,-0.8250067529082299,-9.837817543745038,14964.0
26.6,4.800000190734863,214.0,23.369525909423828,27.64831733703613,-79.78282238281311,40.45893115167512,299.9141504211426,0.0317397713661193,0.0077214641496539,-0.9915208220481871,0.1257756501436233,-0.2107193391082197,-0.0079241872275129,3.0241101161055264,-0.0554839558899402,0.0076775657944381,0.0080176778137683,-0.2030022443085909,-0.5907731045410037,-9.906385502815247,14964.0
26.7,4.900000095367432,216.0,23.311931610107425,29.56469535827637,-79.78282239226543,40.458931140486975,300.21742266845706,0.0320005342364311,0.0087220333516597,-0.9914323091506958,0.1263404190540313,-0.1787532336214302,-0.0115864144960219,3.0280333840355222,0.0739590376615524,-0.0595172494649887,-0.140474796295166,-0.0565210868418216,-0.3863266345113516,-9.854203780889511,14965.0
26.9,5.0,215.0,23.369525909423828,28.25265312194824,-79.78282232085675,40.45893108927093,300.82657260131833,0.0307608488947153,0.012281471863389,-0.991301953792572,0.1273711919784546,-0.1865855883484421,-0.023332040143715,3.0412211518794465,-0.0223924927413463,-0.0179107822477817,0.1110245585441589,-0.1904650465026497,-0.6654284901916981,-9.978501552343369,14965.0
27.1,5.0,215.0,23.533544540405277,26.14543342590332,-79.78282235981999,40.45893101421673,301.43936557006833,0.0274532847106456,0.0125983813777565,-0.9913426041603088,0.1277793943881988,-0.155700855743778,-0.026498985822091,3.0649734085624063,-0.0474145412445068,0.0751236081123352,-0.0242634527385234,-0.1741502184793353,-0.498670760281384,-9.98960190653801,14966.0
27.2,5.0,215.0,23.39206314086914,27.84711265563965,-79.78282238477935,40.45893097689843,301.7459337158204,0.0270670745521783,0.0114810261875391,-0.9914292693138124,0.1272936314344406,-0.1499357712219813,-0.0217685591493524,3.061204723370538,-0.0440873131155967,0.066347450017929,0.0203582197427749,-0.1333368724957108,-0.5975698714703321,-9.81217984199524,14966.0
27.3,5.0,213.0,23.4033317565918,27.354103088378903,-79.78282236474608,40.45893093642125,302.054565612793,0.027039049193263,0.0098099838942289,-0.9915318489074708,0.1266388297080993,-0.1429381754678441,-0.0208843923110192,3.0458690538386617,0.0048197763971984,0.002752223284915,0.126426413655281,-0.2477433477714657,-0.8303242108225822,-9.808421251773837,14967.0
27.5,5.099999904632568,213.0,23.48346328735352,24.491464614868164,-79.78282238879399,40.45893084658497,302.6739236755372,0.0265421513468027,0.0079391868785023,-0.9916933178901672,0.1256061643362045,-0.1484381832732577,-0.0043751391593977,3.0653557621324508,0.0159319341182708,0.0320753194391727,0.1858245134353637,-0.1263377370871603,-0.7201122356951237,-10.038301026821136,14967.0
27.7,5.099999904632568,213.0,23.42461585998535,27.656269073486328,-79.7828224041977,40.45893081664912,302.981380645752,0.0254586096853017,0.007612507790327,-0.9917818307876588,0.1251507997512817,-0.1459476849404534,-0.0072049124101829,3.076021583036672,0.0233766697347164,-0.0320165827870368,-0.0017714371206238,-0.2435272494703531,-0.6550888587534428,-9.959049035310748,14967.0
27.8,5.099999904632568,213.0,23.420860290527344,26.69410514831543,-79.78282242275523,40.45893076237859,303.6034433288574,0.027705093845725,0.009115251712501,-0.9917707443237304,0.124660275876522,-0.1572742650368005,-0.0218840450056813,3.090039462235598,0.0597829259932041,-0.0372392907738685,0.1363273113965988,-0.2343726659193635,-0.5559827195852995,-9.911637471914291,14968.0
28.0,5.099999904632568,212.0,23.400827407836918,26.89289855957031,-79.78282236762793,40.45893074388664,304.2293245239258,0.0307195931673049,0.0133602274581789,-0.9915210604667664,0.1255547255277633,-0.1948378393018434,-0.045491691352291,3.109583596544536,-0.0769433081150055,0.0409399010241031,-0.0946525409817695,-0.1140173613466322,-0.6061675442755222,-10.082026505470276,14969.0
28.1,5.199999809265137,215.0,23.45842170715332,25.74784469604492,-79.78282236555985,40.458930741346656,304.5418245239258,0.0303121656179428,0.0129094561561942,-0.991501808166504,0.1258518397808075,-0.2084966632268229,-0.0603295614945536,3.125137927481478,-0.0471574626863002,0.0120757222175598,0.1290942281484604,-0.3421056774258614,-0.8265111684054137,-9.961323602199554,14969.0
28.2,5.199999809265137,214.0,23.41209602355957,27.22687339782715,-79.78282236111511,40.45893074134773,304.8550264282227,0.030452923849225,0.0113588571548461,-0.9915130734443665,0.1258788853883743,-0.2018182060719744,-0.0616674819721375,3.124718821911959,0.0526280142366886,0.0489291846752166,-0.0068985568359494,-0.2324165164679289,-0.6027014975622297,-9.799589032530784,14969.0
28.4,5.199999809265137,214.0,23.38705444335937,28.06180953979492,-79.78282241303727,40.45893079610242,305.4853517456055,0.0308561455458402,0.0087821120396256,-0.991499125957489,0.1260967850685119,-0.1912546829054714,-0.0490689407281744,3.0988020565064613,0.0518626980483532,-0.0309713929891586,-0.0458048768341541,-0.1209818428661674,-0.6450665849447249,-9.814397106170654,14970.0
28.5,5.300000190734863,214.0,23.503496170043945,26.07386589050293,-79.78282243186324,40.4589308193504,305.8095971984864,0.0305817853659391,0.0094694215804338,-0.9914442300796508,0.1265447586774826,-0.2006208284154432,-0.0529521287462871,3.0994545068615813,-0.0655903294682502,-0.0646537095308303,-0.0598908849060535,-0.1553200279176235,-0.5065095741301775,-9.760772876143458,14970.0
28.7,5.300000190734863,212.0,23.29064750671387,27.48928260803223,-79.7828224444448,40.458930869933326,306.42801303100583,0.0294762924313545,0.0113922636955976,-0.9914425611495972,0.1266614943742752,-0.2039779140608635,-0.0738376793422984,3.081139555240496,-0.067852146923542,-0.0225451160222292,-0.0238628853112459,-0.125306361336261,-0.6415678303688764,-9.724082182645796,14971.0
28.9,5.400000095367432,212.0,23.320695877075195,28.67409706115723,-79.78282240156602,40.45893088499667,307.0670930786133,0.0329547151923179,0.0110869882628321,-0.9914379119873048,0.1258650124073028,-0.194949807161407,-0.0788849005563414,3.1128813494188377,0.0811619609594345,0.0644060969352722,-0.1276522874832153,-0.2819336622208357,-0.7596200446039438,-9.845142935514447,14972.0
29.0,5.400000095367432,212.0,23.37578582763672,27.457475662231445,-79.78282245704817,40.45893086662012,307.3969041748046,0.0339220948517322,0.0107070812955498,-0.9914489984512328,0.1255534887313842,-0.202921221289204,-0.070624157223104,3.1209031573089128,-0.0168510302901268,0.0057730562984943,0.1338399797677993,-0.2793288007378578,-0.8077353934943676,-9.855664415359495,14972.0
29.2,5.400000095367432,214.0,23.38580322265625,28.276508331298828,-79.78282248567926,40.45893088794352,307.7095682067872,0.0342283546924591,0.0096983704715967,-0.991568922996521,0.1246013343334198,-0.2007472161296228,-0.0732995030708998,3.1168844417762744,-0.0435022860765457,0.0709738358855247,-0.1185697019100189,-0.2424770529940725,-0.5760511676967144,-9.773083603978158,14972.0
29.3,5.400000095367432,214.0,23.284387588500977,28.30036354064941,-79.78282250447992,40.45893095456939,308.35117358398435,0.0330118052661418,0.0097659146413207,-0.9916874170303344,0.1239800676703453,-0.1998776876695761,-0.0729983819561981,3.1438831302860373,0.0300929639488458,0.041526261717081,0.0347677692770957,-0.0940187600534409,-0.5829716397821904,-9.92951357960701,14973.0
29.5,5.300000190734863,213.0,23.33071327209473,27.37795829772949,-79.78282251037719,40.45893100210616,308.99668139648435,0.0339618474245071,0.0134359560906887,-0.9914372563362122,0.12537282705307,-0.1904281950482704,-0.0731024778361572,3.1741829401201165,0.0294566303491592,-0.0074930926784873,0.0949233025312423,-0.223526811785996,-0.7736127971112728,-9.936359499692918,14973.0
29.6,5.300000190734863,213.0,23.31318473815918,28.69795227050781,-79.78282256119817,40.45893101872075,309.31605929565427,0.0349968746304512,0.0133057329803705,-0.9912678599357604,0.126436561346054,-0.1802383707434958,-0.0804394864235267,3.1972900280793977,0.0002940638223662,-0.0600935295224189,-0.1515058577060699,-0.0193161855451762,-0.5405973795801401,-10.014460759162905,14974.0
29.7,5.199999809265137,212.0,23.35825729370117,26.034107208251957,-79.78282262457756,40.45893102841399,309.63734454345706,0.0325871258974075,0.0112028736621141,-0.9911344051361084,0.1283170580863952,-0.1772121651038295,-0.0731695444270682,3.2156179448282463,-0.0785546004772186,0.0106837209314107,0.0012348041636869,-0.0801114408485591,-0.6644726897031069,-9.95384384393692,14974.0
29.9,5.199999809265137,211.0,23.195491790771484,31.66396331787109,-79.78282271815226,40.45893104467351,310.2912828369141,0.0250050835311412,0.0119235049933195,-0.991021990776062,0.1307975947856903,-0.1115138624426484,-0.0638918197758224,3.2210411316904155,0.0781459510326385,-0.054302841424942,0.015244054608047,-0.1887272174656391,-0.5112209681421519,-9.87751078248024,14975.0
30.0,5.099999904632568,211.0,23.28689193725586,28.98421669006348,-79.78282278281272,40.45893107963753,310.6240045471192,0.024550037458539,0.0129182115197181,-0.991195261478424,0.1294701397418975,-0.1068187572898163,-0.0702595197422711,3.2441539275080182,-0.0303338803350925,-0.0516484677791595,-0.0703722685575485,-0.1578476147912443,-0.5028234528377652,-9.995726280212402,14975.0
30.2,5.0,210.0,23.415851593017567,27.656269073486328,-79.7828229489718,40.45893106783964,311.27635592651365,0.0253908447921276,0.0111734932288527,-0.9917179942131042,0.1254030615091324,-0.1034289388595011,-0.074585327222776,3.2668015135918766,-0.0082318289205431,0.0892160981893539,-0.0654658451676368,-0.2034436725452542,-0.3959846633300185,-9.844345375299453,14976.0
30.3,4.900000095367432,209.0,23.31819152832031,27.139404296875,-79.78282280921617,40.45893100470438,311.6120645446777,0.0261102579534053,0.0092120487242937,-0.9919005036354064,0.1239635795354843,-0.1156019047456809,-0.0599323063588355,3.235787495747957,0.0830816030502319,0.0124751105904579,0.1501027196645736,-0.1808002568408847,-0.5565567334368825,-9.636945220828055,14976.0
30.5,4.900000095367432,209.0,23.265605926513672,28.849035263061523,-79.78282295780996,40.45893094827739,312.2705652160645,0.0222420189529657,0.004938468337059,-0.9921619296073914,0.1228645220398902,-0.0927063055797322,-0.0219716509380562,3.225678484324491,-0.1076875776052475,0.0285888873040676,-0.0769599601626396,-0.0114528133906424,-0.4089608043059707,-9.794119547009467,14977.0
30.6,4.800000190734863,207.0,23.24432182312012,27.3063907623291,-79.78282305022378,40.458930937526176,312.59332675170896,0.021821804344654,0.0056886593811213,-0.9921215772628784,0.1232324987649917,-0.0691954239405878,-0.0257985017103758,3.2290004084635497,-0.0085757346823811,-0.0279987808316946,-0.0174181908369064,-0.1764107155054807,-0.2920275278761983,-9.768294149637224,14977.0
30.8,4.800000190734863,207.0,23.44214630126953,25.21507453918457,-79.78282328928273,40.45893087542313,313.2590486450196,0.0184796787798404,0.0102926837280392,-0.99211186170578,0.1235585361719131,-0.0379303044640757,-0.0532871105888258,3.2053545973321325,0.0290167853236198,-0.0770591273903846,1.1157469998579472e-05,-0.2198464280739426,-0.3990539764612913,-9.50820415019989,14978.0
30.9,4.699999809265137,207.0,23.617431640625,22.31267738342285,-79.78282339676507,40.4589308720329,313.57688922119144,0.0172434393316507,0.01215336099267,-0.9921593070030212,0.1231869757175445,-0.0385348234898164,-0.0701285553941357,3.1433527167656714,-0.0726916119456291,-0.0285083595663309,-0.1068593859672546,-0.2017401959002018,-0.1394763667043298,-9.225981270074843,14978.0
31.1,4.699999809265137,205.0,23.642473220825195,22.455808639526367,-79.78282362670478,40.45893081804847,314.21759051513675,0.0137786697596311,0.0123916445299983,-0.9922531247138976,0.1228432729840278,-0.0091160776631338,-0.0778497263477839,2.9238648410708485,0.0657627135515213,0.1221709921956062,0.0868363752961158,-0.0202830683346837,-0.3950015271082521,-8.578316767215728,14979.0
31.3,4.699999809265137,205.0,23.72636032104492,20.01461410522461,-79.78282362321012,40.45893079413597,314.7955629272461,0.0127070667222142,0.0113135520368814,-0.9920710921287536,0.1245211809873581,-0.0195499128334221,-0.0626859613814674,2.62094085134045,0.0341025777161121,-0.0064324797131121,-0.1152084693312645,-0.1752067007124424,-0.2309057238511741,-8.326951982975007,14979.0
31.4,4.699999809265137,204.0,23.64873313903809,22.137739181518555,-79.78282366821257,40.45893079280612,315.04877871704105,0.0140204755589365,0.0122264856472611,-0.9919558763504028,0.1252102851867675,-0.0349404096963703,-0.0572496238954223,2.443859221828564,0.1375283002853393,0.0363555178046226,0.1453282833099365,-0.120048590702936,-0.5378354472666981,-8.11290412902832,14980.0
31.5,4.699999809265137,202.0,23.623693466186523,22.686410903930664,-79.78282363936717,40.45893078439469,315.309448425293,0.0158235672861337,0.0116164460778236,-0.9917895793914796,0.1263649612665176,-0.0532881236891673,-0.0587568181710925,2.3216085670398163,0.1427995413541793,-0.0224900338798761,0.1128809303045272,-0.2492657982744277,-0.6725857745110989,-8.300708509683611,14980.0
31.7,4.699999809265137,202.0,23.61492919921875,21.58906555175781,-79.78282364783145,40.45893081588395,315.74700946044925,0.0222477298229932,0.0064827492460608,-0.9915377497673036,0.1277344077825546,-0.0909762748797297,-0.0452783008878611,2.043859277208657,0.1364794224500656,-0.0091713955625891,0.2116770297288894,-0.0619894942827522,-0.7152713258564473,-8.418378462195397,14980.0
31.9,4.599999904632568,201.0,23.63496208190918,20.706418991088867,-79.78282358339169,40.45893080190623,315.9831239624024,0.0226438473910093,0.0055700559169054,-0.9914532899856568,0.1283612102270126,-0.105163613943426,-0.0350784016241115,1.9444029501338944,0.0138448784127831,0.0133552132174372,-0.0741462782025337,-0.0521948598884046,-0.4619195481017232,-8.49192123234272,14980.0
32.0,4.599999904632568,201.0,23.75265312194824,21.040393829345703,-79.78282345024306,40.458930781762646,316.4174806518555,0.0210869740694761,0.0065634776838123,-0.9914534091949464,0.1285785287618637,-0.1113070597430092,-0.0414848463197441,1.7938162701106926,-0.0583952963352203,0.0224513877183198,-0.1724622845649719,-0.1692883682996034,-0.1890044120326638,-8.778105016350747,14981.0
32.1,4.599999904632568,202.0,23.628700256347656,22.654603958129893,-79.78282342370962,40.4589308174132,316.59246081542966,0.0216342974454164,0.0073958477005362,-0.9915440082550048,0.1277415454387664,-0.1049462811138521,-0.0599845284762666,1.6902353560587624,-0.0137324100360274,0.0004117250500712,0.1142646595835685,-0.2121026680245996,-0.3804536180198193,-8.737723560333253,14981.0
32.3,4.5,201.0,23.44590187072754,25.326400756835927,-79.78282327623948,40.45893078712013,316.9954034729004,0.0229333154857158,0.0124002946540713,-0.991791009902954,0.1251837164163589,-0.1187435842200384,-0.063767050212386,1.5984903380425932,-0.1661453545093536,-0.1276258677244186,-0.0264940150082111,-0.2292740765959025,-0.2861403684318065,-9.037116789221765,14981.0
32.4,4.5,200.0,23.553577423095703,23.67243003845215,-79.78282326199316,40.45893083671648,317.1535875244141,0.0219079349189996,0.0156887024641037,-0.9918996095657348,0.1241334080696106,-0.0978244035501725,-0.0814768240836548,1.5633142969486078,-0.0042413678020238,-0.1094922721385955,0.0327405408024787,-0.3331723744422197,-0.494177832864225,-9.305863591432573,14982.0
32.6,4.5,200.0,23.49473190307617,23.84737014770508,-79.78282303298316,40.45893067903131,317.58124179077146,0.0161664877086877,0.0208293348550796,-0.9920026063919068,0.1234331578016281,-0.1009627455124949,-0.059312417512023,1.5896714623153607,-0.1192810162901878,0.0027795722708106,-0.1451296806335449,-0.2806482614949345,-0.255617043916136,-9.491171795725824,14982.0
32.8,4.5,200.0,23.796476364135746,18.98883628845215,-79.78282273833732,40.45893043539501,318.0387384338378,0.0184406414628028,0.0187695808708667,-0.9918211102485656,0.1248947083950042,-0.0990454432131086,-0.0329517941317749,1.6059853022639592,0.2106213718652724,0.0863389298319816,0.1998523026704788,-0.2832663523033261,-0.6346232385188342,-9.518887013196943,14983.0
32.9,4.5,198.0,24.79060363769531,1.9879435300827024,-79.78282265996042,40.45893041546693,318.19488925170896,0.0197930578142404,0.0180036704987287,-0.9917091131210328,0.1256872564554214,-0.1208929294105828,-0.0152352239674798,1.4961797828011705,0.0959161147475242,0.0312702022492885,0.0463524274528026,-0.3197530876100064,-0.5632478484883905,-8.676792064905165,14983.0
33.01,4.5,198.0,23.6712703704834,21.135814666748047,-79.7828225223277,40.45893015356733,318.42674655151365,0.0186698101460933,0.0140249114483594,-0.9912645220756532,0.1298058629035949,-0.1534483790450494,0.0087259850846166,1.2532693055577309,-0.0962085500359535,0.0976660102605819,-0.2007014751434326,-0.3636140754818917,-0.7502507586032152,-7.156309003829956,14983.0
33.2,4.5,199.0,23.74013328552246,20.11798858642578,-79.78282218603283,40.45893015353029,318.62705630493167,0.0196527019143104,0.011199951171875,-0.9776601195335388,0.2089712917804718,-0.1887935756634392,0.038169354176982,0.7790530366370448,0.0867891758680343,-0.1728388220071792,-1.081637263298035,-0.1370560305565595,-0.3673084194213152,-7.626190668940544,14983.0
33.4,4.400000095367432,199.0,23.76267051696777,21.21533203125,-79.78282214018432,40.4589302640488,318.7037431640625,0.0245486758649349,0.0181559007614851,-0.9639294743537904,0.2644007503986358,-0.200619059014487,0.0367637333765696,0.6581014247900302,0.114316426217556,-0.170736625790596,-1.1621545553207395,-0.220613400042057,-0.8629601526260376,-8.171327753663062,14983.0
33.5,4.400000095367432,192.0,23.7927188873291,20.078229904174805,-79.78282178441627,40.45893054989472,318.7805940551758,0.0306425802409648,0.020608702674508,-0.9188555479049684,0.3928623795509337,-0.2319194187426323,0.06467284157021,0.4599915994995598,-0.1206312030553817,-0.0972211882472038,-1.4631142616271973,-0.2228859934955835,-0.6324566989392042,-8.79532857477665,14983.0
33.7,4.400000095367432,197.0,23.801483154296875,19.74425506591797,-79.78282136363359,40.45893059637485,318.8600847167968,0.03527707234025,0.0171501003205776,-0.8544428944587708,0.5180624127387999,-0.1567245678938604,0.1229015036265869,0.2891074785144749,0.0366189889609813,-0.0490924231708049,-1.5759141445159912,-0.0117295054625719,-0.4677627803385258,-8.916326177716256,14983.0
33.8,4.5,201.0,23.732622146606445,20.92906951904297,-79.7828213374508,40.45893095763273,318.81793612670896,0.038364540785551,0.0173037536442279,-0.8130296468734741,0.5806992650032043,-0.1357790816540294,0.1316850038913258,0.1966575896146064,0.046227466315031,-0.0249434132128954,-1.5418808460235596,0.0518126347102224,-0.5350833821296692,-8.97916561961174,14983.0
33.9,4.5,187.0,23.76267051696777,20.05437469482422,-79.78282114629232,40.45893098794512,318.8352853698732,0.0435293018817901,0.0175832230597734,-0.7668973803520203,0.6400504112243652,-0.0965404399371783,0.1476451146922719,0.1341090827053887,0.0132599957287311,-0.0681583955883979,-1.4359874725341797,0.1387655371427536,-0.6164073345065118,-9.10158000290394,14983.0
34.1,4.5,181.0,23.66876602172852,21.11195945739746,-79.78282089059145,40.45893120217779,318.7762910766602,0.0511940754950046,0.0167135428637266,-0.6683642268180847,0.7418822050094604,0.0285744187668135,0.1708979924104796,0.0248005641005361,0.1223718971014022,0.0108280200511217,-1.1849703788757324,0.5395838743820787,-0.6096196673065424,-9.411040967702863,14983.0
34.3,4.5,192.0,23.59239196777344,23.115806579589844,-79.78282068910362,40.45893115697221,318.7780534667968,0.0537518411874771,0.0153603721410036,-0.626730740070343,0.7772279381752014,0.0956818673056184,0.1749344670569207,0.0041464875776383,0.0922940820455551,-0.008913155645132,-0.8702367544174194,0.6474882823973894,-0.4640614562854171,-9.547593918442724,14983.0
34.4,4.5,198.0,23.47970771789551,24.61869239807129,-79.78282041385509,40.45893120182781,318.72821444702146,0.0560239590704441,0.0092008952051401,-0.5710070133209229,0.8189797401428223,0.2143915248473993,0.1493976247948089,-0.0208437595136881,0.0460209399461746,0.0623925291001796,-0.5027097463607788,0.7305563861131669,-0.3083627846091986,-9.639150790572169,14983.0
34.6,4.5,194.0,23.68754768371582,22.0025577545166,-79.78282000766518,40.458931038132185,318.6976015014649,0.0552141070365905,0.0007149791345,-0.5488285422325134,0.8341091871261597,0.2711017812208197,0.1352264745670744,-0.0060994120280674,-0.1285123825073242,-0.0650628507137298,-0.268176257610321,1.0203616431355478,-0.2185683363676071,-9.640182824134827,14983.0
34.7,4.5,197.0,23.660001754760746,22.0105094909668,-79.78281969655383,40.45893084885845,318.6940690917968,0.0416852571070194,0.0088084479793906,-0.546147346496582,0.8366049528121948,0.304588616670127,0.1724199188267972,-0.0488058637196311,-0.010954275727272,-0.510104238986969,0.0477165915071964,1.1130476856976748,-0.4224474072083831,-9.477072989344595,14983.0
34.8,4.5,207.0,23.609920501708984,23.02833747863769,-79.78281923183826,40.45893072829056,318.7082750244141,0.0164942499250173,0.0235613118857145,-0.5456610918045044,0.8375122547149658,0.3271739858154506,0.2527939968496585,-0.0210198065652515,-0.0814588069915771,-0.6194412112236023,0.1123092398047447,0.8200790850073101,-0.6114176130294801,-9.577260351777078,14983.0
35.0,4.5,210.0,23.632457733154297,22.85339736938477,-79.78281834248277,40.45893053899106,318.67302722167966,-0.028867220506072,0.0508311353623867,-0.5483468174934387,0.8342053890228271,0.3305410224121851,0.4768044563947523,0.0471592414018709,-0.1484436392784118,-0.5117467641830444,0.0720145478844642,0.3397631001099944,-0.6045417259633541,-9.749047454595567,14983.0
35.2,4.5,198.0,23.552326202392567,23.06014442443848,-79.78281658933268,40.45893044776214,318.6709253234864,-0.0508227236568927,0.0606715306639671,-0.5516292452812195,0.8303259611129761,0.3348850602681331,0.8547540189206142,0.1189903076072231,0.0791550725698471,-0.1796578168869018,0.0660103410482406,0.7106569956243038,-0.4975459752604365,-10.010936057567596,14983.0
35.3,4.5,197.0,23.64748191833496,21.98665428161621,-79.78281609810897,40.45893076601788,318.57130450439456,-0.0549789108335971,0.0650570541620254,-0.5521393418312073,0.8293896317481995,0.3244468915737953,1.0317117794471329,0.1741955281001684,0.0887046530842781,-0.0334313958883285,0.0651134774088859,0.5476871651038527,-0.6125369893759489,-10.228281741142274,14983.0
35.4,4.400000095367432,200.0,23.5247802734375,26.19314384460449,-79.78281468344272,40.4589309113869,318.57212466430667,-0.0581431090831756,0.06827262789011,-0.5524042844772339,0.8287387490272522,0.3079057820271256,1.2631738606122649,0.2439108772015389,0.0022776687983423,-0.1694590896368026,-0.0468089841306209,0.5352485659718513,-0.4478375159204007,-10.231157401800155,14983.0
35.6,4.300000190734863,200.0,23.397071838378903,26.04205894470215,-79.78281180276362,40.45893191558621,318.4496690673828,-0.0680682361125946,0.0716973915696144,-0.5518826842308044,0.8280409574508667,0.2716410501687821,1.7049053149862017,0.3896053210331361,0.0269782431423664,-0.2061236798763275,0.042904045432806,0.5759056451171637,-0.5911199906095863,-10.544883910417555,14983.0
35.71,4.199999809265137,196.0,23.43838882446289,24.53122329711914,-79.78280963569928,40.45893233237816,318.4591447753906,-0.0717876926064491,0.0715504959225654,-0.5515801310539246,0.8279411196708679,0.27649495675419,1.934702945891028,0.5236082848501983,0.1172833070158958,0.1015112772583961,0.1176359578967094,0.6810583899915219,-0.6794762796163559,-10.824273229837418,14983.0
35.9,4.099999904632568,194.0,23.45591735839844,26.3521785736084,-79.78280518409204,40.45893384331668,318.3680879516602,-0.068946324288845,0.0720675215125083,-0.5512533187866211,0.8283553123474121,0.2270502005978239,2.3743946930078086,0.6594188196058629,-0.1116430014371872,-0.0145741142332553,-0.1329579949378967,0.3925898064672947,-0.2812134314328432,-10.384407076835632,14983.0
36.1,4.0,187.0,23.39832305908203,25.58085632324219,-79.78279970047844,40.458935944869474,318.27696246337894,-0.0720674693584442,0.0738346204161644,-0.5493876934051514,0.8291730880737305,0.1929249281823964,2.8113527614805243,0.7799101139047624,-0.066906988620758,-0.02185277082026,-0.1220360621809959,0.3542273209244013,-0.1611017912998795,-10.463857873678208,14983.0
36.2,3.900000095367432,183.0,23.5247802734375,24.07001876831055,-79.78279630955426,40.45893681636629,318.3000146789551,-0.0734158903360366,0.0746527016162872,-0.5481724739074707,0.8297855854034424,0.1966987836768316,3.0336505900743456,0.8875694258024102,-0.1285615861415863,-0.0613149628043174,-0.1964314132928848,0.2332590636983514,-0.1602090493775904,-10.454561970233918,14983.0
36.4,3.700000047683716,174.0,23.53855323791504,23.29869842529297,-79.78279322497559,40.45893843578171,318.2091524047852,-0.0745829716324806,0.0757351070642471,-0.5457539558410645,0.8311764001846313,0.1770681964832428,3.2323623585190524,0.9158418796193936,0.128862053155899,-0.0947298854589462,0.1779194325208664,0.2223209149204194,-0.7512553102523088,-10.36593572258949,14983.0
36.5,3.700000047683716,169.0,23.54230880737305,23.36231231689453,-79.78278599896358,40.45894150068102,318.1376687927246,-0.0782596990466117,0.0799285843968391,-0.5405431985855103,0.8338464498519897,0.1407221251514273,3.6423554461902015,1.014372567697277,-0.0102292038500309,0.0280109923332929,-0.0650530308485031,0.0847089968807995,-0.4019894248992205,-10.1681138920784,14983.0
36.7,3.5,160.0,23.43964195251465,24.49941635131836,-79.78277720782509,40.45894411456051,318.18328112792966,-0.0809008106589317,0.08444195240736,-0.5372216701507568,0.8352949023246765,0.1702502290639694,4.063632874912967,1.2102111172349812,-0.0374950878322124,-0.1750794202089309,-0.0118953930214047,-0.1323986684717238,-0.681391973644495,-10.389917492866516,14983.0
36.8,3.5,154.0,23.53104019165039,22.948820114135746,-79.78277359870798,40.458946792742736,318.0624811096192,-0.0828070640563964,0.0850828289985656,-0.5347572565078735,0.8366234302520752,0.1006843319928601,4.247532271517219,1.242133587330689,0.1161607205867767,0.0404770411550998,-0.0485860928893089,-0.046309582516551,-0.5797225247696043,-10.39563957810402,14983.0
36.9,3.5999999046325684,140.0,23.51226043701172,23.855321884155277,-79.78276867965154,40.458948375707685,318.08780307006833,-0.0827604830265045,0.0869982615113258,-0.5351218581199646,0.8361977934837341,0.1033965087705704,4.456862449606027,1.3193824266129346,-0.0922520458698272,-0.0429683364927768,-0.0682969763875007,-0.1142361111659556,-0.3717978385090828,-10.143981263637542,14983.0
37.1,3.700000047683716,135.0,23.43964195251465,25.07194328308105,-79.78275897474145,40.45895318890848,318.01007098388675,-0.0856410264968872,0.0915792360901832,-0.5330778360366821,0.8367239832878113,0.027637430969669,4.860876492206634,1.3649700434238057,0.0936645939946174,-0.0737782642245292,0.0567453056573867,-0.1602400578930974,-0.8841636183857918,-10.063130643367767,14983.0
37.2,3.799999952316284,126.0,23.43212890625,25.00832939147949,-79.78275342991216,40.458955094387605,318.0288621826172,-0.0882928222417831,0.0944530814886093,-0.5323579311370851,0.836587131023407,0.025434938556116,5.0639696868284325,1.4535347157092442,0.0956169292330742,0.042442075908184,0.0040446803905069,-0.2990909278392792,-0.4917359259724618,-9.96284855604172,14983.0
37.4,4.0,122.0,23.363265991210927,25.81941032409668,-79.78274237938689,40.45896047367423,317.9667245788574,-0.08026172965765,0.0928107872605323,-0.531102180480957,0.8383762240409851,-0.0461375907561805,5.417009906084199,1.5998093423962845,0.0348586253821849,0.291401594877243,0.0456869825720787,-0.6842995016276837,-0.8954741068929434,-10.391475191116331,14982.0
37.6,4.300000190734863,115.0,23.37328338623047,24.920860290527344,-79.78273060236872,40.45896651526029,317.9255792541504,-0.0415845140814781,0.0687838941812515,-0.5325921177864075,0.8425468206405641,-0.1326814758319773,5.7621333738707685,1.3931403497547066,-0.1168473288416862,0.3880989253520965,0.0431188493967056,-0.6673795598745347,-0.823731694445014,-10.466248215436936,14982.0
37.7,4.400000095367432,118.0,23.553577423095703,21.08015251159668,-79.78272428294648,40.45896887375065,317.95542926025394,-0.0246810894459486,0.0601417757570743,-0.5339052677154541,0.8430415391921997,-0.1156601360961524,5.890507571349101,1.1745500632636097,0.0137586565688252,0.3274058401584625,0.1354842334985733,-0.5531739730015397,-0.7662228666990996,-10.385867711305616,14982.0
37.8,4.699999809265137,113.0,23.507251739501957,22.288822174072266,-79.7827180670327,40.458972946091606,317.89753359985355,-0.0163593720644712,0.0573221482336521,-0.5323492884635925,0.8444234132766724,-0.2090540128395368,6.00479522915795,0.9203494566016376,0.0738556757569313,0.034023605287075,0.208921492099762,-0.5932128187268972,-0.7824819999933244,-10.042730877399444,14982.0
38.1,4.900000095367432,110.0,23.526033401489247,23.17146873474121,-79.78269867667512,40.45898199210678,317.91079348754886,-0.024001495912671,0.0622709840536117,-0.5327406525611877,0.843643069267273,-0.2254654847019258,6.143464451738375,0.8543833067394502,0.0893863439559936,0.0183007568120956,0.0741713568568229,-0.7362718201428652,-0.7073300760984421,-9.885612684488295,14982.0
38.2,5.199999809265137,111.0,23.48471450805664,24.3801383972168,-79.7826921567236,40.45898455808397,317.9356424255372,-0.0249420627951622,0.0620540119707584,-0.5330250859260559,0.8434521555900574,-0.2435836852242916,6.178976211660025,0.8976317132226803,-0.1648191809654235,0.023374393582344,-0.2072315514087677,-0.7995329193770886,-0.3837979695573449,-9.684761411547662,14982.0
38.3,5.300000190734863,107.0,23.45967483520508,23.46568489074707,-79.78268546675784,40.45898847405135,317.913883392334,-0.0258433669805526,0.0581382066011428,-0.5311993360519409,0.8448547124862671,-0.314717423741335,6.250987711476648,0.8818210975760717,0.0185796059668064,0.0325682498514652,0.041184801608324,-0.6692035987973214,-0.9913476859778166,-9.840790268182753,14982.0
38.5,5.5,105.0,23.420860290527344,25.30254554748535,-79.78267887185659,40.45899114484872,317.9368249816895,-0.0240702480077743,0.055758748203516,-0.5309345722198486,0.8452337384223938,-0.2846784918307879,6.2843429149868175,0.8815973018159463,0.0259945839643478,0.0630258843302726,0.1842201352119445,-0.7771344289183617,-0.7268691319227218,-9.773921509981156,14982.0
38.6,5.599999904632568,104.0,23.68754768371582,20.491722106933597,-79.7826649489612,40.45899766653135,317.9574243469238,-0.0163769982755184,0.0489579737186431,-0.5293401479721069,0.8468376994132996,-0.3166255367003307,6.385462074799008,0.7860279415702116,0.0063447682186961,0.1169407963752746,-0.0309800691902637,-0.5156427787989378,-0.6910831488668919,-9.905535317659377,14982.0
38.7,5.699999809265138,105.0,23.5247802734375,23.592912673950195,-79.78265827516374,40.459000434466645,317.9784395141602,-0.013612188398838,0.0447144098579883,-0.5289911031723022,0.8473393321037292,-0.3170771318162973,6.408496630336582,0.6864519877378771,-0.0569626465439796,0.0633437559008598,0.0297916643321514,-0.5665788976103068,-0.6272791356593371,-9.577543941736222,14982.0
38.9,5.800000190734862,105.0,23.537302017211918,23.068096160888672,-79.78264434335219,40.459006500256685,318.0193674011232,-0.0063429218716919,0.0398738570511341,-0.5276322960853577,0.8485128283500671,-0.3197266882380713,6.426356925542453,0.5486249308831799,-0.0492718294262886,0.1614856421947479,-0.1026738807559013,-0.6743707832694054,-0.5246360157430172,-9.714299790859222,14983.0
39.1,5.800000190734862,105.0,23.397071838378903,24.96061897277832,-79.78263685003242,40.45900966415115,318.0693742675782,-0.0017744246870279,0.0396417416632175,-0.5271831750869751,0.848824679851532,-0.3129333757177549,6.457597838179843,0.5099396856988005,0.1033957749605178,0.0011638967553153,0.1462046056985855,-0.6422129975259304,-0.9255807624757292,-9.792872335910795,14983.0
39.2,5.800000190734862,105.0,23.642473220825195,20.475818634033203,-79.78262351574986,40.45901527977268,318.1084443969727,0.0032543502748012,0.0364726111292839,-0.5287429690361023,0.8479917645454407,-0.3258752896375743,6.414147831455632,0.4369625854853237,-0.1382578909397125,0.09703079611063,-0.003351722145453,-0.5901298742741347,-0.4032832675427199,-10.011029613018035,14983.0
39.3,5.9000000953674325,109.0,23.616180419921875,22.789783477783203,-79.78261634540202,40.459018334132,318.1487237854004,0.0022879447788,0.0353955328464508,-0.5303532481193542,0.8470345139503479,-0.321054560851762,6.4083346446277405,0.4177873373786308,-0.0853512212634086,-0.1126780733466148,0.0492260381579399,-0.6133915599435568,-0.6556971153616905,-9.850034716129304,14983.0
39.5,5.9000000953674325,109.0,23.715091705322266,20.141843795776367,-79.78260261777395,40.459024096484605,318.2149736328125,-0.0003144525690004,0.0326392613351345,-0.5342020988464355,0.8447263836860657,-0.3826871943883111,6.346253731908039,0.4210717699428882,-0.2264111489057541,0.1077786982059478,0.0454285442829132,-0.6130289594829083,-0.2226243488676846,-9.591556209325791,14983.0
39.61,5.9000000953674325,109.0,23.74013328552246,19.951000213623047,-79.78259605327534,40.45902685600765,318.23477572631833,-0.0036476438399404,0.0291820392012596,-0.5357633233070374,0.8438559770584106,-0.4000271863390714,6.323149604404621,0.3805580426077973,-0.1206001341342926,-0.0961093828082084,-0.1598988622426986,-0.7840646219998598,-0.475401619412005,-9.348853490352631,14983.0
39.8,5.9000000953674325,109.0,23.64122200012207,20.92906951904297,-79.78258257107221,40.45903256360128,318.29397982788083,-0.0047377818264067,0.0268581435084342,-0.5372504591941833,0.8429816961288452,-0.4439257364140184,6.274847699959576,0.3269601315477827,0.1050967574119568,-0.0245901476591825,0.094722643494606,-0.4697064313665033,-0.5890337771549822,-9.37014437198639,14983.0
39.9,5.9000000953674325,110.0,23.81650924682617,17.621131896972656,-79.78257610054747,40.459035316013214,318.3035928649902,-0.0020292964763939,0.0266569592058658,-0.5377416610717773,0.8426857590675354,-0.4786934718571666,6.243690779376142,0.2982555949261949,-0.0055192839354276,0.0163445509970188,-0.0001478884369134,-0.7280643758922816,-0.2768020178563893,-9.42713776767254,14983.0
40.1,5.9000000953674325,110.0,23.711336135864247,19.96690368652344,-79.78256256489234,40.459040781150605,318.36036700439456,0.000188705700566,0.0268008206039667,-0.5364472866058351,0.8435081243515015,-0.4522095490684537,6.2234676758589895,0.1826658651337789,0.0490573197603225,-0.1520116627216339,0.196814313530922,-0.5270422180742026,-0.9938361147791148,-9.33975697696209,14983.0
40.3,5.9000000953674325,110.0,23.874103546142567,17.811973571777344,-79.78254933339863,40.459046249379774,318.3947526855468,0.0024769310839474,0.0263828821480274,-0.5331011414527893,0.8456364870071411,-0.4253785490443397,6.164981436969358,0.1290651780549431,-0.0460056737065315,0.1153489798307418,0.0047517106868326,-0.6251106226444245,-0.4987567874416709,-9.343494517207146,14983.0
40.4,5.9000000953674325,110.0,23.78771209716797,19.58521842956543,-79.78254298459694,40.45904896346216,318.38869113159177,0.0032078963704407,0.0233673900365829,-0.5312277674674988,0.8469007015228271,-0.4223461700509486,6.138267196077338,0.0298166487978441,-0.1816811710596085,-0.1104846522212028,-0.1153726726770401,-0.661158560961485,-0.2069506314955652,-9.10006440460682,14983.0
40.6,5.800000190734862,111.0,23.73387336730957,19.22739028930664,-79.78253625256895,40.45905168155527,318.40904254150394,0.0043801739811897,0.0221449937671422,-0.5292288661003113,0.8481787443161011,-0.3558111813663163,6.118006522107687,-0.0222895953622814,0.0159548949450254,0.0952538400888443,0.0885585099458694,-0.597753400951624,-0.4563434605300426,-9.217588176727295,14983.0
40.7,5.800000190734862,112.0,23.851566314697266,18.05847930908203,-79.78252372521584,40.4590570639616,318.375423614502,0.0091190300881862,0.0185731071978807,-0.5257830619812012,0.8503671288490295,-0.3330523551969233,6.052562507351958,-0.1678759276201133,-0.0334158539772033,-0.0537406951189041,-0.1270832866430282,-0.4083411090821028,-0.4006246116757393,-9.358741132020947,14983.0
40.9,5.699999809265138,112.0,23.742637634277344,20.18955421447754,-79.78251710290273,40.45905974237677,318.3918916625977,0.0111061511561274,0.0191243421286344,-0.524034321308136,0.8514099717140198,-0.2843953548453671,6.027250670798744,-0.2364636217806999,0.1084031760692596,-0.0570157393813133,0.0123487319797277,-0.4201950962841511,-0.5690817251801491,-9.051177588701249,14983.0
41.0,5.599999904632568,112.0,23.722604751586918,20.277023315429688,-79.78250439104247,40.459065057021405,318.36396044921884,0.0133028663694858,0.0147086391225457,-0.5219569206237793,0.8527413606643677,-0.2317556050082842,5.969094090848332,-0.3646838953352306,-0.0744118839502334,0.0742330402135849,-0.2591683566570282,-0.1704688845947385,-0.2822876928560436,-9.241103339195252,14983.0
41.1,5.599999904632568,114.0,23.57110595703125,22.19340133666992,-79.78249828654135,40.45906768936037,318.3276826782227,0.0125383585691452,0.011953973211348,-0.5222260951995851,0.8526312112808228,-0.2321939158869753,5.9178002850068125,-0.4324205426141105,0.0290873385965824,-0.0403229221701622,0.2087571620941162,-0.2931619608029723,-0.6698959822207691,-9.42424573481083,14983.0
41.3,5.5,115.0,23.54731750488281,22.153642654418945,-79.78248585923367,40.459072903195576,318.2881395263672,0.0068373847752809,0.0128712439909577,-0.5222305059432983,0.852679967880249,-0.2730028522504739,5.836856263877242,-0.3605375281343609,-0.1104113534092903,-0.0499370954930782,-0.0244091935455799,-0.4827245626598597,-0.2291260689496994,-9.874231663942338,14983.0
41.4,5.400000095367432,115.0,23.742637634277344,20.26907157897949,-79.78247988281943,40.459075503663385,318.25770587158206,0.0037620968651026,0.0170328151434659,-0.5220778584480286,0.8527194857597351,-0.2723451147758373,5.8136041064222805,-0.2973356256407243,0.0066642384044826,-0.2858687043190002,0.1623371243476867,-0.4806938246637583,-0.7339982034265995,-9.829332064390185,14983.0
41.6,5.300000190734863,115.0,23.48847198486328,24.38809013366699,-79.78246750219513,40.45908037301338,318.2515222473145,-0.0055403322912752,0.0256689079105854,-0.5223684906959534,0.8523154258728027,-0.2323035929207402,5.783562551095351,-0.1289563580612648,0.0203812476247549,0.0165236368775367,0.1394464671611786,-0.5930274619907141,-0.3512203537300229,-9.77337596476078,14983.0
41.8,5.199999809265137,111.0,23.430877685546875,24.02230834960937,-79.782455343789,40.45908522440526,318.22288150024417,-0.0096491202712059,0.0242304485291242,-0.5226653814315796,0.8521389365196228,-0.2244155228018899,5.756331405170556,0.0974486030618863,-0.0412293151021003,-0.0196019206196069,0.0567782409489154,-0.6337061027437448,-0.7026457254588604,-10.11416397213936,14983.0
41.9,5.199999809265137,109.0,23.65374183654785,23.56905746459961,-79.7824494167116,40.45908775625256,318.21406954956063,-0.0112235266715288,0.0238175112754106,-0.5228757858276367,0.8520022034645081,-0.2315583403288962,5.7607240489728975,0.1740795209279829,0.0312009640038013,-0.1102200523018837,-0.1502735167741775,-0.3591072243824601,-0.5340202486887574,-10.378872102499008,14983.0
42.0,5.199999809265137,108.0,23.427120208740234,25.22302627563477,-79.78244340013529,40.45909020704349,318.1532098693848,-0.0145721016451716,0.0257003959268331,-0.5224347710609436,0.8521673083305359,-0.2313934073684175,5.739754890457637,0.1738872009485274,-0.1101735234260559,-0.0963660329580307,-0.0163552425801754,-0.5629806307330728,-0.4917741155996919,-10.185014684200286,14983.0
42.2,5.099999904632568,107.0,23.41835594177246,25.42977333068848,-79.78243160071429,40.459095278708034,318.14933413696286,-0.019715130329132,0.0283524971455335,-0.5234664678573608,0.8513462543487549,-0.2638509887305573,5.730252296199567,0.360164242640887,0.0723660886287689,-0.0430300012230873,0.0638154000043869,-0.6533585214614869,-0.2967325264960527,-10.194165576696395,14983.0
42.3,5.099999904632568,106.0,23.41835594177246,24.451704025268555,-79.78242575036312,40.45909801810012,318.09203738403323,-0.0189293716102838,0.0307447295635938,-0.5243427157402039,0.8507416248321533,-0.294227107544717,5.728518634264648,0.3957861797176473,0.0360697656869888,0.1342402696609497,-0.1924910545349121,-0.5013688848540188,-0.1703536944463849,-10.373582711219788,14983.0
42.5,5.099999904632568,105.0,23.58112335205078,22.185449600219727,-79.78241402254126,40.4591033886374,318.05870074462894,-0.0159708578139543,0.032762698829174,-0.5250634551048279,0.8502822518348694,-0.3593916083100256,5.735267855095171,0.4266290578073173,-0.0296352542936801,-0.1141292676329612,0.1952925324440002,-0.6695822060108185,-0.5461937496811152,-10.088546150922776,14983.0
42.7,5.199999809265137,105.0,23.526033401489247,22.153642654418945,-79.78240226220295,40.4591085993293,318.0812227172852,-0.0124484319239854,0.0391522385179996,-0.5251598358154297,0.8500113487243652,-0.3992337923110833,5.7411500833535145,0.4696370197193872,-0.0849966332316398,-0.1031895354390144,0.0401394441723823,-0.6530173364281655,-0.7479791884124279,-9.96074706673622,14983.0
42.8,5.099999904632568,105.0,23.691303253173828,20.348588943481445,-79.78239653004432,40.45911153946426,318.0327417297364,-0.0105017572641372,0.0398388244211673,-0.5249376893043518,0.8501430153846741,-0.4099748227351838,5.7383024049334725,0.4401007122864015,-0.0045240675099194,0.1053348928689956,0.0211285259574651,-0.5434451563283801,-0.5235523439571261,-9.97409158229828,14983.0
42.9,5.199999809265137,105.0,23.58613204956055,22.04231643676757,-79.7823906608489,40.45911417589984,318.04303759765634,-0.0120481392368674,0.0388668179512023,-0.5249650478363037,0.8501505851745605,-0.4101545338891733,5.754386238115469,0.4222417289385305,-0.0949189066886902,-0.1449020504951477,0.1169451028108596,-0.6504259966313839,-0.43417725071311,-9.712307644486428,14983.0
43.1,5.300000190734863,103.0,23.57486343383789,22.09798049926757,-79.78237902720328,40.45911965329272,317.99742144775394,-0.0193417184054851,0.0413426049053669,-0.5271421670913696,0.8485504984855652,-0.3933728718843226,5.746118129577822,0.4626406363650366,0.0494564026594162,-0.0945548564195633,0.0864727348089218,-0.7648619272559881,-0.6143426095694304,-10.122359429597855,14982.0
43.3,5.400000095367432,101.0,23.63496208190918,20.66666030883789,-79.78236752240912,40.45912510023151,317.9641420288086,-0.0270216036587953,0.0461043566465377,-0.5292255878448486,0.8467966914176941,-0.4237015807007972,5.7426142068967065,0.5274823378390271,-0.0145853050053119,-0.0565491952002048,-0.0015835136873647,-0.7636844442039729,-0.4471949069201946,-9.90648256659508,14982.0
43.4,5.400000095367432,100.0,23.70883178710937,18.82184791564941,-79.7823616132765,40.459127716587645,317.9694597167968,-0.0304072946310043,0.0455065965652465,-0.529670774936676,0.8464357852935791,-0.4067927430216852,5.753570692455107,0.5815423180441197,0.0850463137030601,-0.0222221910953521,0.115763708949089,-0.8538395925611258,-0.4884074350073934,-9.850044071674349,14982.0
43.6,5.400000095367432,94.0,23.85657501220703,17.366674423217773,-79.78234983773686,40.45913317634017,317.9487764282227,-0.0326756834983825,0.0348156057298183,-0.5321401357650757,0.8453088402748108,-0.4119058571631535,5.781499051164508,0.5766544542849121,0.0820022895932197,0.1426877230405807,0.0554075092077255,-0.7900797989219428,-0.3259601262956857,-9.683155766129492,14982.0
43.7,5.5,94.0,23.742637634277344,18.535585403442383,-79.78234386631479,40.45913578960453,317.9483758850098,-0.0316699333488941,0.0323153771460056,-0.532391369342804,0.8452882766723633,-0.4339988175124128,5.804960994016862,0.5054628108405346,-0.1018111556768417,-0.1050296127796173,0.0639283061027526,-0.7632763816416264,-0.2451511308923364,-9.466273182034492,14982.0
43.8,5.599999904632568,90.0,23.691303253173828,20.69051551818848,-79.78233795358422,40.45913852880768,317.93894976806644,-0.0325897820293903,0.0272557064890861,-0.5310690402984619,0.8462628722190857,-0.4476015721158667,5.810628250091176,0.4421720107295907,-0.1870938241481781,0.0841501504182815,-0.2035527974367141,-0.6802242846786977,-0.0205125806853175,-9.413706713318826,14982.0
44.0,5.599999904632568,88.0,23.711336135864247,19.53750801086425,-79.78232581627105,40.45914383623816,317.93524569702146,-0.0358433648943901,0.0191088635474443,-0.5268502235412598,0.8489870429039001,-0.3889456573009333,5.842912124172515,0.3793597537230226,-0.0461375154554843,0.1017097979784011,-0.1542936861515045,-0.5347766956686973,-0.0014090647688135,-9.672737782001496,14982.0
44.1,5.599999904632568,88.0,23.73637771606445,19.43413543701172,-79.78231981750456,40.45914646930713,317.9251443786621,-0.0371269583702087,0.0187222138047218,-0.523791491985321,0.8508310914039612,-0.3698630679741697,5.855991955488462,0.3650624855078188,-0.0342254340648651,-0.1878466308116912,-0.1198147013783454,-0.7562429852038622,-0.1882395962253213,-9.48326869904995,14982.0
44.3,5.699999809265138,84.0,23.718849182128903,19.990758895874023,-79.78230767070181,40.45915183714769,317.93276232910165,-0.0379997640848159,0.0174142066389322,-0.5199152231216431,0.8531945943832397,-0.3232906074700735,5.873966592878902,0.4151818679980021,-0.0261166803538799,-0.0803864374756813,0.0936189293861389,-0.8040709434449673,-0.1948669400811195,-9.648524461984636,14982.0
44.4,5.699999809265138,81.0,23.756410598754893,18.519681930541992,-79.78230165929756,40.45915452203845,317.92431277465823,-0.0355477668344974,0.0166618190705776,-0.5194732546806335,0.8535844683647156,-0.3200337581463655,5.8885735679380256,0.4057116912246881,0.0031423328910022,-0.0448629073798656,0.1662603467702865,-0.6715227507054806,-0.2189278487674892,-9.726010009646416,14982.0
44.6,5.699999809265138,79.0,23.54105758666992,22.38424301147461,-79.7822894690496,40.45915995274535,317.92597216796884,-0.033846516162157,0.0175163783133029,-0.5186688303947449,0.854125440120697,-0.3276453659602017,5.9234631658739865,0.3461372866679353,0.0166036430746316,-0.0410394892096519,0.096024177968502,-0.7042067127674818,-0.2549895828589797,-9.584068849682806,14982.0
44.71,5.699999809265138,78.0,23.660001754760746,19.79196548461914,-79.78228344149957,40.45916268420185,317.91571444702146,-0.0333725586533546,0.0185672920197248,-0.5185606479644775,0.8541876673698425,-0.3526309917436328,5.922786726615557,0.3558445464962908,-0.0630337372422218,0.0103953890502452,-0.0259974990040063,-0.7111745472997427,-0.109060557866469,-9.8409224152565,14982.0
44.9,5.699999809265138,76.0,23.646228790283203,20.6507568359375,-79.78227120681694,40.459168168894784,317.9259340209961,-0.0314462147653102,0.0189179945737123,-0.5177348256111145,0.8547537922859192,-0.3434400500280582,5.936263977629758,0.3539898599329875,0.0090906675904989,-0.0961162969470024,0.0768128484487533,-0.727257094681263,-0.2277259714342653,-9.65637201011181,14982.0
45.1,5.699999809265138,75.0,23.6612548828125,19.37847328186035,-79.78225898796532,40.45917366648735,317.9321062011718,-0.0276571717113256,0.0247946251183748,-0.5183517932891846,0.8543604612350464,-0.3166875719964396,5.9365744683517,0.3965738518508187,0.206479787826538,0.0527265630662441,0.0983635336160659,-0.6992372372746468,-0.1845573121681809,-9.73900427699089,14982.0
45.2,5.699999809265138,75.0,23.72636032104492,18.83775329589844,-79.78225293995196,40.459176412612656,317.92726916503915,-0.0262006651610136,0.0278860442340374,-0.5186027884483337,0.8541587591171265,-0.3409100876070508,5.957038399611848,0.3762514380656321,-0.0434320382773876,0.0470672659575939,-0.1781362742185592,-0.4404823764413596,0.0483893914427608,-9.772831588983538,14982.0
45.3,5.800000190734862,74.0,23.597400665283203,22.757976531982425,-79.78224684961774,40.45917929084318,317.92820758056644,-0.027902627363801,0.0320340394973754,-0.5186523795127869,0.8539291620254517,-0.3247739997523236,5.9556523480655015,0.3545406637328298,0.1408270746469497,-0.1093485429883003,-0.0082640210166573,-0.6598218874633313,-0.4022155659645796,-9.503812891244891,14982.0
45.5,5.800000190734862,73.0,23.71759605407715,19.291004180908203,-79.7822345119439,40.4591848426279,317.92593783569333,-0.0295005142688751,0.0305265374481678,-0.5190060138702393,0.8537158370018005,-0.3049475184237584,5.968753800972553,0.4173072966763027,-0.0406311191618442,0.0515546910464763,0.0939607620239257,-0.8138029760867358,-0.3260206084325909,-9.666506989002226,14982.0
45.61,5.800000190734862,73.0,23.67753028869629,20.261119842529297,-79.7822284136942,40.45918756771189,317.9181749267578,-0.0300272330641746,0.0274945273995399,-0.5189931392669678,0.8538083434104919,-0.3089220483673404,5.971091590200657,0.4034483149554202,-0.0718398094177246,-0.1006294190883636,-0.1135091483592987,-0.9330719958990812,0.0334596865810453,-9.599497897624971,14982.0
45.8,5.800000190734862,73.0,23.79772758483887,18.83775329589844,-79.78221623945711,40.45919310044776,317.9193574829102,-0.0279835015535354,0.0216398816555738,-0.5182888507843018,0.8544736504554749,-0.3043857323210241,5.979078469254572,0.3847816305656672,-0.0740877166390419,0.0431170091032981,-0.1228444352746009,-0.4712761164084077,0.0798421217501163,-9.795180231928828,14982.0
46.0,5.800000190734862,74.0,23.748897552490234,19.195581436157227,-79.78220402244942,40.45919857248155,317.91556185913083,-0.0279232338070869,0.01914076320827,-0.5165585875511169,0.8555823564529419,-0.294932892550069,5.9684792890035725,0.3337073969860064,-0.0611878558993339,-0.0036141350865364,-0.0212242435663938,-0.5751789458468557,-0.0176940377312712,-9.702076186537743,14982.0
46.1,5.800000190734862,76.0,23.6074161529541,20.8177433013916,-79.78219793350942,40.45920130005615,317.90802020263675,-0.0279583502560854,0.0184638556092977,-0.5161075592041016,0.8558683395385742,-0.2693640386016369,5.980048934697147,0.3261800048400035,0.1474656015634536,-0.0597505271434784,0.0309033766388893,-0.5528703197836876,-0.1535027681104838,-9.77963365495205,14982.0
46.2,5.800000190734862,77.0,23.80023193359375,18.137996673583984,-79.7821918491568,40.45920403256042,317.9001237792968,-0.0286820400506258,0.0198137741535902,-0.516064465045929,0.8558400869369507,-0.275751304000968,5.984986944098778,0.3170935320026626,0.0212901104241609,0.010171896778047,-0.1566492021083831,-0.535469517633319,-0.1170060742646455,-9.697188498973848,14982.0
46.4,5.800000190734862,76.0,23.68253898620605,20.968828201293945,-79.7821793568612,40.459209526013424,317.8861467285157,-0.0320597551763057,0.0241938196122646,-0.5172112584114075,0.8549149036407471,-0.270387410874103,5.986109813540739,0.3512606417464135,0.0534063838422298,-0.0106776533648371,0.0525754019618034,-0.8369757109880448,-0.1802127395756542,-9.757007853984833,14982.0
46.6,5.9000000953674325,75.0,23.676279067993164,21.756053924560547,-79.78217310250561,40.459212349055534,317.8845674438477,-0.0311150643974542,0.0248139388859272,-0.5176786184310913,0.8546491265296936,-0.2905231204938595,5.988450368069405,0.4003926313765017,-0.0121297491714358,-0.1024317443370819,0.0658182203769683,-0.8462677406519652,-0.1357407085318118,-9.857361277341845,14982.0
46.7,5.9000000953674325,76.0,23.54731750488281,23.012434005737305,-79.78216085896305,40.45921783922781,317.8696062011718,-0.0292929727584123,0.028760926797986,-0.5188245177268982,0.8538945913314819,-0.3165653304656836,6.0195859900876165,0.3814421619756798,-0.0564548447728157,-0.0414306595921516,0.082216590642929,-0.5480268883332611,-0.3728041443228722,-9.898225128650664,14982.0
46.9,5.800000190734862,77.0,23.64873313903809,21.469789505004886,-79.78214870352524,40.45922370778329,317.8010370178223,-0.028341619297862,0.0290391780436038,-0.5205851197242737,0.8528450727462769,-0.3684609382005671,6.0209402758277095,0.3783544136381109,0.0261033736169338,0.0707307010889053,0.1237454041838646,-0.7764120054244995,-0.397292283475399,-9.837984774112703,14982.0
47.0,5.800000190734862,78.0,23.5247802734375,21.84352302551269,-79.7821425897144,40.45922669637343,317.750236694336,-0.0294426120817661,0.0286440011113882,-0.5205691456794739,0.8528308868408203,-0.392011245881945,6.041312802372072,0.3291055134493204,-0.0026799361221492,-0.0623859651386737,-0.1592564284801483,-0.6462240412831307,-0.2903605049662292,-9.828576604127882,14982.0
47.2,5.800000190734862,79.0,23.557334899902344,22.36833953857422,-79.78213645431592,40.45922950320081,317.7372819824218,-0.0290947780013084,0.0275982022285461,-0.5200459957122803,0.8531964421272278,-0.3930617999356232,6.044444006755652,0.3612718464406323,0.0337351262569427,0.0697775185108184,0.0876638516783714,-0.8082766263931991,-0.3862872388958931,-9.996758898496626,14982.0
47.3,5.699999809265138,81.0,23.63746452331543,21.15171813964844,-79.7821240877236,40.45923519349761,317.6906434936524,-0.0209734570235014,0.0262146107852458,-0.5181088447570801,0.8546555638313293,-0.3815830870854977,6.059322147497606,0.3489835764454411,-0.0608377605676651,0.018256526440382,-0.0069653787650167,-0.6391791696846485,-0.135725277364254,-10.110429940223694,14982.0
