time,wind_speed,wind_angle,battery_voltage,battery_current,position_x,position_y,position_z,orientation_x,orientation_y,orientation_z,orientation_w,velocity_x,velocity_y,velocity_z,angular_x,angular_y,angular_z,linear_acceleration_x,linear_acceleration_y,linear_acceleration_z,node_ids
0.0,0.8000000119209291,142.0,25.801008224487305,-0.055662415921688,-79.7828101038505,40.458930896323366,269.79825623989103,-0.0144559927284717,-0.0064158150926232,-0.9871473908424376,0.1590282171964645,-0.0176601303491393,-0.0202931617407616,0.0034770065559446,0.0010897261090576,5.451442484627478e-05,0.0051439865492284,0.0452358327247202,0.2494192876853049,-9.809675479531286,14934.0
0.11,0.8000000119209291,144.0,25.80977249145508,-0.055662415921688,-79.782810075179,40.45893094632792,269.79890295028684,-0.0144642507657408,-0.0064175208099186,-0.9871437549591064,0.1590499281883239,-0.0252373590588034,-0.0272582832919374,0.0046406604750587,0.007901799865067,0.0014473359333351,0.0038486872799694,0.0445416220463812,0.2496382293663919,-9.809592449069022,14934.0
0.3,0.8000000119209291,146.0,25.78973960876465,-0.1033730581402778,-79.7828102074153,40.45893091150426,269.80163111448286,-0.0144503321498632,-0.0063996114768087,-0.9871405363082886,0.1590722799301147,-0.0161191900214547,-0.0170051415889733,0.000657278459423,-0.0072184195742011,0.0004369657544884,-0.0056500555947422,0.0410205247113481,0.2564616376720369,-9.808283257484437,14934.0
0.4,0.8999999761581421,144.0,25.79850578308105,-0.0636141896247863,-79.78281029528671,40.45893091573614,269.8064673757553,-0.0144345527514815,-0.0063674482516944,-0.9871378540992736,0.15909144282341,-0.0145700251038537,-0.0133621324155656,0.0015943488343185,0.0001126316055888,0.0011863976251333,0.0056607793085277,0.0432472494989633,0.2488369598239661,-9.809909368157388,14934.0
0.6,0.8999999761581421,145.0,25.808521270751957,-0.055662415921688,-79.7828102836343,40.45893093150479,269.806598803997,-0.0144206043332815,-0.0063657029531896,-0.987135112285614,0.1591093093156814,-0.0191696934174124,-0.0164606585096912,0.0023373500161068,-0.0026961627881973,-0.0030882619321346,-0.0088704181835055,0.0418380522541701,0.2655847193486989,-9.80832711160183,14934.0
0.7,0.8999999761581421,146.0,25.804765701293945,-0.055662415921688,-79.78281037734658,40.45893094509443,269.8105536913872,-0.0144373085349798,-0.0063686408102512,-0.98712819814682,0.1591512411832809,-0.0176111735714454,-0.0152832534645587,0.0028724090751491,-0.0036381720565259,-0.0027950005605816,-0.0009798659011721,0.0426240779226645,0.2538132692500949,-9.809408846497536,14934.0
0.9,1.0,149.0,25.79600143432617,-0.0636141896247863,-79.78281036358267,40.45893096287596,269.81078865289686,-0.0144167682155966,-0.006374227348715,-0.9871246218681335,0.1591749489307403,-0.0212804293542858,-0.0186343086499862,0.0033469643494159,0.0002685559738893,-0.0011029175948351,-0.0018578912131488,0.039524921150878,0.2636136046797037,-9.806677027344705,14934.0
1.0,1.0,150.0,25.79975700378418,-0.0636141896247863,-79.78281044596862,40.45893100131397,269.811471722126,-0.0144179565832018,-0.0063605718314647,-0.9871187806129456,0.1592114716768264,-0.0226958827860338,-0.0201009725801982,0.0006004391446153,-0.0074264197610318,-0.0016796753043308,-0.0055084992200136,0.0415482359239831,0.2591714018583297,-9.808206074237823,14934.0
1.2,1.100000023841858,151.0,25.79600143432617,-0.0636141896247863,-79.78281042693376,40.4589310270284,269.81146325826643,-0.0144347362220287,-0.0063773682340979,-0.987118661403656,0.1592100411653518,-0.02612031409812,-0.0238957519089079,0.0010764072535794,0.0035801373887807,0.0007824552594684,0.0008152939262799,0.0419540372584015,0.2594008502550423,-9.808224785327912,14934.0
1.31,1.100000023841858,151.0,25.80601692199707,-0.0636141896247863,-79.78281055357427,40.458931053467744,269.8118484830856,-0.0143999485298991,-0.0063667972572147,-0.9871131777763368,0.1592473983764648,-0.0211551488114314,-0.024108309814508,-0.0006854710843716,-0.004381108097732,-0.0023362345527857,-0.0092237330973148,0.0409675754327327,0.2658660252392292,-9.807561126351358,14934.0
1.5,1.2000000476837158,152.0,25.80601692199707,-0.0079517737030982,-79.78281062680828,40.458931030543695,269.81085988044737,-0.0143982991576194,-0.0063358666375279,-0.9871112704277042,0.1592607200145721,-0.0182819792495873,-0.0127561497928396,-0.0040199241254643,0.002739971736446,0.0029704393818974,0.005331405904144,0.0434694665344432,0.2488282255455852,-9.80932464659214,14934.0
1.6,1.2999999523162842,152.0,25.804765701293945,-0.0397588685154914,-79.78281058945376,40.4589310689444,269.8100327467918,-0.0143951913341879,-0.0063532167114317,-0.98710697889328,0.159286692738533,-0.0266641248254236,-0.0194852159363082,-0.0026434756055321,-1.631878512853291e-05,0.0013109012506902,-0.0024132211692631,0.0407517674937844,0.2630902423337102,-9.808213090896606,14934.0
1.8,1.399999976158142,147.0,25.79474830627441,-0.0636141896247863,-79.7828106917911,40.45893109186145,269.80951043128965,-0.014383646659553,-0.0063548544421792,-0.9871044158935548,0.1593036204576492,-0.0216052054079252,-0.0198203731909653,-0.0038852087606285,0.0047123152762651,-0.0019196964567527,0.004384103231132,0.0448592629004269,0.2494229787401855,-9.810036252737046,14934.0
1.9,1.399999976158142,148.0,25.80601692199707,-0.0636141896247863,-79.78281077553099,40.45893110270928,269.80789514541624,-0.014339049346745,-0.0063196406699717,-0.987099587917328,0.1593391299247741,-0.0162397420390805,-0.015412980516248,-0.004899687408798,0.0073564741760492,0.0031195012852549,0.0002255667641293,0.0428052730858326,0.2540153270959854,-9.809015913605691,14934.0
2.1,1.5,146.0,25.801008224487305,-0.0318070948123931,-79.78281076263987,40.45893112011508,269.80736853837965,-0.0143387671560049,-0.0063182204030454,-0.987097442150116,0.1593522578477859,-0.0206963758704049,-0.0183741266404405,-0.0042792501594772,-0.003544206963852,-0.0026632752269506,-0.0015017704572528,0.0424393835663795,0.251198851224035,-9.809728689193728,14934.0
2.2,1.5,144.0,25.802261352539062,-0.0318070948123931,-79.78281081245387,40.45893115632092,269.8054486131668,-0.0143611440435051,-0.0063351448625326,-0.9870927333831788,0.1593786180019378,-0.0235190499869561,-0.017833280895756,-0.0050438678193948,0.0043486645445227,0.0025783134624361,0.0018746437272056,0.0448094519320875,0.2477226267009973,-9.810415152311323,14934.0
2.31,1.5,141.0,25.807270050048828,-0.0477106422185897,-79.78281079251126,40.4589311783915,269.80488278627394,-0.0143541106954216,-0.0063077546656131,-0.98708838224411,0.1594079285860061,-0.0280063363615604,-0.0209048254052382,-0.0043736579755497,-0.0079098585993051,-0.0023327798116952,-0.0089877881109714,0.0404882042482495,0.2635835280641913,-9.807179303169251,14934.0
2.51,1.5,142.0,25.80601692199707,-0.0636141896247863,-79.78281091664464,40.45893119450879,269.80003287553785,-0.014316389337182,-0.0062737734988331,-0.9870829582214355,0.1594460755586624,-0.0186131290302156,-0.0204983929116849,-0.0085353040992024,0.0022561131045222,-0.0005797391058877,0.0025390437804162,0.0432666458096355,0.2511272228322923,-9.809638057351114,14934.0
2.7,1.5,139.0,25.80601692199707,-0.055662415921688,-79.7828109021427,40.458931219195314,269.7991262292862,-0.0142940860241651,-0.0062870024703443,-0.987079918384552,0.1594660133123397,-0.0228405983134644,-0.0238670553999748,-0.0079465512325891,-0.0006747912266291,-0.0035291761159896,-0.0066179251298308,0.0413735869014635,0.2666058441996574,-9.807396819591524,14934.0
2.8,1.5,138.0,25.797252655029297,-0.0636141896247863,-79.78281098508009,40.45893124249322,269.7963066911697,-0.0142487064003944,-0.0062575261108577,-0.9870723485946656,0.159518226981163,-0.0208589434453738,-0.0228281798676265,-0.0074989578688197,-0.005859144963324,8.280421025119722e-05,-0.0063993697986006,0.04181891632732,0.2626219351775944,-9.80723836004734,14934.0
2.9,1.600000023841858,140.0,25.797252655029297,-0.0715659633278846,-79.78281106119037,40.458931214378616,269.7940883851051,-0.0142442230135202,-0.0062329489737749,-0.9870702624320984,0.159532681107521,-0.0138879625889121,-0.0116743750984613,-0.0080616559160829,0.0021654095035046,0.0039323451928794,0.0050395899452269,0.0439014067500829,0.254445225354284,-9.809104791283607,14934.0
3.1,1.600000023841858,140.0,25.80601692199707,-0.0238553211092948,-79.78281103382034,40.45893124736278,269.7924773311615,-0.0142688369378447,-0.0062375618144869,-0.987067937850952,0.1595447361469268,-0.0216747798874405,-0.0179605769213383,-0.0067911834450402,9.88041501841508e-05,-0.003056417685002,-0.0072243208996951,0.0397051889821887,0.2651877116784453,-9.807700874805452,14934.0
3.3,1.5,138.0,25.80351257324219,-0.055662415921688,-79.7828111111767,40.45893123699617,269.79021998405454,-0.0142581257969141,-0.0062301675789058,-0.9870636463165284,0.1595721244812011,-0.0169260113975886,-0.012805233786443,-0.0074225907954734,0.0051612867973744,0.0017267515650019,0.007785684429109,0.0452133300807327,0.2497779047302901,-9.810435032844545,14934.0
3.4,1.5,141.0,25.80601692199707,-0.0636141896247863,-79.78281118855134,40.45893124568806,269.78654815912245,-0.0142112849280238,-0.0062049305997788,-0.9870585203170776,0.1596094518899917,-0.0129884672843651,-0.0127822739057867,-0.007681280898041,0.0060986611060798,0.0039406362920999,0.0044827070087194,0.0443223697319626,0.2517498233914375,-9.809495970010758,14934.0
3.5,1.600000023841858,140.0,25.79975700378418,-0.0238553211092948,-79.78281117810026,40.4589312604347,269.7857547020912,-0.0141964331269264,-0.0061945719644427,-0.9870548248291016,0.1596336364746093,-0.017428167334419,-0.0155647617698888,-0.007048677528523,-0.0067006540484726,-0.0039315647445619,-0.0030860314145684,0.0417867429368198,0.2565113938227296,-9.808414235115052,14934.0
3.7,1.600000023841858,142.0,25.80601692199707,-0.0477106422185897,-79.78281119190598,40.45893129264592,269.7823492503166,-0.0142163438722491,-0.0062141767702996,-0.9870439171791076,0.1596987098455429,-0.0246453513307328,-0.0166094697709916,-0.0067500663891522,0.0021113287657499,0.0001274518726859,0.0010725990869104,0.0425921831885352,0.2484218440577388,-9.808915341496466,14934.0
3.9,1.600000023841858,143.0,25.79600143432617,-0.0636141896247863,-79.78281117113046,40.45893131338451,269.78160866260527,-0.0141957141458988,-0.0062105786055326,-0.987043559551239,0.1597028970718383,-0.028092702590371,-0.0195842695007591,-0.0061710151678302,-0.0012588847894221,-0.0022680715192109,-0.0081861186772584,0.0399449796415865,0.2675644586607814,-9.806726143956183,14934.0
4.01,1.600000023841858,144.0,25.797252655029297,-0.055662415921688,-79.78281124468229,40.45893134181365,269.77805527210234,-0.0141670005396008,-0.0061900331638753,-0.987034797668457,0.1597603410482406,-0.0240764938997624,-0.0214166025818881,-0.006251091828813,-0.005856308620423,-0.0041526481509208,-0.01079938467592,0.0414958850713446,0.2648817378468812,-9.807421962618829,14934.0
4.1,1.600000023841858,145.0,25.79850578308105,-0.0477106422185897,-79.78281122517346,40.45893136870979,269.7773535466194,-0.0141645185649395,-0.0062054330483078,-0.9870312213897704,0.1597819179296493,-0.026656812951709,-0.0249275429614663,-0.005872711567055,0.0059222131967544,-4.151606481173077e-05,0.0053123729303479,0.0443264216696843,0.2511638410203159,-9.80935680627823,14934.0
4.3,1.600000023841858,143.0,25.80601692199707,-0.0477106422185897,-79.78281131594622,40.45893131619235,269.7740026926994,-0.0141503121703863,-0.0061537427827715,-0.9870285391807556,0.1598017066717147,-0.0175040503576567,-0.0135888549467358,-0.0065939894492201,0.0005381606752052,-0.00191459688358,-0.0018467736663296,0.0401935913739726,0.2621549436450005,-9.807016165852549,14934.0
4.5,1.5,143.0,25.804765701293945,-0.055662415921688,-79.78281142963799,40.45893130625382,269.7709964132309,-0.0141314882785081,-0.0061461650766432,-0.9870238304138184,0.1598329246044159,-0.0076447367810302,-0.0118913240717611,-0.007435076957248,0.0059131984598934,0.0022808769717812,0.0067567727528512,0.0449077079957351,0.2481633788533509,-9.810653718709949,14934.0
4.6,1.5,144.0,25.79975700378418,-0.0397588685154914,-79.7828114175803,40.45893133613277,269.7695368146896,-0.0141271213069558,-0.0061614867299795,-0.9870209693908693,0.1598504334688186,-0.0140538237133412,-0.0181745980837288,-0.0063605405185575,0.0053772218525409,0.0025141923688352,0.0060322005301713,0.0435021332837641,0.2499962982349098,-9.809686004519463,14934.0
4.8,1.5,147.0,25.79600143432617,-0.0636141896247863,-79.78281149661811,40.45893134604608,269.76681216716764,-0.0141049297526478,-0.0061581209301948,-0.987019181251526,0.1598637998104095,-0.0125515128940842,-0.0181828449074384,-0.0067196422895458,-0.0043894187547266,-0.0021378726232796,-0.004350044298917,0.0416139622824266,0.2565011794678867,-9.809497724175452,14934.0
4.9,1.399999976158142,146.0,25.79600143432617,-0.0636141896247863,-79.78281153113416,40.4589313194916,269.7628133511543,-0.0141046484932303,-0.0060974545776844,-0.9870126247406006,0.1599062830209732,-0.0139282854218175,-0.0075644379437254,-0.0073763713942885,0.0020416744519025,0.0012659468920901,0.0076348381116986,0.0451313594263047,0.2486135230958462,-9.80982282936573,14934.0
5.01,1.399999976158142,145.0,25.79850578308105,-0.055662415921688,-79.78281151901076,40.458931329596,269.7620548224449,-0.0140740983188152,-0.0060919858515262,-0.9870117306709292,0.1599147915840149,-0.0174758728258934,-0.0103712750598933,-0.0067202975374252,-0.0067575480788946,-0.0019770509097725,-0.0087823895737528,0.0403879336360842,0.266961866542697,-9.807305603027345,14934.0
5.21,1.399999976158142,147.0,25.797252655029297,0.0079517737030982,-79.78281161194741,40.45893136293577,269.7580219721794,-0.0140724359080195,-0.0061613079160451,-0.9870022535324096,0.1599706709384918,-0.0134804310113415,-0.0184805521093871,-0.0069946872729602,-0.0067138485610485,-0.0007352426182478,-0.0038620876148343,0.0409983189962804,0.2592610835283995,-9.80765058875084,14934.0
5.3,1.399999976158142,146.0,25.7872371673584,0.0318070948123931,-79.78281160408322,40.45893138267114,269.7572771525383,-0.0140811493620276,-0.006157508585602,-0.9870020151138306,0.1599714010953903,-0.0159998657853833,-0.0217318840105628,-0.0066177092622695,0.0013354336842894,0.0019441240001469,0.0043888292275369,0.0416226919926702,0.2594904405623675,-9.807924238443375,14934.0
5.5,1.5,148.0,25.807270050048828,0.0636141896247863,-79.78281166807994,40.4589313348668,269.7529040789604,-0.0140866385772824,-0.0061160400509834,-0.986996054649353,0.160009503364563,-0.0140217483586995,-0.0116124613696149,-0.0071478767712964,-0.0052981874905526,0.0013709644554182,-0.0044088466092944,0.0418593671824783,0.2680554785951972,-9.807210293412211,14934.0
5.7,1.5,150.0,25.79099273681641,0.0318070948123931,-79.78281165606828,40.458931350518704,269.7521543717384,-0.0140943732112646,-0.0061262818053364,-0.9869913458824158,0.1600373834371566,-0.0165726453290058,-0.014970512572486,-0.0067585184388179,0.006266901269555,0.0020990753546357,0.0050262715667486,0.0451409205375239,0.2502848948724568,-9.809945620894432,14934.0
5.8,1.600000023841858,152.0,25.79224395751953,0.0397588685154914,-79.78281174513185,40.45893135597469,269.74616499900816,-0.0140751218423247,-0.0061243241652846,-0.9869884252548218,0.1600573807954788,-0.0143767545012202,-0.0173640044479621,-0.0091149201843777,-0.0023375132586807,-0.0014830393483862,-0.0029503430705517,0.0405853502545505,0.2626825086772442,-9.807585684657097,14934.0
6.0,1.600000023841858,156.0,25.79349708557129,0.1113248318433761,-79.78281179411309,40.45893134583217,269.7447472429276,-0.0140913445502519,-0.0061144041828811,-0.9869832992553712,0.1600877493619918,-0.0157460851742264,-0.0130466197207458,-0.0052977288385913,0.0024387412704527,0.0019622140098363,0.0066599762067198,0.0454530156729742,0.2484038455970585,-9.808525916934013,14934.0
6.11,1.7000000476837158,156.0,25.79099273681641,0.0318070948123931,-79.78281176501329,40.45893138191108,269.7436597561836,-0.0140948677435517,-0.0061030774377286,-0.9869768619537354,0.1601274460554123,-0.0219650310872327,-0.0190591796378376,-0.0043429928437261,0.0033166729845106,0.0015887162880972,0.0030114145483821,0.0448425754951313,0.2513124516606331,-9.808988431692123,14934.0
6.3,1.7999999523162842,159.0,25.79850578308105,-0.0079517737030982,-79.78281188165775,40.45893136048944,269.73984410524366,-0.0140791274607181,-0.0061030518263578,-0.9869714379310608,0.1601623445749282,-0.0130021752677806,-0.0161266190504434,-0.0057094657947704,-0.0062658758834004,-0.0038534135092049,-0.0031401917804032,0.0424327917443588,0.2552862011454999,-9.808503697514537,14934.0
6.4,2.200000047683716,164.0,25.78973960876465,-0.0079517737030982,-79.78281197522016,40.45893136492074,269.7351879096031,-0.0140710286796093,-0.0060430518351495,-0.9869672060012816,0.1601914316415786,-0.0099775574212413,-0.0171371209306373,-0.006732138802608,0.000400833931053,-0.0013166434364393,0.0036155269481241,0.0435273905145004,0.2485597469843924,-9.810230380296709,14934.0
6.5,2.400000095367432,161.0,25.7872371673584,-0.0159035474061965,-79.78281197068442,40.45893138244597,269.7344867801666,-0.0140432836487889,-0.006034783553332,-0.9869653582572936,0.1602053791284561,-0.0135680526376274,-0.019836908045738,-0.0063046929345975,-0.0048771565780043,-0.0009544948698021,-0.0079615321010351,0.0397078293655067,0.2665420364588499,-9.80638115823269,14934.0
6.7,2.5,164.0,25.78973960876465,0.0397588685154914,-79.78281203452444,40.45893136105333,269.7299204683304,-0.0140646155923604,-0.0060028573498129,-0.9869569540023804,0.1602564603090286,-0.0136250770449341,-0.0139013708811721,-0.0069101083440059,-0.0042889420874416,0.001430136966519,-0.0011163778835907,0.0410805317619815,0.2524664362147451,-9.808527086377143,14934.0
6.91,2.5,166.0,25.78598403930664,-0.0079517737030982,-79.78281202497688,40.45893137653536,269.7291958546638,-0.0140486974269151,-0.0059917890466749,-0.9869542717933656,0.1602748036384582,-0.0165167630276977,-0.0166875904473088,-0.0064135129095009,-0.0005247704102657,-0.0001538095384603,-0.0036401550751179,0.0404612796474248,0.2649078675918281,-9.80735647380352,14934.0
7.0,2.5999999046325684,172.0,25.79474830627441,0.0159035474061965,-79.78281211716755,40.45893140312685,269.7243287181854,-0.0140358200296759,-0.0059817433357238,-0.9869498014450072,0.1603038311004638,-0.0159932358460301,-0.0212455580318615,-0.0068258838729222,-0.0056027579121291,-0.0013226554729044,-0.0049892058596014,0.0433043238054961,0.2590370620787144,-9.807908450961111,14934.0
7.2,2.700000047683716,173.0,25.78347969055176,-0.0238553211092948,-79.78281210669138,40.45893142744436,269.7235898590088,-0.0140457032248377,-0.0059827626682817,-0.9869480729103088,0.1603140383958816,-0.0187309138567573,-0.0242538882570021,-0.0065710120036439,0.0044164648279547,0.0010802606120705,-0.0023243124596774,0.0427263219701126,0.2592479455657303,-9.806425597071648,14934.0
7.31,2.700000047683716,177.0,25.797252655029297,-0.0238553211092948,-79.78281225985425,40.45893139505627,269.71894838571546,-0.01400604005903,-0.0059576765634119,-0.9869401454925536,0.1603669077157974,-0.0085314624161927,-0.01981486049395,-0.0070470397809352,-0.0070540662854909,-0.0026771025732159,-0.0072192628867924,0.0402771197631955,0.2641858095489443,-9.808110764622688,14934.0
7.5,2.5999999046325684,181.0,25.79850578308105,-0.0079517737030982,-79.78281236900587,40.45893136115048,269.7150875544548,-0.0140071725472807,-0.0059450212866067,-0.9869363903999328,0.1603903919458389,-0.0033601113636467,-0.0144583153726135,-0.0080298081208436,0.0034835485275834,0.0039753308519721,0.0023914296180009,0.0431973197590559,0.2542410478927195,-9.808364533782004,14934.0
7.61,2.5999999046325684,184.0,25.801008224487305,0.0238553211092948,-79.78281236771147,40.45893139239416,269.7135079717636,-0.0140127781778574,-0.00591373257339,-0.9869291186332704,0.1604359298944473,-0.0102245440162855,-0.0196182298704588,-0.0071521849924408,-0.0027406117878854,-0.000549808202777,-0.002342109568417,0.0401845099171623,0.2663129352405668,-9.80653610944748,14934.0
7.7,2.700000047683716,185.0,25.79099273681641,0.0318070948123931,-79.78281245044069,40.45893138072428,269.709693274498,-0.0140295000746846,-0.005902050063014,-0.9869216680526732,0.1604804694652557,-0.010216165465067,-0.0175315025796445,-0.0077682950815326,0.0080375084653496,0.0016865762881934,0.0092324251309037,0.0460756756179034,0.2489141613431275,-9.80935680627823,14934.0
7.91,2.5999999046325684,181.0,25.79474830627441,0.0159035474061965,-79.78281257172874,40.45893137132063,269.704589805603,-0.0139900250360369,-0.0058682071976363,-0.9869193434715272,0.1604996472597122,-0.0051477864323332,-0.0162921009833096,-0.0082394586270157,0.0046959593892097,0.003563986159861,0.0015532252145931,0.0435039833793416,0.2558840241283178,-9.808030073046686,14934.0
8.1,1.8999999761581416,177.0,25.78473281860352,-0.0636141896247863,-79.78281257175156,40.45893138632064,269.7037607645988,-0.0139970798045396,-0.0058560981415212,-0.9869145154953004,0.1605288386344909,-0.0087636639287809,-0.0185855730031292,-0.0077871145690405,-0.0044935145415365,-0.0033126205671578,0.0024995354469865,0.0414018819434568,0.2501338722556829,-9.808407218456267,14934.0
8.2,2.0,181.0,25.77346420288086,-0.055662415921688,-79.78281264100852,40.45893135622858,269.7006004667282,-0.0140069378539919,-0.0058193835429847,-0.98690527677536,0.1605863273143768,-0.0126592909744731,-0.0114235102443749,-0.0042495676450044,0.004634472541511,0.0007004135404713,0.0077701322734355,0.044231829252094,0.2481044133380056,-9.809108299613,14934.0
8.4,1.7999999523162842,177.0,25.78973960876465,-0.1272283792495727,-79.78281263095886,40.458931369713824,269.7001527762413,-0.0140006318688392,-0.0058046388439834,-0.9869040846824646,0.160594642162323,-0.0165545302307001,-0.0135821646861332,-0.0036791490617566,-0.0059494250454008,-0.0024403946008533,-0.0063471077010035,0.0412713200133293,0.2640184147283435,-9.807162930965424,14934.0
8.51,1.7000000476837158,175.0,25.79975700378418,-0.1192766055464744,-79.78281276801707,40.458931292569424,269.6939617609977,-0.0139800487086176,-0.0057681025937199,-0.9868962168693542,0.1606464385986328,-0.0080631666834372,-0.0034857241987403,-0.0058464676346215,-0.0056510902941226,-0.0003295176138635,0.0011957760434597,0.0420330568961799,0.2545963210612536,-9.809129934310914,14934.0
8.7,1.7000000476837158,174.0,25.778472900390625,-0.1431319266557693,-79.78281275957033,40.45893129929648,269.69336380720137,-0.0139865893870592,-0.0057675540447235,-0.986893117427826,0.1606650650501251,-0.0108567843468165,-0.0061796797800173,-0.0054275361966506,0.0011314944131299,-0.001771593815647,-0.0019886400550603,0.0396436653099954,0.2622218394465745,-9.80753481388092,14934.0
8.8,1.600000023841858,172.0,25.78473281860352,-0.1510837078094482,-79.78281291737821,40.45893130161613,269.6877173399925,-0.0139612136408686,-0.0057704481296241,-0.986882984638214,0.1607289165258407,-0.0076243442932105,-0.011824877033614,-0.0064544917096127,-0.0102299395948648,-0.0033289135899394,-0.0104461349546909,0.0413837647112086,0.2639587183110416,-9.806866477131845,14934.0
9.0,1.600000023841858,167.0,25.78347969055176,-0.1272283792495727,-79.7828130395594,40.45893129412821,269.6828191494941,-0.0139643205329775,-0.0057752830907702,-0.98688006401062,0.1607469022274017,-0.0051688526021192,-0.0127439219758396,-0.007385537200786,0.0104659581556916,0.0019959309138357,0.0052483757026493,0.0448382540373131,0.2507660476304591,-9.808555737733842,14934.0
9.1,1.600000023841858,164.0,25.782228469848643,-0.0954212844371795,-79.78281303309191,40.45893132295993,269.68134590148924,-0.01398450974375,-0.005765329580754,-0.9868730306625366,0.1607883274555206,-0.0115614125798956,-0.0174808516641236,-0.0066552189468083,0.0032055608462542,0.0023292684927582,0.0009897300042212,0.040787746142596,0.2603463998436928,-9.807491544485092,14934.0
9.2,1.5,160.0,25.782228469848643,-0.1669872552156448,-79.78281314950759,40.45893127253427,269.676205060482,-0.0139958411455154,-0.0057340487837791,-0.986866533756256,0.1608284711837768,-0.0087425809447966,-0.0081684786829008,-0.007696142574891,-0.0017139036208391,-0.0022723609581589,0.0066124070435762,0.0436382911819964,0.2482475056685507,-9.80970354616642,14934.0
9.4,1.5,161.0,25.78598403930664,-0.1272283792495727,-79.78281326892252,40.45893126840948,269.6718726968765,-0.0139870345592498,-0.005718289874494,-0.9868603348731996,0.1608675867319107,-0.0093216288570887,-0.0097317757139964,-0.0045888367357829,0.0047381855547428,0.0003875370020978,0.0060825017280876,0.0442857149988412,0.2473897008597851,-9.810057302713394,14934.0
9.6,1.5,161.0,25.7872371673584,-0.1192766055464744,-79.78281326168867,40.45893127957749,269.67139580011366,-0.0139848394319415,-0.0057037412188947,-0.9868572354316713,0.1608876585960388,-0.0131461681838004,-0.0117437381111205,-0.004093165661778,-0.0078621730208396,-0.0029805649537593,-0.0089671872556209,0.0407288719899952,0.2660372755676508,-9.806724974513054,14934.0
9.7,1.5,160.0,25.78347969055176,-0.1113248318433761,-79.78281338795341,40.45893123929139,269.66497971773146,-0.0139616811648011,-0.0056646284647285,-0.986846089363098,0.1609593629837036,-0.011006940986544,-0.0050084868529612,-0.0062080185632112,-0.0063317012973129,-0.0033844124991446,-0.0059721642173826,0.0412139305053278,0.2572969124279916,-9.8063624471426,14934.0
9.9,1.5,158.0,25.802261352539062,-0.1192766055464744,-79.78281337801971,40.45893124675167,269.66433288812635,-0.0139675391837954,-0.0056587466970086,-0.986842691898346,0.1609797328710556,-0.0131751012488299,-0.0073680322239071,-0.0058962606490709,0.0058316146023571,0.0011001504026353,0.001369597390294,0.0422827238682657,0.2568237082287669,-9.807524873614312,14934.0
10.0,1.600000023841858,160.0,25.804765701293945,-0.0477106422185897,-79.78281350850287,40.45893123573154,269.6582344985008,-0.0139648299664258,-0.0056516230106353,-0.9868334531784058,0.161036878824234,-0.0127014297417835,-0.0089548133540804,-0.0063765500008564,-0.0003343811258673,0.0021803164854645,-0.009445808827877,0.0402165965130552,0.2636643840931356,-9.807088086605072,14934.0
10.2,1.600000023841858,161.0,25.802261352539062,-0.0477106422185897,-79.78281349659065,40.45893124829971,269.65756644964216,-0.0139910439029336,-0.0056653195060789,-0.9868257641792296,0.1610810756683349,-0.0154680706169551,-0.0112416202187902,-0.0060481620597696,0.002519077155739,0.0045840418897569,0.0055401972495019,0.0452638856554403,0.2482467930391431,-9.809735121130943,14934.0
10.3,1.7000000476837158,163.0,25.79349708557129,-0.055662415921688,-79.78281366889294,40.45893123247228,269.6505173063278,-0.013961674645543,-0.0056306328624486,-0.986819863319397,0.1611211448907852,-0.0093886819881163,-0.0123714893930992,-0.0071374290045766,0.0071351020596921,0.0014287565136328,0.0041643735021352,0.0440268112532794,0.2499346466548741,-9.808477385044098,14934.0
10.5,1.7000000476837158,165.0,25.797252655029297,-0.0477106422185897,-79.78281381743646,40.45893119457937,269.64429899215696,-0.0139521704986691,-0.0056157354265451,-0.9868163466453552,0.161143884062767,-0.0073438128623328,-0.0062173464324586,-0.0082265708323659,-0.0081539964303374,-0.0048709399998188,-0.0040832310914993,0.0416448520263657,0.2605475075170398,-9.80790260374546,14934.0
10.6,1.7999999523162842,165.0,25.80351257324219,-0.0477106422185897,-79.78281380385877,40.45893121320202,269.6426571822166,-0.0139472875744104,-0.0056046321988105,-0.9868051409721376,0.1612132042646408,-0.0128362299282293,-0.0103897527720807,-0.0074669303526257,-0.0015561957843601,-0.0007608385058119,0.001861376222223,0.0435214427998289,0.2497262847796082,-9.809032870531082,14934.0
10.7,1.7999999523162842,168.0,25.79850578308105,-0.0477106422185897,-79.78281399884708,40.458931160280926,269.635921857357,-0.0139192324131727,-0.0055871489457786,-0.98680180311203,0.1612367480993271,-0.0026970588756766,-0.0060334407254928,-0.0085399233481489,0.0008772232686169,-0.0021762528922408,-0.00675530731678,0.041028560064733,0.2651065084710717,-9.806747193932534,14934.0
10.9,1.8999999761581416,169.0,25.79850578308105,-0.0636141896247863,-79.7828141729747,40.45893115527021,269.628790102005,-0.0138980941846966,-0.005588864441961,-0.9867976307868958,0.1612639129161834,-0.0018891369801974,-0.0102449530065134,-0.0085898980127685,-0.0036539316643029,0.0006034577381797,-0.0110415676608681,0.0400372194685041,0.2624223258532584,-9.807108551859857,14934.0
11.1,2.0,170.0,25.80601692199707,-0.055662415921688,-79.7828141758186,40.45893116428577,269.62792970895765,-0.0138908512890338,-0.0055705122649669,-0.9867958426475524,0.1612760722637176,-0.0036453887501987,-0.0124230556165568,-0.0083371563312073,0.0084329284727573,0.0025641368702054,0.0005844870465807,0.043219653381966,0.2532319281063974,-9.809048658013344,14934.0
11.2,2.0999999046325684,171.0,25.802261352539062,-0.0477106422185897,-79.78281434444598,40.4589311256666,269.6210713601112,-0.0138825001195073,-0.0055559147149324,-0.9867883324623108,0.1613233238458633,-0.0016497012409357,-0.0070653354120444,-0.0087606691148817,-0.0036664505023509,-0.0008009744342416,-0.0097768483683466,0.0401959622371941,0.2665341244451701,-9.806630249619484,14934.0
11.4,2.200000047683716,175.0,25.79975700378418,-0.055662415921688,-79.78281434550217,40.45893113224444,269.6201963639259,-0.0138843515887856,-0.0055336491204798,-0.9867842197418212,0.1613491773605346,-0.0036819012143602,-0.0090921774168539,-0.008555116573881,0.004612295422703,0.0004826123185921,0.0049600433558225,0.0441943568224087,0.2486440199799836,-9.80861128628254,14934.0
11.51,2.200000047683716,175.0,25.79474830627441,-0.0318070948123931,-79.7828145270488,40.45893112723692,269.6159264063835,-0.013870301656425,-0.0055346963927149,-0.9867772459983826,0.1613931357860565,-0.0036453758665784,-0.0115922256161226,-0.0055153770638874,0.0042187692597508,0.0019865976646542,-0.001848601619713,0.0407707024225965,0.2596514582633972,-9.80669456899166,14934.0
11.7,2.200000047683716,175.0,25.79224395751953,-0.055662415921688,-79.78281452609238,40.45893113938882,269.615367732048,-0.013901300728321,-0.0055573713034391,-0.9867716431617736,0.1614236384630203,-0.0064271842594154,-0.0136523743847498,-0.0052232703367222,0.0013351056259125,-0.0006635128520429,0.0031759210396558,0.0445967594627291,0.2499707897566259,-9.808945162296297,14934.0
11.8,2.200000047683716,174.0,25.79474830627441,-0.055662415921688,-79.78281471354538,40.45893108972109,269.6089345431328,-0.0139040285721421,-0.0055383290164172,-0.9867672920227052,0.1614508181810379,-0.0032417872660796,-0.0088355944725032,-0.0066158968060544,0.0050062024965882,0.0021141066681593,0.0050409813411533,0.0427541830390691,0.2535784852690995,-9.808427683711054,14934.0
11.91,2.200000047683716,171.0,25.802261352539062,0.0079517737030982,-79.78281486786635,40.458931061149705,269.6056114053726,-0.0139180673286318,-0.0055257631465792,-0.9867638945579528,0.1614709794521331,-0.0036906353539963,-0.0054608592472836,-0.0044882956508665,-0.0020305910147726,-0.0005259919562377,0.0034135063178837,0.0427549550542608,0.2514287381619215,-9.80863584458828,14934.0
12.1,2.200000047683716,171.0,25.79975700378418,-0.0397588685154914,-79.78281486140972,40.4589310762541,269.60474833011625,-0.0139067629352211,-0.005518305581063,-0.986760139465332,0.1614949703216552,-0.0085036998642449,-0.00965099789575,-0.0038861210140456,0.0066849594004452,0.003954853862524,0.0056063318625092,0.0449541476787999,0.2505560046806932,-9.80782892882824,14934.0
12.3,2.299999952316284,170.0,25.78973960876465,-0.0795177370309829,-79.78281504581852,40.4589310505292,269.6017698264122,-0.0138821946457028,-0.005503739695996,-0.9867586493492126,0.1615065485239029,-0.0051169857293379,-0.0075377918419837,-0.0027206734324478,-0.0056999726220965,-0.002536081476137,-0.0038692371454089,0.0416850881790742,0.2542962675355375,-9.80720503091812,14934.0
12.41,2.299999952316284,167.0,25.78973960876465,-0.1431319266557693,-79.78281521491145,40.45893101986602,269.5991960978508,-0.013871687464416,-0.005487825255841,-0.9867562651634216,0.1615224778652191,-0.0046719656820814,-0.0049419844166002,-0.001732095254266,0.0031734879594296,0.0020092213526368,0.0060749314725399,0.045803524274379,0.2485605327039957,-9.807512009739876,14934.0
12.51,2.299999952316284,165.0,25.782228469848643,-0.1351801604032516,-79.78281521112238,40.45893102566447,269.5990219926834,-0.0138524454087018,-0.0054749436676502,-0.9867548942565918,0.1615334898233413,-0.0082495744999104,-0.0065849586016827,-0.0013357962476786,-0.0060167261399328,-0.0031957875471562,-0.0099904350936412,0.0422929793363437,0.2627836837805808,-9.805658442378045,14934.0
12.71,2.299999952316284,163.0,25.77972412109375,-0.1510837078094482,-79.78281540705935,40.45893099703135,269.5967815732956,-0.0138463480398058,-0.0054531055502593,-0.9867546558380128,0.1615361869335174,-0.0044577552786468,-0.0061423908242628,-0.0006554006948006,-0.0073060360737144,0.0005312087014317,-0.0031100520864129,0.0423596695717424,0.2532146788202226,-9.808380905985834,14934.0
12.8,2.200000047683716,161.0,25.78598403930664,-0.1590354740619659,-79.78281540456328,40.4589310036065,269.59670617341993,-0.0138372099027037,-0.005438141990453,-0.9867554903030396,0.1615320295095443,-0.0067955924197313,-0.0079730844240932,-0.0003570608514966,-0.001297926180996,-0.0019003812922164,0.0017956924857571,0.0411748729320243,0.261214912366122,-9.807279875278471,14934.0
13.01,2.200000047683716,160.0,25.775968551635746,-0.1192766055464744,-79.78281558702271,40.458930984726734,269.5945047354698,-0.0138393249362707,-0.0054135574027895,-0.9867502450942992,0.1615650653839111,-0.0064406930689793,-0.0081863538582709,0.0002072522864925,0.0002533905790187,0.0007566554704681,-0.008033312857151,0.0402285604644566,0.2650818039849401,-9.80654604971409,14934.0
13.2,2.0999999046325684,159.0,25.7872371673584,-0.1590354740619659,-79.78281558213808,40.45893099467842,269.5945116496086,-0.0138490330427885,-0.0054313829168677,-0.986747145652771,0.1615825444459915,-0.0083051059535834,-0.0101823082536995,0.0004459419316756,0.005030748900026,0.0014714690623804,0.0057514617219567,0.0443502993229776,0.2475000853277743,-9.808771499991416,14934.0
13.31,2.0999999046325684,160.0,25.77346420288086,-0.1749390214681625,-79.78281579533257,40.45893095220071,269.59058722019194,-0.0138294557109475,-0.0054281051270663,-0.9867414236068726,0.1616193205118179,-0.0023650617961264,-0.0079013000627142,-0.0022681224112073,0.0058238827623426,0.0006861683214083,0.0031345614697784,0.0429669257579371,0.2518335482105613,-9.808646369576453,14934.0
13.4,2.0999999046325684,160.0,25.78347969055176,-0.1510837078094482,-79.7828159931402,40.45893094861375,269.5893597817421,-0.0138159533962607,-0.0054301749914884,-0.9867355227470398,0.16165591776371,-0.001010771946973,-0.0119711465719383,-0.0011418257699067,-0.0063677807338535,-0.0016722838627174,-0.0034283399581909,0.043025443595834,0.2569644799456001,-9.807631877660752,14934.0
13.6,2.0999999046325684,161.0,25.78347969055176,-0.1749390214681625,-79.78281599766434,40.45893097326432,269.58914568185804,-0.0138200223445892,-0.0054232478141784,-0.9867275953292848,0.16170434653759,-0.0059096651093748,-0.015608030330747,-0.0005299438606202,-3.3264693684031954e-06,-0.0003748910385183,0.0014151243958622,0.0431231103697791,0.2533446880057454,-9.80895919561386,14934.0
13.8,2.0,160.0,25.78347969055176,-0.1749390214681625,-79.7828161724149,40.45893092104048,269.58820428609846,-0.0138277411460876,-0.0054177823476493,-0.9867239594459534,0.1617264747619629,-0.0040227161556022,-0.008991467570411,-0.0002283676018066,0.0024010143242776,0.0023479382507503,-0.0022796296980232,0.0407641654182225,0.2641666599176824,-9.805859001874923,14934.0
13.91,2.0,160.0,25.78347969055176,-0.1351801604032516,-79.78281637179876,40.45893091143716,269.58712627649305,-0.0138202747330069,-0.0054155886173248,-0.9867168664932252,0.1617704629898071,-0.0025825504091796,-0.01192734602235,0.0001499808875474,-0.0037245738785713,-0.0004154182679485,-0.0059117088094353,0.0398669741302728,0.2654571038670838,-9.805922736525536,14934.0
14.0,1.8999999761581416,161.0,25.775968551635746,-0.1351801604032516,-79.78281637364832,40.458930922389655,269.58713533639906,-0.0138310203328728,-0.0054110097698867,-0.98671293258667,0.1617935746908188,-0.0044584518876741,-0.0137847050523828,0.0003493240483978,0.0016753018135204,0.0027702385559678,0.0087994188070297,0.0459210533089935,0.2478357520513237,-9.808679698705674,14934.0
14.2,2.0,162.0,25.78347969055176,-0.1431319266557693,-79.78281656735275,40.45893086260061,269.5842099404335,-0.0138389375060796,-0.0053686681203544,-0.9867067337036132,0.1618317514657974,-0.0004749223183089,-0.0054439920431774,-0.0026722364458092,0.0036906076129525,0.0007910591666586,0.005777845159173,0.0432350205956026,0.2483572140522301,-9.809368500709532,14934.0
14.3,2.0,164.0,25.775968551635746,-0.2067461162805557,-79.7828165683225,40.45893086754532,269.5839593029022,-0.0138220768421888,-0.0053449235856533,-0.9867066740989684,0.1618344038724899,-0.0039992756101372,-0.0069180475186505,-0.0021770378998104,-0.0078466869890689,-0.0050179716199636,-0.0083574960008263,0.0376742636924609,0.2666771254129708,-9.806006351709367,14934.0
14.51,2.0,164.0,25.77972412109375,-0.1113248318433761,-79.78281669977896,40.45893086738563,269.58305599451063,-0.0138524733483791,-0.0053377654403448,-0.986700177192688,0.1618720144033432,-0.0134896026802049,-0.0091901609961257,-0.0008282297539757,-0.0073141809552907,0.0002971611684188,-0.0074850735254585,0.04219760119915,0.2647946326062083,-9.806418580412863,14934.0
14.6,2.0999999046325684,164.0,25.788488388061523,-0.0795177370309829,-79.78281668775394,40.45893088025654,269.58293142080305,-0.0138730872422456,-0.0053586359135806,-0.9866939187049866,0.1619075238704681,-0.0150111773026479,-0.0112289169622495,-0.000685926042049,0.0058408919721841,0.0002308354596607,0.0050003686919808,0.0468166868621483,0.2489418259821833,-9.808719459772108,14934.0
14.8,2.200000047683716,166.0,25.76970863342285,0.1510837078094482,-79.78281687615141,40.45893080939235,269.58199878692625,-0.0138380052521824,-0.0053314776159822,-0.9866716861724854,0.1620464920997619,-0.0104089262034855,-0.0041701877846606,-0.0002977177673613,0.0104202944785356,0.0008374007302336,0.0103891817852854,0.0567921875137835,0.2703667367622257,-9.806800988316535,14934.0
15.0,2.200000047683716,165.0,25.76970863342285,0.1351801604032516,-79.78281707449099,40.45893076049703,269.5829220628738,-0.0138135366141796,-0.0053325332701206,-0.9866957664489746,0.1619022190570831,-0.0052888619299441,-0.0022815499738454,0.0026139619340945,-0.0012478594435378,-0.0041608642786741,-0.0267550274729728,0.0435925138788297,0.2431477651745081,-9.805924490690233,14934.0
15.11,2.200000047683716,165.0,25.76720428466797,0.1590354740619659,-79.78281706444206,40.45893076899112,269.5834205365181,-0.0137900840491056,-0.0053046238608658,-0.9866698384284972,0.1620628535747528,-0.0103238029194809,-0.0058251171610267,0.0032486737102591,-0.0048078997060656,-0.0001499514182796,-0.0177322663366794,0.0326445573102682,0.254892263263464,-9.808532933592796,14934.0
15.3,2.299999952316284,164.0,25.76720428466797,0.1431319266557693,-79.7828172558802,40.45893072448817,269.58434411048887,-0.0137834558263421,-0.0053078308701515,-0.9866958260536194,0.1619051992893219,-0.0029759341811872,-0.0041186827067953,0.0050016726221221,0.0073686130344867,3.521290273056365e-05,0.0055639999918639,0.0390460570296272,0.2371755835600197,-9.804531683921814,14934.0
15.4,2.299999952316284,165.0,25.75969123840332,0.1828908026218414,-79.78281742828015,40.45893066496858,269.5839476203918,-0.013766162097454,-0.0052710548043251,-0.9866739511489868,0.1620414406061172,-0.002241372977717,0.0024535224147912,0.0036690339778529,0.0115943420678377,-0.0016041452763602,-0.0140583906322717,0.0514530446520075,0.2394855809211731,-9.810937893390657,14934.0
15.51,2.200000047683716,169.0,25.760942459106445,0.2624085247516632,-79.7828174253779,40.45893066437948,269.5843175268173,-0.0137591604143381,-0.0052542183548212,-0.986677885055542,0.1620183587074279,-0.0040544333968043,0.0011951865470626,0.0038345320911455,-0.0120480339974164,-0.0042078224942088,0.0063901166431605,0.0472935455711558,0.2622114789113402,-9.805252645611764,14934.0
15.7,2.299999952316284,169.0,25.748422622680664,0.3101191818714142,-79.7828176236184,40.4589306233081,269.5862906193733,-0.0137424170970916,-0.0052350861951708,-0.9866681694984436,0.1620793640613556,-0.0010260138442064,-0.0001230174855918,0.006372573966259,-0.0039066816680133,-0.0029115518555045,-0.0186175089329481,0.0444416072499007,0.2629648743756116,-9.805176631808283,14934.0
15.9,2.400000095367432,174.0,25.623218536376957,2.4332427978515625,-79.78281762255169,40.45893062430729,269.58694054841993,-0.0137428045272827,-0.0052528968080878,-0.9866641163825988,0.1621038317680359,2.7666375497113928e-05,-0.0024019527246889,0.0071352808375914,0.0070562497712671,0.0127911055460572,0.0241810344159603,0.0354420457198284,0.2736099497415125,-9.810284174680714,14934.0
16.01,2.400000095367432,171.0,25.75343132019043,0.3737333714962005,-79.78281777871801,40.45893059139613,269.5868259882927,-0.0134213790297508,-0.0053810905665159,-0.9866326451301576,0.1623176038265228,-0.0069950953510892,-0.0013303501957199,0.0048845295964395,0.0008500609546899,0.0224052742123603,0.0048095104284584,0.0367016364703886,0.3175143714621663,-9.799083248376848,14934.0
16.2,2.400000095367432,173.0,24.37116622924805,18.797992706298828,-79.78281777179127,40.45893059521336,269.587267062664,-0.0135528482496738,-0.0053258943371474,-0.9866421222686768,0.1622505038976669,-0.0139939856983525,-0.0003074784968461,0.0043654665939792,-0.021027710288763,-0.0221022013574838,-0.0391858257353305,0.0502460834104567,0.3415150355547667,-9.791415794491767,14934.0
16.3,2.5,174.0,25.68957710266113,1.7493902444839478,-79.78281792253115,40.45893057055797,269.5869688606262,-0.0133805396035313,-0.0054334755986928,-0.986604869365692,0.1624883115291595,-0.0117306828576963,-0.0020702112189924,0.0036604494478129,-0.0419546365737915,-0.0472441725432872,-0.0401010066270828,0.0496439161291346,0.2794794944487512,-9.784665768742563,14934.0
16.5,2.5,178.0,25.774715423583984,0.198794350028038,-79.78281812521288,40.45893049521713,269.587577483654,-0.0134932231158018,-0.0054092644713819,-0.9866235852241516,0.162365511059761,-0.0044870370865809,0.0053747320442511,0.0028544540373371,-0.0608898028731346,-0.0662685185670852,-0.0477642603218555,0.0360157260973937,0.3627539135143161,-9.789838215708732,14934.0
16.6,2.5,179.0,25.77721977233887,0.2306014448404312,-79.78281812229166,40.458930491980944,269.5881204819679,-0.0135976746678352,-0.0053298608399927,-0.9866292476654052,0.1623254567384719,-0.002750762554859,1.2882356422617958e-05,0.0033392094704714,0.0045626340433955,-0.0118847861886024,-0.0027634452562779,0.0405607873806729,0.2519581304490566,-9.80981055021286,14934.0
16.7,2.5999999046325684,182.0,25.669544219970703,2.003847122192384,-79.78281830102806,40.45893045229416,269.5878729438781,-0.0135956164449453,-0.0053194719366729,-0.9866232872009276,0.1623618155717849,0.0002868654411202,0.0020411716429759,0.002629439286492,-0.0269757844507694,-0.0150017868727445,-0.0112635474652051,0.0397685444774106,0.2966251935437322,-9.801811559200289,14934.0
16.9,2.5,183.0,25.46170234680176,4.890340805053711,-79.78281845019104,40.458930414085614,269.5882495856285,-0.0135697275400161,-0.0053089736029505,-0.9866197109222412,0.1623865962028503,0.0006682129627931,-0.0032921287588967,0.0016389881767995,-0.0078714778646826,-0.0133477002382278,0.0026102124247699,0.0260544826020486,0.2568273261934519,-9.803011992573738,14934.0
17.0,2.5999999046325684,182.0,25.38783264160156,6.122866153717041,-79.78281845178483,40.458930415301936,269.58851285934446,-0.0134087819606065,-0.0054220678284764,-0.9866082668304444,0.162465438246727,-0.000376908195475,-0.0027098217705125,0.0029742016649216,0.0006259691435843,0.0276979263871908,-0.0500009432435035,0.0614066821988672,0.2832699337229133,-9.815440249443055,14934.0
17.21,2.700000047683716,177.0,25.22506523132324,8.953697204589844,-79.78281860542978,40.458930361141725,269.58945586442945,-0.0126088391989469,-0.005245532374829,-0.9866061806678772,0.1625478267669677,0.0077434404307311,-2.2793429679212685e-05,0.0037989528240624,0.0740678906440734,0.0681660920381546,-0.0358572304248809,0.0571483514690771,0.1425150276347994,-9.825143119096756,14934.0
17.3,2.799999952316284,177.0,25.132413864135746,10.416823387145996,-79.78281860725545,40.458930360795776,269.58990939617155,-0.0121032120659947,-0.0052495836280286,-0.986619472503662,0.1625053435564041,-0.0042376768573714,0.0028745970951771,0.0056397464800972,-0.0608279109001159,-0.0932724997401237,0.0503327883780002,0.1692738233506679,0.3591462180018425,-9.895191593170166,14934.0
17.5,2.799999952316284,175.0,24.93584251403809,13.589581489562988,-79.78281874942002,40.458930321863406,269.59222485780714,-0.0097671914845705,-0.0048324894160032,-0.9866429567337036,0.1625332534313202,-0.0102648997155014,-0.0003681233706406,0.0066391334655305,-0.1019751653075218,-0.0729605332016944,0.0774053111672401,0.1206291461270302,0.1699140386469662,-9.838518040180208,14934.0
17.6,2.799999952316284,175.0,24.81940078735352,15.23559856414795,-79.78281875612821,40.45893032313904,269.59310027122496,-0.0082721160724759,-0.0047543044202029,-0.9866425395011902,0.1626206189393997,0.0093268701025617,-0.0096911888128463,0.0096006825366628,0.0664735585451126,-0.0331777036190032,0.077077068388462,-0.0801018568966537,0.1738303392380476,-9.791747916340828,14934.0
17.8,2.799999952316284,176.0,24.566486358642567,19.48184585571289,-79.78281892511433,40.45893031292783,269.59478726148603,-0.0053981426171958,-0.0060006850399076,-0.9867653250694276,0.1619537472724914,0.0091023799161556,-0.0226577011168203,0.0214235599326947,-0.026926776394248,0.0293528102338314,0.0280727352946996,-0.1415717621147632,0.22464021300897,-9.877293266057968,14934.0
18.0,2.900000095367432,176.0,24.324840545654297,23.441829681396484,-79.7828190166954,40.45893027929793,269.59650757074354,-0.0038266514893621,-0.0085486378520727,-0.9868101477622986,0.1616106629371643,-0.0027203350090772,-0.0257833925398694,0.0334202501290304,0.03400644287467,0.0811498761177063,0.0166053250432014,0.2207029172591865,-0.0288039142079651,-9.914543538093568,14934.0
18.1,2.900000095367432,176.0,24.165830612182607,25.64447021484375,-79.78281897658465,40.4589303662429,269.60741867780683,-0.0077322861179709,-0.0153222372755408,-0.986825704574585,0.1608740985393524,-0.0637269694576341,-0.056620256249443,0.1132546125273971,-0.040852140635252,0.0926177129149437,-0.0334615968167781,0.0559728464204818,0.1633099009282887,-10.414506204128266,14934.0
18.3,2.900000095367432,174.0,24.4074764251709,21.533403396606445,-79.78281911219909,40.4589302861997,269.61295910835264,-0.0057852016761898,-0.0170913841575384,-0.9868909120559692,0.1603769212961197,-0.0498548941373069,-0.0784975260107147,0.2080679282320736,0.1020628660917282,-0.001219208119437,-0.0250404477119445,-0.0367522537149489,-0.0969116151798516,-10.77310541510582,14934.0
18.4,2.900000095367432,173.0,24.545202255249023,19.529556274414062,-79.7828191211251,40.45893061689613,269.65983214139936,0.0005005972925573,-0.0057485895231366,-0.986858367919922,0.1614848971366882,-0.1007329957248377,-0.0895710181004992,0.3305208835827292,-0.0155027853325009,-0.1897719353437424,-0.2117727845907212,0.0754487431794405,0.2117289578542113,-10.205394569635391,14934.0
18.51,2.900000095367432,176.0,24.42375373840332,21.35846519470215,-79.78281904768413,40.45893074413229,269.6921034073829,0.0024844906292855,0.0019208054291084,-0.9867448210716248,0.1622492372989654,-0.1048567026766018,-0.1096771920897895,0.3126502971939468,0.0493174791336059,-0.2470109164714813,0.1219257861375808,-0.083462955225259,-0.4380970779061318,-9.81635241508484,14934.0
18.7,2.900000095367432,177.0,24.319833755493164,22.72616958618164,-79.78281921891967,40.458930994899305,269.7261529779434,0.0053314757533371,0.0077019976451992,-0.9867428541183472,0.1620208472013473,-0.0914074591573632,-0.0823360264481469,0.163091548506372,0.0155688319355249,0.0195327680557966,0.0657952204346656,0.0456672750134021,-0.1143332571722567,-9.272642050981524,14934.0
18.8,2.900000095367432,176.0,24.29980087280273,22.996530532836918,-79.78281914652577,40.45893108153161,269.74083872795103,0.0046532927080988,0.0096840830519795,-0.9868420958518982,0.161329984664917,-0.1077811726105944,-0.0643180311953156,0.1343792928513862,-0.225457027554512,-0.0354420393705368,-0.0513266511261463,-0.1024195826891809,-0.0092496738955378,-9.437331803441046,14934.0
19.0,2.799999952316284,174.0,24.38744354248047,21.98665428161621,-79.78281930244755,40.45893126245886,269.7726572370529,0.0056729661300778,0.0097367977723479,-0.9870120882987976,0.1602504402399063,-0.0696425255325217,-0.0661946552261812,0.1408146168247318,-0.0812019705772399,0.0469417423009872,-0.0419381000101566,-0.1543354847095907,-0.1353147754166275,-9.874141616821287,14934.0
19.2,2.799999952316284,174.0,24.103227615356445,25.79555511474609,-79.78281925513384,40.45893133362203,269.7862810707092,0.0043943948112428,0.0076294024474918,-0.9870075583457948,0.1604329943656921,-0.0584325145360331,-0.0663212798746441,0.1325112647275759,0.0151519803330302,0.1140209436416626,-0.0854418203234672,-0.0255376047268509,-0.069769653249532,-9.808698994517329,14934.0
19.31,2.799999952316284,173.0,24.404972076416016,20.984731674194336,-79.78281910403204,40.458931465259965,269.8245485639572,0.0025936320889741,0.0057261129841208,-0.9867665767669678,0.1620259582996368,-0.0820767663415738,-0.0557972156347376,0.174506466902317,-0.0209104996174573,0.0930146425962448,0.0191433690488338,-0.069648857996799,0.0021547629218548,-9.938373280763628,14934.0
19.5,2.799999952316284,174.0,24.22092056274414,23.91098403930664,-79.78281912658035,40.45893161744487,269.84581109046934,0.0021788927260786,0.0070315799675881,-0.9866251945495604,0.1628392040729522,-0.0844812511428936,-0.0684567866714616,0.1354112119719404,-0.0169588699936866,-0.077529452741146,0.0901491418480873,-0.0694091998133808,-0.2841681391373277,-9.534762203693392,14934.0
19.61,2.799999952316284,172.0,24.20214080810547,23.537250518798828,-79.7828189795719,40.45893176053315,269.8684144234657,0.0036938583943992,0.0098711168393492,-0.9865200519561768,0.1633008420467376,-0.1016732125877438,-0.0523920139028534,0.1012633039661371,-0.1438101828098297,0.0457252413034439,0.001378221088089,-0.2540789338387549,-0.3371314876154065,-9.711502482891085,14934.0
19.71,2.799999952316284,172.0,24.289783477783203,22.352436065673828,-79.78281897100501,40.45893164684315,269.90389712810514,0.0020420749206095,0.0082065509632229,-0.9867324233055116,0.1621348261833191,-0.0885365861564295,-0.0303393702682504,0.1253450692234995,-0.0586939677596092,0.0291566606611013,0.0916834846138954,-0.1654734072647989,-0.4075981837883592,-9.729406072497367,14934.0
19.9,2.900000095367432,171.0,24.13703346252441,24.69025802612305,-79.78281880917051,40.4589316444089,269.93949200868605,0.0035370169207453,0.009900857694447,-0.9873030781745912,0.1584997922182083,-0.1069738447633528,-0.0085297172982729,0.1165877547792793,-0.0505660846829414,0.0376386269927024,0.0491464138031005,-0.1344422246608883,-0.0664535510726273,-9.729481501579285,14934.0
20.1,3.0,172.0,24.083194732666016,25.69218063354492,-79.78281870368603,40.4589316751695,269.95204355478285,0.0044934186153113,0.0090536000207066,-0.9873936176300048,0.1579612493515014,-0.0991371309002695,-0.0078993207784201,0.1366450924776064,0.0377648882567882,0.0255073569715023,0.0450176410377025,-0.0829353810567408,-0.3672160334140063,-10.000774766206742,14934.0
20.21,3.0,171.0,24.72299385070801,18.97293281555176,-79.78281855774013,40.45893165180316,269.9993780469894,0.0065963082015514,0.0098122069612145,-0.9872766137123108,0.1585724949836731,-0.0962195838768875,0.0184647489619323,0.1482168987428062,0.0669411718845367,-0.01943214610219,0.0283808503299951,-0.1964390736445784,0.0686740403529256,-9.351073093414309,14934.0
20.3,3.2000000476837163,171.0,23.920429229736328,28.78542137145996,-79.78281844756145,40.45893166034234,270.0071043586731,0.0109154395759105,0.0108650103211402,-0.98689067363739,0.1606543362140655,-0.0984893916498406,0.0095096026949506,0.0263014503487837,-0.0120459618046879,0.0600242540240287,-0.0221678428351879,-0.3060572640225291,0.0121906315069645,-8.950109635591508,14935.0
20.5,3.2000000476837163,172.0,23.89413642883301,28.610483169555664,-79.78281838675406,40.45893168039468,270.0364282941818,0.013228166848421,0.0082452045753598,-0.9865069389343262,0.1629759669303894,-0.0934593971874658,0.0062606796918069,0.0920544450466574,0.0104480134323239,0.0588180646300315,-0.0003833319933619,-0.29817547313869,-0.0945137725397944,-9.908382911682132,14935.0
20.6,3.299999952316284,176.0,23.801483154296875,29.93842887878418,-79.78281820910195,40.458931695703576,270.07501789093016,0.0116816125810146,0.0058171339333057,-0.9857670664787292,0.167609617114067,-0.0650918065898358,0.0031963231526476,0.3011544120996481,-0.0398889817297458,0.0467665381729602,-0.0633911564946174,-0.1855489999428392,-0.1081619230471551,-10.783892358541491,14935.0
20.8,3.299999952316284,174.0,23.65624618530273,31.830951690673828,-79.78281830099152,40.45893157855115,270.1548832273483,0.0079757217317819,0.0069775348529219,-0.9851641058921814,0.1712874919176101,-0.0357766295467845,-0.007141667418897,0.617562766696516,0.002116878516972,0.0260428823530674,-0.0147266695275902,-0.1795987271144986,-0.0430385404452681,-11.705709414482117,14935.0
20.9,3.5,175.0,23.58487892150879,33.69961929321289,-79.78281840088442,40.458931540875895,270.2207420682907,0.0065476680174469,0.0072480854578316,-0.9851595759391784,0.1713631153106689,-0.0323529760446756,-0.0074289315257805,0.7947185355192592,0.0207025296986103,-0.0123598109930753,0.1040924116969108,-0.1668921245075762,-0.2479253058135509,-11.812169669866565,14935.0
21.1,3.5,176.0,23.52352905273437,34.26419448852539,-79.78281835612022,40.45893153582518,270.4200346088409,0.0070403446443378,0.0157680865377187,-0.984974443912506,0.1718348562717437,-0.0369611965459406,-0.0076927319726525,1.208853068859166,0.0398455932736396,-0.0787715837359428,-0.0119072552770376,-0.1853480567224324,-0.3159713277965784,-11.886605894565587,14935.0
21.3,3.5999999046325684,176.0,23.18797874450684,39.89405059814453,-79.7828184152994,40.45893153647762,270.54383285999296,0.0064202039502561,0.0195144638419151,-0.984763205051422,0.1726831048727035,-0.0484020515358086,-0.0110951898094516,1.4171146457468,-0.0675486251711845,-0.0450049042701721,-0.0404482744634151,-0.3600308651849627,-0.43348070114851,-12.003723285198214,14935.0
21.41,3.5999999046325684,176.0,23.29315185546875,38.79670333862305,-79.7828184126684,40.45893143503104,270.8637408828735,0.0075109954923391,0.0182757452130317,-0.9854186177253724,0.1689965575933456,-0.0544483208562916,-0.0173590357991555,1.9343224204329617,-0.0359531231224536,0.0696718618273735,-0.0049112727865576,-0.3769971095770598,-0.3497527391463518,-12.4319768679142,14935.0
21.5,3.5999999046325684,179.0,23.14666175842285,39.369232177734375,-79.78281837915198,40.4589313800348,271.0696520423889,0.0091682402417063,0.0129239950329065,-0.9860668182373048,0.1655937880277633,-0.0643682541408275,0.0011259335161703,2.179938395065764,-0.0878981202840805,0.0909980311989784,-0.1218666583299636,-0.1213683529570698,-0.236195681579411,-12.364635654687884,14936.0
21.7,3.5999999046325684,179.0,23.14666175842285,39.77477264404297,-79.78281832031925,40.45893122124174,271.5244121170044,0.0098457382991909,0.0102630266919732,-0.986025094985962,0.1659887731075287,-0.0729662774526035,0.0434733339063734,2.6483025104500846,0.0094334315508604,-0.0049126539379358,-0.0393003895878791,-0.1697826407477259,-0.4161666570603848,-12.309435600042343,14936.0
21.8,3.5999999046325684,185.0,23.29941177368164,35.79093551635742,-79.78281826639785,40.458931141869776,271.8007356739044,0.0113503318279981,0.0143822813406586,-0.985365092754364,0.1694697588682174,-0.0852321070306497,0.0528987392619939,2.870325753380369,0.0320889838039875,-0.0989538803696632,-0.098764419555664,-0.0915434692148119,-0.1484035757929086,-12.049860155582431,14936.0
22.0,3.700000047683716,185.0,23.49723625183105,32.97600555419922,-79.78281824525287,40.45893101611321,272.0526687717437,0.0142117422074079,0.0182600766420364,-0.9846678972244264,0.1728983372449875,-0.0809844168750244,0.0482217212527165,2.9791940330776847,0.0210754889994859,0.0494445897638797,-0.0323332510888576,-0.2895074327476323,-0.3317677270621061,-11.483370208740237,14937.0
22.1,3.799999952316284,190.0,23.597400665283203,31.457218170166016,-79.78281813732573,40.4589307633894,272.6680204486847,0.0108613986521959,0.0069058653898537,-0.9835736751556396,0.1800480782985687,-0.0874201121128695,0.0896867769556682,3.162016378487447,-0.1064445301890373,0.2369734346866608,-0.0771419182419776,-0.1112326797097921,-0.1496363424416631,-10.661521829366684,14937.0
22.31,3.900000095367432,191.0,23.74138641357422,28.47530174255371,-79.78281811230877,40.458930374087785,273.2433423614502,0.0078286454081535,-0.0066338563337922,-0.9829190969467164,0.1837524026632309,-0.0376397757849217,0.179157215746849,3.208122349569692,0.0430175177752971,0.1726286560297012,-0.0135663608089089,-0.0282807985413819,-0.0847591733001172,-10.254933350086214,14938.0
22.4,3.900000095367432,197.0,23.73011779785156,28.825180053710927,-79.78281818840955,40.45893008511048,273.4967736816406,0.011027286760509,-0.0065538380295038,-0.9831133484840392,0.1825480312108993,-0.0257322261622875,0.2129378804766429,3.161101557805308,0.0694026350975036,0.0562096349895,0.1317804455757141,0.0358999557956121,-0.1543947060406208,-9.987116839885712,14938.0
22.6,3.900000095367432,200.0,23.61492919921875,31.115291595458984,-79.78281813252472,40.45892993589701,273.81300493240354,0.0131498137488961,-0.0024813674390316,-0.9834639430046082,0.1806091964244842,-0.0479847561745798,0.2189109065563,3.1594180985994806,0.0255315639078617,-0.0763876140117645,-0.0371880084276199,0.0174493157677352,-0.2922688168846071,-9.854809552431108,14938.0
22.7,3.900000095367432,199.0,23.666261672973643,29.97818756103516,-79.78281823126305,40.45892948601339,274.3864440536499,0.0164717491716146,-0.0025859782472252,-0.9846557974815368,0.1737099587917328,-0.0601431110682332,0.1600300479635761,3.083560258356998,-0.0326122418045997,0.0543302744626998,0.1082117557525634,-0.1636896958574652,-0.3556834968924523,-9.57983838915825,14939.0
22.9,3.900000095367432,199.0,23.636213302612305,30.32011413574219,-79.78281820552719,40.45892935824368,274.6934952354431,0.0140251377597451,-0.003467530477792,-0.985299587249756,0.1702236235141754,-0.0620154751880306,0.1663349395228974,3.0516920438591053,-0.0127960732206702,0.0167888514697551,0.1377790123224258,-0.0582023714762181,-0.2880900128558278,-9.51920276284218,14939.0
23.0,3.900000095367432,201.0,23.68754768371582,28.62638664245605,-79.78281830754864,40.45892895435503,275.23195119857786,0.0102486815303564,-0.0064041977748274,-0.98612242937088,0.165579542517662,-0.0225375898865667,0.1372274424808455,2.9443226361653347,-0.0711575523018837,0.0231362115591764,0.0606149993836879,-0.0932657574489712,-0.1432184019964188,-9.571190941929816,14940.0
23.2,4.0,200.0,23.7251091003418,28.69795227050781,-79.78281832787493,40.45892886823279,275.5253481483459,0.008230441249907,-0.0082725100219249,-0.986226499080658,0.164988487958908,-0.0112729061594019,0.1251018387803025,2.914444167934589,-0.119577094912529,0.0021749592851847,0.0130263669416308,-0.1237544463481754,-0.205651635993272,-9.45942667722702,14940.0
23.3,4.099999904632568,203.0,23.54731750488281,31.56854248046875,-79.78281852943653,40.45892858091921,276.0005268669128,0.007564730476588,-0.0129118235781788,-0.9859873056411744,0.1661480069160461,0.0157240345448274,0.1002014373144378,2.7791861924606067,-0.0052890977822244,-0.0730857551097869,-0.0984582975506782,0.0393863923894241,0.0478745349682867,-9.500483486652373,14941.0
23.5,4.099999904632568,202.0,23.642473220825195,29.69987487792969,-79.78281878513525,40.4589281888594,276.5804285621643,0.009091961197555,-0.0052856397815048,-0.985658884048462,0.1684224605560302,0.0199443810150022,0.0473180763781119,2.727361833285745,0.0452416762709617,-0.0700534954667091,-0.0756538808345794,0.0147702494636178,-0.2018676652014256,-9.641363961696625,14941.0
23.7,4.099999904632568,202.0,23.57736778259277,30.35192108154297,-79.782818844767,40.458928185774695,276.8522872543335,0.0074238493107259,-0.0035641801077872,-0.9856532216072084,0.1685821563005447,-0.0005335039899558,0.0101525639411738,2.711770672735418,-0.0310677196830511,0.0123086897656321,-0.0165967401117086,-0.0819970948062837,-0.1228054980654269,-9.66554746091366,14941.0
23.81,4.099999904632568,199.0,23.59113883972168,30.50300407409668,-79.78281895012779,40.45892794610227,277.5745801544189,0.0064971330575644,-0.0040701758116483,-0.9856025576591492,0.168905109167099,0.0106680087212077,-0.0198764956188732,2.7657363313218406,0.0528259649872779,0.0627535507082939,0.1281399875879287,-0.0649303422588855,-0.3779251357913017,-9.75955607056618,14942.0
23.9,4.099999904632568,198.0,23.64497756958008,29.469274520874023,-79.78281922084092,40.458927938512026,277.9720630264282,0.0086832419037818,-0.0052390722557902,-0.9856193065643308,0.168676421046257,0.0164452007956092,-0.0220228638532255,2.802803933985539,0.0950763598084449,-0.0117273973301053,-0.014090372249484,-0.0312043789587914,-0.2896295847371221,-9.784596771597863,14942.0
24.1,4.099999904632568,196.0,23.778947830200195,27.06783866882324,-79.78281929129109,40.458927973500494,278.2517652130127,0.0114699229598045,-0.0054223150946199,-0.9855926632881165,0.1686601489782333,-0.0006075929035786,-0.0343318030102001,2.790599675831787,0.0980166122317314,0.053651213645935,0.0710000097751617,-0.0986728787608444,-0.2669274958781898,-9.732042582035064,14943.0
24.2,4.099999904632568,198.0,23.397071838378903,33.604198455810554,-79.78281940287873,40.45892802526021,278.9235181427002,0.0116422269493341,-0.0031216696370393,-0.9853218197822572,0.1702810376882553,-0.0345911398475703,-0.0455508328481839,2.803467538969444,-0.0943184420466423,-0.0808662176132202,-0.110180988907814,-0.0608403154090046,-0.2973175769671798,-9.615929158329962,14943.0
24.4,4.099999904632568,198.0,23.65374183654785,28.87289047241211,-79.78281948114319,40.45892809565851,279.20451160430906,0.0092187840491533,-0.0020468584261834,-0.9852955341339112,0.1705976873636245,-0.0221519645154828,-0.0747507477139384,2.8223521170905714,0.0296253822743892,-0.0029353909194469,0.1017479747533798,0.0344711909350007,-0.2517367950640619,-9.962539823055268,14944.0
24.5,4.099999904632568,199.0,23.57736778259277,30.34396934509277,-79.78281951821047,40.45892817416616,279.8797940826416,0.007000352256,0.0013739692512899,-0.9852390885353088,0.1710355430841446,-0.0184982708929967,-0.1036820042147741,2.8784875398353766,-0.0086963297799229,-0.0459898300468921,-0.0336937308311462,-0.0277624108968302,0.007751635517925,-9.670421115159993,14944.0
24.7,4.099999904632568,200.0,23.49347877502441,31.47312164306641,-79.7828193896317,40.458928354053896,280.5379991149902,0.0054830904118716,0.004604120273143,-0.9846037030220032,0.1746551543474197,-0.0404915455225737,-0.1182841102137344,2.907733702013281,-0.0163062456995248,0.0181274078786373,-0.0632019639015197,-0.0344478340493515,-0.1732069164142012,-9.789351142644884,14945.0
24.8,4.099999904632568,200.0,23.52352905273437,30.74155807495117,-79.78281942482128,40.4589284451509,280.8300590133667,0.0037632293533533,0.0060846121050417,-0.9842235445976256,0.1767852455377578,-0.0538627476273269,-0.1177504359244079,2.937953377812823,-0.0705391019582748,-0.0073022055439651,-0.0549579411745071,-0.0360480159753933,-0.3213265733420849,-10.026302540302275,14945.0
25.01,4.099999904632568,200.0,23.522275924682607,30.176982879638672,-79.7828193712955,40.458928527379896,281.1864575958252,0.0038391777779906,0.0054042395204305,-0.983927845954895,0.1784435957670211,-0.0622442474849126,-0.1256758901036327,2.9837314686065044,0.0046631442382931,0.0198487136512994,-0.0714176446199417,-0.0689537245547399,-0.2777554063685238,-9.996795151233671,14946.0
25.2,4.0,202.0,23.70883178710937,27.27458381652832,-79.78281936213199,40.45892870159312,281.78181167602537,0.0085079539567232,-0.0009504076442681,-0.9838531613349916,0.1787726432085037,-0.0950610392638074,-0.0896434594096446,2.9719615144641107,0.0141625180840492,0.0217027086764574,-0.0172305740416049,0.0464260563114658,-0.1543712075427174,-9.774850632548333,14946.0
25.3,4.0,203.0,23.47595024108887,31.49697685241699,-79.78281949812241,40.45892876565517,282.13652797698967,0.011510725133121,-0.0024362015537917,-0.9840182662010192,0.1776787191629409,-0.077672662719418,-0.0628234997262229,2.9756604056474343,0.0828508585691452,0.0214571692049503,0.0432791784405708,0.1750852430798113,-0.3480889870226383,-9.667019205093382,14947.0
25.5,3.900000095367432,209.0,23.643726348876957,28.992168426513672,-79.78281944238024,40.4589288952248,282.7835816955566,0.0118269119411706,-0.0038542710244655,-0.9845418930053712,0.1747073233127594,-0.134590115935589,-0.0572774094487674,2.9845406980337823,-0.0483610183000564,0.0249061677604913,0.1216619759798049,-0.0061357666086405,-0.4854271091893316,-9.853339562416076,14947.0
25.6,4.0,211.0,23.68253898620605,27.966388702392567,-79.78281941116525,40.45892898631122,283.08354564666746,0.0105990199372172,-0.0053307805210351,-0.984913408756256,0.1726407557725906,-0.1296601769848746,-0.0551381059788774,3.011423740110647,0.0377897061407566,0.0242875516414642,0.1455667316913604,0.0473276649881154,-0.3921830229833722,-9.97034585595131,14948.0
25.7,3.900000095367432,212.0,23.597400665283203,29.310237884521484,-79.78281928826517,40.45892916552201,283.7300777053833,0.0173962041735649,-0.0049894144758582,-0.9856403470039368,0.1678860783576965,-0.1418512942423229,-0.0662161281239174,3.024541536063621,0.0871097967028617,0.0290029365569353,0.0710892677307128,0.0373995473398827,-0.3420745775476098,-9.774855310320852,14948.0
25.9,3.900000095367432,212.0,23.53604888916016,30.35192108154297,-79.78281914516317,40.45892933297503,284.3717631912231,0.0168058164417743,-0.0011794522870332,-0.9857552051544192,0.1673408299684524,-0.1686961007703965,-0.0734337972589397,3.0017262343206013,0.1183532997965812,-0.0670103058218956,-0.0229187551885843,0.0765343655599281,-0.2716853752546012,-9.649305649995805,14949.0
26.1,3.900000095367432,216.0,23.46343040466309,31.53673553466797,-79.78281911687995,40.45892945222837,284.6719626998901,0.0173421017825603,0.0025007808580994,-0.9856334924697876,0.1679871082305908,-0.1537848369279256,-0.0990966612505294,2.9967145417951144,0.079905591905117,-0.0160834845155477,-0.0493362136185169,0.1025764342490583,-0.1004526981152594,-9.7602337628603,14949.0
26.2,3.900000095367432,216.0,23.670019149780277,27.79940223693848,-79.78281910367717,40.4589295742607,284.9722261047363,0.0179457627236843,0.003514724317938,-0.9853893518447876,0.1693326234817505,-0.1527122693415001,-0.1207105248808737,3.0001874379432385,-0.0111510222777724,-0.0127131966874003,-0.0958419293165206,-0.0225378072238527,-0.1862182503193617,-9.740178397893906,14949.0
26.4,3.900000095367432,214.0,23.513511657714844,30.01794624328613,-79.7828189017305,40.45892959712382,285.6051244354248,0.0143366903066635,0.0050142779946327,-0.984675109386444,0.1737365275621414,-0.146486992011086,-0.0991536950100115,2.9876178446605435,-0.0807894468307495,-0.0071543836966156,-0.0515158809721469,-0.0335834830999374,-0.2272689749859273,-9.707467904090883,14950.0
26.51,3.900000095367432,213.0,23.619935989379893,28.92855262756348,-79.78281850339287,40.45892931247074,286.2348222351074,0.0082819005474448,0.0032241919543594,-0.983820915222168,0.178934246301651,-0.1054994424883801,-0.0279921730549453,3.017022472433016,-0.0407143831253051,-0.0417027920484542,-0.0942042544484138,-0.022531386706978,-0.1713949191011488,-9.843786381483078,14951.0
26.7,4.0,213.0,23.407087326049805,32.15697479248047,-79.7828184662792,40.45892933530929,286.5365743255615,0.0091843828558921,0.0039456384256482,-0.98364919424057,0.1798178702592849,-0.0858369237802474,-0.0211197756423386,3.0123965090145792,0.12038204818964,0.0007579755620099,-0.0603101961314678,0.0404646646371111,-0.1649400498345494,-9.819258481264113,14951.0
26.81,4.0,210.0,23.54982185363769,28.690000534057607,-79.78281843527013,40.45892947679212,286.8611764526367,0.012885682284832,0.0054473909549415,-0.9836975932121276,0.1792859733104705,-0.0937976685182319,-0.0464257312117299,3.0184747422692912,0.0896340683102607,-0.043336696922779,0.0329655297100544,-0.1531693397741765,-0.3058682527765632,-9.72851027905941,14951.0
27.0,3.900000095367432,208.0,23.60491180419922,28.67409706115723,-79.78281837476419,40.45892960720554,287.4897107696533,0.0191193018108606,0.005942597053945,-0.9841943383216858,0.1759567707777023,-0.1392235204540196,-0.0555193563881158,3.012313200665583,-0.0160456802695989,-0.0340580642223358,0.0787194520235061,0.0171674799732863,-0.4655101405084133,-9.620885258316994,14952.0
27.11,4.0,207.0,23.35700607299805,32.2682991027832,-79.78281836030634,40.45892965038361,287.7892598724365,0.0176150146871805,0.0066224201582372,-0.984472632408142,0.1745269894599914,-0.1450984262979177,-0.0520369751826939,2.974275676084188,-0.053057812154293,0.0337199829518795,0.0469438843429088,-0.0221502715861424,-0.2766384968161583,-9.484304240942002,14952.0
27.2,4.0,207.0,23.36076164245605,31.49697685241699,-79.78281824826686,40.45892979036239,288.41811653137205,0.0164680518209934,0.0051498198881745,-0.9847773909568788,0.1729617118835449,-0.1194414750542888,-0.0604765116273057,3.0073812437812326,-0.0808547660708427,-0.0325883515179157,-0.082789309322834,0.0272872058534994,-0.3602785313129425,-9.963139747381213,14953.0
27.4,4.0,208.0,23.57110595703125,28.24470138549805,-79.78281820672954,40.458929874448536,289.0434045410156,0.0125178191810846,0.005958538968116,-0.98479163646698,0.1731857359409332,-0.0929689022126464,-0.0545429647916279,3.04582752345122,1.4326348718896044e-05,-0.0088145779445767,0.0826833844184875,0.0544024030677974,-0.4669408445432782,-9.8794766163826,14954.0
27.5,4.099999904632568,209.0,23.52352905273437,28.96036148071289,-79.78281821449113,40.4589299117875,289.34794326782225,0.0117683392018079,0.0054465318098664,-0.9848318099975586,0.1730266064405441,-0.09296846193454,-0.0591692963690173,3.0422360096782928,-0.0376086682081222,0.0009556252043694,-0.1001382172107696,-0.0216486901184544,-0.2703631736151874,-9.779240722060203,14954.0
27.71,4.099999904632568,208.0,23.477203369140625,30.200838088989247,-79.78281821923873,40.45892994555749,289.6521272277832,0.0114821987226605,0.0042534968815743,-0.98485666513443,0.1729376167058944,-0.0858081653084365,-0.0522665606516438,3.037306400941516,-0.050739012658596,0.0497407838702201,-0.1245128735899925,0.0094077988236676,-0.2103109715133905,-9.727385274767878,14954.0
27.9,4.099999904632568,206.0,23.61492919921875,27.64831733703613,-79.7828182552646,40.45892995417572,290.27503868103025,0.0139693552628159,0.0057807243429124,-0.9848734140396118,0.1726150959730148,-0.0874246459557309,-0.0408582381335961,3.0306665169030267,-0.0386548340320587,0.0050814892165362,-0.0756899714469909,-0.0555578128807246,-0.2607925789430738,-9.759378899931908,14955.0
28.0,4.099999904632568,207.0,23.38580322265625,31.10733985900879,-79.78281817484837,40.4589299135834,290.59403129577635,0.0153260119259357,0.006993964780122,-0.984865128993988,0.1725021004676818,-0.0951957527117991,-0.0407850766911223,3.0261943323754634,-0.0052168942056596,-0.0093629145994782,0.0978124812245369,-0.0609152511321008,-0.5183469698578119,-9.717664278745652,14955.0
28.1,4.099999904632568,207.0,23.30942726135254,32.109264373779304,-79.78281817425177,40.45892994567048,291.19858070373533,0.0135758882388472,0.0078505771234631,-0.9849125146865844,0.1723412573337555,-0.0996728715137484,-0.0410371511964422,3.03814957876378,-0.0399242714047432,0.0098540149629116,0.005191228352487,-0.0609068503277376,-0.325368022620678,-9.971424082517622,14956.0
28.3,4.0,207.0,23.54857063293457,27.84711265563965,-79.78281815474766,40.458929873346015,291.8299531555176,0.0150216817855834,0.009208315052092,-0.9846582412719728,0.1736022531986236,-0.0822838941861058,-0.0337546002021734,3.0941649570290903,0.0476094596087932,-0.0534707382321357,0.0206169672310352,-0.0729444355331361,-0.3985578767582774,-9.929822312593462,14956.0
28.5,4.0,205.0,23.33321762084961,31.441314697265625,-79.78281803567602,40.45892984161628,292.1438092803955,0.016246760264039,0.0091688325628638,-0.9844653606414796,0.1745849698781967,-0.0945589344385113,-0.0263880193936315,3.0824363847773,0.0466042347252368,0.0065619517117738,0.0337259359657764,-0.0484560177242383,-0.2980131398141384,-9.791480698585511,14957.0
28.6,4.0,205.0,23.49222755432129,29.33409309387207,-79.78281803832039,40.4589298256089,292.45269104003904,0.01741349324584,0.0086383465677499,-0.9842662811279296,0.1756189614534378,-0.0903817682710993,-0.0173735180595243,3.09479463468889,0.0457390509545803,-0.03897750005126,-0.0144638679921627,-0.0655644819326698,-0.34364685729146,-9.871334953308104,14957.0
28.7,4.0,205.0,23.37954330444336,31.28227806091309,-79.78281793578101,40.45892969997593,293.07497116088865,0.0179659202694892,0.0069093531928956,-0.9840633273124696,0.176773801445961,-0.092603141230626,0.014134730589962,3.096623817404268,-0.0110762231051921,-0.0246521029621362,-0.0753700360655784,0.0568368136463686,-0.3097305214405061,-9.82939872264862,14958.0
28.91,4.0,205.0,23.41209602355957,30.733606338500977,-79.78281819329557,40.45892937015604,293.6920022583008,0.0136665292084217,0.0030015739612281,-0.984283447265625,0.1760406345129013,-0.0128106828664637,0.0616234173292667,3.1016666597437097,0.0102393850684165,0.0032317240256816,0.0577826499938964,0.0666515980940312,-0.3981461231410504,-9.924792537689209,14958.0
29.01,4.0,203.0,23.40834045410156,30.240596771240234,-79.78281825238834,40.45892928192565,294.0031270599365,0.0123644415289163,0.0027525916229933,-0.9844344258308412,0.1752951294183731,-0.0056204960438474,0.0699040525929592,3.1239724372544284,0.0433472655713558,-0.0426626056432724,0.0187124125659465,0.048231512052007,-0.285780965667218,-10.032984738349915,14959.0
29.2,4.0,204.0,23.553577423095703,27.74374008178711,-79.78281843154286,40.45892898552908,294.6349401092529,0.0117986313998699,0.0025391746312379,-0.9846100211143494,0.1743486821651458,0.0132334556228478,0.0785962420985976,3.164622312418933,0.0515228770673275,0.0049481685273349,0.0877226293087005,0.0552193504571914,-0.2912556771375239,-9.979564576148988,14959.0
29.4,4.0,204.0,23.42336463928223,29.98613929748535,-79.78281848974667,40.45892889085511,294.95087905883787,0.0129853142425417,0.0034746774472296,-0.9846625328063964,0.1739514172077179,0.0095655383355429,0.0761219172504608,3.1518628182926567,0.1107706800103187,0.00861556828022,0.0767709761857986,0.0902672047633677,-0.3838340761139989,-9.771697813868524,14959.0
29.51,4.0,205.0,23.666261672973643,26.51916694641113,-79.78281845738834,40.4589286596588,295.27047630310057,0.0133135113865137,0.0042507350444793,-0.9846842885017396,0.1737861037254333,-0.0101525017067516,0.0870928056909883,3.110640547641998,0.094528891146183,0.0124437259510159,0.1109212413430214,-0.0851145195588469,-0.4779448293149472,-9.505101032853126,14960.0
29.6,4.0,208.0,23.62494468688965,26.65434646606445,-79.78281851955694,40.45892845600504,295.88805671691887,0.0147881992161273,0.0023019863292574,-0.9846644401550292,0.1738161146640777,-0.030993495671002,0.0979366491574116,3.055162117878302,-0.0675217881798744,0.0391779951751232,-0.0408020429313182,0.0151078622136265,-0.3808629962056875,-9.425514580607414,14960.0
29.81,4.099999904632568,207.0,23.37328338623047,30.24854850769043,-79.7828185263881,40.45892820481482,296.51084419250486,0.0144858490675687,0.0004081767401657,-0.9845526218414308,0.1744882464408874,-0.0455760549637705,0.0953337375186679,3.0042772171684056,-0.0279818400740623,0.0257427934557199,-0.0087031731382012,-0.0187563100783154,-0.2675253554061056,-9.53079779148102,14961.0
29.9,4.099999904632568,208.0,23.529788970947266,28.451446533203125,-79.78281838933867,40.45892813266366,296.84348579406736,0.0141138359904289,-0.0013915428426116,-0.9844792485237122,0.1749275177717209,-0.0499728584881571,0.0978136669743105,3.034447705675772,0.0038259380962699,0.060078278183937,-0.0600043274462223,0.0714636236010119,-0.2909676652215421,-9.6634301841259,14961.0
30.1,4.099999904632568,208.0,23.52102470397949,28.41168785095215,-79.78281838786576,40.45892805201459,297.14582344055174,0.0135803055018186,-0.002229482633993,-0.9843598008155824,0.1756315380334854,-0.0453526635928777,0.1027085827887277,3.009243812645217,0.1169369891285896,0.0615299716591835,0.0750820860266685,0.1177613792102784,-0.3177457384765148,-9.593757686018945,14962.0
30.21,4.099999904632568,209.0,23.617431640625,27.07579040527344,-79.78281839147284,40.45892789459697,297.769118270874,0.015665715560317,-0.002751832595095,-0.9842042922973632,0.1763208359479904,-0.061366861069722,0.094712766159609,3.0206736570170536,0.0951194167137146,0.0128535255789756,0.1972401291131973,-0.0011140978639014,-0.6237365269660949,-9.786025831103323,14962.0
30.41,4.099999904632568,210.0,23.38329887390137,31.679866790771484,-79.78281835002552,40.4589277239296,298.3900327301025,0.0136720715090632,-0.0028543358203023,-0.9842286705970764,0.1763491481542587,-0.0861811928210909,0.0827205030976857,3.0140127405739503,-0.0568774864077568,-0.018179764971137,-0.0418425239622592,-0.0638320432975888,-0.3353901502490044,-9.61227991104126,14963.0
30.5,4.099999904632568,210.0,23.280630111694336,32.578418731689446,-79.78281833348126,40.45892768596453,298.6917142486572,0.0122738434001803,-0.0013617927907034,-0.9842835664749146,0.1761628240346908,-0.0837257662339051,0.0703662372950303,3.0231545602944023,-0.0295112133026123,-0.0091820862144231,-0.0866406932473182,-0.0176000905630644,-0.1860660765320062,-9.897870787382129,14963.0
30.61,4.099999904632568,210.0,23.370779037475582,30.646137237548828,-79.7828183130067,40.45892765748715,298.9961804962158,0.0123334294185042,0.0012258684728294,-0.9842809438705444,0.1761747747659683,-0.0815730085287665,0.0552881196369963,3.065723554877441,-0.0057053044438362,-0.0405172258615493,0.0211953800171613,-0.0518313458003103,-0.4735730854421854,-10.11746531009674,14963.0
30.9,4.099999904632568,209.0,23.434633255004893,29.35795021057129,-79.78281820597343,40.45892753671095,299.63440795898435,0.0140498103573918,0.0025145951658487,-0.98425555229187,0.1761743575334549,-0.1097778767787689,0.0263055478385442,3.127734833476985,0.0068433447740972,0.0564793683588504,0.1066658571362495,-0.0124828917905688,-0.4197563723847271,-9.938000228405,14964.0
31.0,4.099999904632568,208.0,23.394567489624023,29.81915283203125,-79.7828182149212,40.458927449405934,299.942177734375,0.0138724250718951,0.0029780890326946,-0.9842213988304138,0.1763719022274017,-0.107564720997597,0.0309609211384394,3.0819164995413675,-0.0145006105303764,-0.0459062084555625,-0.0088938046246767,-0.052368366876617,-0.2598354262858629,-9.585731797814368,14964.0
31.1,4.099999904632568,207.0,23.453413009643555,29.07963752746582,-79.78281815489946,40.45892741488119,300.55528923034666,0.0165916197001934,0.0037842642050236,-0.9841532111167908,0.1765020936727523,-0.1136509914901123,0.0197390771636764,3.0475667558194712,0.0494618602097034,-0.0234316848218441,-0.1546834111213684,0.0460358049161732,-0.2518099400773645,-9.631466379761696,14965.0
31.3,4.099999904632568,207.0,23.589887619018555,25.87507247924805,-79.78281808955526,40.45892733733359,300.8661679840088,0.0165608972311019,0.0036184061318635,-0.9840840101242064,0.1768934726715088,-0.1328394619045528,0.0205635814660076,3.045256625239184,-0.0193026941269636,-0.0291154757142066,0.020239096134901,0.0448055918561294,-0.371421277821064,-9.743785545229912,14965.0
31.4,4.099999904632568,207.0,23.59990310668945,26.686153411865234,-79.78281803566477,40.45892732696403,301.47969909667967,0.0155543992295861,0.003009857609868,-0.9839404225349426,0.1777928471565246,-0.1388998736891746,0.0112457676327754,3.0314517710683986,-0.0516030192375183,0.0267862267792224,-0.0522479824721813,0.0082262375671416,-0.2221786265820265,-9.606518649458886,14966.0
31.6,4.099999904632568,207.0,23.31819152832031,31.377700805664062,-79.78281793070734,40.45892734770956,302.08218475341795,0.0163784921169281,0.0054873144254088,-0.9836674332618712,0.1791652739048004,-0.1487555324126755,-0.0049272492886955,3.0015334618966443,0.0782246738672256,-0.0647157579660415,-0.0249508544802665,-0.0390742241637781,-0.4282194130495191,-9.76695747613907,14967.0
31.8,4.199999809265137,207.0,23.41960906982422,29.62830924987793,-79.78281791095657,40.45892729026543,302.39227767944334,0.0164180248975753,0.0067846700549125,-0.983558177947998,0.1797159165143966,-0.1528748959543633,-0.0030097321561662,3.031871046281301,0.0382692851126194,-0.0517880655825138,0.1043639555573463,-0.0627717512380331,-0.5825574376434088,-9.960219647884369,14967.0
31.9,4.199999809265137,207.0,23.320695877075195,30.4711971282959,-79.78281784607901,40.458927296845815,302.696946105957,0.0183341335505247,0.0080026974901556,-0.9835914373397828,0.1792979687452316,-0.1626206683346017,-0.005340918522106,3.048087496472684,0.0514848157763481,-0.0158979594707489,-0.0041801743209362,-0.0932090485934168,-0.2764033291116357,-9.905750495195392,14967.0
32.0,4.199999809265137,207.0,23.45591735839844,28.66614532470703,-79.7828176379027,40.45892720998256,303.3070115661621,0.0230603478848934,0.0104124341160059,-0.983943521976471,0.1766780465841293,-0.195273119810052,-0.0011584688661433,3.041958237218464,-0.0020293616689741,-0.0432760715484619,-0.0459920912981033,-0.1612946580536663,-0.3851969889923929,-9.806091136336327,14968.0
32.2,4.199999809265137,209.0,23.41835594177246,29.69987487792969,-79.78281753056582,40.45892718550967,303.9159059143066,0.0214715208858251,0.0090208025649189,-0.9843937754631042,0.1744318902492523,-0.1787182105430317,0.0026719165833001,3.0172933556092745,0.0261290147900581,-0.0333613529801368,0.0013484234223142,-0.0151861326768994,-0.3381376837939024,-9.727376503944395,14968.0
32.4,4.199999809265137,209.0,23.280630111694336,31.17890548706055,-79.78281748106384,40.45892716003698,304.2180413818358,0.0206574592739343,0.0083099007606506,-0.9846321344375608,0.1732162088155746,-0.1570749576312732,0.0087781261233972,3.022520513279173,0.014899262227118,0.0266225989907979,0.0654392838478088,-0.0140246655140072,-0.2926319472491741,-9.902469037771226,14969.0
32.51,4.199999809265137,208.0,23.45591735839844,27.83916091918945,-79.78281742655075,40.45892707048143,304.52595611572264,0.0197211131453514,0.0067372769117355,-0.9847640395164492,0.1726429909467697,-0.1359615303749857,0.0182000966712148,3.061654609052425,0.0104999458417296,0.0397035889327526,0.0933723971247673,0.0018098091753199,-0.5204231334105134,-10.062251222133636,14969.0
32.6,4.199999809265137,207.0,23.340728759765625,29.898670196533203,-79.78281738140777,40.45892699207953,305.14505859375,0.017522919923067,0.0055582043714821,-0.9845128655433656,0.1743461638689041,-0.1181861937836566,0.0275643163302607,3.105701678900509,-0.0392099656164646,0.021845057606697,-0.0088545549660921,-0.0468698280025273,-0.2958802399970591,-9.904371721744536,14970.0
32.8,4.199999809265137,206.0,23.41460037231445,29.071685791015625,-79.78281742094582,40.458926925073634,305.44505401611326,0.0168310143053531,0.0056216064840555,-0.9842075109481812,0.1761272996664047,-0.1138251901373445,0.0290416173400988,3.0829268564549626,0.0009832849027588,0.0096487645059824,-0.0311659537255764,-0.0561431511444971,-0.2935811148025095,-9.82403799533844,14970.0
32.9,4.199999809265137,206.0,23.31819152832031,30.2962589263916,-79.78281735937806,40.4589268000395,306.0564469909668,0.0158695727586746,0.0047817891463637,-0.983831524848938,0.178328052163124,-0.0992614657183119,0.0309803943324105,3.0553919945422514,0.085174486041069,-0.0429983809590339,-0.0309864208102226,-0.0847067493572831,-0.4067513973265887,-9.721426962018011,14971.0
33.1,4.099999904632568,206.0,23.49848747253418,27.47337913513184,-79.78281731647186,40.45892673037908,306.6707925415039,0.0170521065592765,0.0060989428311586,-0.983647644519806,0.1791908890008926,-0.1087527196400897,0.0341374148697663,3.081078125177912,4.6664692490594455e-05,0.0022548453416675,-0.0814898982644081,-0.0378808965277858,-0.2268808660469949,-9.806203402876854,14971.0
33.2,4.099999904632568,207.0,23.36201477050781,29.47722625732422,-79.78281725883444,40.4589266351519,306.9782952880858,0.0183107424527406,0.0062521151266992,-0.9836252331733704,0.1791846752166748,-0.1174768968176151,0.0283590389707395,3.0642580205275234,-0.0365897044539451,-0.0204109866172075,0.0036048435140401,-0.0747019715141505,-0.1802372796088456,-9.76201599419117,14971.0
33.4,4.0,207.0,23.410844802856445,28.44349479675293,-79.78281723901061,40.458926598892106,307.28505416870115,0.0183173269033432,0.0057963249273598,-0.9836680889129642,0.1789638549089431,-0.1229245745520186,0.0269739697439624,3.0704526577002613,-0.0549677200615406,-0.0909508466720581,0.0348147265613079,-0.1815575078129769,-0.4794543611258269,-9.831279187202457,14972.0
33.6,4.0,206.0,23.413349151611328,28.80927658081055,-79.78281719367929,40.458926533888615,307.9022492980957,0.0170874148607254,0.0039892783388495,-0.9838031530380248,0.1783915609121322,-0.1102047904448043,0.0261752160588399,3.0532296132246075,0.0758124515414238,-0.0730683058500289,-0.0067132604308426,0.0061476346291601,-0.4109896785020829,-9.737406232953072,14972.0
33.71,4.0,206.0,23.45967483520508,27.7039794921875,-79.78281717612454,40.45892650628758,308.2075776672363,0.0196021310985088,0.0049017192795872,-0.9837834239006042,0.1782186180353164,-0.1025767624213182,0.0286326629455664,3.0454265654138863,0.1195444092154502,0.0063665867783129,0.0734508037567138,-0.1179499427787959,-0.4581766357272864,-9.63385847568512,14973.0
33.8,4.0,207.0,23.320695877075195,29.30228614807129,-79.78281713950071,40.458926306095975,308.82709213256834,0.0186259858310222,0.0041454299353063,-0.9837614893913268,0.1784638315439224,-0.1222481823142333,0.0329923248823958,3.031075909772985,-0.104063905775547,0.0609393455088138,-0.0761326849460601,0.0094595523923635,-0.3055228102393449,-9.676553674936295,14973.0
34.0,4.099999904632568,208.0,23.410844802856445,28.67409706115723,-79.78281711916034,40.45892620891013,309.447133026123,0.0133113330230116,0.000425291567808,-0.9837861061096193,0.1788506507873535,-0.0995458918051039,0.0367907335035401,3.0385060767896803,-0.093812271952629,-0.0210315734148025,0.0301811881363391,-0.141541009414941,-0.4206280826032162,-9.69265632212162,14974.0
34.1,4.099999904632568,208.0,23.31944465637207,30.21674156188965,-79.7828171013983,40.45892618695965,309.7506036376953,0.0123764192685484,0.000493612489663,-0.9838222861289978,0.1787184923887252,-0.0865108134932428,0.0356887827781486,3.0263438569376437,0.0271163769066333,0.0525031648576259,-0.0586726740002632,0.0433319062180817,-0.191211882121861,-9.672883377671242,14974.0
34.31,4.099999904632568,209.0,23.506000518798828,26.73386383056641,-79.78281704934193,40.45892612185405,310.0633058166504,0.0121478401124477,0.0014779856428503,-0.9838329553604126,0.1786704063415527,-0.0963621697883994,0.03396456233473,3.052512387980805,0.0389230139553546,0.0109705347567796,0.0269830171018838,0.0530567120667547,-0.3848380795866251,-9.887542265653614,14975.0
34.5,4.199999809265137,208.0,23.443397521972656,28.30036354064941,-79.78281696919767,40.45892602409896,310.68675323486326,0.0165405478328466,0.0052429237402975,-0.9836614727973938,0.1791903376579284,-0.1322747727322112,0.022991868919683,3.054212431762384,0.0155142387375235,0.0498913303017616,0.00493667088449,-0.0677303408598527,-0.3708048716560006,-9.692459270954132,14975.0
34.6,4.199999809265137,207.0,23.39581871032715,27.84711265563965,-79.7828169078337,40.45892601557668,310.990704498291,0.018764117732644,0.0044008432887494,-0.9835513830184937,0.1795978248119354,-0.1618238612290716,0.0056777435132923,3.0197375276414724,-0.0330180265009403,0.0722173824906349,-0.1472658962011337,-0.0116743223648518,-0.3883702729269862,-9.550239198803904,14975.0
34.7,4.199999809265137,207.0,23.367021560668945,28.47530174255371,-79.78281680963437,40.45892599367625,311.6058053588867,0.0207301564514637,0.0019197731744498,-0.9833332896232604,0.1806162446737289,-0.1699701033689694,0.0247122667443218,2.9860778637843977,0.0221222825348377,0.0773511081933975,0.0069664833135902,0.0569673207588493,-0.268979503121227,-9.551286435127258,14976.0
34.9,4.199999809265137,207.0,23.27061462402344,31.2584228515625,-79.78281674768645,40.45892599673637,311.9038667297363,0.0215000733733177,0.0019998727366328,-0.9832761287689208,0.180836483836174,-0.1745815803849081,0.0185451313195205,2.966954382055568,0.00455665262416,-0.0192946586757898,0.0684121623635292,-0.117268248796463,-0.5350784119963646,-9.627538805007935,14976.0
35.1,4.199999809265137,208.0,23.413349151611328,28.20494270324707,-79.78281657851831,40.45892600876106,312.5184869384765,0.0192807726562023,0.0051105828024446,-0.9834794402122498,0.1799174696207046,-0.1827830557834618,0.0096311000791264,2.98430768427808,-0.0649465471506118,-0.0267556700855493,-0.0328612923622131,-0.0465879145497456,-0.3465876413136721,-9.809539239406586,14977.0
35.2,4.199999809265137,208.0,23.30316734313965,30.009994506835927,-79.78281651717684,40.458926022240526,312.8178414916992,0.0168136227875947,0.0058668320998549,-0.9835975766181946,0.1794960349798202,-0.1746558456724223,-0.0029155276929787,2.9905673508937856,-0.0459166429936885,-0.0163813401013612,0.0161736235022544,-0.1087292674183845,-0.4168888978287577,-9.791401761174203,14977.0
35.3,4.300000190734863,208.0,23.294403076171875,29.008071899414062,-79.78281629040083,40.458926050228456,313.4287461853027,0.017899714410305,0.0062435204163193,-0.9836800694465636,0.1789250224828719,-0.1788883027717144,-0.0193042163920961,3.001221543898714,0.0006356231751851,-0.0119227226823568,0.0367696806788444,-0.0659700868371874,-0.4722300896421075,-9.858969261646273,14978.0
35.51,4.300000190734863,208.0,23.20050048828125,32.23649215698242,-79.78281612273021,40.45892606657547,314.03695388793943,0.0155716855078935,0.0055426890030503,-0.9837020635604858,0.1790453940629959,-0.17617035184429,-0.0156002704765754,2.997463179862008,0.0391181111335754,-0.0366518162190914,-0.1132022812962532,-0.0736763287754729,-0.3962399308383465,-9.73475042760372,14979.0
35.6,4.199999809265137,208.0,23.427120208740234,27.81530570983887,-79.78281603572104,40.4589260894814,314.3374108886718,0.0172597896307706,0.0058116135187447,-0.9836121797561646,0.1793749779462814,-0.1754888642814788,-0.0149635617463314,3.0042575944926098,0.0688453763723373,0.0385392569005489,-0.0487387850880622,-0.0729344404488802,-0.3375990821421146,-9.8022319740057,14979.0
35.8,4.199999809265137,206.0,23.211767196655277,31.385652542114247,-79.78281594766413,40.45892609578185,314.6461457824707,0.018882093951106,0.0065120537765324,-0.983494222164154,0.1798338443040847,-0.1996308544067467,-0.011113324164709,2.9924456033984144,-0.072147361934185,-0.0308775212615728,-0.1005603894591331,-0.0909664860740304,-0.3233132379502058,-9.609775548577309,14979.0
36.0,4.199999809265137,205.0,23.27812767028809,30.16107940673828,-79.78281571739136,40.458926159634366,315.2502336120605,0.0200684498995542,0.0055596739985048,-0.9834821224212646,0.1798037439584732,-0.2064328564398585,-0.0208028326178222,2.97591480525142,-0.0281286239624023,0.0394532680511474,-0.020886443555355,-0.0711385321151465,-0.3208748759329319,-9.784102681875227,14980.0
36.1,4.199999809265137,205.0,23.415851593017567,27.807353973388672,-79.78281562830634,40.45892618455037,315.548752746582,0.0191039517521858,0.0047571915201842,-0.9835666418075562,0.1794688701629638,-0.2024079668629376,-0.0123210407033728,2.9842336451251845,-0.0349390469491481,0.0193038452416658,0.0775384530425071,0.0141877206042408,-0.4829540293291211,-9.873918253183367,14980.0
36.21,4.199999809265137,205.0,23.275623321533203,30.28830718994141,-79.78281543112624,40.45892620538369,316.14999862670896,0.0161286368966102,0.0060995132662355,-0.9833274483680724,0.1810243427753448,-0.1815474720244032,-0.0126170768280423,2.9909954117384947,0.0220440402626991,-0.0161737762391567,0.0561487674713134,-0.1009474821947515,-0.5776722716912628,-9.813444010019303,14981.0
36.41,4.099999904632568,205.0,23.231800079345703,31.679866790771484,-79.78281519997435,40.45892621983217,316.75339599609373,0.0142674585804343,0.0102496780455112,-0.9829213619232178,0.183185875415802,-0.1746113429474297,-0.0120900030032226,3.0262489542222726,0.060413870960474,-0.0184802953153848,0.0018314856570214,-0.0083956789132207,-0.3735227305814624,-10.060298252105714,14981.0
36.6,4.199999809265137,205.0,23.19048309326172,31.14709854125977,-79.78281509775263,40.45892623048528,317.0586633300781,0.0141237080097198,0.0114225493744015,-0.9829012751579284,0.1832354217767715,-0.1851256291500773,-0.0235634493909078,3.075580255555995,0.0090863797813653,-0.0549759455025196,-0.0900000259280204,-0.0485872922837734,-0.315406304039061,-10.29875121474266,14982.0
36.71,4.099999904632568,204.0,23.37578582763672,29.35795021057129,-79.78281499062378,40.458926235035065,317.3700646972656,0.0136285433545708,0.0104149747639894,-0.9830167293548584,0.1827127337455748,-0.1878413904665698,-0.0243701163391364,3.1419818375897366,-0.0169945750385522,0.063319906592369,0.0571177192032337,-0.0281598890852183,-0.3058472941629589,-10.421211791038512,14982.0
36.8,4.099999904632568,202.0,23.3494930267334,29.00012016296387,-79.78281483867028,40.45892619836732,317.9869241333008,0.0167966019362211,0.0082781659439206,-0.983159065246582,0.1817904710769653,-0.16802865005939,0.0083750407218701,3.167439632902657,0.006274789571762,-0.0101029546931386,-0.0289370454847812,-0.0940807496756315,-0.3073687944933772,-10.037640291452409,14982.0
37.0,4.0,203.0,23.3494930267334,29.49312973022461,-79.78281454339205,40.45892622962269,318.59933944702146,0.0160936955362558,0.0099290814250707,-0.9833975434303284,0.1804767251014708,-0.1925456707041133,0.0010988820886254,3.1124116094760685,-0.0025198857765644,-0.0078923851251602,0.0202204678207635,-0.0594055822771042,-0.3241892239451409,-9.751374646425248,14983.0
37.1,4.0,202.0,23.2180290222168,31.099388122558597,-79.78281444309506,40.45892621918564,318.9106530761718,0.0155108505859971,0.0092589743435382,-0.9835294485092164,0.1798429787158966,-0.1770042725132463,-0.0014819632951714,3.1085685539277748,0.0384030528366565,0.0070897890254855,0.0009716894128359,-0.0975959860906005,-0.3764605909958482,-9.778372995257376,14983.0
37.3,4.0,202.0,23.3782901763916,27.71988296508789,-79.78281436708353,40.45892613595844,319.22118850708006,0.0142819145694375,0.0068921977654099,-0.983587086200714,0.1797361671924591,-0.1731971985847218,0.0126258091970944,3.118907880567804,-0.02726262062788,0.0777615085244178,-0.0211272984743118,0.0071373489685356,-0.2949449961259961,-10.018580707311632,14984.0
37.5,4.0,198.0,23.42837333679199,27.02012825012207,-79.78281415754672,40.458926040306686,319.849289855957,0.0121000697836279,0.0033856376539915,-0.98350191116333,0.1804610788822174,-0.1607736646787626,0.0386858042192208,3.1480376755887853,-0.099771000444889,-0.0356159023940563,-0.1414321362972259,-0.0800225814431905,-0.1129885254800319,-9.925968997478485,14984.0
37.61,4.0,199.0,23.37954330444336,27.425668716430664,-79.78281406148929,40.45892602279823,320.16428085327146,0.010749377310276,0.0026655362453311,-0.9834617376327516,0.180777296423912,-0.1524847972120614,0.0369788856870235,3.1455434933983626,-0.0481942668557167,0.0155773945152759,0.0029535037465393,-0.0421806442737579,-0.2395787343755364,-9.84760578274727,14985.0
37.7,4.099999904632568,199.0,23.32320022583008,28.98421669006348,-79.78281385502727,40.45892592076966,320.7933969116212,0.0087916394695639,0.0040617301128804,-0.9831696152687072,0.1824384331703186,-0.1287545426512928,0.0265530850472542,3.09707490266004,0.1109282821416854,-0.003493603086099,-0.0138783538714051,-0.0059041529148817,-0.2783682311140001,-9.632073905467989,14985.0
37.9,4.099999904632568,199.0,23.427120208740234,27.17121124267578,-79.7828137037698,40.45892572199029,321.4257821655273,0.0151365362107753,0.0046959714964032,-0.9828041195869446,0.1839701831340789,-0.1577447792335155,0.0384499845249194,3.05965155685132,-0.0022473705466836,-0.0416319370269775,-0.1054529324173927,-0.1263188341353088,-0.3502549784258008,-9.574723244905472,14986.0
38.0,4.099999904632568,197.0,23.453413009643555,26.86904335021973,-79.78281360435125,40.45892570769049,321.7304734802246,0.0182313658297061,0.0050828624516725,-0.9827184677124025,0.1841365545988083,-0.1724057596045411,0.0284962951107652,3.0285508913050667,0.0367590822279453,0.0412815287709236,0.096573032438755,-0.1485504322685301,-0.327423684373498,-9.473464087843896,14986.0
38.2,4.099999904632568,198.0,23.363265991210927,28.23674964904785,-79.7828135057591,40.45892570372244,322.0318193054199,0.0202146079391241,0.0059373066760599,-0.9827263355255128,0.1838619709014892,-0.1792880241656328,0.0167863887705646,2.991101594593041,0.1567853540182113,-0.0046895672567188,-0.0048830169253051,-0.0792043549753725,-0.4052922612056136,-9.457944408059117,14987.0
38.31,4.099999904632568,198.0,23.45967483520508,26.9167537689209,-79.78281331245346,40.458925707611336,322.649697265625,0.0234287716448307,0.0056650610640645,-0.9827916622161864,0.1831381916999817,-0.1934382666719172,-0.0065081144418651,2.9889018750590286,0.017173945903778,0.0846975669264793,0.0246565844863653,-0.1375657615810633,-0.3246806458756328,-9.637620574235916,14987.0
38.5,4.199999809265137,198.0,23.41960906982422,27.64831733703613,-79.78281304141636,40.45892571631088,323.2750253295898,0.0246116947382688,0.0055745760910212,-0.9827115535736084,0.1834157556295395,-0.2100338189363111,-0.0099641839888701,2.9917511327263995,-0.0712779611349105,-0.0500793792307376,-0.0802431404590606,-0.1001742244698107,-0.3662158306315541,-9.638598813414577,14988.0
38.6,4.199999809265137,200.0,23.258094787597656,29.898670196533203,-79.78281299042284,40.45892574218487,323.5735215759277,0.0224903151392936,0.0073565822094678,-0.9827324748039246,0.1835130602121353,-0.1919489344370011,-0.0203742706894829,2.9678147909833545,0.0088147306814789,-0.0899186506867408,-0.0043361168354749,-0.0599829354370012,-0.299649062845856,-9.623845703601836,14988.0
38.8,4.199999809265137,198.0,23.30316734313965,29.13529968261719,-79.78281277338904,40.45892581348089,323.90841384887693,0.0201508160680532,0.0093698520213365,-0.982726514339447,0.1837249100208282,-0.1878283153724687,-0.0457147165002699,3.016660113153152,0.0119940051808953,-0.0445407442748546,0.162973016500473,-0.1775611917302012,-0.5837079138681293,-9.79998313486576,14988.0
39.0,4.199999809265137,199.0,23.31819152832031,28.96036148071289,-79.78281264475334,40.45892587301859,324.5366563415527,0.0189936105161905,0.0134573439136147,-0.9826488494873048,0.184009239077568,-0.1697310858374369,-0.0748927836761925,3.041738867571944,-0.0251030791550874,-0.0684452205896377,-0.0581852756440639,-0.2360967722721398,-0.2832248736172915,-9.780293220877647,14989.0
39.1,4.199999809265137,199.0,23.27186584472656,29.59650230407715,-79.78281261173727,40.45892590276953,324.8423013305664,0.0182677451521158,0.0150838149711489,-0.982585072517395,0.1842971444129944,-0.1590616356945271,-0.0813599331456384,3.0594721546338963,0.044365856796503,0.0039120772853493,-0.0560712218284606,-0.0764165852777659,-0.3194422350078821,-9.928696138858797,14989.0
39.2,4.099999904632568,196.0,23.29816055297852,29.00012016296387,-79.78281246731555,40.45892592570015,325.46982666015623,0.0200439002364873,0.0161094758659601,-0.9825578927993774,0.1841706782579422,-0.1446654215822851,-0.0622652992594012,3.095528419497427,0.0280524846166372,0.0408467277884483,-0.0176839791238307,-0.1600847046822309,-0.3941174281015992,-9.927338415384291,14990.0
39.4,4.099999904632568,197.0,23.32320022583008,28.578676223754893,-79.78281229945836,40.45892592159669,326.09708877563475,0.0212318915873766,0.0148866809904575,-0.9828535318374634,0.1825557202100753,-0.1599274276553378,-0.0455022743830825,3.1107181060686337,-0.0917713642120361,0.0270000118762254,0.0275270361453294,-0.203596833050251,-0.3672838245704769,-9.915582003593444,14991.0
39.5,4.0,197.0,23.17170333862305,31.425411224365234,-79.78281228687328,40.4589258959468,326.40900131225584,0.0189582929015159,0.012477851472795,-0.9830723404884338,0.1818070858716964,-0.1415140465108162,-0.0328951920379972,3.1233267163210248,-0.0977493375539779,0.0983202159404754,-0.0494746081531047,-0.034464018959552,-0.1539221779257059,-9.940249067544936,14991.0
39.71,4.0,197.0,23.25308609008789,29.413612365722656,-79.78281228656864,40.45892585962192,326.7232255554199,0.0174376796931028,0.0106938891112804,-0.9831990599632264,0.1813866943120956,-0.1142774913210958,-0.0117413742138926,3.157816060559504,-0.0290388986468315,0.0146847125142812,0.0055365273728966,-0.0836560777947306,-0.3498460753262043,-10.090579812526704,14991.0
39.9,4.0,197.0,23.4033317565918,27.61651039123535,-79.78281229529823,40.45892570015871,327.35956283569334,0.0112415412440896,0.0103151006624102,-0.9830979704856871,0.1824433654546737,-0.0756108841155671,0.0056162079549009,3.2078222596164867,-0.0460507534444332,0.0220849141478538,-0.0437873341143131,-0.1145383208524436,-0.352240729406476,-10.031757992506028,14992.0
40.0,4.0,194.0,23.3782901763916,27.298439025878903,-79.78281223948579,40.4589255624224,327.9879312133789,0.0133868316188454,0.0105857700109481,-0.9827386736869812,0.1842104196548462,-0.0536707362242872,0.0104589760005822,3.1393623892477502,0.054596334695816,-0.0380039066076278,-0.0006497995927929,-0.1317404729872942,-0.2983970460668206,-9.623498963713647,14992.0
40.2,3.900000095367432,194.0,23.341981887817383,27.38591003417969,-79.78281224598283,40.45892550192993,328.30039306640623,0.0155766019597649,0.0095408782362937,-0.9826428890228271,0.1846060454845428,-0.0534659686911105,0.0089449598251336,3.103512763258163,0.1569739878177642,0.0872882753610611,0.049453031271696,-0.1368181676510721,-0.3784847143292427,-9.489452714323996,14993.0
40.3,3.900000095367432,194.0,23.354501724243164,28.63433837890625,-79.78281223684425,40.458925269526304,328.92203994750975,0.0144847286865115,0.0048633301630616,-0.9825569391250608,0.1853334754705429,-0.059000942587089,0.0409159945368713,3.0480897812709142,-0.1186143830418586,0.0410633012652397,-0.0676164180040359,-0.1102723384927958,-0.1548932359926402,-9.521742793321607,14993.0
40.4,3.900000095367432,197.0,23.348241806030277,27.56879997253418,-79.7828121723458,40.458925208559045,329.2472924804688,0.0126089267432689,0.0046986192464828,-0.98253071308136,0.1856134980916977,-0.0473022704149472,0.0415995442199877,3.0601604033764604,-0.0062793898396193,-0.0148173356428742,0.0547021478414535,-0.1446643087919801,-0.3432141998782754,-9.690012211203577,14994.0
40.5,3.900000095367432,196.0,23.29816055297852,28.66614532470703,-79.78281219963678,40.458925151445534,329.5530290222168,0.0107258036732673,0.0046212519519031,-0.9825772047042848,0.1854875981807708,-0.0388743810174941,0.0327033488746448,3.0553930326252594,-0.0430096760392189,-0.0004738618736155,-0.0195647478103637,-0.1123676242679357,-0.2875104806944728,-9.73901538670063,14994.0
40.7,3.900000095367432,196.0,23.37203025817871,27.37795829772949,-79.78281222967084,40.45892510123217,329.85859390258787,0.010894882492721,0.0046299071982502,-0.9826140999794006,0.1852823793888092,-0.0262874358537321,0.0226456462095871,3.0527397889969223,-0.0077161858789622,0.0005281459307298,-0.1040672287344932,-0.1178485301323235,-0.1333543045073747,-9.738494399785996,14994.0
40.9,4.0,195.0,23.25183296203613,28.76951789855957,-79.78281217180718,40.45892501046299,330.4896363830566,0.0137810120359063,0.0059070764109492,-0.9824177026748656,0.1860933899879456,-0.0574065975337241,0.0198553353036968,3.0644700554831976,-0.0138614205643534,0.0228273291140794,0.0010702657746151,-0.0539255626313388,-0.2959026238694787,-9.740757856965066,14995.0
41.0,4.0,195.0,23.3782901763916,27.78349876403809,-79.78281215971046,40.4589249113221,331.11802001953123,0.0149745317175984,0.0101481219753623,-0.9824963808059692,0.1854016184806824,-0.0647762666433886,-0.0011897451057306,3.055494612109215,0.1057225167751312,-0.0097595928236842,0.0850219801068306,-0.0637993719801306,-0.3934255197644234,-9.764189404249194,14996.0
41.1,4.0,195.0,23.32445335388184,27.544944763183597,-79.78281217185706,40.45892487943564,331.4233522033691,0.0144145442172884,0.011196456849575,-0.9825323224067688,0.185194730758667,-0.081459534980174,-0.0151009056061238,3.0534745754781665,-0.0035855795722454,-0.0486627891659736,-0.0450975112617015,-0.1821253638155758,-0.3681393818557263,-9.765483977794648,14996.0
41.3,4.0,195.0,23.28689193725586,28.66614532470703,-79.78281215340529,40.458924774090775,332.0489205932617,0.0111309112980961,0.0126311983913183,-0.9826717972755432,0.1845880597829818,-0.0676564297006657,-0.0099488632353622,3.0200999423232444,-0.0300773978233337,0.00870599783957,0.0442712604999542,-0.1911877258121968,-0.2853752785362303,-9.557646451592444,14997.0
41.4,3.900000095367432,193.0,23.402080535888672,26.646394729614247,-79.78281215634055,40.45892470655347,332.35992523193363,0.0111338701099157,0.0123156458139419,-0.9827693700790404,0.1840888559818268,-0.0438608084006472,-0.0039242863824642,3.017854457334728,0.0445802994072437,-0.0406884737312793,-0.0332961827516555,-0.0607452798821032,-0.3191622630134225,-9.664690843820573,14997.0
41.6,3.900000095367432,194.0,23.41460037231445,26.21699905395508,-79.78281216649738,40.458924645088096,332.6606607055664,0.0121441967785358,0.0103109823539853,-0.9828224778175354,0.1838646382093429,-0.0447041741632859,0.0027025989238853,2.9992256218511666,0.0486300289630889,0.0737074837088584,0.0266988836228847,-0.0849482941813767,-0.2933746715448797,-9.632121852636338,14997.0
41.8,3.900000095367432,193.0,23.26435470581055,29.016023635864247,-79.78281208152085,40.45892455964713,333.27413269042967,0.0080477390438318,0.004301500506699,-0.9826109409332277,0.1854525655508041,-0.0651752547426498,0.0281100824680458,3.002350658324412,-0.1300325244665146,-0.01129777636379,-0.1428738236427307,-0.1592213450185954,-0.2376995306275785,-9.694911593198777,14998.0
41.9,3.900000095367432,193.0,23.368274688720703,27.79145050048828,-79.7828120671396,40.458924509956326,333.5740441894531,0.0081604430451989,0.0046640527434647,-0.982382357120514,0.1866457611322403,-0.0449390086269237,0.0350044732432916,3.0011174057475447,0.0757942423224449,0.0308946948498487,0.0585807114839553,-0.1009178806655109,-0.2021182732097804,-9.785804221630094,14998.0
42.0,3.900000095367432,192.0,23.254337310791016,28.90469741821289,-79.7828119623273,40.45892443771962,334.18760009765623,0.0115968156605958,0.010078577324748,-0.9819531440734864,0.1884991973638534,-0.0746483358734693,0.0137387673589409,3.010235970615652,0.0032635640818625,-0.0475784465670585,-0.0256041567772626,-0.0137853773497045,-0.3266734135150909,-9.884776532649994,14999.0
42.21,3.900000095367432,191.0,23.30692481994629,29.008071899414062,-79.78281183865069,40.45892435672393,334.7987603759765,0.0090076914057135,0.0097825210541486,-0.9818870425224304,0.1890003532171249,-0.0836153064015893,-0.0010222021257465,3.008855429652696,-0.067337542772293,0.0827995911240577,-0.0786994397640228,-0.1330051252339035,-0.0487205722555518,-9.627766846418384,14999.0
42.4,3.900000095367432,191.0,23.230548858642567,29.71577835083008,-79.7828118065095,40.45892431806264,335.0987481689453,0.0091178091242909,0.0110288467258214,-0.98199462890625,0.1883661299943924,-0.0713996557947943,0.001695860095888,2.995476690069112,0.0752676352858543,-0.0417363159358501,0.1568204313516616,-0.194188133161515,-0.3835234062373639,-9.711077975034712,15000.0
42.5,3.799999952316284,190.0,23.21677589416504,29.707826614379893,-79.78281159558131,40.458924271005735,335.7027291870117,0.0090281581506133,0.0106226075440645,-0.982352077960968,0.1865212619304657,-0.0925553176514343,-0.0180343864111897,2.9950211830968523,-0.0073511297814548,0.0186261031776666,-0.0004390622489154,-0.2816400040872395,-0.2408794474974275,-9.852239116430283,15000.0
42.61,3.799999952316284,188.0,23.28313446044922,28.363977432250977,-79.78281154525506,40.45892424327413,336.0032968139648,0.0094328997656703,0.0083013782277703,-0.9824318289756776,0.186198353767395,-0.0906725303925272,-0.007373779844192,3.0119376027440583,0.0530394352972507,0.049342792481184,-0.0181967485696077,-0.1227261677943169,-0.1647221314162016,-9.926364269256592,15001.0
42.81,3.799999952316284,191.0,23.315689086914062,28.745662689208984,-79.78281129992553,40.458924191327,336.6091317749023,0.0077288579195737,0.0113000571727752,-0.9820312857627868,0.1882212907075882,-0.1218401840182614,0.0206983185903361,3.0018735012777764,-0.0582734793424606,-0.0277274716645479,-0.1416754126548767,-0.0367229628190398,-0.1641133814491331,-9.700757639408112,15001.0
42.9,3.900000095367432,191.0,23.310680389404297,27.41771697998047,-79.7828111544775,40.45892420658787,336.9106149291992,0.0069730984978377,0.0123464185744524,-0.9817874431610109,0.1894529312849044,-0.1210357360648639,0.0004984252377264,2.9971350156630843,0.0086757512763142,-0.0553479306399822,0.0418229550123214,-0.1170673969388008,-0.3485527443140745,-9.836372112035752,15001.0
43.1,3.900000095367432,192.0,23.295656204223643,28.181087493896484,-79.78281105060243,40.45892417742925,337.21092315673826,0.0080044073984026,0.0121413795277476,-0.981709122657776,0.1898309737443924,-0.126335128611923,0.0059311969218095,3.0035506796863154,0.0490182563662529,-0.0395061820745468,0.0884657204151153,-0.1364903581235557,-0.4115319346636534,-9.787136802077294,15002.0
43.2,3.900000095367432,189.0,23.28313446044922,29.278430938720703,-79.78281070149308,40.45892416927682,337.8111581420898,0.0157650541514158,0.0104059930890798,-0.9819137454032898,0.1883845329284668,-0.1636541198621658,0.016741019215189,2.980702164969436,0.1412803828716278,0.0047529945150017,-0.1101364269852638,-0.1108965196274221,-0.4098305045440793,-9.670252715349198,15002.0
43.4,3.900000095367432,191.0,23.35700607299805,27.32229423522949,-79.78281035355779,40.45892412090672,338.41361328125,0.0187522862106561,0.0056031192652881,-0.9824854731559752,0.1853086650371551,-0.2087447448290688,0.0455479292537447,2.964013369101832,-0.0610952042043209,0.0806679129600524,-0.0359476432204246,-0.0614993834076449,-0.1587141904234886,-9.655524163842204,15003.0
43.51,3.900000095367432,191.0,23.24056434631348,28.58662796020508,-79.78281022601709,40.45892409449476,338.709397277832,0.0189673975110054,0.0043949051760137,-0.9827072024345398,0.1841403245925904,-0.2020216642955106,0.0497117182272928,2.9437377062665973,-0.0131774460896849,0.03072265163064,-0.0300797279924154,-0.1935862719453872,-0.2316457255370915,-9.649782782793045,15003.0
43.7,3.900000095367432,191.0,23.268110275268555,28.34012222290039,-79.7828099003225,40.458924060438655,339.3072518920898,0.0194724760949611,0.0049272021278738,-0.9829557538032532,0.1827419102191925,-0.1914811379799618,0.0280283164482751,2.9458669653221743,-0.0184019971638917,0.0158388391137123,-0.0291373655200004,-0.2598380575329065,-0.4140528886020184,-9.718391087651254,15004.0
43.9,4.0,192.0,23.21677589416504,29.827104568481445,-79.78280981352117,40.45892405364828,339.6027383422852,0.0178115498274564,0.0054474361240863,-0.9829429984092712,0.1829650551080704,-0.1749259028243803,0.0192423830047351,2.9504926635086104,-0.0039161453023552,-0.0012088146759197,-0.1801105588674545,-0.0950833278894424,-0.2437958193942905,-9.85491246342659,15004.0
44.0,4.0,193.0,23.21051597595215,29.453371047973643,-79.7828095997631,40.45892407579722,339.9064950561523,0.0164937134832143,0.0078130271285772,-0.9828357100486756,0.1835784018039703,-0.1628286918894672,0.007150363730008,2.970934013442492,0.0291274972259998,-0.0232794266194105,0.0061965938657522,-0.2243102655932307,-0.1936967660486698,-9.949416332244873,15004.0
44.1,4.0,194.0,23.20676040649414,29.37385368347168,-79.78280946790672,40.45892408048536,340.5083016967773,0.0130500486120581,0.0126142473891377,-0.9824389219284058,0.1856996268033981,-0.1432895496682477,-0.0310246795273844,3.0417837541861275,0.0736107230186462,-0.013252024538815,0.0427543297410011,-0.1748598146438598,-0.3239335544407368,-10.159740679264068,15005.0
44.31,4.0,194.0,23.151670455932607,30.34396934509277,-79.78280923949633,40.45892410929105,341.12310119628904,0.0114848250523209,0.0143978828564286,-0.9820624589920044,0.1876542717218399,-0.1335298113528557,-0.0472939745789933,3.0896954432201933,0.0943404585123062,0.0673943534493446,-0.0116787431761622,-0.2220491290278733,-0.3167219275608659,-10.091003150939944,15006.0
44.4,4.0,192.0,23.288143157958984,28.38783264160156,-79.7828090548364,40.45892410634231,341.4245538330078,0.0115213291719555,0.012732065282762,-0.9820010662078856,0.1880934983491897,-0.1388794622560721,-0.0363030004673899,3.076168015360414,-0.0105738472193479,0.0775003507733345,-0.0553011633455753,-0.1259516655374318,-0.2520968008227646,-10.032043336629869,15006.0
44.61,4.0,191.0,23.26936149597168,27.91867828369141,-79.78280897718138,40.45892408754387,341.73265167236326,0.0123165966942906,0.0113511336967349,-0.9820000529289246,0.1881367564201355,-0.1395623810008438,-0.0149296003427455,3.0731052033908366,0.0169546827673912,-0.0062255100347101,-0.022264277562499,-0.2447070165909827,-0.322944753728807,-9.741839007139207,15006.0
44.7,4.0,190.0,23.31694030761719,28.181087493896484,-79.78280885055669,40.45892402872342,342.3329553222656,0.0157231613993644,0.010707177221775,-0.9821465611457824,0.1871534883975982,-0.1281681714665943,0.010235483204479,2.990539355225012,0.0150266001001,-0.0281552001833915,-0.0842146351933479,-0.1166208706609904,-0.2687662807479501,-9.589640076756476,15007.0
44.91,4.0,190.0,23.21928024291992,29.6760196685791,-79.78280867486805,40.45892393336809,342.9341973876953,0.0182870589196682,0.0087400339543819,-0.9821717739105223,0.1868899017572403,-0.1269577285995401,0.0287330289163276,2.954339145314361,0.0375878177583217,0.0775850042700767,-0.1049548014998436,-0.1185722692497074,-0.166389720775187,-9.572870262265203,15007.0
45.0,4.0,192.0,23.338224411010746,26.686153411865234,-79.78280863563391,40.45892388368586,343.2290887451172,0.0193693488836288,0.0087851453572511,-0.9821208119392396,0.1870467513799668,-0.1251495209257369,0.0330723217781148,2.9431212306703296,-0.008198881521821,-0.0287960823625326,0.0257027763873338,-0.1567574197053909,-0.3094447022303939,-9.66039197087288,15008.0
45.2,4.0,192.0,23.254337310791016,28.1015682220459,-79.78280855620045,40.45892366106673,343.8094873046875,0.0217906385660171,0.0106762191280722,-0.982057809829712,0.1870128214359283,-0.09682143216753,0.0449512360498321,2.89779647217795,-0.0291871167719364,-0.0763180181384086,-0.0173750631511211,-0.1628625706583261,-0.4723010967671871,-9.67267346262932,15008.0
45.3,3.900000095367432,192.0,23.32570457458496,27.84711265563965,-79.78280856884996,40.45892358577124,344.0995111083984,0.0202784854918718,0.0100903315469622,-0.9820870757102966,0.1870616525411605,-0.0842346137372961,0.0402572257715924,2.897219324590115,-0.0358650013804435,0.0673944652080535,-0.0042940001003444,-0.1669968444854021,-0.2543573161214589,-9.648971773982046,15009.0
45.51,3.900000095367432,193.0,23.139148712158203,30.272403717041016,-79.78280865414322,40.458923293204975,344.3731851196289,0.0180805511772632,0.0094671370461583,-0.9820911884307858,0.1872977614402771,-0.033024438712453,0.0599452705449078,2.8762501056329954,-0.0268829930573701,0.0389128997921943,0.0389781147241592,-0.1143125086929649,-0.2492777667939663,-9.87672959446907,15009.0
45.6,3.900000095367432,194.0,23.2568416595459,28.523012161254893,-79.78280879589899,40.45892306801391,344.9549722290039,0.0146991787478327,0.007629819214344,-0.9819467067718506,0.1884319186210633,0.0044828934732818,0.0643304541810942,2.94279268626059,-0.0559696890413761,-0.0057795331813395,-0.0641631409525871,-0.0398064463119953,-0.0939627638272941,-10.08243931889534,15009.0
45.8,3.900000095367432,195.0,23.27061462402344,28.06976127624512,-79.7828087293844,40.45892295859686,345.2258004760742,0.0139058614149689,0.0083251111209392,-0.9818947315216064,0.188732624053955,-0.0006772546106054,0.0656757178872993,2.908499453852881,-0.0870701968669891,-0.0987864583730697,-0.0806709453463554,-0.2144279960542916,-0.3486884728074074,-9.840499076843262,15010.0
45.9,3.900000095367432,195.0,23.380794525146484,26.050010681152344,-79.78280874574006,40.4589228176366,345.7970666503906,0.0126104149967432,0.0088328961282968,-0.981827676296234,0.1891493499279022,-0.0040154791977137,0.0546543251040579,2.8703234495428487,0.0175020433962345,-0.0101922890171408,0.1333202123641967,-0.1360293873958289,-0.4548407261073589,-9.747263469099998,15010.0
46.1,3.900000095367432,195.0,23.32445335388184,27.3063907623291,-79.78280882878128,40.45892261841545,346.36556335449217,0.0140530308708548,0.0080110905691981,-0.9817882776260376,0.189288780093193,-0.0033056035003684,0.0608999094710463,2.8223483343011853,0.053430113941431,0.0219764485955238,0.0421554148197174,-0.0108630029205232,-0.3462755827233195,-9.584583404660226,15011.0
46.3,3.900000095367432,195.0,23.27812767028809,28.196990966796875,-79.78280866678476,40.45892272930328,346.6667947387695,0.0154787339270114,0.0073597109876573,-0.9818748831748962,0.1887536793947219,-0.0345658744662133,0.0421418342158849,2.82719040081554,0.1044604331254959,0.031751811504364,0.0803236439824104,-0.0487569254916161,-0.3205836115032434,-9.75520106434822,15011.0
46.4,3.900000095367432,196.0,23.310680389404297,27.48928260803223,-79.78280864461583,40.458922562515305,347.2472543334961,0.0152517864480614,0.0067792795598506,-0.9820977449417114,0.1876312345266342,-0.0458339306790571,0.0597210286200477,2.834612764481521,-0.0193309616297483,-0.0007381976465694,0.0721206218004226,-0.0521076906938105,-0.4923006939142943,-9.714239564538005,15012.0
46.5,3.900000095367432,196.0,23.095327377319336,31.60034942626953,-79.78280866635555,40.45892248362589,347.5295114135742,0.013944094069302,0.0066310134716331,-0.9822027087211608,0.1871886104345321,-0.0468332329093089,0.0525378792679212,2.814831734361648,-0.089171290397644,0.0703139081597328,-0.0686268284916877,-0.1506161987408995,-0.065682623097673,-9.640719598531724,15012.0
46.71,3.900000095367432,197.0,23.260597229003903,28.363977432250977,-79.78280858946972,40.45892231772629,348.11048217773435,0.0145975388586521,0.0054284273646771,-0.9823301434516908,0.1865072697401046,-0.0264036740045262,0.0526468823790141,2.8396822762718954,0.0360954105854034,0.0188476741313934,0.1504372060298919,-0.1409810288809239,-0.3511255922913551,-9.804134073257448,15013.0
46.8,3.900000095367432,197.0,23.21051597595215,28.98421669006348,-79.78280862102145,40.45892224166617,348.39444061279295,0.0153168840333819,0.0050317924469709,-0.9823697209358216,0.1862524002790451,-0.0314638451811709,0.0532477050936223,2.841250960141415,-0.00166244385764,-0.0110365394502878,-0.0170681700110435,-0.0632553159724921,-0.3054937751591206,-9.787404019832614,15013.0
47.01,4.0,198.0,23.18297004699707,29.15915489196777,-79.78280860535722,40.458922169120285,348.9823083496093,0.0149160288274288,0.0060364087112247,-0.9823355078697203,0.1864350438117981,-0.028937777583331,0.0367645026401684,2.854643874114095,0.0738668739795684,-0.0163260269910097,0.0446869321167469,0.0365783538669347,-0.329532848149538,-9.757993109822271,15013.0
47.2,3.900000095367432,198.0,23.125375747680664,30.66204071044922,-79.78280864997677,40.45892210746758,349.26773162841795,0.0151967955753207,0.0062525584362447,-0.9822120666503906,0.1870547086000442,-0.0207787551549644,0.0296776611425966,2.8555300426183035,0.0870541855692863,0.0243677645921707,-0.0100531177595257,-0.0389859312074259,-0.2435879691503942,-9.873090287446978,15014.0
47.3,3.900000095367432,198.0,23.11661148071289,31.00396728515625,-79.78280852658602,40.45892209117504,349.5705575561523,0.015169539488852,0.0061512580141425,-0.9820945262908936,0.1876762360334396,-0.03668653774098,0.0273354473207941,2.8993876490583728,0.0142854182049632,-0.0207037553191185,-0.1443533450365066,-0.0144159995578229,-0.1850397440046072,-9.983357080221175,15014.0
