time,wind_speed,wind_angle,battery_voltage,battery_current,position_x,position_y,position_z,orientation_x,orientation_y,orientation_z,orientation_w,velocity_x,velocity_y,velocity_z,angular_x,angular_y,angular_z,linear_acceleration_x,linear_acceleration_y,linear_acceleration_z,node_ids
0.0,3.799999952316284,195.0,24.07568359375,0.0397588685154914,-79.78280327079342,40.45904533393916,267.7182214810848,-0.0047505777329206,-0.0014304328942671,-0.8296118974685669,0.5583184957504272,0.0014005000521529,-0.0025111397983646,0.0077645301075907,-0.0004592364421114,0.0041024782694876,0.0042495294474065,-0.0266013822751119,0.0939117103256285,-9.807292739152908,14932.0
0.1,3.900000095367432,197.0,24.08444786071777,0.0318070948123931,-79.78280331775619,40.459045361272565,267.7136414005756,-0.0047498391941189,-0.0014369837008416,-0.8296116590499878,0.5583188533782959,-0.0016090620898189,-0.0067099299997282,0.0082510287471655,-0.0009431524667888,-0.0023331264965236,-0.0014522245619446,-0.0298276474652811,0.0931175670772791,-9.807835360765456,14932.0
0.21,3.700000047683716,195.0,24.07192611694336,0.0318070948123931,-79.7828033308065,40.4590453686228,267.7153110458851,-0.004749596118927,-0.0014370391145348,-0.8296135663986206,0.5583159923553467,-0.0019738003895745,-0.0065645806971423,0.0084772242959429,-0.0020824992097914,0.0001732714590616,0.003593893488869,-0.0282742524007335,0.0923055806849152,-9.806400454044342,14932.0
0.4,3.5999999046325684,200.0,24.08194351196289,0.0318070948123931,-79.7828033385435,40.45904537948599,267.70863532567023,-0.0047535221092402,-0.0014330744743347,-0.8296130895614624,0.5583166480064392,-0.0028564030376944,-0.0014576186765069,0.0049804826771178,4.892342622042634e-05,-0.001389168552123,-0.0019348916830495,-0.0280631382227875,0.0923119486682117,-9.80494566679001,14932.0
0.5,4.300000190734863,199.0,24.06942367553711,0.0318070948123931,-79.7828033927433,40.45904536867594,267.70452647948264,-0.0047440333291888,-0.00143086258322,-0.8296148180961609,0.5583141446113586,0.0042738853932598,-0.0035582618004317,0.0066810600003649,0.0005212087417021,-0.0003345824079588,-0.0013090595602989,-0.0295669827028177,0.0911896030325442,-9.807490375041963,14932.0
0.7,4.900000095367432,206.0,24.08194351196289,0.0318070948123931,-79.78280339852144,40.45904536640487,267.7052060320377,-0.0047440333291888,-0.00143086258322,-0.8296148180961609,0.5583141446113586,0.0040939813118725,-0.0034899442643799,0.0067554792626695,-0.0007567612919956,0.003601212054491,0.0018631810089573,-0.0284731239709071,0.0892210282478481,-9.808351669907571,14932.0
0.8,4.900000095367432,205.0,24.083194732666016,0.0318070948123931,-79.78280345018403,40.45904535895405,267.70055073046683,-0.0047394447028636,-0.0014296398730948,-0.829615592956543,0.5583130121231079,0.007230382543616,-0.004384209041312,0.0075803291173295,0.0022313476074486,-0.0008335054153576,-0.0008205974590964,-0.0287346429750323,0.0935844672471284,-9.80594787955284,14932.0
1.0,4.699999809265137,212.0,24.07443046569824,0.1431319266557693,-79.78280345792876,40.45904535470184,267.7013138189316,-0.0047395401634275,-0.0014297170564532,-0.8296167850494385,0.5583112239837646,0.0068431544076808,-0.0040973499477572,0.0075764348164305,-0.001031890627928,-0.0016561488155275,0.0031791275832802,-0.0276437923614867,0.0917220833804458,-9.807339516878129,14932.0
1.11,4.5,213.0,24.06817054748535,0.1272283792495727,-79.78280348685188,40.45904537892775,267.69441690588,-0.0047454112209379,-0.0014344783267006,-0.829616367816925,0.5583119988441467,0.0005158704614119,-0.0042749018086726,0.0041308733282196,-0.001539729302749,0.0055421534925699,0.0028467385563999,-0.026517954384908,0.0932449541520327,-9.804993029236794,14932.0
1.3,4.199999809265137,212.0,24.07317924499512,0.1272283792495727,-79.78280349150394,40.45904538018353,267.69483756566046,-0.0047452850267291,-0.0014340600464493,-0.8296164870262146,0.5583117604255676,2.0140972206556627e-05,-0.0042579927598767,0.0042433474112839,-0.001171272364445,-0.0005859544617123,0.0005806752014905,-0.0303022221056744,0.0924190623499453,-9.806767659187315,14932.0
1.41,4.0,218.0,24.07943916320801,0.0795177370309829,-79.78280354435026,40.45904540818244,267.68984919333457,-0.0047444240190088,-0.0014402066590264,-0.8296174407005309,0.558310329914093,-0.0025798491011821,-0.0081271491663337,0.0063207721481031,0.0024589137174189,0.0002031668554991,0.0057192496024072,-0.0273623448587022,0.0913609904050827,-9.8052099609375,14932.0
1.6,3.5999999046325684,220.0,24.063161849975582,0.1272283792495727,-79.78280356260285,40.45904538712588,267.6839783742428,-0.0047420496121048,-0.0014314551372081,-0.8296174407005309,0.5583103895187378,0.0027746354227361,-0.0026836752632209,0.0075530369974705,-0.0004684510640799,-0.0001576510549057,-0.0049876747652888,-0.0266373883327469,0.0947827261872589,-9.806146684885023,14932.0
1.71,3.5999999046325684,225.0,24.078187942504893,0.1192766055464744,-79.78280357071685,40.45904538451725,267.68548488163947,-0.0047412477433681,-0.0014309752732515,-0.8296188712120056,0.5583082437515259,0.0025054076000159,-0.002633470759396,0.0073934773276037,0.0010457582538947,-0.0017601696308702,-0.0004618735401891,-0.0280798598891124,0.0900429549068212,-9.807282214164736,14932.0
1.91,3.5,224.0,24.07568359375,0.1192766055464744,-79.78280358685599,40.45904538140292,267.67964517617224,-0.0047419047914445,-0.0014309044927358,-0.8296186923980713,0.558308482170105,0.0018902281403099,-0.0021058177120194,0.0076491794564632,0.0007680419366806,-0.0017928088782355,-0.002695421455428,-0.0285611771000549,0.0928618518915027,-9.805735040903093,14932.0
2.11,3.299999952316284,225.0,24.07192611694336,0.1113248318433761,-79.7828036199568,40.45904537263192,267.6727529718876,-0.0047391587868332,-0.0014329216210171,-0.8296191692352295,0.5583077669143677,0.0023014661579556,-0.0045789019914179,0.0046867920174778,-0.0008553935913369,-0.0004426813684403,-0.0031318014953285,-0.0283459607348777,0.0947391096130013,-9.806649545431137,14932.0
2.2,2.5,217.0,24.076934814453125,0.1351801604032516,-79.78280362582701,40.45904537222243,267.6732243552208,-0.0047391587868332,-0.0014329216210171,-0.8296191692352295,0.5583077669143677,0.0022852040403826,-0.0043793704468662,0.0046359323159024,0.0052226749248802,0.003468187758699,0.0032516787759959,-0.0293687757966108,0.0891918287146836,-9.807289815545085,14932.0
2.31,2.299999952316284,217.0,24.07317924499512,0.1669872552156448,-79.78280366250294,40.45904536388287,267.66572492861746,-0.0047361874021589,-0.0014339336194097,-0.8296197056770325,0.5583069920539856,0.0030897901535573,-0.0064952048177015,0.0022455405686102,0.0025479202158749,0.0017112046480178,0.002747852820903,-0.0279904020577669,0.0945627612434327,-9.805082491636275,14932.0
2.51,2.5,215.0,24.07568359375,0.1272283792495727,-79.78280367089523,40.4590453638418,267.66595828080176,-0.0047361808829009,-0.0014335135929286,-0.8296213746070862,0.558304488658905,0.0027185331645107,-0.006572469752485,0.0023071961755688,-0.0010589659214019,-0.0026938642840832,-0.0027557527646422,-0.0282213876326568,0.096305240644142,-9.80595314204693,14932.0
2.61,2.5,210.0,24.07192611694336,0.1113248318433761,-79.78280368208544,40.459045330655606,267.65796105110644,-0.0047356314025819,-0.0014271734980866,-0.8296210169792175,0.558305025100708,0.0052861387966826,-0.0022817017649791,0.0007797503948504,-0.003870045999065,-0.0029936716891825,-0.0008726735250093,-0.0278078227490186,0.0915622625313699,-9.807716077566146,14932.0
2.8,2.5,211.0,24.064414978027344,0.1351801604032516,-79.78280368685165,40.45904532691547,267.65804503405093,-0.0047356379218399,-0.0014270758256316,-0.8296226263046265,0.5583025813102722,0.0053689531862863,-0.002285497143588,0.0008017082180605,0.0019054625881835,0.001739275176078,0.0013592769391834,-0.0295071081281639,0.0897627362329512,-9.807625445723534,14932.0
2.91,2.5,207.0,24.07317924499512,0.1192766055464744,-79.78280369177321,40.459045311348255,267.65235319280623,-0.0047374740242958,-0.0014265035279095,-0.8296241164207458,0.5583004951477051,0.0030106747668276,-0.0013116679653648,0.0039350780777811,0.0020702907349914,0.0016954009188339,-0.0014704508939757,-0.0303363506589084,0.0915935999527573,-9.806120957136155,14932.0
3.1,2.5999999046325684,203.0,24.070674896240234,0.1033730581402778,-79.78280367310461,40.45904529189703,267.6443323894739,-0.0047418307512998,-0.0014237520517781,-0.829623818397522,0.5583008527755737,0.0006538634941796,0.0026299293751847,0.00218000399693,-0.0028887907974421,-0.0020223625469952,-0.0002225095813628,-0.0290029981965199,0.0912759316898882,-9.807977448105811,14932.0
3.3,2.5999999046325684,198.0,24.07568359375,0.1113248318433761,-79.7828036677242,40.459045289319135,267.6447524830104,-0.00474159931764,-0.0014238640433177,-0.8296242356300354,0.558300256729126,0.0004782770289078,0.0027404517937616,0.0021013132233196,-0.0007236299570649,0.0023902836255729,0.003512660972774,-0.0281866812100634,0.0919884605985134,-9.806791632771493,14932.0
3.41,2.700000047683716,201.0,24.06566619873047,0.1431319266557693,-79.78280368989974,40.45904526524365,267.63845644438265,-0.0047369259409606,-0.0014265591744333,-0.8296241164207458,0.5583004951477051,0.0016755454386827,-0.0016356093737981,0.0043674043766324,-0.0028447606600821,2.9362941859290004e-05,-0.0051151630468666,-0.028089708792977,0.0936559220496565,-9.805714575648306,14932.0
3.5,2.5,200.0,24.07192611694336,0.1113248318433761,-79.7828037071056,40.45904525158081,267.6326957299709,-0.0047364113852381,-0.0014326403615996,-0.8296248912811279,0.5582992434501648,-0.0013651306963806,-0.0064412262299676,0.0062083000816496,-0.0026758876629173,-0.0028398444410413,-0.0007756616687402,-0.0291376783023588,0.0904795865993946,-9.806532601118088,14932.0
3.7,2.5999999046325684,205.0,24.07443046569824,0.0715659633278846,-79.782803713382,40.45904525488066,267.63331266784667,-0.0047364113852381,-0.0014326403615996,-0.8296248912811279,0.5582992434501648,-0.0012980949421449,-0.006306257764553,0.0062041852463613,0.0012283897958695,0.0065445592626929,0.0026232628151774,-0.0295582781173288,0.0905393652431666,-9.808416574001312,14932.0
3.8,2.400000095367432,209.0,24.076934814453125,0.0636141896247863,-79.78280370817865,40.45904522056411,267.6274844362736,-0.0047361943870782,-0.0014278973685577,-0.8296259045600891,0.5582977533340454,-0.0004550011459092,-0.0034040866639391,0.0071188378526089,0.000820719404146,0.0031535334419459,-0.0010329898213967,-0.0283824053336866,0.0940863319393247,-9.806180014014243,14932.0
4.0,2.200000047683716,210.0,24.078187942504893,0.0318070948123931,-79.78280371157773,40.459045222355904,267.62820204639445,-0.0047361841425299,-0.0014280104078352,-0.8296273350715637,0.5582958459854126,-0.0007897023885867,-0.0034248338884222,0.0072474143003231,0.0004089011927135,0.0008932318305596,-0.0025787728372961,-0.0293210524669848,0.0914358164928853,-9.807212047576904,14932.0
4.11,2.0,212.0,24.08069038391113,0.0318070948123931,-79.78280370265314,40.45904518726406,267.62263676071166,-0.0047360751777887,-0.0014255816349759,-0.8296270966529846,0.5582960247993469,-0.0006255863749466,-0.0021749825971018,0.0075574951844693,-0.0022147982381284,0.0005952726351097,0.0022916623856872,-0.0279235016880556,0.0927773413527757,-9.806288187503815,14932.0
4.31,1.8999999761581416,213.0,24.08069038391113,0.0318070948123931,-79.78280370469666,40.45904518851775,267.6233938887119,-0.004735835827887,-0.001425337861292,-0.8296278119087219,0.558294951915741,-0.0006861339770121,-0.0022064260877036,0.0076383572168453,-0.0019795342814177,-0.0030955639667809,-0.0033043513540178,-0.02811357045779,0.0928698644042015,-9.806785200834277,14932.0
4.4,1.8999999761581416,213.0,24.08194351196289,0.0397588685154914,-79.78280369383077,40.45904512907519,267.61785283231734,-0.0047326060011982,-0.001418646541424,-0.8296286463737488,0.5582937002182007,0.0034304457337444,0.0005129560236015,0.0081417126025922,0.0023602358996868,7.450702833011745e-05,-0.0027146190404891,-0.0283906097081489,0.0909211427439004,-9.806269476413728,14932.0
4.6,1.7999999523162842,214.0,24.08069038391113,0.055662415921688,-79.7828036782215,40.45904508772093,267.6111707046032,-0.0047331410460174,-0.0014179877471178,-0.8296284675598145,0.5582939982414246,0.0025929490187004,0.0007985534384776,0.0082020658438657,-0.0001214945223182,0.0006425564642995,0.0047442386858165,-0.0287881632708013,0.0907331547606736,-9.807384540438653,14932.0
4.71,1.7999999523162842,213.0,24.07443046569824,0.055662415921688,-79.78280367846007,40.45904508325541,267.6128317519426,-0.0047329543158411,-0.0014182332670316,-0.8296294212341309,0.5582928061485289,0.0024008779563441,0.000851017340854,0.008249472299174,0.0025035524740815,0.0002728253602981,0.0009050022345036,-0.0277673399168998,0.0938828762434423,-9.80623322367668,14932.0
4.9,1.7999999523162842,213.0,24.076934814453125,0.055662415921688,-79.7828036635282,40.45904502081876,267.6058838024139,-0.0047302613966166,-0.0014133014483377,-0.8296290636062622,0.5582931041717529,0.0055049237077351,0.0023499258663446,0.008416672101096,0.0001844354555942,-0.0017365273088216,-0.0016846789512783,-0.0303465695818886,0.0915369002334773,-9.807722509503368,14932.0
5.0,1.7000000476837158,214.0,24.08069038391113,0.055662415921688,-79.78280366634158,40.45904499352388,267.5985042258501,-0.004731229506433,-0.0014199214056134,-0.82962965965271,0.5582922697067261,0.0001539907423476,-0.0022568891246287,0.0056638984427272,-7.433223072439432e-05,0.0018895678222179,0.0042881788685917,-0.0283003296121023,0.0932158368453383,-9.806764150857925,14932.0
5.2,1.7000000476837158,214.0,24.076934814453125,0.0397588685154914,-79.7828036688215,40.45904499418457,267.59906836891173,-0.004731229506433,-0.0014199214056134,-0.82962965965271,0.5582922697067261,7.230733046115911e-05,-0.002241265586039,0.0056202827396639,-0.0003942139446735,-0.0040242564864456,-0.0007120991358533,-0.0273327821586281,0.0931704021524638,-9.805926829576492,14932.0
5.3,1.7000000476837158,214.0,24.078187942504893,0.0397588685154914,-79.78280363341153,40.459044929782,267.5926698102951,-0.0047318739816546,-0.0014116078382357,-0.8296308517456055,0.5582904815673828,0.002224280074568,0.0036680691383098,0.0066011594276616,0.0001031470601446,-0.0015738236252218,-0.0039169918745756,-0.0285724398423917,0.0916145768389105,-9.80776636362076,14932.0
5.51,1.7000000476837158,211.0,24.08194351196289,0.0397588685154914,-79.78280363030724,40.45904492668432,267.5933221235275,-0.0047316108830273,-0.0014116305392235,-0.8296325206756592,0.558288037776947,0.0022709351628992,0.0037830553668174,0.0064606053265104,-0.0006862807786092,-0.0002176554698962,-0.000809243065305,-0.0286578480200842,0.0906173616182059,-9.807192751765252,14932.0
5.6,1.7000000476837158,214.0,24.08069038391113,0.0318070948123931,-79.78280360903294,40.4590448536248,267.58952219331263,-0.0047281240113079,-0.0014074258506298,-0.8296328186988831,0.5582876205444336,0.0057410816382773,0.0044243687216523,0.0113950072789186,0.000970896508079,0.0017417462076991,0.0030651472043246,-0.0276104084146209,0.0938114123046398,-9.806887527108191,14932.0
5.81,1.600000023841858,214.0,24.078187942504893,0.0318070948123931,-79.78280358735104,40.45904482036354,267.58531730914115,-0.0047311461530625,-0.0014127528993412,-0.8296339511871338,0.5582858920097351,-0.0001763222990043,0.0016193109391494,0.0142368827448035,0.0004915178287774,-0.0006571888807229,-0.0027339647058397,-0.0299267349299043,0.0910774735361337,-9.80838499903679,14932.0
6.0,1.600000023841858,215.0,24.078187942504893,0.0318070948123931,-79.7828035854003,40.45904482010522,267.58673853719245,-0.0047312416136264,-0.0014129891060292,-0.8296354413032532,0.5582836866378784,-0.0002517704608802,0.0016470365967268,0.0142876734855101,0.0022399816662073,0.0032408928964287,0.0005415611085481,-0.0290840940526686,0.0899821347277611,-9.80733542382717,14932.0
6.11,1.600000023841858,211.0,24.078187942504893,0.0238553211092948,-79.78280356664665,40.459044774282496,267.57970906341075,-0.0047303382307291,-0.0014116255333647,-0.8296350240707397,0.5582842826843262,-0.0001886366566879,0.0014319411053396,0.0125143889038421,-0.0041755447164177,0.0006865559262223,0.0002945653686765,-0.0279569678613916,0.0940499238856136,-9.805354387164115,14932.0
6.2,1.600000023841858,210.0,24.076934814453125,0.0397588685154914,-79.78280356288639,40.45904477365513,267.582195232749,-0.0047298301942646,-0.0014111916534602,-0.8296359777450562,0.5582829117774963,-0.0004295012343781,0.0016365316198973,0.0123797622553975,-0.0028115329332649,-0.0018571985419839,0.0026554220821708,-0.0281820217100903,0.091178182689473,-9.806112186312676,14932.0
6.4,1.5,212.0,24.07192611694336,0.0477106422185897,-79.78280354013216,40.45904470881632,267.57504720532893,-0.0047263880260288,-0.0014060583198443,-0.8296356201171875,0.5582835078239441,0.0035770380373679,0.0028486038228518,0.0108306755678672,0.0016873467247933,0.0003869236679747,-0.0014602454612031,-0.0281070403056219,0.0935811416432261,-9.806116864085196,14932.0
6.61,1.5,214.0,24.08194351196289,0.0397588685154914,-79.78280351679709,40.45904466950875,267.56909459376334,-0.0047288201749324,-0.0014100025873631,-0.8296367526054382,0.5582817792892456,-0.001401533463271,0.0007110806696949,0.0099528693506034,-0.0001515940530225,0.0006619726191274,-0.0022236942313611,-0.0284637958346866,0.0930593690089881,-9.806143761277198,14932.0
6.7,1.5,215.0,24.07943916320801,0.0477106422185897,-79.78280351533823,40.45904467042461,267.57008102083205,-0.0047288201749324,-0.0014100025873631,-0.8296367526054382,0.5582817792892456,-0.0012896725035708,0.0007593879439514,0.0098043431535482,0.0022426997311413,0.0001383835333399,0.0017087173182517,-0.0282010868308134,0.091512003885582,-9.80549179673195,14932.0
6.8,1.600000023841858,213.0,24.07192611694336,0.0397588685154914,-79.78280348708729,40.4590445953586,267.5665377780199,-0.0047244448214769,-0.0014033468905836,-0.8296377658843994,0.558280348777771,0.0031400423865334,0.0027159563006673,0.0129972736106623,0.0002564101014286,-0.0020027633290737,-0.0010007786331698,-0.0269662097026594,0.0911893837619572,-9.807723094224931,14932.0
7.01,1.7000000476837158,213.0,24.083194732666016,0.0318070948123931,-79.78280348540744,40.45904459183458,267.5678413763046,-0.0047243535518646,-0.0014035796048119,-0.8296387791633606,0.5582787990570068,0.0032748032533947,0.0027942807568941,0.0130247459499395,0.0024126432836055,0.001930498983711,0.0016543018864467,-0.0293602402321994,0.0907080939598381,-9.807923069000244,14932.0
7.11,1.600000023841858,214.0,24.07192611694336,0.0238553211092948,-79.78280348349708,40.45904455397052,267.56301760220526,-0.0047231777571141,-0.0014079317916184,-0.8296383619308472,0.5582793951034546,0.000754388946129,-0.0015192816108686,0.0116968158011365,0.0031895404681563,0.0013863726053386,0.0001256566029042,-0.0287924093543551,0.0924653558526188,-9.805998750329016,14932.0
7.31,1.600000023841858,219.0,24.078187942504893,0.0238553211092948,-79.78280348535543,40.459044553992655,267.564185868144,-0.0047226343303918,-0.0014076010556891,-0.8296391367912292,0.5582784414291382,0.0005636727840778,-0.0014129193208426,0.0116332092287472,-0.0003420129651203,0.0033542546443641,0.0016949630808085,-0.028266806337051,0.0907591383252292,-9.807172871232034,14932.0
7.4,1.5,221.0,24.06942367553711,0.0238553211092948,-79.782803460168,40.4590444988978,267.55948927545546,-0.0047227866016328,-0.0014053062768653,-0.8296397924423218,0.5582773685455322,0.0007964459265865,-0.0003032007483395,0.0104456758718459,0.0025518001057207,0.0004387098597362,0.0006213248125277,-0.0277379942033439,0.0946641373448074,-9.805459052324297,14932.0
7.6,1.399999976158142,224.0,24.08194351196289,0.0636141896247863,-79.78280343628133,40.45904442690679,267.55398709619044,-0.0047199898399412,-0.001399336149916,-0.8296395540237427,0.5582777261734009,0.0043178800273125,0.0018085874623125,0.0097715312942315,-0.0012415823293849,-0.0014997568214312,-0.0026086177676916,-0.0279995725932531,0.0938170128408819,-9.806471790075303,14932.0
7.7,1.399999976158142,225.0,24.07943916320801,0.0477106422185897,-79.78280343594085,40.459044418392295,267.5559185847044,-0.00471958424896,-0.0013991539599373,-0.829640805721283,0.5582758784294128,0.004213659638682,0.0019879363796015,0.009571078885518,-0.0019131115404888,0.0007140664383769,0.0024950422812253,-0.0282968669640831,0.0909151858929544,-9.805977115631103,14932.0
7.91,1.399999976158142,229.0,24.06817054748535,0.0397588685154914,-79.78280344338131,40.45904436328939,267.54808635556697,-0.0047153183259069,-0.0014026015996932,-0.8296399116516113,0.5582771897315979,0.0045878510851557,-0.0034368411559593,0.003920135394774,-0.0004546398995444,-0.0013188039883971,-0.0021164077334105,-0.0283832321665249,0.0930016642995178,-9.805050331950188,14932.0
8.1,1.7000000476837158,225.0,24.07192611694336,0.0477106422185897,-79.78280342548781,40.45904430176483,267.5445555999279,-0.0047165602445602,-0.001400580513291,-0.8296412229537964,0.5582752227783203,0.0035755338819938,-0.002086751699648,0.00526513533798,-0.0012232969747856,0.0027388641610741,-0.0018838106188923,-0.029053083253093,0.0911426882632076,-9.80690389931202,14932.0
8.2,1.7999999523162842,223.0,24.08194351196289,0.0397588685154914,-79.78280342929939,40.45904429955255,267.5450788542032,-0.0047165602445602,-0.001400580513291,-0.8296412229537964,0.5582752227783203,0.0035281754876564,-0.0020186507400109,0.0051275768190716,0.000589249888435,0.0014499220997095,0.0023881904780864,-0.0283342640195041,0.0900740547850728,-9.806519737243653,14932.0
8.3,1.7999999523162842,222.0,24.078187942504893,0.0397588685154914,-79.7828034327287,40.459044256130255,267.5422359212637,-0.0047162384726107,-0.0014044621493667,-0.8296417593955994,0.5582744479179382,0.0005857698346056,-0.0058249059859505,0.006602367651031,0.0010665411828085,0.0036188943777233,0.0026579536497592,-0.0272538424632512,0.0941705135721713,-9.806243163943291,14932.0
8.5,2.0,220.0,24.06942367553711,0.0397588685154914,-79.78280343925877,40.45904425780228,267.5428982927799,-0.0047160973772406,-0.001404587063007,-0.8296434879302979,0.5582718849182129,0.0003337953139711,-0.0057672685248641,0.0065828299796691,-0.0028155460022389,-0.000861995620653,-0.0028811495285481,-0.0270633602770976,0.0948461136594414,-9.8048129349947,14932.0
8.6,1.8999999761581416,223.0,24.07443046569824,0.0318070948123931,-79.78280342233012,40.45904419717011,267.540754373312,-0.0047167628072202,-0.0014002157840877,-0.8296435475349426,0.5582717657089233,0.0006958088768604,-0.0029364808184997,0.0075153839505963,-0.0014980008127167,0.0021297710482031,0.0009484766051173,-0.0287858038279227,0.0912494547665119,-9.80727870583534,14932.0
8.8,2.0999999046325684,223.0,24.078187942504893,0.0238553211092948,-79.78280342573588,40.45904419754759,267.5414997442961,-0.0047167581506073,-0.0014005698030814,-0.8296455144882202,0.5582689046859741,0.0009146086869634,-0.0027166222610345,0.0073587868480604,-0.0007678595138713,-0.0004270964709576,-0.0005365484976209,-0.0272202483820728,0.0919621024467051,-9.806272400021554,14932.0
8.9,2.200000047683716,221.0,24.078187942504893,0.0238553211092948,-79.78280338754031,40.45904411313629,267.5397841736078,-0.0047173290513455,-0.0013911693822592,-0.8296475410461426,0.5582659244537354,0.003334597229546,0.004055208391636,0.0079353687383001,0.0018600430339574,-0.0008114701486192,-0.0019985423423349,-0.0275856079976074,0.0921874669287353,-9.80663434267044,14932.0
9.11,2.299999952316284,222.0,24.07943916320801,0.0238553211092948,-79.78280337925764,40.45904405808975,267.5376482262611,-0.0047165644355118,-0.0013910777634009,-0.8296474814414978,0.5582659840583801,0.0027610891135822,0.0031729823243531,0.0083243932552997,-0.0001254801172763,0.0003448216011747,0.007050238084048,-0.0292854255647398,0.0903493124619126,-9.8069261187315,14932.0
9.3,2.299999952316284,226.0,24.07943916320801,0.0318070948123931,-79.78280337437404,40.45904405144604,267.5392982765436,-0.0047163548879325,-0.0013912565773352,-0.8296493887901306,0.5582631826400757,0.0026117647226321,0.0034207625665979,0.0082001544100604,0.0006073537515476,-0.0004290104843676,0.0036126596387475,-0.0283588702906854,0.0889361043926328,-9.807614336013792,14932.0
9.4,2.400000095367432,223.0,24.07317924499512,0.0238553211092948,-79.78280337303255,40.45904399566329,267.5377031519413,-0.0047153974883258,-0.001391522004269,-0.8296493291854858,0.5582632422447205,0.0020747497124257,0.0021774863365155,0.00876883426487,-0.0001355605199933,-0.0009880252182483,-0.0017759270267561,-0.0270008384669199,0.0954339781031012,-9.805777725577355,14932.0
9.5,2.5999999046325684,220.0,24.078187942504893,0.0397588685154914,-79.78280339778641,40.45904392239451,267.5373613491058,-0.0047065406106412,-0.0013900212943553,-0.8296504020690918,0.5582617521286011,0.0078885463429575,-0.001289216103256,0.0091349808360435,-0.0017424224643036,-0.0009293450275436,-0.0005183212924748,-0.0281313953292556,0.093136259894818,-9.8078868162632,14932.0
9.71,2.400000095367432,220.0,24.08194351196289,0.0477106422185897,-79.78280340261551,40.459043916163296,267.5382700591683,-0.0047065406106412,-0.0013900212943553,-0.8296504020690918,0.5582617521286011,0.0080741678064272,-0.0011355631821382,0.0089277769322077,-0.0014701014151796,0.0001899164635688,0.0006496483110822,-0.0280125232622958,0.0908138189278543,-9.807182811498643,14932.0
9.81,2.5,225.0,24.06817054748535,0.0715659633278846,-79.78280340506697,40.459043840550585,267.5382335513234,-0.0047056963667273,-0.001386109739542,-0.8296514749526978,0.5582601428031921,0.0091004268168982,0.0009081401624029,0.0091167870116641,0.0011327778920531,0.0028929994441568,-0.0013446205994114,-0.0298372565419413,0.0923959110304713,-9.806623817682269,14932.0
10.0,2.400000095367432,227.0,24.076934814453125,0.0477106422185897,-79.78280340795871,40.45904383278153,267.5391511275768,-0.0047059101052582,-0.001386204152368,-0.8296524286270142,0.5582587122917175,0.008951572976297,0.0010334158773903,0.0090933741178935,0.0006881786976009,-0.0014478265075013,0.0019160794327035,-0.0298583750403486,0.0913475600816309,-9.806610369086265,14932.0
10.1,2.299999952316284,229.0,24.044382095336918,0.5168653130531311,-79.7828034316103,40.45904379106307,267.5394853010177,-0.0047157816588878,-0.0013979910872876,-0.8297027945518494,0.5581837892532349,0.0052804768225175,-0.0025950642809784,0.0091144751752402,-0.0014014696935191,-0.0017394190654158,0.0128174005076289,-0.0270822769333608,0.092122243065387,-9.806429690122604,14932.0
10.31,2.299999952316284,226.0,24.05565071105957,0.3339745104312897,-79.78280343710983,40.45904378832797,267.540407712698,-0.0046974141150712,-0.0013934891903772,-0.8296312689781189,0.5582902431488037,0.0048432888564781,-0.002878969769894,0.009406310270066,-0.0032434503082185,0.0021243256051093,-0.0129572665318846,-0.0351363756693899,0.0891174137592315,-9.80739974319935,14932.0
10.4,2.299999952316284,226.0,24.040626525878903,0.3180709481239319,-79.78280344645046,40.459043732737534,267.54121462547783,-0.0046962983906269,-0.0013895138399675,-0.8296481370925903,0.5582652091979979,0.0028351256944138,-0.0014719039720143,0.0091611088212239,0.0028164009563624,-0.0053742700256407,-0.0100757144391536,-0.0309904690808616,0.0995311952009797,-9.80473750591278,14932.0
10.6,2.400000095367432,225.0,24.05189323425293,0.3339745104312897,-79.78280347408372,40.459043681315634,267.54148116254805,-0.004680604673922,-0.0013997670030221,-0.8296587467193604,0.5582495927810669,0.0048157576803406,-0.0046794589299279,0.0093173385854471,0.0054372977465391,0.0026666275225579,0.0113694434985518,-0.0280252637970261,0.0938457281515002,-9.802234897613523,14932.0
10.7,2.400000095367432,221.0,24.04813766479492,0.3419262766838074,-79.78280348845867,40.45904367735026,267.5433763965368,-0.004683812148869,-0.0013960615033283,-0.8296638131141663,0.5582420825958252,0.0052396039726379,-0.0056299806713595,0.0095140629468755,-0.0014826625119894,0.0013801695313304,0.0118868565186858,-0.0318559437920339,0.0846921861357987,-9.809404168725017,14932.0
10.9,2.5999999046325684,213.0,24.04939079284668,0.3816851377487183,-79.78280349433871,40.45904362865434,267.54411179864405,-0.0046808430925011,-0.0013903499348089,-0.8296216130256653,0.5583047866821289,0.0024233392912303,-0.0026591572000996,0.00960044778022,-0.0017038923688232,-0.0029430673457682,-0.009543677791953,-0.0325831158645451,0.0929058795981109,-9.80368968486786,14932.0
11.01,2.400000095367432,211.0,24.04939079284668,0.4373475611209869,-79.78280351259937,40.459043566761714,267.54608661973475,-0.0046588475815951,-0.0013874552678316,-0.8296232819557191,0.5583024024963379,0.0056044977875191,-0.0002078554040616,0.0098236687962204,-0.0045663472265005,-0.0016010302351787,-0.0051728170365095,-0.0229264255100861,0.1001122257113456,-9.808357517123223,14932.0
11.21,2.299999952316284,208.0,24.04187774658203,0.5168653130531311,-79.78280351561793,40.45904356223031,267.5470630034208,-0.0046492032706737,-0.0013778185239061,-0.8296524882316589,0.5582590699195862,0.0060878352699427,-0.0005360479098268,0.0097533002047169,0.0033713679295033,0.0007624756544828,0.0043295989744365,-0.029837270246353,0.0974488646630198,-9.808085621595383,14932.0
11.3,2.299999952316284,209.0,23.39206314086914,6.04334831237793,-79.78280355417154,40.45904353165248,267.5493459060192,-0.0045237164013087,-0.0011662169126793,-0.8297597765922546,0.5581012964248657,0.0022917302378499,-0.0006950161584508,0.0108133435970391,-0.02960198931396,-0.0603252425789833,0.0038735275156795,-0.0476472610048949,0.0866758449096232,-9.819001203775406,14932.0
11.5,2.299999952316284,211.0,24.03937339782715,0.3419262766838074,-79.78280356034884,40.45904353189753,267.5503018006086,-0.0045363907702267,-0.0011406772537156,-0.8297477960586548,0.5581189393997192,0.0020774739635661,-0.005240015764792,0.0088844526168701,-0.0081323748454451,-0.0054180352017283,-0.0102788927033543,-0.0259292699606157,0.0593692655861377,-9.806627326011656,14932.0
11.6,2.400000095367432,209.0,24.0468864440918,0.3101191818714142,-79.78280357702486,40.45904348681111,267.5530640437603,-0.0046099042519927,-0.0012069564545527,-0.8297274112701416,0.5581484436988831,0.0029567912344829,-0.0015655066516701,0.0104078320270947,0.0340302027761936,0.0010220084805041,-0.0297321416437625,-0.0160283007519319,0.0894165719300508,-9.810369544029236,14932.0
11.8,2.5,208.0,23.98553466796875,0.8031291365623474,-79.78280358068817,40.459043484418174,267.554102609992,-0.0045008645392954,-0.0010429585818201,-0.8297629952430725,0.5580968856811523,0.0044152904611414,-0.0016099117354587,0.0103191171478092,0.0290845222771167,0.0183005891740322,-0.0208780616521835,-0.0004223454144084,0.0932502075098455,-9.790380252599718,14932.0
11.9,2.400000095367432,210.0,24.040626525878903,0.326022744178772,-79.78280363351166,40.459043468770304,267.5537985816002,-0.0046088388189673,-0.0010845817159861,-0.8297377228736877,0.5581335425376892,0.0004287615865595,-0.0061249348543521,0.0051935433986202,0.0071437926962971,-0.0187702160328626,0.0073475884273648,-0.0515154910879209,0.1236037435010075,-9.80992866396904,14932.0
12.1,2.5,211.0,24.033113479614247,0.5645759701728821,-79.78280365708072,40.459043417929735,267.5550668939352,-0.0046260729432106,-0.0011898758821189,-0.8297370076179504,0.5581341981887817,0.0022336213608391,-0.003615919769947,0.0062843643201406,5.917832822888158e-05,-0.0056910514831542,-0.0047393823042511,-0.0171831018605735,0.0929608251526952,-9.814073170423509,14932.0
12.2,2.400000095367432,212.0,23.78645896911621,3.013722419738768,-79.7828036665798,40.45904341530413,267.55638160848616,-0.0046554678119719,-0.0012776294024661,-0.8297150135040283,0.5581664443016052,0.0015698634123494,-0.0024686836528863,0.0060601968651754,-0.0139463720843195,-0.0180147215723991,0.006457520648837,-0.0265399545338004,0.1346812204644084,-9.80901357471943,14932.0
12.4,2.400000095367432,216.0,23.628700256347656,4.946003437042236,-79.78280371185427,40.45904337631272,267.55851506733893,-0.0046315905638039,-0.001229882473126,-0.8297223448753357,0.5581558346748352,0.0047191793555617,-0.0034369213527988,0.0084550527956972,-0.016968622803688,-0.018665449693799,0.0101266168057918,-0.0718002724740654,0.0727605862822383,-9.781338118314745,14932.0
12.5,2.5,217.0,23.54606628417969,6.345515727996826,-79.78280373980411,40.45904334938518,267.5610857262611,-0.0045704822987318,-0.0009633893496356,-0.8298005461692809,0.5580406188964844,0.002720490556061,-0.003475704923952,0.0110735148573611,0.0395162478089332,0.0095699690282344,0.024401793256402,-0.0498955793771892,0.071091119418852,-9.785553960800172,14932.0
12.7,2.5999999046325684,221.0,23.363265991210927,8.516349792480469,-79.78280374430192,40.45904335008245,267.5620338722468,-0.0044024274684488,-0.0007999562658369,-0.8298222422599792,0.558009922504425,0.0021411987706556,-0.0061473612778757,0.0072867728528912,0.0341189764440059,0.0145101966336369,-0.0911936163902282,-0.0191025063581764,0.0154577815253287,-9.820206899642946,14932.0
12.8,2.5999999046325684,218.0,23.23680877685547,9.939717292785645,-79.78280376071649,40.45904329176416,267.56577653729914,-0.0036981727462261,-0.0002392263413639,-0.8299000263214111,0.5578999519348145,0.0108040253297323,0.0004815699232774,0.0119294133759702,0.0720228776335716,-0.0006117137381806,-0.0233900435268878,0.0178635270427912,0.2395076541602612,-9.849205580949784,14932.0
13.01,2.5999999046325684,217.0,23.00893592834473,12.730790138244627,-79.782803764208,40.4590432838538,267.5670879288912,-0.0030327243730425,0.000373997609131,-0.8300044536590576,0.5577484369277954,0.0098234052570314,0.0015312181314292,0.0145739739169161,0.0375114679336547,-0.0447876825928688,0.0686998814344406,-0.0547217249963432,0.0041714341958868,-9.855759140253069,14932.0
13.1,2.5,216.0,22.90251159667969,14.551746368408203,-79.78280380129009,40.4590432688224,267.567761819005,-0.0011624709004536,0.0014620190486311,-0.8301778435707092,0.557495653629303,0.0001948053549064,0.0035366397700077,0.0134506823908609,-0.0410242602229118,-0.0131046529859304,-0.0574643388390541,0.0666118872771039,-0.1325063486024737,-9.86079125404358,14932.0
13.3,2.5999999046325684,216.0,22.63958168029785,17.668842315673828,-79.78280383096971,40.45904321747162,267.5704427614212,0.0001090214282157,0.0017808977281674,-0.8301587700843811,0.5575242042541504,0.0007808809688688,-0.0013920857029777,0.015932858444092,0.0264501255005598,-0.0057722190394997,0.0210809409618377,0.009983193394728,-0.0587132308306172,-9.873637586832048,14932.0
13.41,2.5999999046325684,213.0,22.493091583251957,19.17172622680664,-79.78280382936184,40.45904321677919,267.5745255305767,0.0010137404315173,0.0005646367790177,-0.8299173712730408,0.5578851103782654,-0.0012197084087649,0.0061306082609618,0.0251645394528049,-0.0035702197346836,0.0293279252946376,-0.0387313105165958,-0.0140685310517437,-0.0913081096485257,-9.799166863560677,14932.0
13.6,2.5999999046325684,210.0,22.2426815032959,22.614845275878903,-79.78280389008995,40.45904320538494,267.5763821109533,0.0017970680491998,0.0001946035336004,-0.8294283747673035,0.5586102604866028,0.0106564591637188,-0.007024939484697,0.0187313169321463,0.1101782843470573,0.0334564596414566,-0.0402931794524192,-0.0171596867311745,0.1261127654649317,-9.82005253314972,14932.0
13.7,2.5999999046325684,208.0,22.1062068939209,24.28471755981445,-79.78280388018048,40.459043237705394,267.5874872460365,-0.0017959036631509,-0.003833549330011,-0.8297759294509888,0.5580806136131287,-0.0352192766183263,0.0099343580075456,0.1027982811445451,-0.0095670744776725,-0.0734055042266845,-0.0543874278664588,0.0066613347938982,-0.235070384927094,-10.02808827996254,14932.0
13.91,2.5999999046325684,206.0,22.272729873657227,21.350513458251957,-79.78280392237666,40.45904313697137,267.5921909763813,-0.0044095260091125,0.0013885167427361,-0.8297528028488159,0.5581120848655701,-0.0360350613955904,0.041679241810735,0.1955074358733993,0.0422476977109909,-0.2081338912248611,-0.0462814830243587,0.3413887356966734,-0.062423654613085,-10.77597405910492,14932.0
14.0,2.5,202.0,22.26772117614746,21.45388603210449,-79.7828038947202,40.45904330122846,267.6386831655502,-0.0089812902733683,0.003725103335455,-0.8290419578552246,0.5591018199920654,-0.0995329119142499,0.0517652261629553,0.2972624297045487,-0.1036311313509941,0.1748770475387573,-0.0228866748511791,0.0331323155947029,-0.2160116413235664,-10.640213406085971,14932.0
14.2,2.299999952316284,200.0,22.233917236328125,21.469789505004886,-79.78280376642299,40.45904336188492,267.66897263669966,-0.0046946150250732,-0.0011885832063853,-0.8287708759307861,0.5595672130584717,-0.0986207366436361,0.0794959703760241,0.3138765819989385,0.0912542343139648,0.1655227541923523,0.0163530576974153,0.1530346710886806,0.0026127689285203,-9.997240709066393,14932.0
14.3,2.299999952316284,200.0,22.297771453857425,20.96087646484375,-79.78280318708411,40.45904344414202,267.70657386922835,0.008121914230287,-0.0096595268696546,-0.8278123736381531,0.560863196849823,-0.1295909355939089,0.103646115570881,0.2220186056600412,0.0913421809673309,0.0454140752553939,-0.0479050017893314,0.0010607854183763,-0.1614881460741162,-9.752462813258171,14932.0
14.5,2.299999952316284,200.0,22.123735427856445,22.630748748779297,-79.78280302202313,40.45904351642059,267.7274936392307,0.0133118778467178,-0.0070868865586817,-0.8277270197868347,0.5609284043312073,-0.1298404042959824,0.1005560747393469,0.1921291162345246,0.100752055644989,0.0191720947623252,-0.0132755255326628,0.1262360138073563,-0.1177968279551714,-9.503328741788865,14932.0
14.6,2.299999952316284,206.0,22.02357292175293,24.658451080322266,-79.78280283556592,40.45904376066225,267.7569863452911,0.0138611560687422,-0.0056808637455105,-0.8279351592063904,0.5606238842010498,-0.1673617275202691,0.0691304324911381,0.1398542928738025,-0.1364692002534866,-0.0569895803928375,0.0438447557389736,0.109608122203499,-0.4029307900741697,-9.474667444825172,14932.0
14.8,2.299999952316284,207.0,22.03734397888184,23.950742721557607,-79.78280269129046,40.45904387340606,267.77230119252204,0.005980612244457,-0.0028265672735869,-0.8278555274009705,0.5609025359153748,-0.1702471788108267,0.0700482042819768,0.1598857928434593,-0.1565947830677032,-0.1491504907608032,0.015729259699583,0.1417821887880563,-0.2036192900128662,-9.890147784948349,14932.0
15.0,2.299999952316284,207.0,21.94344139099121,24.674354553222656,-79.78280253149673,40.4590442500755,267.8330615415573,0.0111441761255264,0.0073948195204138,-0.8282419443130493,0.5602111220359802,-0.1820965193256164,0.043410428807378,0.2230703417388725,0.116895206272602,-0.0345466695725917,-0.0013618363300338,0.0119578209612518,-0.205685842204839,-10.018064982891085,14932.0
15.1,2.0999999046325684,208.0,21.99352264404297,24.141586303710927,-79.78280242808266,40.4590444742471,267.8479965581894,0.0166407991200685,0.0094604818150401,-0.8286040425300598,0.5595079064369202,-0.185800496711032,0.0374193040439743,0.2389857043643871,0.0777537301182746,0.0960469990968704,0.057928342372179,0.010931652886793,-0.2912791208177805,-9.9898662006855,14932.0
15.2,2.5999999046325684,208.0,21.9497013092041,23.99845314025879,-79.7828021739063,40.45904472770816,267.8998727455139,0.0165333654731512,0.0034221406094729,-0.8297014832496643,0.5579519867897034,-0.1718567723891589,0.0552644770956432,0.2660444389048416,-0.1306725591421127,0.0603929832577705,0.0823872685432434,0.0746332164807245,-0.3240344554558396,-9.971646276712418,14932.0
15.4,2.5,213.0,21.9497013092041,23.227130889892567,-79.78280200029664,40.459044718371736,267.9254687681198,0.0146321700885891,-0.0007785266498103,-0.8303881883621216,0.5569927096366882,-0.1530302275305421,0.0595204527688862,0.2883687684892029,-0.0108778113499283,0.1075466722249984,-0.0187765061855316,0.1160453036427498,-0.0351411311002448,-10.131751227378846,14932.0
15.5,2.5999999046325684,211.0,21.962221145629886,24.006404876708984,-79.78280181297684,40.45904489794867,267.9953981294632,0.0123823629692196,-0.0039126425981521,-0.8301018476486206,0.5574607253074646,-0.1612200998371544,0.0443407552597824,0.3320518733317806,0.0560509897768497,0.0303334165364503,-0.1437540650367736,0.1499811088945716,-0.1177984816208482,-10.059821119308474,14932.0
15.71,2.799999952316284,217.0,21.9209041595459,24.300621032714844,-79.78280170344519,40.459045012698326,268.02960320854186,0.0109553905203938,-0.0001480743812862,-0.8295769095420837,0.558285117149353,-0.1594043445233931,0.0398369158220986,0.3453051669771826,0.0110189625993371,-0.0697853788733482,-0.0072256503626704,0.1085350393597036,-0.2393726382963359,-9.907790004014972,14933.0
15.8,2.799999952316284,213.0,21.932172775268555,23.86327362060547,-79.7828015618025,40.45904540038447,268.09172525548934,0.0106639545410871,0.0053720846772193,-0.828891932964325,0.5592814087867737,-0.1942230753449993,0.0225386586876523,0.3495764799385568,-0.0947756022214889,0.0323568247258663,0.0474495962262153,0.1765095517225563,-0.1656499200873077,-9.923624264001845,14933.0
16.0,2.799999952316284,215.0,21.86205673217773,25.40591812133789,-79.78280145887436,40.45904554175207,268.12189581537245,0.0127696637064218,0.0049577527679502,-0.8291114568710327,0.5589156150817871,-0.1733146685715522,0.0263876737577216,0.2267350038959353,0.0828191041946411,0.0712728202342987,-0.0177164338529109,0.0512868147064,-0.1502533333282917,-8.792002093791963,14933.0
16.1,2.900000095367432,219.0,21.59537124633789,28.79337310791016,-79.7828013050162,40.45904573635915,268.16919335269927,0.0204774904996156,0.0066130538471043,-0.8302266001701355,0.5570105314254761,-0.1580443564285283,0.0401116250641639,0.1613328384313715,0.0470049157738685,-0.0478979982435703,-0.0835649594664573,0.0988540328107774,-0.2095774383097887,-9.008179503679276,14933.0
16.3,3.0,226.0,21.522750854492188,29.77144241333008,-79.78280119952592,40.45904584645498,268.1895951285362,0.0177893638610839,0.0066656190901994,-0.8313643336296082,0.5554030537605286,-0.1503154937807307,0.0387586998968599,0.239497367964915,-0.1152277365326881,-0.0482361651957035,0.1435997188091278,0.0048298366740345,-0.4056798950582743,-10.314127053022387,14933.0
16.4,3.0,227.0,21.37876510620117,30.93239974975586,-79.782800968517,40.459046018520425,268.29229160690306,0.0162945240736007,0.0042553846724331,-0.8337758779525757,0.5518462061882019,-0.1412170186653437,0.0512457273029899,0.5472149736136068,0.0090786190703511,0.0123743833974003,-0.0237744208425283,0.1761595593206584,-0.2064941101334989,-10.79264680981636,14933.0
16.6,2.900000095367432,232.0,20.99563789367676,36.45888519287109,-79.78280075699884,40.45904611751512,268.35164954805373,0.0183087196201086,0.002632665913552,-0.8343747854232788,0.5508870482444763,-0.1495723524885821,0.0347642932227741,0.6808982470426963,-0.0020831746514886,-0.0129715539515018,-0.0564433224499225,0.2161857969872653,-0.2276749179325998,-11.364010995626453,14933.0
16.71,3.0999999046325684,232.0,21.23728370666504,32.75335693359375,-79.78280059010022,40.45904629921269,268.5320210113525,0.0190067365765571,0.000941514794249,-0.834489107131958,0.5506958365440369,-0.1431003151436936,0.0459613394083433,1.1228172163585683,0.0235063303261995,-0.0704865753650665,0.0239277146756649,0.158783333748579,-0.2829156107269228,-11.819811980724335,14933.0
16.9,2.700000047683716,242.0,21.069509506225582,35.2025032043457,-79.78280049854006,40.45904628664628,268.65700706386565,0.0176065955311059,0.0022745002061128,-0.8340703845024109,0.5513723492622375,-0.141327565555184,0.0527570800161791,1.3346060608594077,-0.0055534280836582,0.0110475597903132,0.0459423325955867,0.1801012770272791,-0.3308546112477779,-11.976914970874784,14933.0
17.11,2.700000047683716,233.0,20.9555721282959,36.11695861816406,-79.78280033576644,40.45904636047487,268.97731014633183,0.0184059292078018,0.0045413305051624,-0.8332701921463013,0.5525408983230591,-0.125787255157144,0.0602941940871672,1.7940019722470166,0.029156869277358,-0.023395674303174,-0.0548043772578239,0.2692314632982016,-0.2024920199252665,-12.128808091878891,14933.0
17.2,2.5,232.0,20.83287239074707,37.26201248168945,-79.78280026656347,40.459046398269614,269.169424618721,0.0197682734578847,0.004244290292263,-0.8329136967658997,0.5530335307121277,-0.127387319422138,0.0652320347491739,2.039550886335073,0.0459559299051761,-0.050485786050558,0.0736279636621475,0.1910078873857856,-0.3693368185311556,-12.2656446325779,14934.0
17.3,2.5,230.0,20.933034896850582,36.49069213867188,-79.78280011235466,40.459046372783135,269.6247138633728,0.0180878229439258,0.0047764335758984,-0.8321054577827454,0.5543018579483032,-0.1083959832278233,0.0949384167627648,2.490288054710504,0.0469573810696601,-0.0472711436450481,-0.0683442950248718,0.216519910544157,-0.4636580714955926,-12.193320422172544,14934.0
17.5,2.700000047683716,224.0,21.25731658935547,30.59047508239746,-79.78280004455083,40.45904636359463,269.8851549282074,0.0155913308262825,0.0096407076343894,-0.832485556602478,0.5537433624267578,-0.1004503145597031,0.0963393019331838,2.709143135374914,0.0473099201917648,-0.1363131254911422,-0.0536604076623916,0.278932067155838,-0.1542533678747713,-12.025498316287994,14934.0
17.6,2.700000047683716,217.0,21.23102378845215,32.41143035888672,-79.7827998754337,40.45904625150129,270.45945831680297,0.0116336774080991,0.0164986215531826,-0.8338865041732788,0.5515667796134949,-0.0984792044900799,0.0565573495404772,2.981688253291164,-0.0626223087310791,0.0389247573912143,0.0995829105377197,0.0790518888272345,-0.3117617345228791,-11.539806364774703,14935.0
17.81,2.799999952316284,207.0,21.495206832885746,27.74374008178711,-79.7827997818764,40.45904619579017,270.76344677352904,0.0111190723255276,0.01371431350708,-0.8337407112121582,0.5518738627433777,-0.0899224899341805,0.0587193724710921,3.09291907782818,-0.0900845900177955,0.1283221393823623,-0.0029283312615007,-0.0229040667624212,-0.1432336595747619,-10.92811861038208,14935.0
17.9,2.700000047683716,203.0,21.48268699645996,27.83916091918945,-79.78279945911265,40.459045993929045,271.4167012825012,0.0125807905569672,0.0101985530927777,-0.8318097591400146,0.5548245310783386,-0.0636774627645225,0.1255851451644302,3.190441416784016,-0.0008958206162787,0.0089337602257728,-0.1079253256320953,0.0738439337303862,-0.3491979845613241,-10.584496457576751,14936.0
18.1,2.900000095367432,204.0,21.52901268005371,27.15530776977539,-79.78279930039865,40.45904585702543,271.7409190788269,0.0104648098349571,0.011348558589816,-0.83111172914505,0.5558911561965942,-0.0654421975903332,0.149919449581268,3.1924127372870563,0.0024517672136425,-0.0441348291933536,-0.0435479953885078,0.2546299060061574,-0.3276024264469743,-9.9743570458889,14936.0
18.2,2.900000095367432,202.0,21.44512367248535,28.20494270324707,-79.78279896355653,40.45904568592476,272.3750447883606,0.0081373723223805,0.0164696741849184,-0.8313130736351013,0.5555007457733154,-0.0655933197762147,0.1505761136658736,3.1722792282536285,0.0734931305050849,0.019335625693202,-0.1096712723374366,0.1311525171808898,-0.3031298189610243,-9.785151672363284,14937.0
18.4,3.0999999046325684,200.0,21.511484146118164,26.82928466796875,-79.78279876022583,40.45904561528014,272.7113437309265,0.0104975663125514,0.015887401998043,-0.8315988183021545,0.5550503730773926,-0.0850279262848,0.1490688735060528,3.168256583798817,0.0127459382638335,0.0475121699273586,0.034072071313858,0.0341060323175042,-0.3706830668449402,-9.71779876470566,14937.0
18.5,3.0999999046325684,199.0,21.47642517089844,27.425668716430664,-79.78279824673405,40.459045364994175,273.35103842163085,0.0190398097038269,0.0070647215470671,-0.8325847387313843,0.5535253286361694,-0.0939980944655787,0.2085924058491965,3.0902504111844413,0.0424511507153511,0.1213618442416191,-0.040151510387659,0.1180690706614405,-0.3591373009979725,-9.65005175471306,14938.0
18.7,3.400000095367432,204.0,21.38627815246582,28.56277275085449,-79.78279801729711,40.45904527193112,273.6583151473999,0.021356975659728,0.0028226526919752,-0.8334122896194458,0.5522317290306091,-0.0980823849847702,0.2457536634984834,3.0508990195103465,-0.0053740148432552,0.1043148338794708,0.0514022819697856,0.1203385121002793,-0.3085868791490793,-9.435718556642534,14938.0
18.81,3.5,206.0,21.312406539916992,29.62035751342773,-79.78279757659571,40.459044784205325,274.1943897857666,0.0202339924871921,-0.0018725831760093,-0.83443683385849,0.5507289171218872,-0.0631157107387148,0.2704687612932328,2.950892040944021,-0.1210338473320007,-0.0006061273161321,0.0397843047976493,0.0933783437591046,-0.3347566044330597,-9.591579013466836,14939.0
19.0,3.5999999046325684,206.0,21.342456817626957,29.16710662841797,-79.78279739165252,40.45904468272668,274.48975941085814,0.0182582698762416,-0.0019416932482272,-0.8346462249755859,0.5504804253578186,-0.0527164133088521,0.2568409864697432,2.945822970072543,0.0173036251217126,-0.005040771793574,-0.1240097880363464,0.0759431435354054,-0.2242024940997362,-9.755368879437446,14939.0
19.11,3.5999999046325684,205.0,21.28360939025879,29.93842887878418,-79.78279695246408,40.45904468501345,275.0697593345642,0.0175586268305778,0.000662610749714,-0.8347299695014954,0.5503790378570557,-0.0641722792454038,0.2039001654823693,2.904013968414255,0.0644608959555625,-0.0255480166524648,-0.0405619814991951,0.0045785343088209,-0.3216921705007553,-9.719262907505035,14940.0
19.3,3.5,206.0,21.351221084594727,27.7039794921875,-79.78279680623261,40.459044621612094,275.3603472366333,0.0184052232652902,0.000793382525444,-0.8346002101898193,0.5505481362342834,-0.0711867950968108,0.1900242639160678,2.8977983961145566,-0.0124666392803192,0.0103990463539958,0.0087369624525308,0.1077118336223066,-0.3210735350847244,-9.774124408364298,14940.0
19.4,3.5999999046325684,208.0,21.35372543334961,28.22084617614746,-79.78279586575663,40.45904435683797,276.0638098373413,0.0205782856792211,-0.0015009484486654,-0.8347470760345459,0.5502470135688782,-0.0834771284464957,0.2139148125693721,2.896055701821532,0.0078977923840284,0.0309884939342737,-0.064480684697628,0.093290343163535,-0.3434301448613405,-9.577056868672374,14941.0
19.61,3.700000047683716,208.0,21.2134952545166,29.78734588623047,-79.78279544499155,40.4590439718313,276.45224710845946,0.0214688666164875,-0.0032464703544974,-0.8347508907318115,0.5501996278762817,-0.0502011567786303,0.2336139389740813,2.9296090812642284,-0.026440167799592,-0.0082899257540702,0.0741950720548629,0.1188465128000825,-0.3214504977688193,-9.713429725170135,14941.0
19.81,3.700000047683716,208.0,21.2134952545166,29.89071846008301,-79.78279519212714,40.45904379213943,277.03643461608885,0.0227859653532505,-0.0077234809286892,-0.8345221281051636,0.5504490733146667,-0.0310684442003736,0.2157417211766129,2.8996735438088668,-0.0524053983390331,0.0684293508529663,0.0350756347179412,0.1225203914847225,-0.1898236983083188,-9.619293061494828,14942.0
19.9,3.700000047683716,208.0,21.244796752929688,30.50300407409668,-79.78279467675138,40.45904361173298,277.41611906433104,0.0230149570852518,-0.009344283491373,-0.8344540596008301,0.5505174994468689,-0.0424843048369588,0.2358724121761149,2.932265547957236,0.0010969588765874,0.0677550137042999,-0.0968015864491462,0.100238927565515,-0.149999189581722,-9.626672832369804,14942.0
20.01,3.5999999046325684,209.0,21.281105041503903,28.57072448730469,-79.78279421880791,40.45904338953897,278.0737232818604,0.0194260589778423,-0.0103583559393882,-0.8343547582626343,0.550788164138794,-0.0315722285343255,0.2078724570510639,2.9798826933893143,-0.0340378135442733,-0.0710916891694068,-0.0667295977473259,0.1539560004137456,-0.3199643548205495,-9.822386741638184,14943.0
20.21,3.5,210.0,21.2385368347168,29.13529968261719,-79.78279415716625,40.45904333120028,278.3720011367799,0.0189137756824493,-0.0094063738361001,-0.8344759941101074,0.5506393909454346,-0.0276793536769873,0.1781225554694055,2.9756474239936943,0.0223300512880086,-0.0279414486140012,-0.081021673977375,0.2116586085408926,-0.2097806838713586,-9.82059866309166,14943.0
20.3,3.5,210.0,21.23728370666504,29.381805419921875,-79.78279412040952,40.45904328827918,278.66974588775645,0.0195394065231084,-0.0095142135396599,-0.8344742059707642,0.5506183505058289,-0.0382729895592626,0.1430088341178022,2.9713477964222967,-0.0265359282493591,0.0487835668027401,0.0873712375760078,0.0561941635329276,-0.2525516228377819,-9.710959861278532,14943.0
20.5,3.400000095367432,209.0,21.188453674316406,29.81915283203125,-79.7827938699063,40.45904306393461,279.31999250793456,0.0213271267712116,-0.0082419468089938,-0.8344473242759705,0.5506131649017334,-0.041163751610641,0.1327865406343428,2.99581420362124,0.0403601191937923,-0.0689595639705658,0.0396278649568557,0.1102085764333606,-0.3321043805032969,-9.841949186325074,14944.0
20.61,3.400000095367432,210.0,21.133363723754886,30.336017608642567,-79.78279375918069,40.45904274035922,279.9675497665405,0.0194447617977857,-0.0063659837469458,-0.8346040844917297,0.550470232963562,-0.0231540376822228,0.0964367714415257,3.0433633635041137,0.0224951095879077,0.0232841223478317,-0.0266383942216634,0.2186489000357688,-0.1890676350519061,-9.881100972890854,14944.0
20.81,3.400000095367432,210.0,21.322423934936523,27.505186080932607,-79.78279380176303,40.459042693949954,280.27235647583007,0.0178331993520259,-0.0061680045910179,-0.8349716663360596,0.5499693751335144,-0.0141167902823154,0.0774659843650722,3.0476492173192247,-0.0375817865133285,-0.0367028042674064,0.050162348896265,0.2160041130334139,-0.2643495498597622,-9.910406048297885,14945.0
21.0,3.400000095367432,210.0,21.26482963562012,28.62638664245605,-79.78279371806144,40.45904251002915,280.90787550354,0.0183053761720657,-0.0057528936304152,-0.8352330327033997,0.5495613813400269,-0.0127463904694716,0.0544815091856341,3.0131328042933165,0.0036595247220247,-0.0168300047516822,-0.0759091153740882,0.2114123676717281,-0.2114587068557739,-9.631623669862748,14945.0
21.11,3.400000095367432,211.0,21.15089225769043,29.827104568481445,-79.78279386701671,40.45904242464349,281.2440514221191,0.0183702204376459,-0.0064040413126349,-0.8350209593772888,0.5498742461204529,-0.0099259390992644,0.029508819923401,3.00598575805039,-0.0479448176920414,0.0176482424139976,0.0731728002429008,0.1252387346327305,-0.2638421211764216,-9.55624487400055,14946.0
21.2,3.299999952316284,208.0,21.229772567749023,29.055782318115234,-79.78279396701727,40.45904239570817,281.54343935394286,0.0172695871442556,-0.0070058717392385,-0.8348927497863771,0.5500971078872681,-0.0099710340279863,0.0215247513642463,2.9887557206505178,-0.0044419425539672,0.0312581323087215,-0.0624708943068981,0.1799692395888269,-0.1501406008377671,-9.679621708989144,14946.0
21.41,3.299999952316284,208.0,21.192211151123047,28.87289047241211,-79.78279411441245,40.459042295706574,282.17189260864257,0.0125938653945922,-0.0075408411212265,-0.8349945545196533,0.5500624775886536,0.0053777409529563,-0.0075450922888562,3.0010790039487896,-0.0003438662970438,-0.0124993585050106,-0.0639724284410476,0.1683081374131143,-0.208367941752076,-9.74028481721878,14947.0
21.5,3.299999952316284,209.0,21.165916442871094,29.04783058166504,-79.78279439195094,40.45904240966201,282.81209799194335,0.0105136893689632,-0.0077108591794967,-0.8348691463470459,0.5502941012382507,-0.0136284707981389,-0.0514934288440765,3.0507339945356424,0.0048475745134055,-0.0072853765450417,0.1370434314012527,0.235608072951436,-0.1766698385216295,-9.923257058858873,14947.0
21.7,3.2000000476837163,210.0,21.17968940734864,29.723730087280277,-79.78279453667996,40.45904244923957,283.1169333114624,0.0127369761466979,-0.0040974854491651,-0.8348566293716431,0.5503050088882446,-0.0279081451797852,-0.0581035423090249,3.0467247760328786,0.139612391591072,-0.0372534915804863,-0.0201722588390111,0.131403910908848,-0.1670523747615516,-9.726821603178976,14948.0
21.81,3.2000000476837163,209.0,21.15089225769043,29.09554100036621,-79.78279467913781,40.45904249499426,283.42091032409667,0.015605610795319,0.0013524495298042,-0.8349788784980774,0.5500590801239014,-0.0516786808763649,-0.0664900443813847,3.038785062392627,0.108116440474987,-0.0654282197356224,-0.0358970947563648,0.173167685251683,-0.2390383054688573,-9.836842228174213,14948.0
22.0,3.2000000476837163,210.0,21.282358169555664,27.632413864135746,-79.78279496749825,40.459042430471456,284.05533644104,0.0163740087300539,0.002731948159635,-0.8349822759628296,0.5500264167785645,-0.0844380029829398,-0.089039389172211,3.040641673097107,-0.0028701189439743,-0.0100120697170496,-0.0691466629505157,0.1405997630115598,-0.3235885687172413,-9.781408284902572,14949.0
22.1,3.2000000476837163,209.0,21.22100830078125,28.87289047241211,-79.78279512991348,40.459042470221576,284.3794197692871,0.0145259052515029,-0.0008359272615052,-0.8347423076629639,0.5504487156867981,-0.0702040660338986,-0.086976309047045,3.0389622519950734,-0.0766649469733238,0.0580212883651256,-0.0205917637795209,0.1635143159329891,-0.2201778190210461,-9.672779297232626,14949.0
22.3,3.0999999046325684,214.0,21.22476387023925,27.79940223693848,-79.78279542292736,40.459042531557046,284.98416563415526,0.012936339713633,-0.004219708032906,-0.8342775702476501,0.5511767268180847,-0.0377537858845831,-0.0658800988266867,3.0181625519187403,-0.0370913855731487,0.033037643879652,0.0426881611347198,0.1514366910047829,-0.2258554654195905,-9.78204095363617,14949.0
22.4,3.0999999046325684,212.0,21.21224403381348,28.10951995849609,-79.78279567437787,40.45904249774814,285.6035389556885,0.0145206395536661,-0.0022022807970643,-0.834926426410675,0.5501657128334045,-0.0363736101103568,-0.0688594347258058,3.0219685157458764,0.0773190781474113,-0.011558941565454,-0.0282721742987632,0.204975697863847,-0.2378430432267487,-9.754019342064858,14950.0
22.61,3.0,214.0,21.163414001464844,28.578676223754893,-79.78279587159767,40.45904244784773,285.91651960754393,0.0156765170395374,-0.0003587206592783,-0.8352025747299194,0.5497189164161682,-0.0337991647152307,-0.062402976280864,3.009570598588064,-0.0091953910887241,-0.0163015555590391,0.02852164208889,0.2133726649917662,-0.1974387647956609,-9.689936197400094,14950.0
22.7,3.0,215.0,21.18720245361328,28.51506042480469,-79.78279602086913,40.459042463747615,286.21676107788085,0.015435972250998,0.0008314762962982,-0.8355316519737244,0.5492247939109802,-0.0402525601064894,-0.0687479171883335,3.0023007580588086,0.0251978766173124,-0.0073595247231423,-0.0358333103358745,0.1761808285675943,-0.2709355612099171,-9.71968683063984,14951.0
22.9,3.0,219.0,21.05072784423828,29.55674362182617,-79.78279634298076,40.4590425069344,286.8263249053955,0.0135913975536823,0.0003854530514217,-0.835338294506073,0.5495681166648865,-0.0367114963134823,-0.0806284661497919,3.0082523259230936,-0.029693566262722,-0.0042553399689495,-0.0184644386172294,0.1974078841879964,-0.1684940240532159,-9.792218617200852,14951.0
23.01,3.0,219.0,21.174680709838867,28.936504364013672,-79.78279665305541,40.4590425086891,287.4367813720703,0.0100511871278285,-0.0011758239706978,-0.8346798419952393,0.5506426692008972,-0.0104644032760787,-0.0725170578415825,3.009696726887917,-0.0961386635899543,-0.0164653677493333,0.0503578670322895,0.1507983577810228,-0.1740594221837818,-9.742185162305832,14952.0
23.2,3.0,220.0,21.56782531738281,23.50544357299805,-79.78279679451326,40.45904250975888,287.736790145874,0.0083951652050018,-0.0014734781580045,-0.834705650806427,0.5506304502487183,-3.675493800090824e-05,-0.0701218699219769,2.9895403858469267,0.0081721367314457,-0.0162101853638887,0.0083658751100301,0.2128214370086788,-0.2103649668954313,-9.587918071746827,14952.0
23.3,3.0,221.0,21.490198135375977,24.04616355895996,-79.78279692496082,40.45904251047735,288.0324501647949,0.0079902522265911,-0.0017429273575544,-0.8348298668861389,0.5504474043846129,0.0098490187562953,-0.062229703235967,2.919265503812672,-0.0320833809673786,0.0032822994980961,0.0992162674665451,0.1693509152345359,-0.2148945307731628,-9.233029503822328,14953.0
23.5,2.900000095367432,217.0,21.684267044067383,21.056297302246094,-79.78279711068335,40.45904251241723,288.6067509307861,0.0081110605970025,-0.0031681703403592,-0.8350113034248352,0.5501639246940613,-0.0121777889843603,-0.0492384666118544,2.7105338604734133,0.0336126089096069,0.0401659123599529,-0.0852973535656929,0.2129821988940239,-0.0794262933544814,-8.691388469338419,14953.0
23.6,2.900000095367432,218.0,21.662981033325195,21.899185180664062,-79.7827972825186,40.4590424901706,288.8931965484619,0.0094219390302896,-0.003330506151542,-0.8350839018821716,0.5500319004058838,-0.0104129446441825,-0.0400063439358768,2.6103272258933004,0.0096847144886851,0.010764816775918,-0.0005144067108631,0.1954744292423128,-0.1114332574792206,-8.499571729302406,14953.0
23.81,2.900000095367432,218.0,21.7205753326416,21.38232040405273,-79.78279745500599,40.45904252789066,289.3849300994873,0.0145664000883698,-0.0008020822424441,-0.8351818323135376,0.5497804284095764,-0.0337358468716734,-0.0293860451516181,2.313463382599912,-0.0053571052849292,-0.0335627123713493,0.0202728696167469,0.1591363045759499,-0.2121239372715354,-8.335733916163445,14954.0
23.91,2.900000095367432,217.0,21.594118118286133,22.614845275878903,-79.78279759594103,40.459042520140535,289.83615156555175,0.016630494967103,0.0016013429267331,-0.8345888257026672,0.5506200790405273,-0.0577252297284868,-0.0406517098611846,2.0533917932492605,-0.0004928507260046,0.0299333352595567,-0.0784366875886917,0.1485001644864678,-0.2520155062526465,-8.289759013652803,14954.0
24.11,2.799999952316284,218.0,21.5452880859375,23.03628921508789,-79.78279765132348,40.4590424700568,290.0536350860596,0.0162034761160612,0.0002225998759968,-0.8341285586357117,0.5513321161270142,-0.0508892199237621,-0.034349103810206,1.9684855455277832,-0.0328324101865291,-0.0260530989617109,-0.0070580109022557,0.1553977958858013,-0.2660407838970423,-8.638658278584481,14955.0
24.2,2.799999952316284,219.0,21.52901268005371,22.511472702026367,-79.78279772838152,40.45904248428948,290.2457623138428,0.0155727285891771,-0.0012936741113662,-0.8338204622268677,0.5518146157264711,-0.0449121031420807,-0.0374990817242514,1.8767721565024087,-0.0099204843863844,0.0352426022291183,-0.0678155720233917,0.1353234640136361,-0.1410926284734159,-8.824334857463837,14955.0
24.4,2.700000047683716,217.0,21.61415100097656,22.392194747924805,-79.78279788982559,40.45904245823822,290.6275143280029,0.0165637303143739,-0.0050073382444679,-0.8336327075958252,0.5520480871200562,-0.0186857934900428,-0.0342643759776745,1.7465889190164552,-0.0279719233512878,0.0606245137751102,-0.0142218004912138,0.1016585127543658,-0.137533327806741,-8.916952414512632,14955.0
24.5,2.5999999046325684,216.0,21.562816619873047,22.050268173217773,-79.78279807877149,40.45904241199051,290.9963230743408,0.0192366410046815,-0.0054150433279573,-0.8338133692741394,0.5516846776008606,-0.0111122385368512,-0.0288850455645178,1.6267043317039669,-0.0294528733938932,-0.0103980293497443,0.0246861893683672,0.0638041959330439,-0.2348843703791499,-8.90517495274544,14955.0
24.7,2.5,215.0,21.56532096862793,23.068096160888672,-79.78279818451406,40.459042414926365,291.1550373687744,0.0187384150922298,-0.0036844927817583,-0.8337982892990112,0.5517388582229614,-0.0044748299638021,-0.0391684597471058,1.5555443644003446,0.0429259352385997,-0.0297315791249275,0.0061693526804447,0.2494604191929102,-0.1645092014037072,-9.100276073813438,14956.0
24.8,2.5,214.0,21.536523818969727,23.17146873474121,-79.7827982985804,40.45904241537242,291.3072476043701,0.0169936716556549,-0.0022659148089587,-0.8338910937309265,0.551662802696228,0.0022958886874563,-0.0493278740296218,1.4944283749536438,-0.0352826192975044,-0.0729932114481926,0.060299877077341,0.2020987946726382,-0.2413739026710391,-9.136375029087068,14956.0
25.01,2.400000095367432,215.0,21.566574096679688,23.13966178894043,-79.78279843833485,40.45904234656728,291.64975019836425,0.0130732832476496,-0.0034511045087128,-0.8346328139305115,0.5506408214569092,0.0121228075321037,-0.0571104737661931,1.4260174413775475,-0.0991446822881698,-0.0201342031359672,0.1284729987382888,0.1603467695787549,-0.3148248349875212,-9.192860301733017,14956.0
25.11,2.400000095367432,215.0,21.52525520324707,23.51339530944824,-79.78279849369555,40.45904229836599,291.8407921447754,0.0112695451825857,-0.0068698958493769,-0.8350158929824829,0.5500675439834595,0.0045447103344274,-0.05296877756882,1.4256222930179878,-0.1689839512109756,0.0484275594353675,0.0405980385839939,0.1389048379193991,-0.220906254183501,-9.159841659665108,14956.0
25.31,2.299999952316284,216.0,21.7844295501709,20.984731674194336,-79.78279869870785,40.45904231530936,292.10864302062987,0.0096666915342211,-0.010068716481328,-0.8348446488380432,0.5503087639808655,0.0127638702989196,-0.0525078144671665,1.1743362135118636,0.1143741160631179,-7.507597183575855e-05,-0.1628070920705795,0.2112358365766704,-0.1489273584075272,-8.053205226659776,14957.0
25.41,2.200000047683716,217.0,21.61164665222168,22.09798049926757,-79.78279886946866,40.459042349848005,292.34444662475585,0.0141363870352506,-0.0005485237343236,-0.8004987239837646,0.5991674661636353,-0.0517931504849402,-0.0699592744111303,0.7975847088775513,0.0421653538942337,-0.0843644216656684,-0.8412086963653564,0.1954233757406473,-0.2930250080488622,-7.5701053458452225,14957.0
25.61,2.0999999046325684,220.0,21.7456169128418,19.982807159423828,-79.78279900641995,40.459042418981646,292.38809629821776,0.0131174614652991,0.0010863427305594,-0.7688904404640198,0.6392452120780945,-0.0755310520772985,-0.0803716605767179,0.6837483884331172,0.0698082000017166,-0.0194102991372346,-1.1985859870910645,0.1300226249825209,-0.300311205200851,-8.449784442186356,14957.0
25.71,2.0999999046325684,223.0,21.684267044067383,21.024490356445312,-79.78279908901193,40.45904249838208,292.45151564025883,0.012362671084702,0.0010731954826042,-0.7305426001548767,0.682754397392273,-0.0839678242403983,-0.0754974460800904,0.5835540289330354,0.029627127572894,0.017316248267889,-1.2074735164642334,0.1600483240373432,-0.2540586147643626,-8.752163844108582,14957.0
25.9,2.0999999046325684,208.0,21.5352725982666,23.12375831604004,-79.78279924261288,40.45904269921297,292.4940132751465,0.0157099179923534,0.0024308688007295,-0.6525835394859314,0.7575500607490541,-0.0871420806337222,-0.0449011316966946,0.4312721684936612,0.0299341790378093,-0.0263506062328815,-0.9098619222640992,0.2653072324208915,-0.2461211108788848,-9.1278240609169,14957.0
26.0,2.0999999046325684,192.0,21.495206832885746,23.51339530944824,-79.78279935697647,40.45904292973361,292.50377699279784,0.0173883661627769,0.0015372599009424,-0.596518337726593,0.8024096488952637,-0.0645899338457528,-0.0070018431995824,0.3643594693843416,0.0565589144825935,0.0303819347172975,-0.4215432107448578,0.2722470734082162,-0.0463490146771073,-9.361018622517586,14957.0
26.2,2.200000047683716,197.0,21.619159698486328,21.77195739746093,-79.7827993781819,40.459042958932464,292.540127243042,0.0241625998169183,0.0042214496061205,-0.5792821049690247,0.8147580623626709,-0.0237555409604212,0.0082317896838444,0.3692818321179668,0.2492891401052475,0.0562336221337318,-0.290828138589859,0.3979104072600603,0.0380453791609034,-9.772471400499343,14957.0
26.31,2.200000047683716,200.0,21.40255546569824,25.14350891113281,-79.78279936434734,40.45904296190376,292.5762676849365,0.0325960516929626,0.0185993984341621,-0.5692094564437866,0.8213356137275696,0.0199175937951896,0.0505614206930947,0.3488793185969861,0.3661304712295532,-0.2140079587697982,-0.1202565878629684,0.8833265894651413,-0.1502073778677732,-9.652790590524674,14957.0
26.5,2.0999999046325684,190.0,21.477678298950195,23.5849609375,-79.78279897850278,40.45904291004708,292.61969801330565,-0.0039046837482601,0.0561452880501747,-0.5651077032089233,0.8230952024459839,0.0782003535525308,0.2002139043635812,0.3469898530431037,-0.1390881836414337,-0.6930114030838013,0.0491321198642253,0.4797332733124495,-0.3119188784435392,-9.654054173827172,14957.0
26.6,2.0999999046325684,167.0,21.47266960144043,23.82351493835449,-79.78279847641555,40.45904310571157,292.615997756958,-0.0339609794318676,0.0682441890239715,-0.5678263306617737,0.8196113109588623,0.1082562316959687,0.2974698149240621,0.3855060417028352,-0.1231561079621315,-0.5648761391639711,0.0575449801981449,0.3927650036662817,-0.2871606344729662,-9.860633379220962,14957.0
26.81,2.0999999046325684,170.0,21.26482963562012,26.29651641845703,-79.78279734344066,40.459043135060746,292.689146484375,-0.0726300701498985,0.0778792798519134,-0.5784095525741577,0.8087657690048218,0.1636591140344034,0.6105605100508198,0.490688174629541,-0.1491333097219467,-0.1988764703273772,0.1937773376703262,0.0796258295886218,-0.1338168101292103,-10.029181709289553,14957.0
27.0,2.0999999046325684,169.0,21.357481002807614,25.191219329833984,-79.78279579393251,40.45904364249304,292.64532133483885,-0.0816092565655708,0.0812206789851188,-0.5894197821617126,0.7995796203613281,0.1503148735503261,1.0127436313477107,0.5777189862734445,0.0311492923647165,-0.0645344331860542,0.0716883987188339,0.2544574496895075,-0.1363320447597652,-10.108383414745331,14957.0
27.11,2.200000047683716,153.0,21.377513885498047,25.14350891113281,-79.78279464892906,40.45904410002787,292.5739006652832,-0.0822948738932609,0.0844866037368774,-0.5931463837623596,0.7964088916778564,0.1140551581360993,1.2176707971016365,0.5814895939141482,0.0187959633767604,-0.0794422775506973,0.0724352747201919,0.1676279600523412,-0.2527678419090807,-10.066022676229476,14957.0
27.2,2.200000047683716,151.0,21.42008399963379,25.23892974853516,-79.78279297514608,40.4590443674531,292.60218283081053,-0.0857093557715416,0.0877685770392417,-0.5954563617706299,0.7939662337303162,0.1039244295366405,1.4624275889796692,0.6380956172547603,0.026170352473855,-0.1002606749534607,0.0643481910228729,0.0726526686083525,-0.3279253754764795,-10.024349570274351,14957.0
27.4,2.299999952316284,142.0,21.35622978210449,25.262784957885746,-79.7827890343958,40.45904532295621,292.5700020446777,-0.0980481058359146,0.0927933529019355,-0.5956740379333496,0.7918007373809814,0.0762959759487317,1.92689734482488,0.7362480869586805,-0.109076552093029,-0.1339662224054336,0.0670199170708656,-0.0726366481510922,-0.2990912750177085,-9.990577222108842,14957.0
27.6,2.299999952316284,137.0,21.24730110168457,27.632413864135746,-79.78278387519183,40.45904669680594,292.5303444519043,-0.1108166798949241,0.0998287424445152,-0.5904243588447571,0.7931916117668152,0.0520153227130331,2.42062333693943,0.9120755977451354,0.0252313315868377,-0.076139397919178,-0.1275422573089599,-0.0856128485128283,-0.2112097799219191,-10.186601618528368,14957.0
27.7,2.400000095367432,122.0,21.2385368347168,27.409765243530277,-79.78278077067317,40.45904732715457,292.54994245910643,-0.1144394278526306,0.1045235320925712,-0.5869061350822449,0.7946822047233582,0.0703346346164887,2.6857973215639204,1.0362831712080325,-0.014759617857635,-0.1323133111000061,-0.1437183767557144,-0.0905624251998961,-0.178719890601933,-10.25535551905632,14957.0
27.8,2.5,113.0,21.27359390258789,26.996273040771484,-79.78277379705406,40.45904934178354,292.50931211853026,-0.1185215041041374,0.1151624247431755,-0.579983115196228,0.7976903915405273,0.0703920448272502,3.223798487669625,1.258593665422465,0.0154066774994134,-0.1776154488325119,-0.0088300881907343,-0.2529823433607817,-0.2692998209036887,-10.299477438926695,14957.0
28.01,2.799999952316284,102.0,21.21099090576172,27.15530776977539,-79.78276970144003,40.45905022927109,292.52720877075194,-0.1204442232847213,0.1204346865415573,-0.5776739716529846,0.7982991337776184,0.1021466468083041,3.5009402337621776,1.3844779006840255,0.0403181798756122,-0.167057067155838,0.0387048684060573,-0.3069753499701619,-0.4988667150959373,-10.222523403167727,14957.0
28.1,2.900000095367432,97.0,21.188453674316406,26.61458778381348,-79.78276560275367,40.45905194338575,292.4624790802002,-0.1201992928981781,0.123353786766529,-0.5756967067718506,0.7993180751800537,0.070597464384309,3.7712647525694254,1.4731148491161,0.0516824536025524,-0.0716635957360267,-0.0688060894608497,-0.2655759485252201,-0.3762844801694155,-10.183373955488202,14957.0
28.3,3.299999952316284,83.0,21.276098251342773,24.73796844482422,-79.78275578021108,40.459054152888434,292.4902195587158,-0.1144298389554023,0.1230195984244346,-0.5767430663108826,0.7994619607925415,0.1308242831736893,4.323357067823478,1.6834591088791335,0.0898397266864776,0.0683415681123733,0.0719734281301498,-0.463855049572885,-0.4686573312431574,-10.299297344684602,14957.0
28.4,3.5,77.0,21.27359390258789,26.360130310058597,-79.78275082163094,40.459056159577926,292.43713423156737,-0.1106366440653801,0.120901882648468,-0.5776176452636719,0.7996875643730164,0.0701336864751979,4.583510794312343,1.7218864254536452,0.0496689118444919,0.1007002219557762,0.0722386613488197,-0.6208718298375607,-0.4038848729431629,-10.168437827825548,14957.0
28.61,4.0,70.0,21.331188201904297,24.809534072875977,-79.78273986100255,40.45906001865743,292.38599630737303,-0.1030627489089965,0.114400178194046,-0.5809468626976013,0.7992444038391113,-0.0060952335139405,5.0943330072069175,1.745663309079614,0.0767744779586792,0.0391783192753791,-0.0231335833668708,-0.4799968365579844,-0.3829781533777714,-10.1681407892704,14957.0
28.7,4.199999809265137,66.0,21.13837242126465,27.544944763183597,-79.78272721645928,40.45906302240478,292.4065212860108,-0.1010335609316826,0.1087136790156364,-0.5851482152938843,0.7972296476364136,0.0072525607207772,5.552295981278402,1.8116155245503285,-0.0160727091133594,0.0147276865318417,0.0271785799413919,-0.7311476857960224,-0.4665630047768355,-10.083059123754502,14957.0
28.9,4.800000190734863,66.0,21.269838333129886,25.779651641845703,-79.78272140867237,40.459066277633575,292.33491941833495,-0.0993299409747123,0.1082028299570083,-0.5857229828834534,0.7970911860466003,-0.127184598755823,5.752686118270347,1.8427715145078951,-0.0061855884268879,-0.0282789468765258,0.1301174461841583,-0.9173255172371864,-0.4326485692709685,-10.15300819516182,14957.0
29.0,5.099999904632568,64.0,21.32117080688477,24.91290855407715,-79.78271451891369,40.45906798677132,292.34637686157225,-0.097573921084404,0.1088031679391861,-0.5883808135986328,0.7952668070793152,-0.1160643550555668,5.9543064367154335,1.8878553603394248,0.0535919964313507,-0.0437195673584938,0.1011403426527977,-0.8002422597259283,-0.469150324612856,-10.079171894788743,14957.0
29.2,5.599999904632568,61.0,21.34746551513672,24.952667236328125,-79.78270112548469,40.45907370951672,292.2679009094238,-0.1027065888047218,0.1081472858786583,-0.5914543867111206,0.7924249768257141,-0.2803070649662657,6.331280991161942,1.9100667451519977,-0.0337756797671318,-0.0710655003786087,0.2337872982025146,-1.1252291900664568,-0.4832477057352662,-9.71839167237282,14957.0
29.3,5.800000190734862,59.0,21.16216087341309,26.94856262207031,-79.78269362710421,40.45907565467376,292.270143951416,-0.1067460626363754,0.1085851266980171,-0.593795895576477,0.7900766134262085,-0.3040389434465149,6.5163228071724975,1.9740512935611685,-0.0614164322614669,-0.1434498280286789,0.0131400898098945,-0.9648673273622992,-0.2901013088598848,-9.61136365234852,14957.0
29.5,6.300000190734862,59.0,21.24104118347168,25.652421951293945,-79.78267947396193,40.45908206367781,292.18333097839354,-0.1044723987579345,0.1056351885199546,-0.595247745513916,0.7896878719329834,-0.4904169186728778,6.83158630475646,2.112916993754032,-0.0655927509069442,0.0885959416627883,0.1571643650531768,-1.1367221117019657,-0.4371454070135951,-10.032327511310578,14957.0
29.71,6.599999904632568,57.0,21.34621238708496,24.47555923461914,-79.78266406769775,40.45908917018042,292.08540197753905,-0.1018098518252372,0.1045973524451255,-0.5931645631790161,0.7917386293411255,-0.6167712715059195,7.219575366945111,2.0672964217135448,-0.016554620116949,0.0278335995972156,0.0332685783505439,-1.0463380448520183,-0.3217977492883802,-9.784488598108291,14957.0
29.81,7.0,55.0,21.236032485961918,26.344226837158203,-79.78264753018107,40.45909635146134,291.99721952819823,-0.1030161157250404,0.1006214320659637,-0.5890637636184692,0.7951521277427673,-0.7020331443268433,7.577222318592862,2.098455232642205,-0.0829593986272811,0.0710876882076263,-0.2683488130569458,-1.207135305851698,-0.1947517133876681,-9.749642701148987,14956.0
30.0,7.199999809265138,54.0,21.16216087341309,27.12350082397461,-79.78263876421941,40.45909895289528,291.9865517272949,-0.106444351375103,0.097786009311676,-0.5877899527549744,0.7959965467453003,-0.6384230888028987,7.7455654850492035,2.1448332451071583,-0.1641680002212524,-0.1262965351343155,-0.0172250065952539,-1.3396906614303592,-0.3349289511144161,-9.739553915262222,14956.0
30.1,7.5,57.0,21.22225952148437,25.76374816894531,-79.78263019142284,40.45910421607015,291.89858290100096,-0.1117959320545196,0.0938727781176567,-0.5842151045799255,0.7983623147010803,-0.7692476362119124,7.927695065216616,2.195203439340053,-0.2101752460002899,-0.1251803487539291,0.0758881568908691,-1.3310246492922306,-0.2980457380414009,-9.780567455291749,14956.0
30.21,7.699999809265138,56.0,21.209739685058597,26.04205894470215,-79.78261183962734,40.459109934326015,291.8770699157715,-0.1025751009583473,0.0849353149533271,-0.583885908126831,0.800838053226471,-0.6784670032257334,8.170813062851032,2.3457550060535235,0.0741314440965652,0.325508177280426,-0.0420280955731868,-1.6138043305277825,-0.2573786638118326,-10.012055214643476,14956.0
30.4,8.0,55.0,21.37250518798828,23.974597930908203,-79.78260253968455,40.459114781509534,291.8156246795654,-0.0824416503310203,0.0765552669763565,-0.5831985473632812,0.8045011758804321,-0.7971038142462036,8.338818965229647,2.1933381020835587,0.078873261809349,0.4197268486022949,-0.0351968742907047,-1.663822728842497,-0.3386415676027537,-9.985031722784043,14956.0
30.5,8.100000381469728,54.0,21.5452880859375,22.05821990966797,-79.7825930960935,40.45911783436153,291.8097977294922,-0.0602098777890205,0.0667590945959091,-0.5844590067863464,0.8064277172088623,-0.7565499758499437,8.492101001988297,1.8622400741083367,0.0717689171433448,0.4437878429889679,-0.1559484302997589,-1.423357446938753,-0.2925306807830929,-9.977259603738784,14956.0
30.7,8.399999618530272,62.0,21.53151512145996,22.209304809570312,-79.7825737878835,40.45912595535679,291.7450432434082,-0.0349595323204994,0.0500982254743576,-0.5861565470695496,0.8078914880752563,-0.8419673237001335,8.688896152941183,1.1325472343709917,0.0341290272772312,0.2188767492771148,-0.1335230320692062,-1.4077506436407567,-0.1682809113152325,-9.753995953202248,14956.0
30.8,8.5,70.0,21.56907844543457,21.040393829345703,-79.78256428400427,40.45912912029039,291.7401966705322,-0.0293097123503685,0.0438827499747276,-0.5873197317123413,0.8076328039169312,-0.8632052647947916,8.690411308345903,0.9185930441541172,-0.0582743324339389,0.2790635526180267,-0.0462212339043617,-1.2515985569357873,-0.3605346393585205,-9.683675583600998,14956.0
31.0,8.699999809265138,70.0,21.511484146118164,22.16159439086914,-79.7825441745977,40.45913699654061,291.6596398010254,-0.0209151823073625,0.0379436500370502,-0.5868162512779236,0.8085601925849915,-0.9375612499593624,8.675669850623597,0.6759170667891226,0.0791395455598831,0.2396631240844726,-0.1546463817358017,-1.6938060812652111,-0.1516197453998029,-9.765317916870115,14956.0
31.11,8.699999809265138,69.0,21.57909393310547,21.51749992370605,-79.7825242532966,40.459144662257344,291.5947765960693,0.0049402378499507,0.0270092990249395,-0.5855886340141296,0.8101432919502258,-0.9659703660969312,8.562846900350031,0.4370217763688744,0.0064121875911951,0.4781402349472046,0.1319256871938705,-1.6854226358234885,-0.543732729703188,-9.870496462583542,14956.0
31.3,8.899999618530273,79.0,21.2385368347168,25.93073463439941,-79.78251506808351,40.45914786817429,291.5936283721924,0.0218878295272588,0.0155442608520388,-0.5847971439361572,0.8107352256774902,-0.9424621633258092,8.44981941063329,0.1512619657353992,-0.0660162717103958,0.4201124310493469,0.0340780019760131,-1.2438296538591385,-0.6107086746767164,-9.947712453603746,14956.0
31.4,8.899999618530273,98.0,21.199722290039062,26.471454620361328,-79.78250444350951,40.45915112051098,291.53963705444335,0.0349699780344963,0.0022853356786072,-0.5835633277893066,0.8113110661506653,-0.9113361201579278,8.345831001183361,-0.1493924438170333,-0.0813711583614349,0.3497560620307922,-0.0314920283854007,-1.5134371662139894,-0.5040437667444349,-10.203911715745926,14956.0
31.61,8.899999618530273,98.0,21.35372543334961,24.91290855407715,-79.78248544395888,40.459157540082906,291.49245306396483,0.0497823134064674,-0.0220959298312664,-0.5817117094993591,0.8115694522857666,-0.8911513434325469,7.993300874397263,-0.5404805334873645,-0.1298110336065292,0.0588817037642002,-0.0009238325874321,-1.4392207968235016,-0.632791452035308,-10.607051507234576,14956.0
31.71,8.899999618530273,98.0,21.60163116455078,20.603046417236328,-79.78246873380793,40.45916355252662,291.53963705444335,0.0576266273856163,-0.0230701882392168,-0.5813401341438293,0.8112895488739014,-0.8891006735948279,7.544599328433662,-0.6411420997341067,0.0793503001332283,-0.1024075746536254,0.0247328728437423,-1.1305031593143942,-0.2800959554314614,-10.737875940799713,14956.0
31.9,8.899999618530273,115.0,21.659225463867188,20.937021255493164,-79.78245963011095,40.45916645479572,291.50131269836425,0.0556307472288608,-0.0180160719901323,-0.5815742015838623,0.8113890290260315,-0.8976469210734651,7.378243388745962,-0.6877222437572443,0.0800887495279312,-0.1077406927943229,0.1561902910470962,-0.9273999774456024,-0.6736873899400234,-9.977184759378432,14956.0
32.01,8.899999618530273,120.0,21.66548538208008,19.982807159423828,-79.78245181513314,40.45916934808147,291.52169271850585,0.0477017015218734,-0.0136029347777366,-0.5822620391845703,0.8114866614341736,-0.9110474335190656,7.179416705952053,-0.6630254886071071,0.0052481698803603,-0.1293736398220062,-0.0047525046393275,-1.1235184409469368,-0.3653233262524009,-9.532536168694495,14956.0
32.21,8.699999809265138,121.0,21.71556663513184,19.24329376220703,-79.78243577651756,40.45917471323378,291.4976238861084,0.0411836206912994,-0.0085365120321512,-0.5821046829223633,0.8120254278182983,-0.912304503604932,6.884025324965485,-0.5291511433681232,0.0583452992141246,-0.0099514098837971,0.0696454718708992,-0.925183882713318,-0.4632007095962763,-9.457189532518386,14956.0
32.31,8.600000381469728,122.0,21.7205753326416,19.33871459960937,-79.78242850728168,40.459177474053625,291.5004963531494,0.0395267568528652,-0.0058386679738759,-0.5819966793060303,0.8122090101242065,-0.9273374350854352,6.718858891223888,-0.5541330245214254,-0.0500212609767913,-0.0804232731461525,0.0444627180695533,-0.9984145577251912,-0.3820164325833321,-9.25427068412304,14956.0
32.5,8.399999618530272,113.0,21.76690101623535,18.32088661193848,-79.78241366194953,40.45918247543143,291.4758553161621,0.0293230284005403,-0.0026906724087893,-0.5814796090126038,0.8130280375480652,-0.8933877640940969,6.481345309321928,-0.5764016174550853,-0.1529695242643356,-0.2381370365619659,0.110315203666687,-0.8345749173313379,-0.5340289098769426,-9.206864967942238,14956.0
32.6,8.300000190734862,109.0,21.789438247680664,18.5117301940918,-79.78240619273495,40.4591847683093,291.4654850616455,0.0207534562796354,-0.0018303531687706,-0.5813402533531189,0.8133938908576965,-0.8634912847475558,6.391473203055455,-0.5290342712230676,-0.108110524713993,-0.1303553432226181,0.1683414280414581,-0.811003987044096,-0.6042949369177223,-9.220656210780144,14956.0
32.8,8.0,109.0,21.80821990966797,18.45606803894043,-79.78239279270036,40.459189936171256,291.41733976745604,0.0067820386029779,0.0069641573354601,-0.5809982419013977,0.8138467669487,-0.8805839687972831,6.212857324972494,-0.4366646910569833,-0.048948910087347,-0.1800234615802765,0.1004474833607673,-0.7079422795772553,-0.2987095980159938,-9.285635733604432,14956.0
32.9,7.900000095367432,110.0,21.803211212158203,17.923297882080078,-79.78238572951473,40.45919209478828,291.3979515686035,-0.0012921087909489,0.0117412600666284,-0.5805791020393372,0.8141181468963623,-0.8552311403065916,6.168730196755445,-0.3628495471096734,0.0123700853437185,-0.1361565738916397,-0.1131225228309631,-0.6795262002199889,-0.2338419945538044,-9.187941623926164,14956.0
33.11,7.599999904632567,95.0,21.576589584350582,21.45388603210449,-79.78237218938486,40.45919666762722,291.3393978729248,-0.0192021913826465,0.0213743243366479,-0.5789991021156311,0.8148217797279358,-0.8428691173844955,6.113453131616418,-0.2252880165729537,-0.0298760440200567,-0.1707335710525512,-0.0176638551056385,-0.6672515058517456,-0.1641734798625111,-9.13943253815174,14956.0
33.2,7.5,89.0,21.5352725982666,21.71629524230957,-79.78236574783547,40.45919919305042,291.29304930114745,-0.0220532342791557,0.0249476879835128,-0.5785731673240662,0.8149505257606506,-0.8487262083426991,6.095531937482948,-0.1485792691800869,0.1080071851611137,-0.0684262737631797,-0.1604122370481491,-0.7315567716211081,-0.1885291613079608,-9.364514088034634,14956.0
33.4,7.400000095367432,90.0,21.589111328125,21.175573348999023,-79.7823524784965,40.45920375791943,291.2210945739746,-0.0297906138002872,0.0348655246198177,-0.5786176323890686,0.8143087029457092,-0.8596216871992224,6.105291440748959,-0.0608450976193012,0.0018603666685521,-0.2737379372119904,0.1928875595331192,-0.7218140678107738,-0.4637233775854111,-9.557910161018372,14956.0
33.51,7.300000190734862,90.0,21.521499633789062,22.60689353942871,-79.78233900920132,40.459208096589855,291.17160078430175,-0.048818152397871,0.0394186116755008,-0.5790876746177673,0.8128471970558167,-0.8696101102467725,6.146616289216612,0.1984313145848476,-0.1610616594552993,-0.2479618340730667,0.0495033301413059,-0.9148407429456712,-0.4933466877043248,-9.720844579339028,14956.0
33.7,7.099999904632568,82.0,21.47642517089844,23.02833747863769,-79.78233248220056,40.45921065538717,291.1269917144775,-0.0548781529068946,0.0418310463428497,-0.5788752436637878,0.8124913573265076,-0.8952164735415739,6.188351897639794,0.3325322942821071,0.0413576327264308,-0.0970120802521705,0.2431133091449737,-0.9589875865727664,-0.5513872466236354,-9.8196759724617,14956.0
33.81,7.099999904632568,79.0,21.42509078979492,23.680383682250977,-79.78232589862202,40.45921325846576,291.0846848144531,-0.0592454336583614,0.0491414591670036,-0.5789626836776733,0.8117126822471619,-0.9290872136012588,6.2574327238493535,0.4521300890526513,0.090666189789772,-0.1913902908563614,0.1315887123346328,-0.8521175144612789,-0.6758183345943691,-10.042721521854402,14956.0
34.0,7.0,79.0,21.427595138549805,23.624719619750977,-79.78231207479358,40.45921735092688,291.09154554748534,-0.0688996165990829,0.0651733353734016,-0.578264057636261,0.8103184700012207,-0.8892413418343105,6.363108707870808,0.7885054684600544,-0.0274068117141723,-0.0798433050513267,0.0843551233410835,-1.0732523399591447,-0.5291737109050155,-10.03479854464531,14956.0
34.1,7.0,79.0,21.387529373168945,23.871225357055664,-79.78230553092746,40.45921915276885,291.0797238006592,-0.0751293897628784,0.0699870884418487,-0.5774099826812744,0.80997234582901,-0.8623303985767066,6.386204276437622,0.9259194555865108,-0.0460461340844631,-0.1764857023954391,0.1007290035486221,-1.1454233533143998,-0.2762568929046393,-9.936621454954148,14956.0
34.3,7.0,68.0,21.25982093811035,26.05796241760254,-79.78229153250834,40.45922447680899,291.0295185699464,-0.0888521745800972,0.0735994502902031,-0.5758216381072998,0.8093935251235962,-0.8732435164739529,6.587604707173803,1.2330308692193863,-0.0576002225279808,0.0207054056227207,-0.0065445504151284,-1.333416014313698,-0.1367034982703626,-10.05516673564911,14956.0
34.4,7.099999904632568,67.0,21.441368103027344,23.71219062805176,-79.78227728637023,40.45922963296509,290.94971701049803,-0.086545281112194,0.073822371661663,-0.5745000839233398,0.81056147813797,-0.8630011189002644,6.789990941593069,1.3992462312933072,-0.0145940035581588,-0.0969086587429046,-0.0309917889535427,-1.0765523622930049,-0.3115127527713776,-10.255115783214569,14955.0
34.6,7.099999904632568,66.0,21.348716735839844,23.69628715515137,-79.78227007832203,40.4592324215509,290.90956732177733,-0.0846898704767227,0.077321209013462,-0.5736832022666931,0.8110097050666809,-0.8680579143046766,6.896453037718422,1.4304457450878427,0.0871989950537681,-0.1241839006543159,-0.0606727115809917,-0.7768356361985207,-0.4526669505983592,-10.205483447313313,14955.0
34.71,7.199999809265138,66.0,21.18219375610352,26.46350288391113,-79.78226250962406,40.459235267661136,290.89822241210936,-0.0841774716973304,0.0804371312260627,-0.572934091091156,0.8112894892692566,-0.8670313646252591,7.0086116765379325,1.5114747912031783,0.0548156909644603,-0.109647050499916,0.0516041778028011,-1.1787002961337567,-0.4168046979233623,-10.318534684181213,14955.0
34.91,7.300000190734862,60.0,21.294878005981445,25.15146064758301,-79.78224729680605,40.459241136972274,290.83494230651854,-0.0803737938404083,0.0786179155111312,-0.5729209780693054,0.811862587928772,-0.861730818455831,7.2030743680727065,1.5961516864206748,0.0207377579063177,0.205043688416481,-0.2579776644706726,-1.1735228790342809,-0.0092807737737894,-10.155866314172746,14955.0
35.0,7.300000190734862,61.0,21.28736686706543,24.594837188720703,-79.78223936431009,40.45924408717266,290.8314404144287,-0.0780144855380058,0.0781768411397934,-0.5730018615722656,0.8120782971382141,-0.8499514242036807,7.316589980298816,1.6035081392460782,0.0882609114050865,0.1276589184999466,-0.1390983313322067,-1.0212625528872017,-0.0387553453445434,-10.092346841096877,14955.0
35.2,7.5,60.0,21.278602600097656,24.92881202697754,-79.78222344265045,40.45925032622718,290.7797760620117,-0.0671964064240455,0.0716236680746078,-0.5738272070884705,0.8130664229393005,-0.8775698822597713,7.479186025517548,1.5769295238081202,0.0438414551317691,0.24713134765625,0.0757084935903549,-1.2905043219029904,-0.2850197130069137,-10.235153388977054,14955.0
35.3,7.5,59.0,21.62166404724121,20.51557731628418,-79.7822067959584,40.45925660277821,290.76059767150883,-0.0553502850234508,0.0602258518338203,-0.575815737247467,0.8134773969650269,-0.8926301222266705,7.641954982008588,1.3800905071686342,0.0545555390417575,0.1797309070825576,-0.2844808399677277,-1.1340793894976378,-0.1884154512360692,-10.280579237937928,14955.0
35.51,7.699999809265138,61.0,21.51398658752441,22.972675323486328,-79.78219848378852,40.45925967658137,290.76836248779296,-0.0492357797920703,0.0599755868315696,-0.5767315626144409,0.8132401108741759,-0.8938321861029036,7.682407369815563,1.3049959992437747,0.1697204709053039,0.088381215929985,-0.151727020740509,-1.226250877082348,-0.2498660697787999,-10.1034273147583,14955.0
35.6,7.800000190734862,66.0,21.441368103027344,22.26496696472168,-79.78218987123456,40.4592628669449,290.7440037384033,-0.041621346026659,0.060848481953144,-0.5772733688354492,0.8132162094116211,-0.906309913888012,7.730280168517913,1.2146448524684086,0.0814939215779304,0.1430836766958236,0.0558936223387718,-1.0618906152248384,-0.1633739096671343,-10.08867128133774,14955.0
35.8,7.900000095367432,65.0,21.54654121398925,21.310754776000977,-79.78217309218283,40.459269007045066,290.7664799346924,-0.0355929210782051,0.0589639134705066,-0.5764589309692383,0.8142184019088745,-0.8864041011860475,7.772965840085747,1.113961595945243,-0.0010618831729516,0.0852077305316925,-0.1248718351125717,-1.1323174772411586,-0.1076087581738829,-10.055157380104063,14955.0
35.91,8.0,65.0,21.557809829711918,21.692440032958984,-79.78215584719624,40.45927531076946,290.7756771697998,-0.0417005345225334,0.0541634708642959,-0.5743533968925476,0.8157485723495483,-0.8288153304434708,7.805623709851407,1.1221127244005622,-0.1300259232521057,-0.1083416938781738,-0.0387813635170459,-1.1397626638412477,-0.0574839405342936,-9.924377385377882,14955.0
36.1,8.100000381469728,66.0,21.422588348388672,23.21122741699219,-79.78214715962497,40.45927854175565,290.7718586578369,-0.0418798066675663,0.0502266287803649,-0.5731728076934814,0.8168209195137024,-0.8257508166943288,7.8155537505500625,1.1180436844632031,-0.0771445333957672,-0.0447911471128463,-0.0391741022467613,-1.3314142200350765,-0.3504722390323878,-9.733711962103843,14955.0
36.2,8.199999809265138,68.0,21.516490936279297,21.891233444213867,-79.78213870897889,40.45928161686423,290.7849526062012,-0.0414270870387554,0.0457081124186515,-0.5723363161087036,0.8176954388618469,-0.7920454276916835,7.824361915156735,1.1136727804299102,-0.0363603681325912,0.0030923045706003,-0.0351850315928459,-1.0910041943192483,-0.1597418385744095,-9.9047576379776,14955.0
36.41,8.300000190734862,68.0,21.790691375732425,18.45606803894043,-79.78212129084082,40.45928774248452,290.82114836120604,-0.0331645235419273,0.0353174991905689,-0.5725542306900024,0.8184341788291931,-0.7811592155733633,7.838425490804854,1.0926954653367773,0.0452094413340091,0.2332319915294647,-0.0399005562067031,-1.1614258669316768,-0.251439263150096,-10.320267798900606,14955.0
36.5,8.300000190734862,68.0,21.606639862060547,20.300878524780277,-79.78211285121347,40.459290834838406,290.84744116210936,-0.0277078952640295,0.033221710473299,-0.5733405351638794,0.8181744217872621,-0.7865530438782989,7.830664328815166,1.0030663296071305,0.1338193714618683,0.0823607966303825,-0.072539135813713,-1.2059137494117025,-0.2874560102261603,-9.934577268362046,14955.0
36.7,8.399999618530272,76.0,21.66172981262207,20.141843795776367,-79.78209556880817,40.459297084370654,290.89461752319335,-0.0228808540850877,0.037788588553667,-0.5766834020614624,0.8157725930213928,-0.8500679389673139,7.8148983410201565,0.8598464523280458,-0.090812861919403,-0.1239359825849533,0.1079153940081596,-1.130062279254198,-0.4348664912581444,-9.641819459795952,14955.0
36.8,8.399999618530272,74.0,21.685518264770508,19.632930755615234,-79.78207845564157,40.4593033904826,290.94566007995604,-0.0284527111798524,0.0384566001594066,-0.5795112252235413,0.8135590553283691,-0.9330161501402364,7.779266630231155,0.8541972946785209,0.0191531274467706,-0.0458186641335487,-0.0205911789089441,-1.0480024547874929,-0.3949122474342585,-9.803581511378288,14955.0
37.0,8.399999618530272,74.0,21.776918411254886,17.454143524169922,-79.7820701149579,40.45930649003349,290.965872253418,-0.0293690040707588,0.0374717861413955,-0.5803024768829346,0.8130083084106445,-0.9556653951759913,7.7543342798320545,0.8804379491145182,0.0003984975628554,0.1099492460489273,-0.1069058626890182,-0.95887042298913,-0.2283903064951301,-9.705895587801932,14955.0
37.11,8.300000190734862,74.0,21.739356994628903,18.9013671875,-79.78206100354781,40.45930946034765,291.01147505187987,-0.0278340484946966,0.0341366343200206,-0.580761730670929,0.8128811120986938,-0.952854858981664,7.772202103400266,0.8951503632367925,0.0151419155299663,0.2090475112199784,0.0692532584071159,-1.1682343648374078,-0.3671567938104272,-9.541915687322618,14956.0
37.3,8.300000190734862,75.0,21.690526962280277,20.022565841674805,-79.78204431579414,40.45931563401089,291.0444836273193,-0.026978526264429,0.0320711210370063,-0.5805701017379761,0.8131309747695923,-0.9456148165236292,7.753864000637796,0.7008139899093375,0.0883457213640213,0.1187819316983223,-0.13543002307415,-0.9947879683971406,0.0032132277265191,-9.044125846624375,14956.0
37.4,8.199999809265138,77.0,21.666736602783203,20.078229904174805,-79.78202726275829,40.4593217547702,291.097479309082,-0.025797726586461,0.0321048647165298,-0.579708456993103,0.8137825131416321,-0.9546511020165968,7.709698408535376,0.6416465628062322,-0.0950680300593376,-0.0356173850595951,0.1369273215532302,-1.0260907450318335,-0.501010340899229,-9.187726446390151,14956.0
37.6,8.199999809265138,76.0,21.55154800415039,21.350513458251957,-79.78201846045734,40.45932470151809,291.13427587890624,-0.0269793234765529,0.0274368599057197,-0.5789605379104614,0.8144471645355225,-0.935668698854006,7.704336189623397,0.6123633239040167,-0.0956167057156562,-0.0268439501523971,-0.0579040609300136,-1.1639640701562166,-0.2169605347886681,-9.376308506727216,14956.0
37.7,8.199999809265138,77.0,21.640443801879886,19.283052444458008,-79.78201022753234,40.45932776355529,291.1354431762695,-0.0275369249284267,0.0232356991618871,-0.5787841081619263,0.8146844506263733,-0.9294734405860494,7.672862525792527,0.5728888407611641,-0.160058245062828,-0.0085311895236372,0.0998757556080818,-1.2266474644839764,-0.3644466459006071,-9.374884709715843,14956.0
37.9,8.100000381469728,78.0,21.467660903930664,22.86134910583496,-79.78199329169983,40.45933371021264,291.1721024169922,-0.0274629406630992,0.0203624982386827,-0.5780361890792847,0.8152946829795837,-0.9287286779054146,7.618571359150642,0.4798524152227826,-0.0154246427118778,-0.1901836395263672,0.2065844386816024,-1.1061456323415042,-0.2989254150912165,-9.304738587141037,14956.0
38.0,8.100000381469728,80.0,21.537776947021484,21.485692977905277,-79.78198517121086,40.45933676323212,291.16781088256835,-0.0322927199304103,0.0239950474351644,-0.5771995186805725,0.8156116008758545,-0.9271700845674878,7.587637707390424,0.4587074313180878,-0.0061007775366306,-0.064833365380764,0.0007677481044083,-1.0756044555455446,-0.1670064558461308,-9.411220477223395,14956.0
38.2,8.0,80.0,21.33995246887207,24.18929672241211,-79.7819681142173,40.45934268981004,291.2318195953369,-0.0426667258143425,0.027004824951291,-0.5756286978721619,0.8161506652832031,-0.9371086075130342,7.577486596475161,0.664519433046966,-0.1076935455203056,-0.1323827058076858,-0.1000094786286354,-1.098232010677457,-0.4013268988206983,-9.4832342004776,14956.0
38.31,8.0,81.0,21.42634391784668,23.091951370239247,-79.78196005183527,40.45934578121921,291.2272610321045,-0.0427705124020576,0.0291047152131795,-0.5752872228622437,0.8163138628005981,-0.9521710326104058,7.546242133006532,0.72454595509367,0.1084448844194412,0.0673566237092018,0.0376233831048011,-1.215794739872217,-0.1698172672279179,-9.579279395341873,14956.0
38.5,8.0,77.0,21.46014976501465,22.535327911376957,-79.78194333673713,40.459351705907686,291.2771439208984,-0.0369009636342525,0.0389522761106491,-0.5742790699005127,0.8168994188308716,-0.9552517919073228,7.5651046916648035,0.7805092874340224,0.0648850947618484,-0.099971666932106,0.1031008884310722,-1.2111587749421595,-0.4051938818022609,-9.73163620054722,14956.0
38.61,7.900000095367432,74.0,21.3061466217041,25.04808807373047,-79.78193464048582,40.45935443087139,291.3344273223877,-0.03872662037611,0.0424283519387245,-0.5732505321502686,0.8173640370368958,-0.92216482685526,7.586913610097198,0.8371177928208051,0.0633962973952293,-0.0116065740585327,-0.2066654860973358,-0.9917352101951838,-0.3429008987545967,-9.772587760090827,14956.0
38.8,7.900000095367432,74.0,21.730592727661133,19.267148971557614,-79.78191844178382,40.45936065714653,291.3517784729004,-0.0415760353207588,0.0418757461011409,-0.5745794177055359,0.8163188099861145,-0.9282044906606228,7.575819082228607,0.9890979454896552,0.1100674122571945,0.0727341547608375,-0.0422289259731769,-1.0075929321348671,-0.0763736630603671,-10.255104088783265,14956.0
38.91,7.900000095367432,74.0,21.481433868408203,22.304725646972656,-79.78190992677935,40.45936360386006,291.3879799499512,-0.0435142815113067,0.0449310168623924,-0.575459361076355,0.8154349327087402,-0.9483398573461308,7.591088811087596,0.9949328661724216,-0.0140552744269371,-0.1204133853316307,0.1179386526346206,-1.3350931419432164,-0.35042122207582,-9.53610063135624,14956.0
39.11,7.900000095367432,72.0,21.50397109985352,22.034364700317383,-79.78189330351897,40.459369670839465,291.41303869628905,-0.0487756244838237,0.0521179400384426,-0.575602650642395,0.8146080374717712,-0.9795575444182574,7.599361861066187,1.0537231657155273,-0.0474878773093223,-0.0567557178437709,-0.0225586295127868,-1.3246324731409551,-0.3440049627050757,-9.306322597861293,14956.0
39.2,7.900000095367432,71.0,21.29237365722656,25.31049728393555,-79.78188515730464,40.45937279807901,291.4158939971924,-0.0460763089358806,0.0531721040606498,-0.5757728219032288,0.8145768642425537,-0.9800581420861744,7.599161679186404,1.0446564614030147,0.0936879962682724,0.0977995917201042,-0.1434205472469329,-1.3140979832410813,-0.2225665527954697,-9.131525933146476,14956.0
39.4,7.900000095367432,72.0,21.29112243652344,24.642547607421875,-79.78186868704718,40.45937889817488,291.43406340026854,-0.0389136187732219,0.0528351664543151,-0.5761936902999878,0.8146748542785645,-0.9831015536712384,7.6220715107518116,0.9260735551300842,-0.0783708617091178,-0.0322373025119304,0.1466912031173706,-1.3390657402575017,-0.5673111882805825,-9.39844781935215,14956.0
39.51,7.900000095367432,72.0,21.451385498046875,22.81363868713379,-79.78185200585976,40.45938501754289,291.4505467071533,-0.0377946309745311,0.0522405207157135,-0.5771193504333496,0.8141105175018309,-0.9558534548084217,7.655115499095876,0.8771010208912801,0.00025503966026,-0.0824219360947609,0.0335015617311,-1.2292364653944972,-0.3767956729978323,-9.575326677560806,14956.0
39.7,7.900000095367432,69.0,21.37626266479492,23.74399757385254,-79.78184380054905,40.45938811544481,291.4471401824951,-0.0383479222655296,0.0522356070578098,-0.5775652527809143,0.8137686252593994,-0.9536527537871542,7.654000106791464,0.8644994327542055,-0.0329944752156734,0.0840208902955055,0.1689511835575103,-1.259122169315815,-0.5131240175664425,-9.632514200806618,14956.0
39.8,8.0,72.0,21.29112243652344,24.61869239807129,-79.78183559415898,40.45939121118249,291.4433445587158,-0.0397093929350376,0.0499125979840755,-0.5781556963920593,0.8134296536445618,-0.9599929810451991,7.654170983044909,0.8668952622768479,-0.0061312648467719,0.0414336323738098,0.0506132692098617,-1.3240408810973168,-0.3652300997078418,-9.660339930653572,14956.0
40.01,8.100000381469728,72.0,21.38001823425293,23.354360580444336,-79.78181904006922,40.45939744309155,291.4557308807373,-0.0397893227636814,0.0502143129706382,-0.5793960690498352,0.8125241994857788,-0.9917277283124648,7.645763566912258,0.8883758627955358,0.0261515974998474,-0.170237123966217,0.1766959130764007,-1.299298095703125,-0.5568886725604535,-9.70287842452526,14956.0
40.1,8.100000381469728,72.0,21.252307891845703,24.91290855407715,-79.78180241447016,40.45940357039515,291.448158706665,-0.0419159270823001,0.0509684681892395,-0.5799675583839417,0.811962366104126,-1.0098803902858746,7.640334803551568,0.8810887581399702,-0.0208171214908361,-0.0391597114503383,0.2049410939216613,-1.4729337957501412,-0.3732627853006125,-9.554046905636788,14956.0
40.3,8.199999809265138,72.0,21.361236572265625,23.457733154296875,-79.78179420808006,40.45940667193851,291.44261976623534,-0.0441141426563262,0.0499449074268341,-0.5803101658821106,0.8116648197174072,-1.0099246846811791,7.65440571151928,0.8885807611693268,-0.037089891731739,-0.0484727770090103,0.2518602609634399,-1.101290689185262,-0.4346251474320889,-9.754470747113226,14956.0
40.4,8.199999809265138,71.0,21.421335220336918,23.147613525390625,-79.78178560213736,40.45940962651893,291.4344448699951,-0.0460700169205665,0.0491740927100181,-0.5811963081359863,0.810968816280365,-0.9891931660669468,7.676481743981527,0.901054448200221,0.0436708591878414,0.0485419444739818,0.0938976556062698,-1.3884899152815342,-0.2483982541970909,-9.61595313191414,14956.0
40.6,8.199999809265138,70.0,21.493953704833984,21.930992126464844,-79.7817688974733,40.45941571665237,291.4262089385986,-0.0475178956985473,0.0482651963829994,-0.5810052156448364,0.8110767602920532,-1.0111231182176152,7.683218370565834,0.9265724037812793,-0.0579893514513969,-0.0025700868573039,0.1286756843328476,-1.455911527723074,-0.2258267775177956,-9.56107935190201,14956.0
40.7,8.199999809265138,70.0,21.408815383911133,22.81363868713379,-79.78176062649995,40.45941881170299,291.4174828186035,-0.0478855036199092,0.0477431826293468,-0.5802208185195923,0.8116472959518433,-1.0096427770109926,7.696097439860736,0.9126467870529268,-0.0154884634539484,-0.0372545942664146,-0.0252497401088476,-1.3720498837530617,-0.3334455125033855,-9.57735215306282,14956.0
40.9,8.300000190734862,71.0,21.2385368347168,26.479406356811523,-79.78174366674106,40.459424825641065,291.394619430542,-0.0461397618055343,0.0486714392900466,-0.5782989859580994,0.8130637407302856,-0.9581333489452488,7.730291417317952,0.891895683084622,0.1025403961539268,-0.0165348388254642,-0.2739280164241791,-1.2785558290779588,-0.1341614029929042,-9.644963507652283,14956.0
41.0,8.300000190734862,72.0,21.511484146118164,21.55725860595703,-79.78172682697388,40.45943095857857,291.369846786499,-0.0418936237692832,0.0489220395684242,-0.5779085755348206,0.8135560154914856,-0.9269077731252244,7.743646227734847,0.8417852434448116,0.0450056083500385,0.0369826517999172,-0.1889047026634217,-1.0803093445301055,-0.1896301371976733,-9.840361082553864,14956.0
41.2,8.399999618530272,72.0,21.258569717407227,24.761823654174805,-79.78171850895731,40.45943404572795,291.35747953796385,-0.0416915081441402,0.0515140667557716,-0.5769397616386414,0.8140937089920044,-0.9221403698192644,7.7509397461336516,0.8191550551178697,0.0382242761552333,-0.0594138838350772,-0.0826746225357055,-1.1930595959722996,-0.4579718735441566,-9.749780695438382,14956.0
41.3,8.399999618530272,72.0,21.258569717407227,24.626644134521484,-79.7817101903111,40.45943713497287,291.3450493469238,-0.0434689186513423,0.0505634658038616,-0.5753976702690125,0.8151511549949646,-0.907197260390364,7.7512565678886975,0.8434663068895758,-0.0352383404970169,0.0641630440950393,0.0790058448910713,-1.2492339429259298,-0.3355098354443908,-9.81215762257576,14956.0
41.5,8.300000190734862,70.0,21.30364227294922,25.07194328308105,-79.7816933149242,40.45944324458458,291.31856771850585,-0.0441107340157032,0.0441119410097599,-0.5727301836013794,0.8173669576644897,-0.8441065537648099,7.77543310195667,0.8807392274907377,0.134985938668251,0.0533582009375095,-0.175474926829338,-1.2097694034129385,0.1306875721737742,-9.97087561368942,14956.0
41.6,8.300000190734862,73.0,21.218503952026367,25.978445053100582,-79.7816763885363,40.45944941225317,291.296661819458,-0.0345102362334728,0.0536256060004234,-0.5734139084815979,0.8167802691459656,-0.8392008907670249,7.783891313921317,0.8967957846040417,0.1186857894062996,0.0279469229280948,-0.1075480952858924,-1.2008412898331882,-0.1860097970813513,-9.89894901394844,14956.0
41.8,8.300000190734862,73.0,21.32993507385254,23.89508056640625,-79.78166802995283,40.45945251472407,291.2941746368408,-0.0327096842229366,0.0523211024701595,-0.5744084119796753,0.8162399530410767,-0.8464227509830884,7.794872665177193,0.863457203817892,-0.0104902684688568,0.0039825984276831,-0.0723862275481224,-1.0072320127487182,-0.3767207190021873,-9.956740554571152,14956.0
41.9,8.300000190734862,73.0,21.35372543334961,22.85339736938477,-79.78165949470987,40.45945557507797,291.27132650756835,-0.0343668237328529,0.0511989220976829,-0.5753940939903259,0.8155485391616821,-0.8414237034054907,7.796193228699572,0.7973759806401441,-0.0379322171211242,0.0543857440352439,-0.0542170964181423,-1.0456098472326991,-0.2096093056350946,-9.758212965130808,14956.0
42.11,8.300000190734862,75.0,21.39629364013672,22.54327964782715,-79.78164254124741,40.45946172027957,291.2456192626953,-0.0425351671874523,0.0479368939995765,-0.5761808156967163,0.8148059248924255,-0.8662702350835513,7.8040403293861536,0.8319953303250835,-0.1016860827803611,-0.1583881080150604,-0.0348442122340202,-0.9962678986787796,-0.2588951940089464,-9.851346831321717,14956.0
42.2,8.300000190734862,75.0,21.3061466217041,24.42784881591797,-79.78163416647313,40.4594648031348,291.23973318481444,-0.0432299561798572,0.046072669327259,-0.5762620568275452,0.8148192763328552,-0.8718179370853907,7.789160735480863,0.9021614733818336,-0.0039199599996209,0.0125855086371302,-0.2602632939815521,-1.096428802460432,-0.0962290715239942,-9.86449371099472,14956.0
42.41,8.300000190734862,75.0,21.38627815246582,23.60086441040039,-79.7816171371838,40.4594708814851,291.2211346282959,-0.0392275974154472,0.045009259134531,-0.5769372582435608,0.8146035075187683,-0.8799707511865684,7.8072342640183185,0.8807624567513799,-0.0407010689377784,0.1216580122709274,-0.0637747049331665,-0.889637635499239,-0.2681362432613969,-9.976904093027118,14956.0
42.5,8.199999809265138,75.0,21.4138240814209,21.573162078857425,-79.78160874576899,40.45947397629524,291.2179855957031,-0.0396276824176311,0.0443617887794971,-0.57765132188797,0.814113438129425,-0.8927036357161944,7.813524378111942,0.8596935653829453,-0.0144828502088785,0.0264570154249668,-0.1634160280227661,-1.109901298955083,-0.1941123934462666,-9.843926714658735,14956.0
42.7,8.199999809265138,82.0,21.38126945495605,23.871225357055664,-79.78159159414929,40.4594800772156,291.20098539733885,-0.0445160493254661,0.0422598682343959,-0.578076183795929,0.8136709928512573,-0.9239569699322624,7.82255953361492,0.8423673748173477,-0.0460014976561069,-0.1056481897830963,-0.0418159961700439,-1.095261478945613,-0.3135133410617709,-9.52450326383114,14956.0
42.8,8.199999809265138,80.0,21.447628021240234,22.304725646972656,-79.78157459526264,40.45948635086377,291.1838097229004,-0.0435206666588783,0.0398386120796203,-0.5771676301956177,0.8144915103912354,-0.9545755607816347,7.81904942693702,0.8647482433617929,0.0583486407995224,0.010211101733148,0.0242866575717926,-1.2185667586326598,-0.2893056855350733,-9.513472491502762,14956.0
43.01,8.300000190734862,79.0,21.41006660461425,22.50352096557617,-79.78156621760999,40.4594894934592,291.1763462677002,-0.0371854677796363,0.0412508063018322,-0.5765761137008667,0.8151537179946899,-0.9531816469140176,7.812397848176504,0.842590392106657,0.0517473183572292,-0.0327231809496879,0.1933553367853164,-1.2207097631692887,-0.5310813284665347,-9.76694753587246,14956.0
43.1,8.199999809265138,79.0,21.252307891845703,24.730016708374023,-79.78155758540223,40.459492565768,291.1728539123535,-0.0316788032650947,0.0447287335991859,-0.5761894583702087,0.8154762387275696,-0.9315734130326307,7.814577587180048,0.7754605138576818,0.040459007024765,-0.0179356299340724,0.1495454162359237,-1.4243106892704964,-0.4473684595897794,-9.646787254214289,14956.0
43.3,8.300000190734862,79.0,21.37375831604004,22.630748748779297,-79.78154086949458,40.45949882996905,291.1637100830078,-0.0339637175202369,0.0469207875430584,-0.5745641589164734,0.8164074420928955,-0.9181189781780558,7.790453917553699,0.7466724684808449,-0.099344827234745,-0.0651777163147926,0.1318771839141845,-1.2421115957200528,-0.4306561305373907,-9.819835016727447,14956.0
43.4,8.300000190734862,79.0,21.30364227294922,24.69025802612305,-79.78153217846028,40.45950193388279,291.1549267425537,-0.0380776114761829,0.04672596976161,-0.573677122592926,0.8168607354164124,-0.8805515296130412,7.800478617663499,0.7831478033526729,-0.1222761571407318,-0.0317074656486511,0.1630434542894363,-1.3141190332174302,-0.4316042931005359,-9.828886506557463,14956.0
43.61,8.399999618530272,79.0,21.377513885498047,22.789783477783203,-79.7815153044226,40.459508150676434,291.147024597168,-0.0371593125164508,0.0456912405788898,-0.573071300983429,0.8173865675926208,-0.8579613333634087,7.767452506853237,0.8914213266435007,-0.0385315641760826,-0.0350421145558357,0.0967052653431892,-1.3484553453326231,-0.3968895199522377,-9.995594133138658,14956.0
43.7,8.399999618530272,79.0,21.408815383911133,22.37629127502441,-79.78150697858048,40.459511251979336,291.1477131500244,-0.0353873074054718,0.0455329418182373,-0.5730639696121216,0.8174791932106018,-0.8387413394394901,7.755897354670839,0.8668657500549244,0.0130272218957543,0.0423732325434684,0.1187666431069374,-1.2603424832224843,-0.226433188598603,-9.909827173948289,14956.0
43.9,8.399999618530272,78.0,21.448881149291992,22.082077026367188,-79.78149021940743,40.45951735757171,291.1351818695068,-0.0411063320934772,0.0488079041242599,-0.5725082159042358,0.8174121379852295,-0.8209849935793487,7.737817997010382,0.8498712931705842,-0.0229614339768886,-0.1144929006695747,0.0823553800582885,-1.1695094963908197,-0.4511367342621088,-9.639608627557754,14956.0
44.0,8.399999618530272,78.0,21.362489700317383,23.577009201049805,-79.78148192630671,40.45952043692292,291.1322388305664,-0.0450404100120067,0.0493669174611568,-0.5724499821662903,0.8172119855880737,-0.8247920422917552,7.722437988204107,0.8891449624898469,-0.0333174690604209,-0.1469140499830246,-0.0830312296748161,-1.2563254460692406,-0.2756166593357921,-9.544854497909547,14956.0
44.2,8.5,77.0,21.477678298950195,21.930992126464844,-79.78146509400527,40.45952654869888,291.1200527801513,-0.0464692115783691,0.0479927286505699,-0.5729358196258545,0.8168732523918152,-0.8182699992833445,7.715519336127095,0.9811650176133484,-0.0087324874475598,-0.0392005816102027,0.0731359049677848,-1.3707510709762574,-0.3305406888574362,-9.894713290929795,14956.0
44.3,8.5,77.0,21.45388984680176,22.169546127319336,-79.78144832826595,40.45953266590264,291.1113609924316,-0.0460616014897823,0.0422705002129077,-0.572474479675293,0.8175357580184937,-0.8170217894418099,7.720940043785423,0.8938648770007778,-0.0064920014701783,0.0436830334365367,0.02418770827353,-1.4649273495376112,-0.0957105879485607,-9.565173572301864,14956.0
44.51,8.5,75.0,21.38377380371093,22.74207305908203,-79.78144005216555,40.45953573250881,291.10457273864745,-0.0444815903902053,0.0388018526136875,-0.5718224048614502,0.8182511925697327,-0.816296341584119,7.690842692225921,0.8815805842705253,-0.0754169672727584,0.0505719259381294,0.1746876984834671,-1.5742973256111146,-0.3374614167585969,-9.675479541420938,14956.0
44.61,8.5,72.0,21.357481002807614,23.23508262634277,-79.78143146160406,40.45953871048375,291.1100906982422,-0.0262179337441921,0.0247707739472389,-0.5710944533348083,0.8200916647911072,-0.7795319866668691,7.622293797186563,0.8602878249933446,-0.0224803388118743,0.7230598926544191,-0.1630979478359222,-1.640085956901312,0.0384246487542986,-9.902287774085998,14956.0
44.81,8.399999618530272,72.0,21.470165252685547,21.764005661010746,-79.78141538955,40.45954470686733,291.1102299346924,0.0373169369995594,-0.020184664055705,-0.5704224109649658,0.8202550411224365,-0.7562805455457907,7.399481975636089,-0.0102064550614521,-0.0499926432967186,0.6881551742553711,0.1231507360935211,-1.2838767953217027,-0.1840797591023147,-10.261338390111924,14956.0
44.9,8.300000190734862,72.0,21.51523971557617,21.104007720947266,-79.78139982399772,40.45955033165247,291.11100813293456,0.0818315222859382,-0.0543594621121883,-0.5701183676719666,0.8156677484512329,-0.7815996278247512,6.881482424732156,-0.9379217619999818,-0.0342081896960735,0.4089128077030182,-0.103189006447792,-0.9863416653871536,-0.1570248932763934,-10.173623138666152,14956.0
45.1,8.199999809265138,114.0,21.589111328125,20.396299362182614,-79.78139209316701,40.45955294088028,291.10853620910643,0.0965364575386047,-0.0654840245842933,-0.569541335105896,0.8136431574821472,-0.7800586155130118,6.561605040379711,-1.2045445018155647,0.0990447402000427,0.3966235816478729,-0.1457776427268982,-0.7177753228694201,0.0475227335840463,-10.336084517240526,14956.0
45.21,8.100000381469728,129.0,21.36624526977539,23.10785484313965,-79.78137868296821,40.45955822436648,291.12484785461425,0.1176250725984573,-0.0785810723900795,-0.5702020525932312,0.809233546257019,-0.8343692100349784,5.815298790985258,-1.4972881845404264,-0.0661305710673332,0.2078434824943542,0.3158155977725983,-0.7813836005330086,-0.1004101504851132,-10.159302138090132,14956.0
45.4,7.800000190734862,129.0,21.437612533569336,22.121835708618164,-79.78137187483244,40.45956047079025,291.1244320526123,0.1221357360482216,-0.0803139954805374,-0.5715993642807007,0.8074074983596802,-0.8366825199329035,5.481926738102832,-1.516053280193972,0.0064272256568074,0.0627892017364502,0.2464013248682022,-0.6052031922340393,-0.299923644438386,-10.45171788454056,14956.0
45.5,7.699999809265138,129.0,21.534019470214844,21.000635147094727,-79.78136609508145,40.4595628570315,291.1334538116455,0.1239087879657745,-0.0766834467649459,-0.572659969329834,0.8067384958267212,-0.8707369932787974,5.121660475228302,-1.4654229276804758,0.0227982010692358,-0.0656183883547782,0.0803368538618087,-0.6857379166781903,-0.2134326720423996,-10.29446052789688,14956.0
45.7,7.300000190734862,135.0,21.537776947021484,20.952924728393555,-79.78135503731397,40.45956714269496,291.1430019989013,0.1179152727127075,-0.0730704441666603,-0.5718352794647217,0.8085550665855408,-0.8771707837324999,4.50372476361953,-1.35313449719143,-0.0799012780189514,-0.020058112218976,-0.0232695359736681,-0.6945839499682188,-0.4936395235732198,-9.691820170283318,14956.0
45.8,7.099999904632568,133.0,21.596622467041016,20.00666236877441,-79.78134997886251,40.459569251087615,291.1402096405029,0.1160667464137077,-0.0757060870528221,-0.5700350403785706,0.8098500967025757,-0.8564343340922037,4.2144856176884575,-1.32408812223767,-0.0074254050850868,0.0716778934001922,-0.2041268795728683,-0.579024988487363,-0.1858330832608044,-9.520268125534056,14956.0
46.0,6.5,134.0,21.284862518310547,24.3721866607666,-79.78134067014973,40.45957271461054,291.1050400390625,0.1297956109046936,-0.0837949365377426,-0.564836859703064,0.8106114864349365,-0.7952934757564769,3.5825885432828013,-1.3766461787616229,0.0014706421643495,0.2465811669826508,-0.117033950984478,-0.4092232711985708,-0.2054616928473115,-9.43584427177906,14956.0
46.1,6.199999809265138,135.0,21.252307891845703,25.03218460083008,-79.78133254876126,40.45957550845239,291.05258985900883,0.1450448483228683,-0.1015406176447868,-0.5584014058113098,0.810456395149231,-0.7286258260963769,2.879952793967428,-1.4247861709550738,-0.0465784631669521,0.1602911055088043,-0.1320340186357498,-0.3904765496402979,-0.3088276017084718,-9.632433509230614,14956.0
46.3,5.5,144.0,21.068256378173828,27.680124282836918,-79.78132954537038,40.459577092890186,291.0099396362305,0.1489395201206207,-0.1088393256068229,-0.5551803112030029,0.8110153079032898,-0.7489868320641981,2.491484025743047,-1.4083094266149483,-0.0879204347729682,0.1338400840759277,0.0084030786529183,-0.2488847059942782,-0.2013115401752293,-9.831901330947876,14956.0
46.41,5.199999809265137,144.0,21.079524993896484,27.028079986572266,-79.7813256978998,40.4595775550093,291.00013967895507,0.1508672535419464,-0.1126926690340042,-0.5511664748191833,0.8128684163093567,-0.6700480863162309,2.1663195606309467,-1.3299913139522104,-0.0474072135984897,0.1214446052908897,-0.1148024722933769,-0.0934084203746169,-0.0485493219271302,-10.088132168054582,14956.0
46.6,4.400000095367432,150.0,20.68638229370117,33.52467727661133,-79.78132064367597,40.4595791103156,290.9448074951172,0.1553455144166946,-0.1166828051209449,-0.5450719594955444,0.8155669569969177,-0.6160720848023435,1.460716906683318,-1.040841218714576,0.051101304590702,0.127004325389862,-0.1137391701340675,-0.0679537638835609,-0.1777760220877826,-10.633776791095736,14955.0
46.71,4.099999904632568,153.0,20.56493377685547,34.105159759521484,-79.7813183684207,40.45958104594607,290.87086531066893,0.1745380163192749,-0.1199685037136078,-0.5414231419563293,0.8136368989944458,-0.6288902276911132,0.6935259415698494,-0.594435653867513,0.3595533967018127,-0.0796747133135795,0.1254466623067855,0.4456801491603256,0.0232490045204758,-11.432224613428115,14955.0
46.9,3.299999952316284,165.0,20.30951499938965,38.00152587890625,-79.7813166830498,40.459580513574686,290.89250036621087,0.1686040759086609,-0.1036207154393196,-0.5420261025428772,0.8167270421981812,-0.5324811420753158,0.3911916315846695,-0.3188711272656903,0.1730720400810241,-0.27625373005867,0.0313214287161827,0.3738094634190202,-0.2926934709213674,-11.790055500268936,14955.0
47.01,3.0,177.0,20.708919525146484,31.58444595336914,-79.78131664266276,40.4595810747684,290.8867077484132,0.1538267731666565,-0.0954560786485672,-0.5462886095046997,0.817798376083374,-0.5602405936827668,0.0623898893401433,-0.0052797665997327,-0.1177815943956375,-0.2149239629507064,0.0022014258429408,0.2194679122231901,-0.3041858809255064,-12.08635730624199,14955.0
47.2,2.5,193.0,21.07076072692871,25.93073463439941,-79.78131641824048,40.45958054895848,290.92743154907225,0.0333378128707408,-0.0378241091966629,-0.5762179493904114,0.8157393932342529,-0.4355590751738477,-0.197436897995886,0.3101241491668414,-0.0588634461164474,-1.5668323040008545,0.6551892161369324,0.3870148152485489,0.4017675230652094,-11.006162567138672,14955.0
47.3,2.400000095367432,202.0,21.26357650756836,24.30857276916504,-79.78131699391291,40.45958080186666,290.95689817810063,-0.0086739156395196,-0.0027993852272629,-0.6105727553367615,0.7919077277183533,-0.3896073722810026,-0.3662741919987892,0.3918979386398685,0.3225374817848205,-0.7350410223007202,0.955573797225952,-0.3885069881379605,0.3182367584109306,-10.893914737701415,14955.0
