time,wind_speed,wind_angle,battery_voltage,battery_current,position_x,position_y,position_z,orientation_x,orientation_y,orientation_z,orientation_w,velocity_x,velocity_y,velocity_z,angular_x,angular_y,angular_z,linear_acceleration_x,linear_acceleration_y,linear_acceleration_z,node_ids
0.0,0.6000000238418579,144.0,25.72713851928711,-0.0795177370309829,-79.78275695508944,40.45904216509202,271.0552616157532,-0.0188101530075073,0.0049798390828073,-0.9930056929588318,0.1164526715874672,-0.0201220549869848,-0.0147230322920731,0.0061745110679985,0.0067605450749397,0.0027382355183362,0.0059381886385381,-0.1659117108955979,0.3286670582368969,-9.805395902395247,14936.0
0.09,0.6000000238418579,143.0,25.74216270446777,-0.0715659633278846,-79.78275693281445,40.45904218375842,271.055851284504,-0.018821632489562,0.0049701067619025,-0.9930036664009094,0.1164680197834968,-0.025473579705613,-0.0169326864652506,0.0068403565075028,-0.0038798155728727,0.000204290554393,-0.0007374232518486,-0.1660825409553945,0.3124395364522934,-9.807733619213105,14936.0
0.19,0.6000000238418579,143.0,25.73089408874512,-0.1351801604032516,-79.78275704567139,40.45904225014757,271.04604441308976,-0.0187657065689563,0.0050001665949821,-0.993004322052002,0.1164700463414192,-0.015387835370475,-0.0120695052833687,0.0075052295892568,-0.0004046848334837,0.0025852960534393,-0.0025824410840868,-0.1662275336310267,0.3266384033113718,-9.805389470458032,14936.0
0.39,0.6000000238418579,143.0,25.722129821777344,-0.1431319266557693,-79.78275701133836,40.45904228171922,271.0475403108597,-0.0187917407602071,0.0049998238682746,-0.9930025339126588,0.1164811700582504,-0.0236311069908452,-0.0165902541750272,0.0085335799882191,-0.0083359880372881,-0.0029359199106693,-0.0077582509256899,-0.1674328275024891,0.3263590525835753,-9.804876084923745,14936.0
0.49,0.6000000238418579,144.0,25.72713851928711,-0.1749390214681625,-79.78275711744281,40.45904235958824,271.0376336016655,-0.0187721569091081,0.0049996841698884,-0.9930031299591064,0.1164791211485862,-0.0178433835930518,-0.0147348257882506,0.008509708330557,0.0063655893318355,0.0047414065338671,0.0079902932047843,-0.1615596282854676,0.3131564050912857,-9.805994072556496,14936.0
0.69,0.6000000238418579,144.0,25.72713851928711,-0.1669872552156448,-79.78275718087006,40.45904246046128,271.0285975375176,-0.0187788121402263,0.0049921749159693,-0.9930048584938048,0.116463802754879,-0.0228708860757324,-0.0154614804592031,0.0091981618119751,-0.0026912470348179,0.0021504776086658,-0.0082803415134549,-0.1643958202376961,0.3284434753283858,-9.805466653704643,14936.0
0.79,0.6000000238418579,145.0,25.72588539123535,-0.0874695107340812,-79.78275715698094,40.45904248007991,271.02947038793565,-0.0188126135617494,0.0049762786366045,-0.9930038452148438,0.1164681762456894,-0.0256413189424032,-0.0178743281823888,0.0095366091223945,0.0024919796269387,0.0039315805770456,0.0070143048651516,-0.1611947985738516,0.3019889358244837,-9.808166897892953,14936.0
1.0,0.6000000238418579,145.0,25.7333984375,-0.0715659633278846,-79.78275723900089,40.45904254728253,271.0201169886589,-0.0187691785395145,0.005016844253987,-0.9930039644241332,0.1164723262190818,-0.0218852284083844,-0.0108437535358488,0.0096995802502303,0.0072303260676562,0.002980419434607,-0.0038410518318414,-0.1645310553722083,0.3222131939604878,-9.805141548514367,14936.0
1.09,0.699999988079071,148.0,25.735902786254893,-0.1033730581402778,-79.78275721407734,40.459042562759976,271.02103728437424,-0.0187886245548725,0.0050002774223685,-0.9930026531219482,0.1164814829826355,-0.0257885580554766,-0.0131950312191095,0.0101273702203311,0.0024943023454397,0.0020659647416323,0.0048594614490866,-0.1662478892505169,0.2992946667596698,-9.80727285861969,14936.0
1.29,0.699999988079071,148.0,25.74091148376465,-0.0874695107340812,-79.78275736303819,40.459042672036674,271.0086177625656,-0.0187170747667551,0.005002056248486,-0.9930022358894348,0.116496168076992,-0.0161813107011634,-0.0186039572567456,0.0050884698109345,0.0056369360536336,0.0021751592867076,0.0048098051920533,-0.1638313081115484,0.3071642150357366,-9.807123754620552,14936.0
1.39,0.699999988079071,151.0,25.73965835571289,-0.0795177370309829,-79.7827573488087,40.45904269160994,271.00911170625693,-0.0187051575630903,0.0050178687088191,-0.9930017590522766,0.1165011078119278,-0.0207255413674155,-0.020590649181687,0.0055212881781681,-0.0076019205152988,-0.0035336716100573,-0.000527633819729,-0.1656723039597273,0.3098578445613384,-9.806136744618415,14936.0
1.59,0.699999988079071,151.0,25.73965835571289,-0.0874695107340812,-79.78275747449811,40.45904277377176,270.9991571345329,-0.0186937004327774,0.0050221080891788,-0.9930010437965392,0.1165087297558784,-0.0156716743817158,-0.0175764605965556,0.0065505784136835,0.0006880617584101,0.0029453453607857,0.009112536907196,-0.1662211382389068,0.3269839372113347,-9.803809552788737,14935.0
1.69,0.699999988079071,153.0,25.73965835571289,-0.0636141896247863,-79.78275757206305,40.45904286112496,270.9887627401352,-0.0186723191291093,0.0050387908704578,-0.9929999709129332,0.1165203377604484,-0.018390044474622,-0.0159231197675811,0.007210370282188,-0.0082803545519709,-0.0023669886868447,-0.0070816199295222,-0.1683049031719565,0.3237460049986839,-9.804125302433969,14935.0
1.9,0.699999988079071,154.0,25.735902786254893,-0.0715659633278846,-79.78275753427963,40.45904290087051,270.9901642241478,-0.0186654236167669,0.0050216228701174,-0.9929970502853394,0.1165474280714988,-0.0247941003651327,-0.0205104065577683,0.0078722635545425,-0.0022798918653279,8.486169099342078e-05,0.0025558453053236,-0.1636798834986984,0.3041480567492545,-9.806622648239136,14935.0
2.0,0.699999988079071,153.0,25.74091148376465,-0.0715659633278846,-79.78275769803425,40.45904296916653,270.9791749753952,-0.0186136309057474,0.0050276322290301,-0.9930000901222228,0.116529956459999,-0.0122106987241964,-0.0157903690276469,0.0084980573942959,-0.0033054368104785,-0.000489269325044,-0.0054773008450865,-0.1645006315782666,0.330408651418984,-9.803713658452033,14935.0
2.19,0.699999988079071,153.0,25.7434139251709,-0.0715659633278846,-79.78275780820114,40.45904306351488,270.9688855447769,-0.0185904316604137,0.0050569199956953,-0.9929990768432616,0.1165408343076706,-0.012779969315485,-0.0121531625040774,0.0087184061530509,-0.0077183572575449,-0.0013560930965468,-0.0063454424962401,-0.1649285746738314,0.3209030522033572,-9.805156166553498,14935.0
2.29,0.6000000238418579,150.0,25.73965835571289,-0.0795177370309829,-79.78275779574746,40.45904307809916,270.9697401561737,-0.0185919068753719,0.0050547323189675,-0.9929999113082886,0.1165333688259124,-0.0151093360834769,-0.0146472224886975,0.0090983683265831,0.0081726917997002,0.001322875265032,-2.966367537737824e-05,-0.1625889575108886,0.3207837690040469,-9.805459052324297,14935.0
2.49,0.6000000238418579,152.0,25.73715400695801,-0.0874695107340812,-79.78275789111497,40.45904319522771,270.95665139341355,-0.0185752026736736,0.0050392909906804,-0.9929976463317872,0.1165558397769928,-0.0197381650398048,-0.0164040422060472,0.0048251024567864,-0.0065304730087518,-0.0014581304276362,-0.0094254799187183,-0.1682386834546923,0.3291812112182379,-9.8040843719244,14935.0
2.59,0.6000000238418579,151.0,25.7333984375,-0.0874695107340812,-79.78275787195798,40.45904321499286,270.9570948519707,-0.0185805968940258,0.0050320387817919,-0.9929980039596558,0.1165522187948226,-0.0216369288092241,-0.0189747172066454,0.005014721843134,0.0085547575727105,-0.0012224881211295,0.0067756646312773,-0.1626633267849684,0.3070198253542185,-9.806591657996178,14935.0
2.79,0.6000000238418579,150.0,25.728389739990234,-0.0715659633278846,-79.78275796659537,40.45904330972178,270.9464253225326,-0.0185259003192186,0.0050581251271069,-0.9929963946342468,0.1165734454989433,-0.0222786140632832,-0.0157579182895876,0.0063762067011525,0.0007897174218669,-0.0019702420104295,-0.002470253733918,-0.1661737209744751,0.3254502856358885,-9.804076185822488,14935.0
2.89,0.6000000238418579,147.0,25.7333984375,-0.0795177370309829,-79.78275794459023,40.459043328238685,270.9470167794228,-0.0185215342789888,0.0050751925446093,-0.99299556016922,0.1165811121463775,-0.0249672904046489,-0.0177494545549126,0.0065807978337315,0.0047889836132526,-0.0008159766439348,0.0061005898751318,-0.1632992297597229,0.299850590787828,-9.806084119677545,14935.0
3.09,0.6000000238418579,146.0,25.73715400695801,-0.0874695107340812,-79.78275807316994,40.45904343773277,270.93825620794297,-0.0185004547238349,0.005073167849332,-0.9929925799369812,0.1166095584630966,-0.0189321515760237,-0.0187807756477451,0.0108385419469245,0.0062575149349868,0.0037981860805302,0.0049783694557845,-0.1619018365815282,0.3132073489576578,-9.805629791021348,14935.0
3.19,0.6000000238418579,145.0,25.749675750732425,-0.0159035474061965,-79.78275819070915,40.45904353398908,270.9246642627716,-0.0184670370072126,0.0050907670520246,-0.992992639541626,0.1166136264801025,-0.0185987137267699,-0.0148099074608772,0.0067004776421741,-0.0050211250782012,0.0012713614851236,-0.0018778067314997,-0.1637515301629901,0.3076278992369771,-9.807945288419727,14935.0
3.29,0.6000000238418579,143.0,25.73089408874512,-0.0795177370309829,-79.78275817199206,40.45904355219975,270.92530411863333,-0.0184682235121727,0.0050724986940622,-0.9929914474487304,0.1166244447231292,-0.0217987449123886,-0.0173139048780796,0.0070636657920013,0.0011184464674443,0.0006812303327023,-0.0059089646674692,-0.1647774789668619,0.3286293802410364,-9.804300134181975,14935.0
3.49,0.6000000238418579,143.0,25.73089408874512,-0.0874695107340812,-79.78275825164525,40.45904365228669,270.91190952444083,-0.0184776298701763,0.0051008546724915,-0.9929884672164916,0.116647370159626,-0.0254216053543998,-0.0111999710960711,0.0044188734620458,-0.0065986951813101,-0.0053181108087301,-0.0065202130936086,-0.1668577172979712,0.3244321026653051,-9.805074890255929,14935.0
3.59,0.6000000238418579,142.0,25.735902786254893,-0.1033730581402778,-79.78275822483137,40.45904366866457,270.9122856297493,-0.0184744764119386,0.0051070488989353,-0.99298757314682,0.116655021905899,-0.0271658371599741,-0.0137630296426421,0.0046269368690831,0.0043893167749047,0.004288185853511,0.0060901721008121,-0.1629686610773205,0.3139827262982726,-9.805608741045,14935.0
3.79,0.6000000238418579,141.0,25.734649658203125,-0.0079517737030982,-79.78275838612011,40.459043750997616,270.9013199248314,-0.0184134896844625,0.0051470552571117,-0.9929888248443604,0.1166520789265632,-0.0161995751270794,-0.0096960932660288,0.0055670627974975,-0.001602315227501,-0.0012166742235422,-0.0063137267716228,-0.1649659420363605,0.3277225501835346,-9.804311243891718,14935.0
3.89,0.6000000238418579,139.0,25.73214530944824,-0.0795177370309829,-79.78275836979722,40.45904376277728,270.9018459954262,-0.0184203516691923,0.0051803239621222,-0.99298894405365,0.1166486218571662,-0.0181410155317762,-0.0116341073573373,0.0057855214049625,0.0057493532076478,0.0040581803768873,0.0068404814228415,-0.1611704047210514,0.3028468319959939,-9.805984132289886,14935.0
4.09,0.699999988079071,141.0,25.73965835571289,-0.0954212844371795,-79.78275855839388,40.459043823388384,270.8926044740677,-0.0183645840734243,0.0051887352019548,-0.9929929971694946,0.1166220903396606,-0.0055156719738037,-0.0064774326075073,0.0098063126200463,0.0058838133700191,0.0020326552912592,0.0013109085848554,-0.1629739783890545,0.3185488900914788,-9.804991275072098,14935.0
4.19,0.699999988079071,141.0,25.73965835571289,-0.0795177370309829,-79.78275869962543,40.459043917007,270.8800639548302,-0.0183599069714546,0.0052151633426547,-0.9929914474487304,0.1166353523731231,-0.0044904717591503,-0.0045863832235782,0.0089829067688818,0.0009795313235372,-0.0005575842224061,0.0065677394159138,-0.1631131421215832,0.3012274821661413,-9.807169947624208,14935.0
4.39,0.699999988079071,137.0,25.735902786254893,-0.0795177370309829,-79.78275868622939,40.459043930378975,270.88191706323624,-0.0183714292943477,0.0052497079595923,-0.9929919838905334,0.116627424955368,-0.0097304553088812,-0.008702237201877,0.0097480032133928,0.0075911874882876,0.0032147930469363,0.0062056253664195,-0.1611058295331895,0.3072301423922181,-9.807856410741808,14935.0
4.49,0.8000000119209291,132.0,25.735902786254893,-0.0795177370309829,-79.78275888453979,40.459044022124,270.86906147384644,-0.018332103267312,0.0052502867765724,-0.992992341518402,0.1166306883096695,-0.0008730429677854,-0.0077680399309382,0.0086921124876397,-0.0044496599584817,-0.0026042337995022,-0.0013457484310492,-0.1650635357201099,0.3112076012045145,-9.807955228686334,14935.0
4.69,0.8000000119209291,134.0,25.73840713500977,-0.0874695107340812,-79.78275898553333,40.45904414871416,270.85773837947846,-0.0183379258960485,0.0052422317676246,-0.9929935336112976,0.1166197061538696,-0.0096903901064158,-0.0120305658318081,0.0086328298568827,0.0050213285721838,-0.0014248234219849,0.0082652308046817,-0.1639233834855258,0.2982672561518848,-9.806701585650442,14935.0
4.79,0.8000000119209291,135.0,25.73840713500977,-0.0874695107340812,-79.78275897530517,40.45904416260304,270.85860979938514,-0.0183444693684578,0.0052242097444832,-0.9929920434951782,0.1166319623589515,-0.0140214303152712,-0.014106796078606,0.0091912263924027,-0.0081981932744383,-0.0053245355375111,-0.0101379929110407,-0.1681550134532153,0.3256401008740067,-9.803960410952568,14935.0
4.99,0.8000000119209291,135.0,25.7333984375,-0.0954212844371795,-79.78275908695623,40.45904429904776,270.846758190632,-0.0183694269508123,0.0052325190044939,-0.9929898381233216,0.1166470423340797,-0.0171517304769285,-0.0168653060314943,0.009028015276079,-0.0041239857673645,-0.0006027847412042,0.0026875468902289,-0.1643263662792742,0.3043084349110723,-9.806733160614968,14935.0
5.09,0.8000000119209291,129.0,25.73089408874512,-0.1351801604032516,-79.78275907021802,40.459044318582364,270.8476436772346,-0.0183615740388631,0.0052334633655846,-0.992990791797638,0.116639532148838,-0.0205703158178257,-0.0190250729393518,0.0095803020379887,-0.0054880543611943,-0.0010243920842185,-0.0078225685283541,-0.1662180319055915,0.3306526264920831,-9.805036883354187,14935.0
5.29,0.8000000119209291,134.0,25.71962547302246,-0.1908425688743592,-79.78275925295956,40.459044410489504,270.83568174028403,-0.0183035712689161,0.0052566677331924,-0.992988348007202,0.1166684255003929,-0.0103966278540358,-0.013368098017323,0.0088297798931775,-0.0064876996912062,-0.0039531546644866,-0.0026234351098537,-0.1678879236057401,0.318180186599493,-9.805126930475236,14935.0
5.39,0.699999988079071,138.0,25.735902786254893,-0.0874695107340812,-79.78275924540456,40.459044423935545,270.83655733251567,-0.0182917024940252,0.0052490048110485,-0.9929894804954528,0.1166612729430198,-0.0120704527380431,-0.0153486710390793,0.0090664013118507,0.0026123377028852,0.0010033007711172,-0.0024718230124562,-0.1618022329173982,0.3225306246802211,-9.804239907860756,14935.0
5.59,0.699999988079071,140.0,25.735902786254893,-0.0954212844371795,-79.78275933509477,40.45904455742291,270.8213557639122,-0.0183036904782056,0.005258425604552,-0.9929876327514648,0.1166744753718376,-0.0207843402584669,-0.0147155686086001,0.0055979477027326,-0.0061570187099277,-0.0010233559878543,-0.0078494166955351,-0.1659178139269352,0.3295908452197909,-9.8060613155365,14935.0
5.7,0.699999988079071,133.0,25.728389739990234,-0.1272283792495727,-79.78275931582675,40.45904457470955,270.82187128448487,-0.0182899255305528,0.0052513675764203,-0.992987334728241,0.1166794374585151,-0.0220135492347393,-0.0167970573127436,0.0057113135123204,0.0064021167345345,0.006868103519082,0.0075552077032625,-0.161123553905636,0.3068764223903418,-9.80684601187706,14935.0
5.89,0.699999988079071,136.0,25.73715400695801,-0.0715659633278846,-79.78275947813937,40.45904467514056,270.80606866264344,-0.0182601232081651,0.00527287973091,-0.9929877519607544,0.1166797131299972,-0.0180999028816738,-0.0128069182626029,0.0026078098702977,0.0017158930422738,0.0017072121845558,-0.0012441535945981,-0.1631436572782695,0.3261485162749886,-9.804843340516092,14935.0
5.99,0.699999988079071,144.0,25.734649658203125,-0.0795177370309829,-79.78275962897649,40.45904479692906,270.7927154340744,-0.0182567574083805,0.0052750399336218,-0.9929869174957277,0.1166871264576912,-0.0151171616744897,-0.0131406174915663,0.0037076654489657,0.0056513445451855,0.0052507421933114,0.0114911254495382,-0.1629896562360227,0.2994752543605864,-9.807861673235896,14935.0
6.19,0.699999988079071,141.0,25.728389739990234,-0.0715659633278846,-79.78275977435977,40.45904491760376,270.77908754730225,-0.0182186644524335,0.00529041653499,-0.9929887056350708,0.1166770905256271,-0.0118364085082856,-0.0102027323261781,0.0051020247392636,0.009144976735115,0.0022940596099942,0.0054795071482658,-0.1653772022947669,0.3115405635908246,-9.805366666316988,14935.0
6.29,0.699999988079071,140.0,25.74091148376465,-0.0715659633278846,-79.78275976112181,40.45904493010403,270.7795838155746,-0.0182220973074436,0.0052927359938621,-0.9929870367050172,0.116691343486309,-0.0155481784958502,-0.011886533889195,0.0054452621523229,-0.002479842165485,-0.0057219844311475,-0.0004496876208577,-0.1657008822262287,0.3086406735330819,-9.80633788883686,14935.0
6.5,0.6000000238418579,141.0,25.7333984375,-0.0715659633278846,-79.78275991857932,40.45904506172344,270.7633556165695,-0.018177893012762,0.0053235525265336,-0.992986798286438,0.1166980862617492,-0.0109038651312703,-0.0109318679381895,0.0020390640837243,0.0031238822266459,0.0017494414933025,0.0087772393599152,-0.1630427197180688,0.3005811455659568,-9.807075807452202,14935.0
6.59,0.6000000238418579,140.0,25.735902786254893,-0.0954212844371795,-79.78275990707078,40.45904507480128,270.763553205967,-0.0181537270545959,0.005311157554388,-0.9929856657981871,0.116712212562561,-0.014905659219271,-0.0127320125029005,0.0025031604711667,-0.0077684274874627,-0.0022892954293638,-0.0110007673501968,-0.165777480751276,0.3271703537553549,-9.80558652162552,14935.0
6.79,0.6000000238418579,142.0,25.73715400695801,-0.0159035474061965,-79.78276001554974,40.45904521107877,270.7488576211929,-0.0181398969143629,0.0053115468472242,-0.9929826855659484,0.1167398542165756,-0.0195934946667562,-0.0099451967989208,0.0042846146252757,-0.0078453673049807,0.0006759233656339,-0.0028733378276228,-0.1652910654991865,0.3094072800502181,-9.807947627305984,14935.0
6.89,0.699999988079071,140.0,25.73715400695801,-0.0715659633278846,-79.78275999610746,40.45904522410024,270.7492349185944,-0.018107533454895,0.0053087221458554,-0.992982804775238,0.1167440190911293,-0.0215919851991383,-0.012019827808514,0.0045056157340683,0.0016765822656452,8.171171066351235e-05,-0.0046317582018673,-0.1633014772832393,0.3255374091491103,-9.805151488780975,14935.0
7.09,0.699999988079071,140.0,25.73840713500977,-0.0874695107340812,-79.78276013038698,40.459045358424966,270.7348586359024,-0.0180841628462076,0.0053045586682856,-0.9929807186126708,0.116765446960926,-0.0205901912432262,-0.0114207548948687,0.0056754257590456,-0.0063279108144342,-0.0014756087912246,-0.0090725924819707,-0.1698179250396788,0.3268810262158513,-9.80394696235657,14935.0
7.19,0.699999988079071,140.0,25.73840713500977,-0.0715659633278846,-79.78276027044078,40.459045501387365,270.7191331424713,-0.018058443441987,0.0052980910986661,-0.992980182170868,0.1167741939425468,-0.0174787697118901,-0.0135301228926598,0.0062595947881987,0.0070541859604418,0.0037730683106929,0.0083440206944942,-0.1634366576001048,0.3075867129117251,-9.805406427383422,14935.0
7.39,0.699999988079071,141.0,25.722129821777344,-0.0795177370309829,-79.78276023201998,40.45904553586349,270.72036868715287,-0.0180374551564455,0.005306031089276,-0.9929791688919068,0.1167862191796302,-0.0225896898985299,-0.0174511305384934,0.006975364317218,0.0039805904962122,0.0021899531129747,0.0052397758699953,-0.1619672157615423,0.3218490586057305,-9.805376021862031,14935.0
7.49,0.699999988079071,140.0,25.734649658203125,-0.0795177370309829,-79.78276040567037,40.459045682048114,270.7019588985443,-0.0180211197584867,0.0053035030141472,-0.9929785728454592,0.1167936995625496,-0.0160866535339605,-0.0180605409155166,0.0031810028787296,-0.0023096937220543,-0.0008992599905468,0.0032949205487966,-0.1606626105867326,0.3021825700253248,-9.808663911223412,14935.0
7.69,0.699999988079071,141.0,25.74091148376465,-0.0954212844371795,-79.7827603748903,40.45904572439648,270.7025637068749,-0.0180101320147514,0.0053164372220635,-0.9929777979850768,0.1168014556169509,-0.019892626487876,-0.0221948160005503,0.0034956888220122,0.0024859798140823,0.0049409843049943,0.0085973162204027,-0.1607547773234546,0.3010385805554688,-9.807062358856204,14935.0
7.79,0.699999988079071,145.0,25.73715400695801,-0.0874695107340812,-79.78276052066641,40.45904583643404,270.6839598455429,-0.0179840605705976,0.0053403745405375,-0.9929774403572084,0.1168072000145912,-0.0187881301945168,-0.0138985831084471,0.0014462002191411,-0.0079588815569877,-0.0021366248838603,-0.0082827340811491,-0.1651547705568373,0.3216465622186661,-9.806146100163463,14935.0
7.99,0.699999988079071,146.0,25.735902786254893,-0.0795177370309829,-79.78276067035176,40.45904599169649,270.66740376138694,-0.0179688706994056,0.0053278030827641,-0.9929745197296144,0.1168350353837013,-0.0145172882912096,-0.0162396782479835,0.0027975319151846,0.0005983117152936,-0.0010367489885538,0.0061859134584665,-0.1652809607796371,0.3039387081563473,-9.807621352672577,14935.0
8.09,0.699999988079071,147.0,25.734649658203125,-0.0874695107340812,-79.78276065717706,40.45904601006257,270.6676724591255,-0.0179747100919485,0.0053355963900685,-0.9929739236831664,0.1168389245867729,-0.017042935573812,-0.0183682682828126,0.0031606478940402,-0.0015555473510175,-0.0008763568475842,-0.0052944361232221,-0.1667865639925003,0.3279977713152766,-9.804809426665306,14935.0
8.29,0.699999988079071,148.0,25.735902786254893,-0.0636141896247863,-79.78276080674155,40.459046145389976,270.6492596902848,-0.0179363470524549,0.0053368769586086,-0.9929723739624025,0.1168576627969741,-0.013887689581131,-0.0131267235401552,0.0013250805273984,-0.0045093116350471,-0.004245672840625,-0.0105081852525472,-0.1676338072679937,0.3233403909578919,-9.805347370505334,14935.0
8.4,0.8000000119209291,150.0,25.72588539123535,0.0397588685154914,-79.7827607950447,40.45904615970721,270.64937299871445,-0.0179216992110013,0.0053517506457865,-0.9929717779159546,0.1168645918369293,-0.0146507838889818,-0.0151914734863453,0.0014656958799677,0.0067355302162468,0.0052818702533841,0.0034131889697164,-0.1611963151954114,0.3138086254522204,-9.8058005297184,14935.0
8.59,0.8000000119209291,150.0,25.73715400695801,-0.0795177370309829,-79.78276097150034,40.45904631586608,270.6326232590676,-0.0178895629942417,0.0053192842751741,-0.9929705262184144,0.1168818101286888,-0.0104432709186199,-0.0169052197581415,0.0032967871194343,-0.0036618537269532,0.0008707112283445,-0.0052272733300924,-0.1636254678480327,0.3053285730443895,-9.806874078512193,14935.0
8.69,0.8000000119209291,152.0,25.73214530944824,0.0,-79.78276113327891,40.4590464408097,270.6136237421036,-0.0178708117455244,0.0053341435268521,-0.9929687976837158,0.1168981418013572,-0.0054402898536136,-0.012547869335108,0.0004436197746054,0.0060566705651581,0.0044978568330407,0.0081715825945138,-0.1617281742766499,0.3008744565211237,-9.807503238916398,14935.0
8.89,0.8000000119209291,152.0,25.73089408874512,0.0238553211092948,-79.78276112290318,40.45904646891168,270.61375767374045,-0.017871618270874,0.0053224880248308,-0.992971122264862,0.1168785989284515,-0.0095866634912218,-0.0166592714656523,0.0009383558553975,0.0044211358763277,0.0030694296583533,4.631958290701732e-05,-0.1639379649795592,0.3144499553740025,-9.805999919772148,14935.0
8.99,0.8000000119209291,154.0,25.72964286804199,0.0,-79.78276123696179,40.45904659592723,270.5957247056961,-0.0178944040089845,0.0053414129652082,-0.9929677844047546,0.1169029250741005,-0.0136675891284516,-0.0129649572198921,0.0002350936849759,-0.001311789616011,0.0015335085336118,0.0017578516853973,-0.1654170547239482,0.3030760611221194,-9.80688051044941,14935.0
9.2,0.8000000119209291,154.0,25.72588539123535,0.1192766055464744,-79.782761385404,40.459046726925074,270.57823506379134,-0.0178539156913757,0.0053648017346858,-0.9929693937301636,0.1168941929936409,-0.0059562072219629,-0.0102550414196868,-0.0009412692043536,0.0063148257322609,0.0045288479886949,0.0057524493895471,-0.1626304179243743,0.3007216431945562,-9.806617385745051,14935.0
9.29,0.8000000119209291,151.0,25.718374252319336,0.0,-79.78276137963674,40.459046738312615,270.57815060400964,-0.0178511515259742,0.0053547355346381,-0.9929668307304382,0.1169174686074256,-0.0095900394279479,-0.0120373576925497,-0.0005567507895657,-0.0067511396482586,-0.0013603437691926,-0.0095312958583235,-0.1669201363250613,0.3246931808441877,-9.804825214147568,14935.0
9.49,0.8000000119209291,151.0,25.72964286804199,0.0,-79.78276151752756,40.45904689435983,270.5604710617065,-0.0178513545542955,0.00535644358024,-0.9929662942886353,0.1169211789965629,-0.008856000347665,-0.0160307985081339,-0.0012529171528592,-0.0042236228473484,-0.0003631679574027,0.0037611019797623,-0.165157164260745,0.3054732368141413,-9.80646828174591,14935.0
9.59,0.8000000119209291,150.0,25.73089408874512,-0.0238553211092948,-79.78276151125431,40.459046911326006,270.5603431501389,-0.017835771664977,0.0053269253112375,-0.9929672479629515,0.1169167906045913,-0.0109246333385058,-0.018187270624082,-0.0011056353882507,0.0016676617087796,0.0024234526790678,-0.0068190684542059,-0.1666642292775214,0.3273978104442358,-9.803665711283683,14935.0
9.79,0.8000000119209291,150.0,25.722129821777344,0.0477106422185897,-79.7827616501866,40.45904705734317,270.54412228250504,-0.0178073588758707,0.0053372224792838,-0.992965579032898,0.1169350817799568,-0.0106147023593494,-0.0175447698028245,0.0016445375088013,-0.0067051164805889,-0.001090612844564,-0.0069999396800994,-0.1683449565991759,0.3234107402712107,-9.805423384308815,14935.0
9.89,0.8000000119209291,149.0,25.72964286804199,-0.0079517737030982,-79.7827616434313,40.45904707504848,270.54427069807053,-0.0178115516901016,0.0053406176157295,-0.9929667711257936,0.1169247850775718,-0.0109520859670426,-0.019745164503804,0.0015614032216378,0.0095869172364473,0.0044860076159238,0.0050816857255995,-0.1637738226726651,0.312532214820385,-9.805376606583597,14935.0
10.09,0.8000000119209291,148.0,25.71962547302246,-0.0159035474061965,-79.78276176996184,40.45904721162764,270.52849239492417,-0.0177959576249122,0.0053421608172357,-0.9929655194282532,0.1169371753931045,-0.0115462130027857,-0.0178057930429836,0.0031673833586665,0.0004015486920252,0.0008502558921463,-0.0081927618011832,-0.1660339359752834,0.3304573660343886,-9.805614588260651,14935.0
10.19,0.8000000119209291,147.0,25.70585250854492,-0.0954212844371795,-79.78276192850575,40.4590473287178,270.5110717453957,-0.0177728980779647,0.00537870824337,-0.9929645657539368,0.1169472187757492,-0.0031194353610712,-0.0147046249251019,0.0007650813089138,0.002189896069467,0.001750633935444,0.0065831178799271,-0.1625021629035473,0.3007599790021777,-9.80755352497101,14935.0
10.39,0.8000000119209291,147.0,25.71211242675781,-0.0954212844371795,-79.7827619252472,40.45904735924115,270.51130399489404,-0.0178006794303655,0.0054292981512844,-0.9929638504981996,0.1169470474123954,-0.0065362896699214,-0.0187117559088256,0.0012554458455901,0.0062341773882508,0.0044580250978469,0.0053407819941639,-0.1640525521337986,0.3097597209736705,-9.807056511640551,14935.0
10.5,0.8000000119209291,145.0,25.70710563659668,-0.0795177370309829,-79.78276202352964,40.45904746973925,270.49335715556145,-0.0178141668438911,0.0054475795477628,-0.992961883544922,0.1169604435563087,-0.0123741402621765,-0.0108966104882108,7.149030829909519e-05,-0.0008613717509433,-0.0004005307273473,-0.0005287320818752,-0.1659538839384913,0.3089633302018046,-9.807344779372215,14935.0
10.69,0.8000000119209291,144.0,25.71461677551269,-0.1192766055464744,-79.78276219813011,40.4590476077226,270.47522992277146,-0.017778692767024,0.0054427525028586,-0.9929616451263428,0.1169681698083877,-0.0018280206428859,-0.0134947899778798,-0.0016006534003918,0.0044189398176968,0.001871823798865,0.0081606013700366,-0.1638064208999276,0.3015361603349447,-9.807300340533256,14935.0
10.79,0.8000000119209291,142.0,25.70960998535156,-0.0715659633278846,-79.78276219832334,40.45904762105217,270.4750984647274,-0.0177770294249057,0.0054359636269509,-0.9929611086845398,0.1169730871915817,-0.0050724461299917,-0.0152711516127876,-0.001184740781756,-0.0067875804379582,-0.0010201197583228,-0.0077556790784001,-0.1672853863053024,0.3254541594162583,-9.805468992590905,14935.0
10.99,0.699999988079071,142.0,25.71586990356445,-0.0874695107340812,-79.7827623483822,40.459047752228216,270.45893168830867,-0.0177540034055709,0.0054409918375313,-0.9929600358009338,0.1169856861233711,-0.0025891977420132,-0.0138455597315698,0.0006154561861041,-0.0017542752902954,-0.0004910648567602,0.0021304348483681,-0.1651255527511239,0.3065881546586752,-9.807007979750631,14935.0
11.09,0.699999988079071,141.0,25.71336555480957,-0.1192766055464744,-79.7827623487933,40.45904776598775,270.4590052702427,-0.0177191980183124,0.0054334066808223,-0.9929620623588562,0.1169737353920936,-0.004401785595447,-0.0159902468997568,0.0008087219438044,0.0017873308388516,-0.0004314509278628,-0.0115395197644829,-0.165001080147922,0.3300777721032501,-9.804160385727885,14935.0
11.29,0.699999988079071,140.0,25.71461677551269,-0.0954212844371795,-79.78276246038182,40.4590479224268,270.4411895909309,-0.0177219863981008,0.0054456004872918,-0.9929606318473816,0.116984911262989,-0.0104949382500615,-0.0176226179662165,-0.0002928774500882,-0.0094735827296972,-0.002061627106741,-0.009169278666377,-0.1612891580164432,0.3013793635927141,-9.806968803405764,14935.0
11.4,0.699999988079071,141.0,25.71336555480957,-0.1192766055464744,-79.78276245401408,40.45904793993351,270.4411489703656,-0.0177167411893606,0.005447007715702,-0.9929630160331726,0.1169654726982116,-0.0107505419998827,-0.0196319861251163,-0.0003104865697761,0.005812722723931,0.0026512979529798,0.0014291915576905,-0.1619514465518295,0.318140060082078,-9.804891872406008,14935.0
11.59,0.699999988079071,141.0,25.717121124267567,-0.1510837078094482,-79.78276259834855,40.45904805948582,270.42276111626626,-0.0177093893289566,0.0054484410211443,-0.9929631352424622,0.1169653162360191,-0.0093938083341878,-0.0134276884201601,-0.0013511843531371,-0.0056654941290616,-0.0006856899126432,-0.0074721919372677,-0.1662863164208829,0.3303997344151139,-9.803084498047829,14935.0
11.69,0.699999988079071,142.0,25.71586990356445,-0.1908425688743592,-79.7827627498427,40.4590481834053,270.4053177573681,-0.0176826063543558,0.005463155452162,-0.9929633736610411,0.1169669330120086,-0.0046466907382643,-0.0090111736018131,0.0010472698470941,0.0090172262862324,0.0030346328858286,0.008774016983807,-0.1626168414205313,0.3028731261938811,-9.806447231769562,14935.0
11.89,0.699999988079071,142.0,25.702096939086918,-0.2067461162805557,-79.78276273994481,40.45904820445468,270.40557220959664,-0.0176909416913986,0.0054802913218736,-0.992962658405304,0.1169711872935295,-0.0083462616473333,-0.012630810704146,0.0014441634508264,0.0068611493334174,0.0040488187223672,0.0022240371908992,-0.1634634817019105,0.3206927717104554,-9.804797732234002,14935.0
11.99,0.699999988079071,141.0,25.71336555480957,-0.198794350028038,-79.78276285270303,40.45904834531189,270.3867028989792,-0.0177145134657621,0.0054925000295042,-0.9929613471031188,0.1169778704643249,-0.0125711123704183,-0.0112758517435819,0.0001759085672267,0.0006923686596564,0.0007231700001284,0.0045314151793718,-0.1637637179531157,0.2999254534207285,-9.807088671326635,14935.0
12.19,0.699999988079071,141.0,25.71962547302246,-0.1749390214681625,-79.78276304358282,40.45904850284004,270.3678833284378,-0.0176399815827608,0.0055071539245545,-0.992964208126068,0.1169640347361564,-6.507639701866455e-05,-0.0145699622769559,-0.0014500887971081,0.0093674659729003,0.0021469218190759,0.0064660063944756,-0.1625838960148394,0.3044846919178963,-9.807899095416069,14935.0
12.29,0.699999988079071,140.0,25.71336555480957,-0.198794350028038,-79.7827630459257,40.459048516747714,270.3677687385083,-0.0176474880427122,0.0055064167827367,-0.9929632544517516,0.1169717162847518,-0.0031478886030124,-0.0162328180717632,-0.0011979083845795,-0.0075388113036751,-0.0047672865912318,-0.0063630077056586,-0.1658414894901216,0.3159729357808829,-9.807010318636896,14935.0
12.49,0.699999988079071,140.0,25.722129821777344,-0.1749390214681625,-79.78276318151475,40.45904866698172,270.34950736546523,-0.0176542606204748,0.005521616898477,-0.9929618239402772,0.1169817671179771,-0.0054341257172752,-0.0120852902109518,0.0011713032731042,0.0006809449405409,0.0020924233831465,0.0072519783861935,-0.1623967120237648,0.3000364226102829,-9.807704967856408,14935.0
12.59,0.699999988079071,140.0,25.71461677551269,-0.1828908026218414,-79.78276317749938,40.459048679722464,270.34963247561456,-0.0176414735615253,0.0055233612656593,-0.9929617047309875,0.1169844344258308,-0.0081446702965215,-0.0137901628025322,0.0014512518439482,-0.0060089891776442,-0.0026462983805686,-0.0123381363227963,-0.1678948306292295,0.3281002803146839,-9.80470300734043,14935.0
12.79,0.699999988079071,140.0,25.71336555480957,-0.1113248318433761,-79.78276336052762,40.45904883658503,270.33248949432374,-0.0176440719515085,0.005542938131839,-0.9929600954055786,0.1169969365000724,-0.0028881339061847,-0.0145657486836388,0.0032170711019288,-0.0020910194143652,-0.0031416257843375,-0.0012480462901294,-0.1650376800633967,0.3097838772833347,-9.807174625396732,14935.0
12.89,0.699999988079071,139.0,25.72713851928711,-0.1113248318433761,-79.78276336168395,40.459048850053634,270.3328261711597,-0.0176132842898368,0.0055509745143353,-0.9929602742195128,0.1169999986886978,-0.0039567628849253,-0.0162806947685548,0.0032834960733291,0.0010002660565078,-0.0006442958256229,-0.004949219059199,-0.1664423274435103,0.3275291900709272,-9.804503617286684,14935.0
13.09,0.699999988079071,139.0,25.73214530944824,-0.0954212844371795,-79.7827635219506,40.45904900441647,270.3169501760006,-0.017629899084568,0.005560731049627,-0.9929535388946532,0.1170537695288658,-0.0035708762453766,-0.0175991039938444,0.0042692173202015,-0.0077098230831325,-0.0029828294645994,-0.0065293498337268,-0.1671758971922099,0.3255419772863388,-9.804450992345812,14935.0
13.2,0.699999988079071,138.0,25.73214530944824,-0.0715659633278846,-79.7827636785982,40.459049138001,270.30115016186244,-0.017613798379898,0.0055624023079872,-0.9929537177085876,0.1170544475317001,0.0013458058695588,-0.0159721639588692,0.0047787609874659,0.0076984544284641,0.0018855589441955,0.0040034675039351,-0.1641846992075443,0.3139880253374577,-9.80605020582676,14935.0
13.39,0.8000000119209291,137.0,25.73089408874512,-0.0715659633278846,-79.78276368707905,40.459049168104045,270.3021790572405,-0.0176273826509714,0.0055695516057312,-0.9929512143135072,0.1170735582709312,-0.0024846809557278,-0.0193268715159859,0.0050422403344867,-0.0035435955505818,0.0002130023494828,-0.0061280368827283,-0.1657016862183809,0.3283231688663363,-9.80493455708027,14935.0
13.5,0.8000000119209291,136.0,25.728389739990234,-0.0715659633278846,-79.78276380244681,40.459049280531296,270.2867188938856,-0.0176548641175031,0.0055809337645769,-0.9929475188255308,0.1171003356575966,-0.0041549387733255,-0.0126047318617739,0.0052967677465269,0.0047841812483966,-0.0026232716627418,0.0098026432096958,-0.1618819560483098,0.3034740555100143,-9.80632327079773,14935.0
13.7,0.8000000119209291,137.0,25.73214530944824,-0.0874695107340812,-79.78276396301105,40.45904940352646,270.27251598620416,-0.0176503136754036,0.0055814059451222,-0.992945909500122,0.1171146258711814,0.0002822985603075,-0.0096500921925164,0.0056398194789039,0.0064963004551827,0.0004547586431726,0.0013088496634736,-0.1619682572968304,0.3195082719996571,-9.805760183930396,14935.0
13.79,0.8000000119209291,138.0,25.72338104248047,-0.0795177370309829,-79.78276396458551,40.45904941271379,270.27310482048995,-0.0176593251526355,0.005570045672357,-0.9929447770118712,0.117123082280159,-0.0014412919158547,-0.011041983343443,0.0058165805430748,0.0024527774658054,0.0005108366021886,0.005294922273606,-0.1644692941568792,0.2996324713714421,-9.807776888608933,14935.0
13.99,0.8000000119209291,138.0,25.72713851928711,-0.0874695107340812,-79.7827640958521,40.45904953259139,270.260052863598,-0.0176403950899839,0.0055625312961637,-0.992942988872528,0.1171417087316513,-0.0019896635696792,-0.0098671700197228,0.0060978742043959,0.0084333978593349,0.0067442115396261,0.0034546917304396,-0.1632333572208881,0.305235236864537,-9.807327822446824,14935.0
14.09,0.8000000119209291,137.0,25.735902786254893,-0.0795177370309829,-79.78276409442907,40.45904954264185,270.26067592585093,-0.0176459532231092,0.0055699609220027,-0.9929416179656982,0.1171520873904228,-0.0049948684881348,-0.0113354807473008,0.0062957434245351,-0.0072342958301305,-0.0016508291009813,-0.0019971909932792,-0.165727139879018,0.3163536991551519,-9.806657146811483,14935.0
14.29,0.8000000119209291,136.0,25.72463417053223,-0.0715659633278846,-79.78276421938025,40.45904968721402,270.24842285001284,-0.0176392123103141,0.0055857766419649,-0.9929403066635132,0.1171631142497062,-0.0053119129001985,-0.0151386122316887,0.007260453641333,-0.0008496646769344,-0.00130270794034,0.0076962923631072,-0.1633844894729554,0.3011298702098429,-9.80683490216732,14935.0
14.39,0.8000000119209291,137.0,25.71962547302246,-0.0715659633278846,-79.78276421718917,40.45904970163807,270.2491567322016,-0.017616432160139,0.0055941636674106,-0.9929397702217102,0.1171707287430763,-0.0077774584338142,-0.0166554513889393,0.0074862217568227,-0.0041386159136891,-0.0028073585126549,-0.0072769047692418,-0.1661603454686701,0.3290501604974269,-9.804848603010178,14935.0
14.59,0.8999999761581421,136.0,25.734649658203125,-0.0874695107340812,-79.78276431355243,40.4590498132795,270.23489037537576,-0.017654150724411,0.0056097861379385,-0.9929370284080504,0.1171877607703208,-0.0105724452329419,-0.0119007240467864,0.0045075103448213,-0.0060430341400206,-0.0028451129328459,-0.0047115902416408,-0.1653567553125322,0.3131169729307294,-9.806064239144323,14935.0
14.69,0.8999999761581421,137.0,25.735902786254893,-0.0795177370309829,-79.78276446354067,40.45904992100358,270.2223997154236,-0.0176383648067712,0.0056068743579089,-0.9929368495941162,0.117191806435585,-0.0030611807304383,-0.0113971308699501,0.0054926894663279,0.0014741029590368,0.0017367072869092,-0.001304508303292,-0.166204967033118,0.322043917067349,-9.805108219385149,14935.0
14.89,0.8999999761581421,138.0,25.73089408874512,-0.0715659633278846,-79.78276445983941,40.459049944818936,270.22351405406005,-0.0176351722329854,0.0055975043214857,-0.9929330348968506,0.1172251105308532,-0.0067644784091298,-0.0144570953518909,0.005793194193566,-0.0028896681033074,-0.0019142341334372,-0.0112890293821692,-0.1653649596869945,0.3305911576375365,-9.805497059226036,14935.0
14.99,0.8999999761581421,139.0,25.73089408874512,-0.0795177370309829,-79.78276455426703,40.4590500484668,270.2116369792223,-0.0176220890134573,0.0055982237681746,-0.9929322600364684,0.1172340214252472,-0.0077250373052951,-0.0118333949870446,0.0065749155600468,0.0083536710590124,0.0029203961603343,0.0079147377982735,-0.1618201948329806,0.3054981057532132,-9.808127136826515,14935.0
15.2,0.8999999761581421,140.0,25.73715400695801,-0.0795177370309829,-79.78276464374538,40.45905015301107,270.1993498020768,-0.0176191329956054,0.0056103775277733,-0.9929323196411132,0.1172331944108009,-0.0100960881867469,-0.0079995079130227,0.0039625372005521,0.0017435871995985,0.0010948576964437,-0.00192524085287,-0.1619878637418151,0.3231986325234174,-9.803946377635002,14935.0
15.29,1.0,141.0,25.735902786254893,-0.0715659633278846,-79.7827646332818,40.45905016283716,270.1997244992256,-0.0176332890987396,0.0055953566916286,-0.9929301142692566,0.1172506511211395,-0.0113324117105912,-0.0093380532884815,0.0039262890215414,0.0047749294899404,-0.0024643486831337,0.0067264661192893,-0.1631525011919438,0.3005667833425105,-9.80763070821762,14935.0
15.49,1.0,141.0,25.72713851928711,-0.0795177370309829,-79.78276476221637,40.459050260039504,270.1871627458334,-0.0175892636179924,0.0056007564999163,-0.9929267168045044,0.1172854155302047,-0.0046432126270492,-0.0076023159512503,0.001598628587004,0.0053128902800381,0.0045720906928181,0.0063001490198075,-0.161528108138591,0.3098620472475886,-9.806175336241722,14935.0
15.59,1.0,141.0,25.7333984375,-0.0795177370309829,-79.78276475735036,40.45905026858164,270.1873224117756,-0.0175992380827665,0.0056152231991291,-0.9929237961769104,0.1173079535365104,-0.0071439975856518,-0.0088840483055323,0.0016656138185027,-0.0057655400596559,-0.0042027095332741,0.000951052585151,-0.1648377966508269,0.3083315020054579,-9.806793971657754,14935.0
15.79,1.0,142.0,25.7333984375,0.0318070948123931,-79.78276489551557,40.45905035784519,270.17693908149005,-0.0175792593508958,0.0056327199563384,-0.992922842502594,0.1173184141516685,-0.0010745290929864,-0.0077154236853016,0.0036360474580422,0.004486730787903,0.0061783506534993,0.00875008944422,-0.1629840831086039,0.3024147044867277,-9.806456587314608,14935.0
15.89,1.0,142.0,25.735902786254893,-0.0636141896247863,-79.78276489556373,40.459050364974544,270.17730938279635,-0.0175557248294353,0.0056366212666034,-0.9929203391075134,0.1173422932624816,-0.0037755058496988,-0.0088520061593185,0.0037518648597032,-0.0099600404500961,-0.005957341287285,-0.0074662286788225,-0.1681756614334881,0.3228829194232822,-9.804372639656068,14935.0
16.09,1.0,142.0,25.734649658203125,-0.0795177370309829,-79.78276499687945,40.45905047030894,270.1674136706592,-0.0175738185644149,0.0056483726948499,-0.9929189682006836,0.1173512488603592,-0.0043829510782589,-0.0109351062477891,0.0046996710439937,-0.0022197875659912,0.0012538169976323,0.0009733131155371,-0.1656790465302765,0.3022100153937936,-9.806356599926948,14935.0
16.2,1.0,144.0,25.72964286804199,-0.0795177370309829,-79.78276509895414,40.45905054713771,270.15721674644954,-0.0175609420984983,0.0056813810952007,-0.992919147014618,0.1173498183488845,-0.0037693013390331,-0.0065270786435016,0.005726002777172,-0.0038248014170676,-0.0022497246973216,-0.0077751250937581,-0.1660641953162849,0.3300244162604213,-9.80490005850792,14935.0
16.39,1.0,144.0,25.728389739990234,-0.0715659633278846,-79.78276509369988,40.45905056241628,270.1583585702777,-0.0175671689212322,0.0056790360249578,-0.9929177165031432,0.1173607558012008,-0.0063899380966795,-0.0094625884954932,0.0059212964292383,-0.0058666388504207,-0.0009594254079274,-0.0029007147531956,-0.1636469380930066,0.3034705837257207,-9.809020006656649,14935.0
16.49,1.0,144.0,25.7333984375,-0.0795177370309829,-79.7827651989252,40.459050631186,270.14803122365475,-0.0175555106252431,0.0056876079179346,-0.992919385433197,0.1173481866717338,-0.0033262375645676,-0.0051449902329239,0.0065469746158806,0.0033594262786209,0.0003322176926303,-0.002105759922415,-0.1649889106303453,0.3234087302908301,-9.804458009004591,14935.0
16.69,1.0,143.0,25.73214530944824,-0.0715659633278846,-79.78276527601976,40.45905072329012,270.13826828086377,-0.0175896659493446,0.0056902640499174,-0.9929153919219972,0.1173767298460006,-0.0087832724326715,-0.0045780374472745,0.0077393026235584,-0.0088738873600959,-0.0033892660867422,-0.0116666490212082,-0.1665207714959979,0.3270465389639139,-9.804964377880095,14935.0
16.79,1.0,141.0,25.72713851928711,-0.0795177370309829,-79.78276526729209,40.45905072973778,270.1390124113262,-0.0175987556576728,0.0057033863849937,-0.9929144978523254,0.1173827797174453,-0.0085515702505165,-0.0061532359859591,0.0075784319003424,0.0067214374430477,0.0019980061333626,0.005739624146372,-0.1629580264538526,0.311127640530467,-9.80651272058487,14935.0
16.99,1.0,142.0,25.71962547302246,-0.0954212844371795,-79.78276538189145,40.45905080668143,270.12940934681893,-0.0175647586584091,0.0057015088386833,-0.9929129481315612,0.1174004822969436,-0.0045410137586262,-0.0069847737833114,0.0075356351151776,-0.0020864084362983,0.001493236515671,-0.0036005524452775,-0.1659218704327941,0.3290146386623383,-9.803865686058998,14935.0
17.1,0.8999999761581421,144.0,25.73089408874512,-0.1033730581402778,-79.78276537802294,40.45905081437116,270.13014867538215,-0.0175812784582376,0.0057153836823999,-0.9929120540618896,0.1174052134156227,-0.004865811049087,-0.0083802895595254,0.007372908452154,0.0065107261762022,0.0001033420776366,0.0082351993769407,-0.1633980659767985,0.301790514215827,-9.807030783891678,14935.0
17.29,0.8999999761581421,143.0,25.7333984375,-0.0795177370309829,-79.78276543474516,40.45905090524072,270.11872640633584,-0.0175925306975841,0.0057330839335918,-0.9929075241088868,0.1174406632781028,-0.0114803736539093,-0.0078674963901165,0.0046561794346295,0.0052594579756259,0.0047525940462946,0.0037795710377395,-0.1625448110327124,0.3180800895765424,-9.80453460752964,14935.0
17.4,0.8999999761581421,145.0,25.74091148376465,-0.0079517737030982,-79.78276542282447,40.45905091466852,270.1191702001691,-0.0176142025738954,0.005759997293353,-0.9929038286209106,0.1174674183130264,-0.0131120082198809,-0.008863461996122,0.0046744806929995,-0.0036275300662964,-0.002805657684803,0.0064030610956251,-0.1638444278016686,0.3004965436644852,-9.808193210363386,14935.0
17.6,0.8999999761581421,144.0,25.72588539123535,-0.0954212844371795,-79.78276556533693,40.4590509807791,270.1091600340754,-0.017565419897437,0.0057753007858991,-0.9929014444351196,0.1174941807985305,-0.0020744058443743,-0.0080783941696016,0.0054467017041134,0.0096173901110887,0.0021965075284242,0.0070654256269335,-0.1691129883751273,0.3291997761279345,-9.804968470931051,14935.0
17.69,0.8999999761581421,145.0,25.73214530944824,-0.0795177370309829,-79.78276566646716,40.45905103868461,270.0985665676147,-0.0175612363964319,0.0057934243232011,-0.9928997159004213,0.117508128285408,-0.001927138677179,-0.0036435092067776,0.0061754474041955,-0.0044662952423095,-0.0011097352253273,-0.0022271641064435,-0.1671524352394044,0.3122899573668837,-9.805144472122194,14935.0
17.89,0.8999999761581421,144.0,25.682064056396484,0.7951774001121521,-79.78276566305858,40.45905104815428,270.0997847878337,-0.0175671279430389,0.0057735689915716,-0.992904782295227,0.1174662560224533,-0.0034947577775035,-0.0062009586472189,0.0060520564134941,0.0029305154457688,0.0007521932711824,0.0067175677977502,-0.1616461670771241,0.2905733984336257,-9.804757971167565,14935.0
17.99,0.8999999761581421,145.0,25.708356857299805,0.2385532110929489,-79.78276575355692,40.45905110792561,270.0894667758569,-0.0175484996289014,0.005776782054454,-0.9928929209709167,0.1175687834620475,-0.0044043046799129,-0.0043695874153961,0.0064558457708306,-0.0043007018975913,0.0010018431348726,-0.0128501942381262,-0.1604024643078446,0.3466014919057488,-9.803699625134469,14935.0
18.19,0.8999999761581421,146.0,25.71336555480957,0.2306014448404312,-79.78276582758619,40.45905119876189,270.07791556508374,-0.0175567213445901,0.0057541131973266,-0.9928969144821168,0.1175349280238151,-0.0084454063967873,-0.008628606486854,0.0034433310950461,-0.0043767648749053,-0.0004799398884642,0.0064669563435018,-0.1658034460432827,0.3169482878968119,-9.807067036628723,14935.0
18.3,0.8999999761581421,146.0,25.70710563659668,0.2146978974342346,-79.7827658201726,40.459051208379705,270.0782325413041,-0.0175550859421491,0.0057429233565926,-0.9928922653198242,0.1175752356648445,-0.0098598319190889,-0.0093988024698968,0.0032884615617197,0.0022079062182456,-0.0047153723426163,-0.0070006917230784,-0.1634416825510561,0.3219341355934739,-9.802127893567086,14935.0
18.49,0.8999999761581421,146.0,25.70585250854492,0.2226496636867523,-79.78276586825535,40.459051286253015,270.0663861176893,-0.0175492204725742,0.0057771648280322,-0.9928914308547974,0.1175807937979698,-0.0151432005433988,-0.0073130887264473,0.0015815738182769,-0.0078972680494189,-0.0099073722958564,-0.0030945709440857,-0.164933343809098,0.3210615482926369,-9.80375868201256,14935.0
18.59,0.8999999761581421,147.0,25.70710563659668,0.2624085247516632,-79.7827658533388,40.45905129667384,270.0665023243949,-0.0175484158098697,0.0057814130559563,-0.9928895831108092,0.1175965517759323,-0.0149582015449772,-0.0094434871298834,0.0014748682878691,0.0081955064088106,0.002697424730286,0.0004518040223047,-0.1674834790080785,0.3136076274141669,-9.809238692522053,14935.0
18.79,0.8999999761581421,147.0,25.702096939086918,0.4055404663085937,-79.78276600049273,40.459051353988926,270.0544071515054,-0.017502661794424,0.0057870824821293,-0.9928891062736512,0.1176077276468277,-0.0044543708062591,-0.0079024510695035,-0.0001330468747902,-0.0031210328452289,0.0005087787285447,-0.0065045822411775,-0.1758277115598321,0.3257207924500108,-9.800471962094306,14935.0
18.89,0.8999999761581421,146.0,25.695837020874023,0.3737333714962005,-79.7827659981458,40.45905136117518,270.05438708895446,-0.0175164006650447,0.0058107082732021,-0.9928890466690063,0.1176044419407844,-0.0041309038561793,-0.0089892077945196,-0.0003875436856249,0.0082108126953244,0.0023652284871786,0.0064471042715013,-0.1722805164568126,0.294318339060992,-9.803574494719506,14935.0
19.09,0.8999999761581421,146.0,25.42038536071777,2.369628667831421,-79.78276608610486,40.45905143219181,270.042804461062,-0.0173629522323608,0.0059771933592855,-0.9929112195968628,0.1174317821860313,-0.0041560411401173,-0.0072990728207698,-0.0001906852191356,0.0032530347816646,-0.0171605944633483,0.0072081224061548,-0.1595375149324536,0.2995776354521513,-9.803445271253588,14935.0
19.19,0.8999999761581421,147.0,25.669544219970703,0.4055404663085937,-79.782766177041,40.45905148159921,270.031394913882,-0.01733123883605,0.0059780376031994,-0.992911696434021,0.117432564496994,-0.0064552760325676,-0.0021453047471955,-0.0016516983556362,-0.0474500022828578,0.019565898925066,-0.018766364082694,-0.1722595761157572,0.3837253909930587,-9.792361289262772,14935.0
19.39,0.8999999761581421,148.0,25.08608818054199,25.191219329833984,-79.78276617014515,40.4590514931655,270.03101122760773,-0.0173997897654771,0.0059058018960058,-0.9929063320159912,0.1174707189202308,-0.002446010195895,-0.005630347724132,-0.0018883102643846,0.0047018551267683,0.0023977877572178,0.0134773822501301,-0.1503919762931764,0.3017666319943965,-9.812564588785172,14935.0
19.49,0.8999999761581421,148.0,25.536827087402344,1.7732455730438232,-79.7827662657502,40.45905157151761,270.0196631216407,-0.0172369666397571,0.0059872865676879,-0.9929175972938538,0.1173961088061332,-0.0017512535872974,-0.0114319927541789,-0.0009202409995892,-0.005580882076174,0.029972294345498,-0.0031476223375648,-0.2082098293863237,0.3149517561122775,-9.790486671924592,14935.0
19.69,0.8999999761581421,148.0,25.695837020874023,0.1431319266557693,-79.78276637249517,40.459051613410246,270.0080893152356,-0.0173567179590463,0.0059800613671541,-0.9929081201553344,0.117458552122116,-0.0045841253439211,-0.0030692216434625,0.0019117657063774,0.0039784745313227,-0.0048866351135075,0.0118712587282061,-0.1676428156346082,0.3002978662401438,-9.809700037837027,14935.0
19.79,0.8999999761581421,147.0,25.68581962585449,0.1669872552156448,-79.78276636726041,40.45905161663408,270.0082257875204,-0.0173930041491985,0.0059388549998402,-0.9928982853889464,0.1175386756658554,-0.0035278195698502,-0.0034390792356826,0.0013989563984734,0.0185613054782152,0.0028538315091282,0.0122538739815354,-0.1565695596300065,0.2740630541369319,-9.806759473085403,14935.0
19.99,0.8999999761581421,147.0,25.42414093017578,3.95203161239624,-79.78276644978352,40.45905168046124,269.99813349926467,-0.0173621159046888,0.0059108897112309,-0.9928979873657228,0.1175470501184463,-0.0064796107003409,-0.0044306176592732,0.0027656103978051,-0.0022764129098504,-0.0166613738983869,0.0065573370084166,-0.1650999529100954,0.3020781058631837,-9.810152027606962,14934.0
20.1,0.8999999761581421,149.0,25.354026794433597,5.486723899841309,-79.78276644490765,40.45905168624545,269.9984578751922,-0.0173151809722185,0.0059456368908286,-0.9929051399230956,0.1174919083714485,-0.0055677648840715,-0.0061852257258625,0.0034274700877821,0.0068982681259512,-0.0180277526378631,-0.0138890864327549,-0.1892747909389436,0.3052832205779851,-9.790938076972962,14934.0
20.3,0.8999999761581421,149.0,25.17873954772949,7.8324971199035645,-79.78276653266623,40.45905173098405,269.98693435275555,-0.0171245913952589,0.0060805240646004,-0.992918848991394,0.1173972561955452,-0.0020752157862724,-0.004327035350915,0.0023204967525281,-0.0009829603368416,-0.0135750751942396,0.0005704428185708,-0.1654464552551508,0.3273670394718647,-9.831294389963151,14934.0
20.39,1.0,149.0,25.092348098754893,8.556108474731445,-79.7827665302385,40.45905173493573,269.9872162901759,-0.0167318638414144,0.0061586103402078,-0.9929335713386536,0.1173253133893013,-0.002758161981585,-0.0042149515768775,0.0041612226057126,0.0788659453392028,0.0777754709124565,0.0352457165718078,-0.2252283698134125,0.251245574131608,-9.812451152801517,14934.0
20.59,1.0,149.0,24.86447525024414,12.341153144836426,-79.78276663783501,40.459051809397344,269.97787250959874,-0.01570975035429,0.0061853406950831,-0.992948353290558,0.1173393130302429,-0.0022011260398985,-0.0118698997591544,0.0071420362358678,-0.0062116347253322,-0.0325433351099491,-0.0037863971665501,-0.1379310572426766,0.4473762802407146,-9.82218559741974,14934.0
20.69,1.0,148.0,24.753042221069336,13.398738861083984,-79.78276676323297,40.459051863227714,269.96839528167254,-0.013257198035717,0.0061801332049071,-0.9930256009101868,0.1169881597161293,-0.0022189617172558,-0.0130494449857361,0.0127678639760281,0.0510703027248382,0.0277011226862669,0.0234130453318357,-0.3820413563400507,0.0882249093800783,-9.753104252815248,14934.0
20.89,1.0,147.0,24.49386787414551,16.897520065307614,-79.78276675824642,40.45905187997168,269.9709532746077,-0.0119163691997528,0.0048521780408918,-0.99310702085495,0.1165030226111412,-0.0015750757252564,-0.0103408831387297,0.0125639418651893,0.0129958242177963,0.0177504103630781,0.0225235950201749,-0.2160522429272532,0.2569415113516152,-9.801989314556122,14934.0
21.0,1.0,146.0,24.3536376953125,19.4659423828125,-79.78276686734581,40.45905192199744,269.9621235393882,-0.0109375277534127,0.0041824281215667,-0.9931654334068298,0.1161266639828682,-0.0022883395268365,0.0005785973045786,0.0266507582624327,-0.0102473897859454,-0.02966477163136,0.0285002533346414,0.0080406889691948,0.0932667441666126,-9.935140939950942,14934.0
21.19,1.0,145.0,24.0856990814209,22.757976531982425,-79.78276685167486,40.459051924408605,269.9662170671821,-0.0119654322043061,0.0033533251844346,-0.993173599243164,0.1159818992018699,-0.022764074828202,0.0160494450385283,0.0552649189339504,-0.018398717045784,-0.0430392734706401,0.0081317890435457,0.1496525227837264,0.1668094046786427,-10.069170817136763,14934.0
21.29,1.100000023841858,142.0,23.937957763671875,24.904956817626957,-79.7827668407265,40.4590519189851,269.9723792933822,-0.0083343647420406,0.0015665850369259,-0.9930497407913208,0.1173898726701736,-0.0440958979178687,0.0458769572159738,0.178021491863091,0.0625056698918342,0.0393822602927684,-0.0001231030473718,0.14406644012779,-0.0357912272773683,-10.644666645526888,14934.0
21.49,1.100000023841858,143.0,24.336109161376957,18.94907760620117,-79.78276675416008,40.459051885181545,269.9966139459014,-0.0065166372805833,0.0007712868973612,-0.99290668964386,0.1187154129147529,-0.0548062139355672,0.0561351317534364,0.2992439425869028,0.0949312895536422,0.1236968114972114,-0.1218050047755241,0.0492300017829984,0.3541784235835075,-10.850976294279098,14934.0
21.59,1.2000000476837158,142.0,24.398712158203125,17.668842315673828,-79.78276675142631,40.45905183397812,270.0297868103683,-0.0011689031962305,-0.0020448297727853,-0.9926320314407348,0.1211449280381202,-0.0581957055364875,0.073604885440827,0.2883384249886142,0.1791250705718994,0.0742240771651268,0.0112374611198902,0.1334718518145382,0.0358307508006691,-9.830612604618072,14935.0
21.79,1.2000000476837158,140.0,24.242206573486328,19.89533805847168,-79.78276678684901,40.45905196107097,270.0298190974593,-0.0015992516418918,-0.006910222582519,-0.9927560687065125,0.1199381351470947,-0.0775766509742528,0.0487814327395279,0.1165633124377585,-0.0500366911292076,0.0241108927875757,0.038497406989336,0.0963471395988017,-0.0007969983341172,-9.32765499472618,14935.0
21.89,1.2000000476837158,141.0,24.31232070922852,19.10811233520508,-79.78276669269607,40.45905193330178,270.0395335481465,0.0009174034930765,-0.0070631010457873,-0.9928714036941528,0.1189778372645378,-0.0678168732249128,0.0428833505066278,0.0769419383010562,0.1162414774298668,0.0134714096784591,-0.0359983928501606,0.1142944005969911,-0.0788135782442987,-9.387321152687074,14935.0
22.09,1.2999999523162842,140.0,24.20589637756348,20.40425109863281,-79.78276664908952,40.459051927296414,270.0391243361831,0.0044788271188735,-0.0056191249750554,-0.992986023426056,0.1180136948823928,-0.0814307863866894,0.0427430039397934,0.0336994800073463,0.0381434932351112,-0.0205510891973972,0.0373357273638248,0.0504051961982622,-0.1033063312154263,-9.349686133861542,14935.0
22.2,1.2999999523162842,138.0,24.13578224182129,21.09605598449707,-79.78276665086777,40.45905192509674,270.04566595712305,0.0072015468031167,-0.0035237071570008,-0.9931522011756896,0.1165523529052734,-0.0778385943474198,0.0480868037352475,0.0200785021701733,-0.057318065315485,-0.0449087545275688,0.0243185069411993,0.0015039586834609,0.0884304938279092,-9.618415979146958,14935.0
22.39,1.2999999523162842,138.0,24.169586181640625,20.8734073638916,-79.78276649453778,40.45905188330501,270.05161699847883,0.0039846808649599,-0.004423948470503,-0.9932350516319276,0.1159687712788581,-0.035407397728997,0.0295964586274116,0.0393501159027152,0.0797821730375289,0.0853335261344909,0.013552363961935,0.034603708027862,-0.0654434445686638,-9.894873504638673,14935.0
22.49,1.2000000476837158,137.0,24.13828468322754,21.501596450805664,-79.78276644532895,40.459051813867546,270.06308133350313,0.003006198676303,-0.004970739595592,-0.9932350516319276,0.1159757599234581,-0.0261364364602479,0.0481722818637893,0.0661719174135911,0.1332988291978836,-0.0180061776190996,0.0516498573124408,0.0607596329692751,-0.1442956327088177,-9.815889315605164,14935.0
22.69,1.2999999523162842,136.0,24.07443046569824,21.97075080871582,-79.78276639007683,40.45905178295183,270.07011430626363,0.0036416959483176,-0.0054072304628789,-0.9931817650794984,0.1163936331868171,-0.0276284804850293,0.044691853909803,0.073823608235925,0.0867474600672721,-0.0386292561888694,-0.0201336126774549,0.0315744551760144,-0.1204836509563028,-9.849941160678863,14935.0
22.79,1.2999999523162842,136.0,24.00431632995605,22.09798049926757,-79.78276631181892,40.45905175264373,270.08245036387444,0.006556368432939,-0.0063562090508639,-0.9930375218391418,0.1174444481730461,-0.0356662956933717,0.0458116497580821,0.0895596350161,-0.0735600367188453,-0.0771554261445999,-0.0843313038349151,0.0617549752537161,0.1346486313734203,-9.954105799198151,14935.0
22.99,1.2999999523162842,136.0,23.998056411743164,22.88520622253418,-79.78276624504053,40.45905170347036,270.0901037353054,0.0077247195877134,-0.0065681678242981,-0.992915153503418,0.1183925047516822,-0.0232041805039097,0.0329856995071655,0.1446745017242515,-0.1119450703263282,0.0461603738367557,-0.0054440763778984,0.0256113892793655,-0.0482723831757903,-10.100680292844771,14935.0
23.09,1.2000000476837158,137.0,24.40372085571289,11.204049110412598,-79.78276622844392,40.45905168481228,270.1063945145309,0.0071631190367043,-0.0071610598824918,-0.9928827285766602,0.1186645627021789,-0.0031327516897303,0.0270533662841602,0.1774768248682906,-0.0298679079860448,0.0151575952768325,-0.0621854364871978,0.0079758442612364,0.0969551038462668,-10.076077548265458,14935.0
23.29,1.2000000476837158,135.0,23.68754768371582,26.54302215576172,-79.78276628051759,40.45905172245479,270.0970818140507,0.0043196957558393,-0.0092529254034161,-0.9928960204124452,0.1185467168688774,0.004739143928137,-0.0002094242354155,-0.0824642199079676,-0.1302894204854965,-0.0904253795742988,0.0352690815925598,0.1663775147125125,-0.099330014437437,-8.905181969404223,14935.0
23.39,1.2000000476837158,134.0,23.685043334960927,26.638442993164062,-79.7827662825237,40.45905172296794,270.0899393307939,-0.0020218072459101,-0.0059681823477149,-0.9929218888282776,0.1186019331216812,0.0017657056279139,-0.006378668650166,-0.0438790522238053,-0.080685093998909,-0.1162557750940322,0.0278387907892465,0.077769320346415,-0.110304790539667,-9.902961373329164,14935.0
23.49,1.2000000476837158,134.0,23.628700256347656,27.07579040527344,-79.78276612328482,40.459051546890656,270.11213802555204,-0.0034466669894754,-0.0039489194750785,-0.9929263591766356,0.1186167523264885,0.0238070551634152,0.0011480130626009,0.107482892366756,0.1648901551961898,0.0045327069237828,0.0476797148585319,0.1555580644123256,-0.0668127345666289,-10.648621702194212,14935.0
23.69,1.2000000476837158,129.0,23.32570457458496,31.822999954223643,-79.78276622081286,40.459051412111286,270.12541446843744,-0.0001209513284265,-0.0048722587525844,-0.992883563041687,0.1189894378185272,0.0112171605371492,0.0209868488559325,0.3765034693994479,0.0118993418291211,-0.045396614819765,-0.0699799880385398,0.1727403816953301,0.0757719160476699,-11.498190561532974,14935.0
23.89,1.2000000476837158,130.0,23.22428894042969,33.413352966308594,-79.78276623483768,40.45905140083915,270.1746272110343,0.0027445349842309,-0.0057219481095671,-0.9928585290908812,0.1191286146640777,0.0104401093915194,0.0207817304386145,0.6067231423423993,0.0199179463088512,-0.0778732001781463,-0.0267684999853372,0.1384048004820943,0.0869248175248503,-11.993172569274902,14935.0
23.99,1.2999999523162842,131.0,23.24432182312012,33.222511291503906,-79.78276635863604,40.4590514324677,270.3307365217209,0.0050831153057515,-0.0054096528328955,-0.9928099513053894,0.119471475481987,0.0279988986558983,0.0138812459337316,1.091976531843582,0.0293810181319713,-0.0775985196232795,0.0115868281573057,0.1654403339512646,-0.0453650379180908,-12.286898092031482,14935.0
24.19,1.2999999523162842,131.0,23.31819152832031,31.679866790771484,-79.78276653416779,40.459051489348,270.57550460481644,-0.0017788043478503,-0.0019832830876111,-0.992761254310608,0.1200754940509796,0.0357211024087591,0.0052595654604241,1.5949985780140652,-0.0737137869000434,-0.0530974864959716,-0.0404797792434692,0.1092275963723659,0.1204162069782614,-12.4982012629509,14935.0
24.29,1.399999976158142,134.0,23.276874542236328,32.41143035888672,-79.78276658290547,40.45905148660189,270.7475149073601,-0.0026919157244265,-0.0007865712395869,-0.992685317993164,0.1206985414028167,0.050627738433346,0.0045859510246616,1.8379867753161985,0.0141570987179875,-0.0278788954019546,-0.0191983468830585,0.135478186821565,0.0197969317389652,-12.311555800437928,14935.0
24.49,1.399999976158142,135.0,23.14040184020996,34.59021759033203,-79.78276662685319,40.45905147846341,270.9426909723282,-0.0022709788754582,-0.0003445316106081,-0.992637813091278,0.1210990995168686,0.0444514262777845,0.0088870361167263,2.059688165182278,0.007140387315303,-0.0391618311405181,0.0002421111857984,0.12890504848212,0.0571088644908741,-12.117899526357654,14935.0
24.6,1.399999976158142,140.0,23.109100341796875,34.20058059692383,-79.78276679629978,40.45905154732437,271.343990568161,-0.0028592159505933,0.0011226838687434,-0.992702066898346,0.1205541417002678,0.0398966218036761,0.0220359014768646,2.4647691557164246,-0.014145934022963,-0.0203687157481908,0.003325201338157,0.1855570033192634,-0.0594650822645053,-12.089304302930833,14936.0
24.79,1.399999976158142,143.0,23.402080535888672,28.80132484436035,-79.7827669855408,40.45905162913113,271.78261518859864,-0.0043196594342589,0.0020227830391377,-0.992733120918274,0.1202422305941581,0.0418001663531443,0.027627078390271,2.795169448701806,0.0014893265906721,-0.077257364988327,0.0499740839004516,0.1153981630504131,0.0083808199048507,-12.021488295793532,14936.0
24.9,1.399999976158142,146.0,23.61492919921875,26.566877365112305,-79.782766991394,40.45905158965825,272.0685709753037,-0.0042154993861913,0.0030103083699941,-0.9927217960357666,0.1203189268708229,0.0417351530250021,0.0391230569522842,2.911922215340632,0.041263647377491,-0.0077959247864782,0.01390050817281,0.0859493740461766,-0.0978950163535773,-11.08853463292122,14937.0
24.99,1.399999976158142,145.0,23.64122200012207,25.68422889709473,-79.78276712976854,40.45905174443333,272.2544777431488,-0.0048271715641021,0.0030762867536395,-0.992717146873474,0.1203327104449272,0.0344666087453131,0.0233696324484903,2.9020394702441643,0.0066198948770761,0.036308366805315,0.0653642117977142,0.0843812604434788,-0.1050265363790095,-10.625419950485233,14937.0
25.19,1.399999976158142,146.0,23.76141929626465,23.71219062805176,-79.78276723062531,40.459051824531,272.74792743110663,-0.0062915408052504,-0.00055375759257,-0.9927682280540466,0.1198808699846267,0.0217879507530961,0.029027537355851,2.894185974515009,0.0311372783035039,0.0750830844044685,0.0071569280698895,0.1262669400963932,0.1814774557761848,-10.163211586475374,14937.0
25.39,1.399999976158142,146.0,23.606164932250977,25.83531379699707,-79.78276719858185,40.45905178636031,273.0374891796112,-0.0061886738985776,-0.0035834882874041,-0.9927906990051272,0.1196479350328445,0.0178426999027454,0.0512922253479316,2.889064725700755,-0.0067512127570807,0.0964064672589302,0.0053195902146399,0.0623116119112819,-0.0635831392044201,-9.794459270238878,14938.0
25.49,1.399999976158142,150.0,23.666261672973643,25.71603775024414,-79.78276715948529,40.45905186113647,273.53489280128485,-0.0065262857824563,-0.0067735551856458,-0.9928293228149414,0.1191702857613563,0.003962992091716,0.0595174614115922,2.7971212563814074,0.1215544566512107,0.0517723187804222,0.0759739875793457,0.1731956605240702,-0.1767139301821589,-9.692443483471871,14938.0
25.69,1.399999976158142,152.0,23.63496208190918,25.60471153259277,-79.78276728740981,40.459051902514894,274.0454523601532,-0.0063677942380309,-0.0053036441095173,-0.9928818345069884,0.1188157498836517,-0.0188354409632427,0.0452334075445511,2.7665043299230283,-0.0866636559367179,-0.0658864974975586,-0.0913779363036155,-0.0191138570371549,0.1525000619888305,-9.893999930620192,14939.0
25.79,1.399999976158142,150.0,23.5886344909668,26.12157821655273,-79.78276721992694,40.45905190798455,274.32257748031617,-0.0054601831361651,-0.0046643512323498,-0.99289870262146,0.1187459081411361,-0.0121057976531241,0.0266608098671449,2.7760994868036817,0.1546341329813003,0.0275884605944156,0.0947582125663757,0.1179526471160352,-0.1191516826394945,-9.952962083816526,14939.0
25.99,1.399999976158142,150.0,23.676279067993164,26.04205894470215,-79.7827671407366,40.45905191861579,274.600810054779,-0.0047657475806772,-0.0048962901346385,-0.9929059147834778,0.1187063753604888,-0.0452554748566379,0.0273609599811884,2.7893025475649527,-0.0617353729903698,0.0069999475963413,-0.0671784505248069,0.0181717575341463,0.1104154856409877,-9.91544751763344,14939.0
26.09,1.5,144.0,23.67252349853516,25.668325424194336,-79.78276705121048,40.45905207964208,275.0559287109375,-0.0022771314252167,-0.0072006960399448,-0.9929304718971252,0.118457406759262,-0.0439065690182805,0.0033669994063906,2.7193253801959263,0.1235599890351295,0.0121662905439734,0.0436001308262348,0.1014010525401681,-0.1662971885874867,-9.852354891300203,14940.0
26.29,1.600000023841858,142.0,23.74013328552246,23.52134704589844,-79.78276703328494,40.459052076478365,275.65030193710334,-0.0008377225603908,-0.0113896811380982,-0.9929168224334716,0.1182612180709838,-0.0525295902501954,-0.0050017537337342,2.6947988309039674,-0.0053214346989989,-0.0114436261355876,-0.0016386429779231,0.0298122962401248,0.0411393282562494,-9.672714977860451,14940.0
26.39,1.600000023841858,135.0,23.55483055114746,26.344226837158203,-79.7827669729934,40.45905213530069,275.9183135070801,0.0005629272782243,-0.0128155527636408,-0.9929264187812804,0.1180372610688209,-0.0447734381008866,-0.0081241650627377,2.663613572542296,0.0724177584052085,0.048143982887268,0.0530357547104358,0.0941407658625394,-0.0284326160140335,-9.564535056352618,14940.0
26.49,1.600000023841858,134.0,23.686294555664062,24.26086235046387,-79.78276652478817,40.45905190655032,276.34462356948853,0.0002932053175754,-0.0126871336251497,-0.9929470419883728,0.1178783029317855,-0.0785436863019225,0.0104479793116967,2.7078415723786384,0.0054565127938985,-0.0111978203058242,-0.036509059369564,0.100616712514311,0.0622472103126347,-9.641329463124276,14941.0
26.69,1.600000023841858,128.0,23.64497756958008,25.49338722229004,-79.78276634636785,40.45905157226049,277.0478310623169,-0.000238243577769,-0.0108454041182994,-0.9929250478744508,0.1182470172643661,-0.0669951133230347,0.0036194025274849,2.7407941842459125,0.0012135269353166,-0.0452247858047485,-0.0330977253615856,0.0834271318931132,0.0283314865920692,-9.6207051640749,14942.0
26.89,1.7000000476837158,127.0,23.52102470397949,26.39193725585937,-79.78276627971421,40.45905164788046,277.321178440094,0.0002154791727662,-0.0101998429745435,-0.9928839802742004,0.118648000061512,-0.0587094041310781,-0.0161211171500573,2.728438409857445,0.0704468712210655,-0.0478238351643085,0.0043328185565769,0.1255591985955834,-0.0813473321031779,-9.675276643037796,14942.0
26.99,1.7000000476837158,120.0,23.692556381225582,23.9825496673584,-79.78276580804007,40.45905148923528,277.9930176773072,0.0027139603625983,-0.0104080429300665,-0.9927977323532104,0.119319312274456,-0.1001373033865504,-0.013213731167035,2.7676442092490934,-0.1440725773572921,-0.0788798257708549,-0.0708666816353797,0.0488668622821569,0.281599968932569,-9.760765859484671,14942.0
27.19,1.600000023841858,116.0,23.58112335205078,26.58278083801269,-79.78276552398876,40.45905143936948,278.65335989379884,0.0040879277512431,-0.0114101292565464,-0.992746651172638,0.1196127235889434,-0.084285424998605,-0.0191120947308198,2.7684705418690174,0.0175133161246776,-0.033460084348917,-0.0023070347961038,0.0871489029284566,0.1454106327798217,-9.570702699422837,14943.0
27.29,1.5,111.0,23.596147537231445,25.68422889709473,-79.78276547619045,40.459051527448906,278.92946100616456,0.0039571872912347,-0.0117050316184759,-0.992719292640686,0.1198157668113708,-0.0645991242314022,-0.0283136471701298,2.755832954352397,0.0313680656254291,0.0469674468040466,0.0022776271216571,0.1706879541836679,-0.0496197780920192,-9.698698250055314,14943.0
27.49,1.5,109.0,23.663759231567383,24.84134101867676,-79.78276544166576,40.45905162348432,279.2046513595581,0.0031364080496132,-0.0120709370821714,-0.9926925897598268,0.1200251504778862,-0.0786516042839979,-0.0345958133534388,2.7509286806684976,-0.1440351009368896,0.0350790284574031,-0.0300997085869312,0.1213008450251072,0.3092844519764185,-9.73102107346058,14944.0
27.6,1.399999976158142,108.0,23.72135353088379,23.33050537109375,-79.78276507228749,40.45905155364,279.86924314880366,-0.000200920534553,-0.0121905552223324,-0.9926353693008424,0.1205256357789039,-0.0471820581293124,-0.045897777438819,2.7869791520398985,0.0831683427095413,0.0488971583545208,0.0699812993407249,0.1733300733938813,-0.1048434819839894,-9.700785121321678,14944.0
27.79,1.2999999523162842,103.0,23.66876602172852,24.507368087768555,-79.78276462964871,40.45905154445696,280.54828024292004,-0.0002407246211078,-0.0120295342057943,-0.9926273226737976,0.1206078454852104,-0.0599024157396392,-0.0430259755725847,2.822749480549797,0.0067372233606874,0.0377814024686813,0.0065805953927338,0.1659216146171093,0.1539701616391539,-9.716548629999162,14945.0
27.89,1.2000000476837158,99.0,23.65249061584473,25.040136337280277,-79.78276458275937,40.45905165984396,280.82947588348395,0.0009018515702337,-0.0107645355165004,-0.9926351308822632,0.1206600740551948,-0.0669039134841932,-0.0499763098390052,2.8046563641689515,-0.0579526387155056,-0.0157486535608768,-0.0778848305344581,0.0718946364847943,0.2189077489636838,-9.597841966152194,14945.0
28.0,1.2000000476837158,98.0,23.556081771850582,25.49338722229004,-79.78276473950817,40.459051343726976,281.22695112609864,0.0011754214065149,-0.0096521377563476,-0.9926419854164124,0.120695374906063,-0.0502706706783571,-0.0345341464874583,2.8484597095409967,-0.072892278432846,-0.0843742936849594,-0.0376929566264152,0.1101228416338563,0.0564033933542668,-9.66477972149849,14946.0
28.19,1.100000023841858,95.0,23.54731750488281,26.12952995300293,-79.78276458026154,40.45905130183971,281.8885493316651,0.0002652900875546,-0.0106647163629531,-0.9926825165748596,0.1202818900346756,-0.0391516634906379,-0.029934334003281,2.8935002250491086,-0.0795416384935379,-0.053338948637247,-0.0144547177478671,0.0951194161735475,0.169248753413558,-9.729825317859651,14946.0
28.39,1.100000023841858,92.0,23.666261672973643,24.36423492431641,-79.78276457013631,40.45905138644946,282.17795420074464,-0.0010446327505633,-0.0113084949553012,-0.9927189946174622,0.11991748213768,-0.0142285060593637,-0.0340897091963071,2.8984474527907,0.0750754103064537,0.0869909450411796,0.0368171073496341,0.2182788261026144,-0.0612496707541868,-9.82897187590599,14947.0
28.49,1.0,84.0,23.576114654541016,25.3900146484375,-79.78276476910239,40.45905132870927,282.8321642913818,-0.0012877589324489,-0.0112429652363061,-0.9927896857261658,0.1193339675664901,0.0220370103245274,-0.0237031301023691,2.932624230183412,0.1293603926897049,-0.0371646620333194,0.0091938814148306,0.1839909910596907,-0.1218446634896099,-9.823535134792328,14947.0
28.69,0.8999999761581421,84.0,23.579870223999023,25.41386985778809,-79.78276480486406,40.4590514978955,283.41937303924567,0.0018255611648783,-0.009638462215662,-0.9928050041198728,0.1193401142954826,-0.0072611572522226,-0.0361949024677015,2.942397894135284,-0.0145429223775863,-0.0204555690288543,-0.0040731518529355,0.1931120262108743,0.0338071208260953,-9.884471307992936,14948.0
28.79,0.8999999761581421,84.0,23.63120460510254,24.70616149902344,-79.78276507672871,40.45905129864915,283.78002691650386,0.0016056231688708,-0.0090833399444818,-0.992759108543396,0.1197677329182624,0.0234586902462939,-0.0278267801721136,2.972348738826363,-0.0471186451613903,0.0083872843533754,-0.009606072679162,0.0876284933835268,-0.004582654768601,-9.758148645758627,14948.0
28.99,0.8999999761581421,82.0,23.57235908508301,25.056039810180664,-79.78276513521196,40.45905136930829,284.07643080139167,0.001258791424334,-0.0094547867774963,-0.9926936030387878,0.1202850043773651,0.0297705837141418,-0.0353668588975298,2.959102234255643,0.0175715517252683,-0.0658772215247154,-0.0239995494484901,0.1931327655538916,-0.0176298028696328,-9.70484191954136,14949.0
29.09,0.8000000119209291,80.0,23.658750534057607,23.92688751220703,-79.78276536486547,40.45905137468241,284.7144770660401,-0.0004470241256058,-0.0087892618030309,-0.9926812052726746,0.1204439029097557,0.0544826192094664,-0.0336586480264009,2.944244781558905,0.0304944105446338,0.0201675053685903,0.0128441490232944,0.1604205175861716,0.1704852933436632,-9.647732164263726,14949.0
29.29,0.8999999761581421,78.0,23.52352905273437,25.03218460083008,-79.78276555848748,40.45905140270174,285.3436369934082,-0.0022397404536604,-0.0083453068509697,-0.992645800113678,0.1207463964819908,0.0638700788894347,-0.0376107412236613,2.9280225827053323,0.0197210106998682,0.0643486157059669,-0.0001114269980462,0.1979283229261637,0.0460311910975724,-9.683407781124115,14950.0
29.4,0.8000000119209291,74.0,23.54230880737305,24.904956817626957,-79.78276563439637,40.45905146872535,285.6362338104248,-0.0030732012819498,-0.008953764103353,-0.992611289024353,0.120968110859394,0.0472169240045662,-0.0336840402273032,2.927424547034414,-0.1660542637109756,-0.1115915179252624,-0.0657779425382614,0.0738942152168601,0.1971591034345328,-9.753458594083789,14950.0
29.49,0.8999999761581421,66.0,23.54105758666992,24.17339324951172,-79.7827659673445,40.45905134224012,285.9796509780884,-0.0027449368499219,-0.0091060092672705,-0.9925947785377502,0.121100328862667,0.1046991228918902,-0.013971311917224,2.961134541713032,0.1677757799625396,-0.0188210923224687,0.0845591202378273,0.2343837390840053,-0.1876345738582312,-9.888708200454714,14950.0
29.69,0.8000000119209291,68.0,23.51601600646973,25.20712280273437,-79.78276615303363,40.45905134976992,286.6066756286621,-0.0012481361627578,-0.0089983055368065,-0.9926068186759948,0.1210346594452858,0.0809412626591037,-0.0205460190119691,2.9853306491700864,0.0341461524367332,0.0734832063317298,0.0362423472106456,0.1684239122830331,0.1506201912928372,-9.859934052228928,14951.0
29.79,0.8999999761581421,67.0,23.53229331970215,25.620615005493164,-79.78276624240073,40.45905139789444,286.90527868652345,-0.001655924366787,-0.0097908768802881,-0.9926217794418336,0.1208449825644493,0.0647793535522139,-0.0143880681716999,2.9882300177826693,-0.108625054359436,-0.0223937127739191,-0.0797861814498901,0.0663819044083356,0.1810362285375595,-9.800317010879516,14951.0
29.99,1.0,61.0,23.47970771789551,26.41579246520996,-79.78276641575441,40.45905141153051,287.5267825164795,-0.0040738922543823,-0.0074480632320046,-0.9926336407661438,0.1208577826619148,0.0906389442499731,-0.0190852026090713,2.9957735103805287,0.1330829262733459,0.0384392067790031,0.0428596138954162,0.2059225082583724,-0.0038461340032517,-9.864103116989137,14952.0
30.2,1.0,65.0,23.619935989379893,24.10182762145996,-79.78276649358489,40.45905145839792,287.8271842041016,-0.0037526281084865,-0.00673647550866,-0.9926192164421082,0.121027871966362,0.0724031999821606,-0.022037912333595,3.0117732298295428,-0.0800461322069168,-0.0314953252673149,-0.0606000013649463,0.1426466448046267,0.0795710210781544,-9.924705998897553,14952.0
30.3,1.100000023841858,49.0,23.473445892333984,26.25675773620605,-79.78276679560487,40.45905143171515,288.45206976318366,-0.0031670737080276,-0.0069626555778086,-0.9926143884658812,0.1210717037320137,0.0934730798322353,-0.0162808356740231,3.0200311200197296,0.053467534482479,-0.0201065801084041,0.0201288219541311,0.1727076738327741,-0.2758448651991784,-9.816205065250395,14953.0
30.49,1.100000023841858,41.0,23.51852035522461,24.65049934387207,-79.7827669715436,40.45905146885095,289.0749774017333,-0.0026369674596935,-0.0092682894319295,-0.9926409125328064,0.1207114458084106,0.0721095651790369,-0.0168821739959232,3.006924820322324,-0.0172550361603498,0.0542100518941879,-0.0161498077213764,0.1603082693181932,0.0142928699869662,-9.777720445990562,14954.0
30.59,1.100000023841858,66.0,23.490976333618164,25.19917106628418,-79.78276704096254,40.45905151345213,289.3751215972901,-0.0020603369921445,-0.0102329272776842,-0.9926283359527588,0.1207484677433967,0.0578288546198674,-0.0112685923274694,2.9947814654135927,-0.0489200800657272,0.0623246058821678,0.0029049958102405,0.1452244994603097,0.221587929893285,-9.702113023996354,14954.0
30.69,1.100000023841858,14.0,23.42461585998535,26.82928466796875,-79.78276708235367,40.459051511211655,289.6922717132568,-0.0016110154101625,-0.0095562543720006,-0.9925991296768188,0.1210497468709945,0.0509919299329903,-0.0023364527641266,2.9883549872590094,-0.0575115233659744,-0.0899493023753166,-0.0935273766517639,0.0958038601744919,-0.0223228238336742,-9.712969549298288,14954.0
30.89,1.2999999523162842,342.0,23.59239196777344,24.141586303710927,-79.7827671980122,40.459051613993175,290.29237890625,-0.0009595907176844,-0.0083165327087044,-0.9926435947418212,0.1207838654518127,0.0395883704839282,-0.0215615476017356,3.0183506099690383,-0.0116722732782363,0.0188184641301632,-0.0405524559319019,0.167991766501218,0.1011009533330798,-9.928497333526614,14955.0
31.09,1.100000023841858,280.0,23.52352905273437,25.366159439086918,-79.78276713049245,40.459051682925,290.90489149475104,-0.0009043706813827,-0.0094117689877748,-0.9926021099090576,0.1210444197058677,0.0080861404930295,-0.0121293641752519,3.0083200328407385,-0.0710646957159042,-0.0658041909337043,-0.0096229566261172,0.1212227846961468,0.1049182623904198,-9.820201052427294,14955.0
31.19,1.2999999523162842,241.0,23.503496170043945,25.453628540039062,-79.78276706798094,40.45905172434636,291.2132849731445,-0.0014142204308882,-0.0090810088440775,-0.992563247680664,0.1213826164603233,0.0223878771434166,-0.0184881914361845,3.0020995113576725,0.1297736167907714,-0.0126511845737695,0.0826596319675445,0.1944497412443161,-0.3150299991667271,-9.897973698377609,14956.0
31.29,1.399999976158142,270.0,23.50474739074707,24.57893371582031,-79.78276708207777,40.45905179051383,291.5138888397217,-0.0005439359811134,-0.0085375141352415,-0.992546319961548,0.1215675100684166,0.0010591087652527,-0.0242424951792895,3.0105397628143566,-0.0296449456363916,0.036014188081026,-0.0396953336894512,0.1561352394148707,0.3231499544531107,-9.843116290569307,14956.0
31.49,1.399999976158142,243.0,23.56234169006348,25.175315856933597,-79.78276700703375,40.45905190541666,292.1166377105713,0.0010105159599334,-0.0077896020375192,-0.9925170540809632,0.1218535229563713,-0.0242709944657081,-0.0229395760696356,2.9670628530493284,-0.1291285902261734,-0.0575292147696018,-0.0631086081266403,0.0944407828431576,0.2903801479563117,-9.617655841112136,14957.0
31.69,1.399999976158142,237.0,23.48346328735352,24.65049934387207,-79.78276701337084,40.459051973203,292.41213941955573,0.0003951192484237,-0.0067045418545603,-0.9925159215927124,0.1219307035207748,-0.0043108760307768,-0.0233665207361863,2.946440371236132,0.0283365286886692,-0.0838871449232101,-0.0055883675813674,0.184193542264402,-0.2445272147096693,-9.656344528198243,14957.0
31.79,1.2999999523162842,262.0,23.583627700805664,23.74399757385254,-79.78276713881273,40.459052006116586,293.0144305267333,-0.0025012856349349,-0.0050095375627279,-0.992585301399231,0.1214214488863945,0.0161946876706767,-0.0294818571905793,2.9428642958971163,0.0039241053164005,-0.0480614267289638,-0.0066462629474699,0.1461759693548083,0.0521929412707686,-9.675422823429107,14958.0
31.99,1.2999999523162842,262.0,23.500991821289062,25.135557174682607,-79.78276719197929,40.45905210538979,293.6177115478516,-0.0021964602638036,-0.0063822669908404,-0.9926318526268004,0.1209813952445984,0.0223744436341646,-0.0286156099005776,2.9317335585438022,0.0077967755496501,0.0756421312689781,-0.0381061434745788,0.169591930154711,0.2520599450916052,-9.77001440048218,14958.0
32.09,1.2999999523162842,287.0,23.413349151611328,26.40784072875977,-79.78276721243519,40.45905215328244,293.91090345764167,-0.0011152978986501,-0.0067548151127994,-0.9926241636276244,0.1210390403866768,0.0135570868924206,-0.0152579963787098,2.933797816021285,-0.0800371766090393,-0.0764359608292579,-0.0738359913229942,0.083055221568793,0.0934857589378953,-9.78613458931446,14958.0
32.19,1.2999999523162842,316.0,23.31318473815918,27.05988693237305,-79.78276742129701,40.459052061943744,294.2238421478272,-5.56343438802287e-05,-0.0073558157309889,-0.9926050305366516,0.1211657747626304,0.0604919020348175,-0.0020769864587616,2.9596288506740738,0.1560143083333969,0.06564562022686,0.0620599091053009,0.2136993598937988,-0.0484413311630487,-9.928930027484896,14959.0
32.4,1.2000000476837158,295.0,23.53104019165039,24.05411529541016,-79.7827675270423,40.459052108057534,294.81895780944825,-0.0004854426370002,-0.0066353357397019,-0.9925045371055604,0.1220270320773124,0.0297844466009144,0.0145608599404813,2.984892757172404,-0.1341758817434311,-0.0459381081163883,-0.0559457205235958,0.0783257103245705,0.2209112425893544,-9.827201339006423,14959.0
32.59,1.2000000476837158,7.0,23.36201477050781,26.646394729614247,-79.78276749313773,40.45905206528996,295.13070440673835,-0.0024384779389947,-0.0061310618184506,-0.9924452304840088,0.1225109845399856,0.0443377818275008,0.0133671728371518,2.9599431344035865,0.0797863826155662,-0.0589246414601802,0.0344587117433548,0.2237800693139434,-0.220912412032485,-9.642830443382262,14960.0
32.69,1.100000023841858,27.0,23.413349151611328,25.517242431640625,-79.78276742674312,40.45905206869737,295.73643827819825,-0.003064643125981,-0.0062826438806951,-0.9923971891403198,0.1228784322738647,0.0261811307544373,0.0115193046779662,2.9569153473279264,0.0356887243688106,-0.0253496579825878,-0.0306546129286289,0.1825089594349265,0.108322282936424,-9.813204274177552,14960.0
32.89,1.0,22.0,23.34573745727539,26.511213302612305,-79.78276743825228,40.459052100123024,296.32895613098145,-0.00012713977776,-0.0062906998209655,-0.9923911690711976,0.1229646056890487,0.0081850746819046,0.0230729656582955,2.9688940079305954,-0.0487722344696521,-0.0842702835798263,-0.0578296072781086,0.1445075851399451,0.14636185599491,-9.849426605701447,14961.0
32.99,0.8000000119209291,22.0,23.480958938598643,26.04205894470215,-79.7827675474669,40.45905201349071,296.63981199646,0.0016638606321066,-0.0069018448702991,-0.9923951029777528,0.1228884160518646,0.0349813505193133,0.026183598867446,2.972773292590747,0.1904160529375076,0.0918676778674125,0.0570640973746776,0.1958885948359966,-0.128334232326597,-9.804729904532431,14961.0
33.19,0.8000000119209291,35.0,23.53104019165039,24.28471755981445,-79.78276756413936,40.45905201776984,296.93682432556164,0.0020098676905035,-0.008203575387597,-0.992371678352356,0.1229928135871887,0.0030996365726553,0.0343575124453716,2.9680092103709965,-0.0786261111497879,-0.0159088186919689,-0.0297099146991968,0.1847995513491332,0.0370541893132031,-9.803737632036214,14961.0
33.3,0.8999999761581421,50.0,23.37203025817871,25.811458587646484,-79.78276759240464,40.45905202798347,297.5346903839112,-0.0002317081380169,-0.0089127626270055,-0.9923762679100036,0.1229227930307388,0.0043055136401586,0.0382186257113336,2.9445946841858484,-0.1055860519409179,-0.0964847132563591,-0.0546449422836303,0.0830037021171301,-0.0753793074935674,-9.684822807312012,14962.0
33.49,0.8000000119209291,78.0,23.39206314086914,25.46953201293945,-79.78276758033617,40.45905197484552,298.13012266540534,-0.0001913370069814,-0.0092752939090132,-0.9924640059471128,0.1221851259469986,0.0191304364305789,0.0398163283990137,2.94380878073656,-0.0040261764079332,-0.0700166448950767,-0.0010164766572415,0.1687546819634735,-0.0567763908952474,-9.794728242158891,14963.0
33.59,0.8000000119209291,119.0,23.38204765319824,25.42182159423828,-79.78276759788055,40.45905198848911,298.4244627990724,0.0006692967726849,-0.0088902916759252,-0.9925165176391602,0.1217844262719154,0.0181110372253966,0.0297553192258739,2.94288629338436,0.0396452397108078,0.0960416868329048,0.0344307124614715,0.1806663556024432,0.1469443117640912,-9.789568074345588,14963.0
33.69,0.8000000119209291,120.0,23.36201477050781,26.16133689880371,-79.7827676179993,40.45905195979453,298.72427893066407,0.001398992491886,-0.0087129594758152,-0.992523729801178,0.1217328757047653,0.0078984251841266,0.0303014521887418,2.938173624310822,-0.097347006201744,-0.0356446802616119,-0.0663461536169052,0.1052906660735607,0.1005233306530863,-9.773569507598877,14963.0
33.89,0.8000000119209291,103.0,23.370779037475582,25.80350685119629,-79.78276767008781,40.45905200062222,299.3123221435547,0.0010233049979433,-0.0082203038036823,-0.9925009608268738,0.1219561472535133,0.0165473588567156,0.0206910143173099,2.94779163942722,0.0290616787970066,-0.0461174957454204,-0.0022693797945976,0.1473611542861908,-0.0071048512402921,-9.853672853708268,14964.0
34.09,0.8000000119209291,122.0,23.49723625183105,23.61676788330078,-79.78276770182144,40.45905193004037,299.6100440063477,0.0008785002864897,-0.0082886768504977,-0.9924901723861694,0.1220404058694839,0.0270898180362776,0.0212781091405537,2.953165615761084,-0.0025315762031823,0.0677046254277229,0.0486186631023883,0.1676740799658,0.0068102292297407,-9.913447769880298,14964.0
34.2,0.8000000119209291,127.0,23.480958938598643,25.723989486694336,-79.78276776689471,40.45905191524167,300.20372343444825,0.0007327764760702,-0.0097836153581738,-0.9924351572990416,0.122377410531044,0.0473771729542506,0.018187839202458,2.927343245597672,0.0859603360295295,-0.0001189228933071,0.0499333590269088,0.1964259174093604,-0.249240253251046,-9.657122207880018,14965.0
34.39,0.8000000119209291,126.0,23.31819152832031,26.495309829711918,-79.78276785877911,40.45905196887021,300.7846674957276,-0.0019281613640487,-0.0100113740190863,-0.9923622608184814,0.1229361891746521,0.0334765162259978,0.0189859853769334,2.885825155544697,-0.0804310664534568,-0.051236405968666,-0.0192707423120737,0.2330839578621089,-0.0030334623903036,-9.603638895750048,14965.0
34.49,0.8999999761581421,137.0,23.30316734313965,26.511213302612305,-79.78276786225351,40.45905194343276,301.0802855529785,-0.0035915954504162,-0.0092542860656976,-0.99235862493515,0.1229872778058052,0.0385831972237242,0.0169079324856882,2.8952814928501054,0.0034422341268509,0.0343086831271648,0.0238630194216966,0.2181754765659571,0.1284063175320625,-9.77110899925232,14966.0
34.69,1.2000000476837158,137.0,23.43964195251465,25.350255966186523,-79.78276789194696,40.459051973395184,301.37056494140626,-0.0051616276614367,-0.0080494685098528,-0.992347240447998,0.12310791015625,0.0329075528001733,0.0164108092831234,2.9130945619511275,-0.1120568662881851,-0.0998386219143867,-0.0741423517465591,0.1084232113603502,0.0471018436923623,-9.953336305618288,14966.0
34.79,1.2000000476837158,144.0,23.34698867797852,26.04205894470215,-79.78276791365069,40.45905194672852,301.96097708129884,-0.0024112833198159,-0.0069037405773997,-0.9923245310783386,0.1234449818730354,0.0392436684265708,0.0053081393426845,2.9455899911729544,0.0672827884554863,0.0038156870286911,0.0002414051123196,0.1738849558867514,0.0601003776770085,-9.975816510915756,14966.0
35.0,1.2000000476837158,135.0,23.42461585998535,25.20712280273437,-79.78276798841833,40.45905194497972,302.5496764221192,0.000412067369325,-0.0077127767726778,-0.9922786951065063,0.1237876713275909,0.0263807847041379,0.014463873076929,2.9614583807149737,-0.0316423326730728,-0.0572948530316352,-0.0387930423021316,0.1264780702628195,-0.019846290461719,-9.911147475242617,14967.0
35.09,1.2999999523162842,260.0,23.38830757141113,25.66037368774414,-79.78276801743253,40.45905196550575,302.84547186279303,0.0015785562573,-0.0082729924470186,-0.9922847151756288,0.1236936151981353,0.0328499743859648,0.0116472831223155,2.9537777132864647,0.1552432626485824,0.0818349495530128,0.0671827644109726,0.1989108744263649,-0.0113562977872788,-9.797271196246149,14967.0
35.19,1.399999976158142,346.0,23.3782901763916,25.39796638488769,-79.78276804842879,40.459051984794,303.14051962280274,0.002485784003511,-0.008272242732346,-0.9922747015953064,0.1237595975399017,0.0177606107436994,0.0224376141320885,2.9467962966657884,-0.0238438043743372,-0.0141377197578549,-0.0320779159665107,0.1731351601146161,-0.0477929937187582,-9.754312872290614,14968.0
35.39,1.600000023841858,290.0,23.38329887390137,25.49338722229004,-79.78276811025394,40.45905199930501,303.72440100097657,0.0005020109820179,-0.0077398004941642,-0.9923415184020996,0.1232815533876419,0.0183800557478299,0.0238253241777153,2.9246823283032537,-0.0729569792747497,-0.0951441675424575,-0.0400679931044578,0.1646601509302854,-0.1185423844959586,-9.796183614134788,14968.0
35.5,1.600000023841858,275.0,23.35700607299805,25.46953201293945,-79.78276809535309,40.459051955641016,304.0191016235352,-0.0005570154171437,-0.007316596340388,-0.992376148700714,0.1230277270078659,0.0319114967337509,0.0195311387393908,2.9281538367977475,0.047122124582529,-0.0065240408293902,0.0557593815028667,0.2001517084054649,-0.0986664833687246,-9.779653535485268,14969.0
35.69,1.7000000476837158,292.0,23.35074615478516,25.62856674194336,-79.7827681223587,40.45905199272958,304.60825491333014,-0.0010797996073961,-0.0085058603435754,-0.9923855662345886,0.1228716224431991,0.0274716582002351,0.0078493129925477,2.913789748649388,-0.0274539217352867,0.0865180417895317,-0.0068935742601752,0.1413769858796149,0.1401986166089773,-9.711059848666194,14969.0
35.89,1.600000023841858,288.0,23.390811920166016,25.35820770263672,-79.78276817784986,40.45905204286162,305.1900191345215,-0.0002084196603391,-0.0099795507267117,-0.9922922253608704,0.1235172823071479,0.0351186150782418,0.0195185008899489,2.9030146310777565,0.0604274272918701,0.0175633169710636,0.0456303693354129,0.1796739551983773,-0.1969591834768653,-9.780197911262512,14970.0
35.99,1.600000023841858,296.0,23.32695770263672,25.994348526000977,-79.78276817860959,40.45905196402749,305.4872527160645,-0.000243276997935,-0.0104711130261421,-0.9922685623168944,0.1236665323376655,0.0231248661639147,0.0343857670877732,2.9061565221220205,-0.0052483510226011,-0.0351014137268066,-0.0336782895028591,0.1922915339469909,0.175477755703032,-9.72473531663418,14970.0
36.1,1.7000000476837158,311.0,23.29816055297852,26.72591209411621,-79.78276820524512,40.45905197927172,305.7773528137207,-0.0008480139658786,-0.0101504819467663,-0.9922458529472352,0.1238728240132331,0.0411629334572015,0.0344027578673947,2.8964413005312872,0.119841381907463,0.04230947047472,0.0610312707722187,0.2587545319274068,-0.2168909711949527,-9.753508295416832,14970.0
36.29,1.399999976158142,308.0,23.30316734313965,26.36808204650879,-79.78276818324395,40.45905197529856,306.36470556640626,-0.0019370553782209,-0.0098422290757298,-0.9922459721565248,0.1238843649625778,0.0211942311222416,0.0308859721335407,2.911229126011624,-0.039905235171318,-0.0818996801972389,-0.0134500470012426,0.1592958604730665,-0.0500999121554195,-9.835725409984589,14971.0
36.49,1.5,317.0,23.490976333618164,23.38616752624512,-79.7827682416309,40.45905190367108,306.9526267089844,-0.0033493274822831,-0.0094607723876833,-0.9922461509704592,0.123882807791233,0.0473370878945986,0.0341786694143121,2.9531938517441234,-0.0131277563050389,0.0149466721341013,-0.0011732834391295,0.2262363932467997,-0.0045171202719211,-9.989986653327945,14971.0
36.59,1.5,336.0,23.221784591674805,27.28253555297852,-79.782768272671,40.45905191543061,307.2477049865724,-0.0028389708604663,-0.0097082229331135,-0.9922610521316528,0.1237573027610778,0.0348214350769381,0.0345008738402499,2.9486483936028027,-0.0748282670974731,0.0193595774471759,-0.0523811504244804,0.1233504859730601,0.3645104536414146,-9.793404432535173,14972.0
36.69,1.600000023841858,340.0,23.254337310791016,27.043983459472656,-79.7827682999275,40.459051926552455,307.54286337280274,-0.0022467200178653,-0.0104359881952404,-0.9922369718551636,0.123902678489685,0.0532956735094666,0.0360061449005504,2.9548001390068626,0.0812874734401702,0.0095441909506917,0.0101231802254915,0.1825775545835495,-0.1611297482997179,-9.92666598558426,14972.0
36.89,1.399999976158142,332.0,23.295656204223643,25.779651641845703,-79.78276821871529,40.4590519094596,308.13569403076167,-0.0005773914163,-0.0127295246347785,-0.9921884536743164,0.1240958198904991,0.0247038347695126,0.0437089250235103,2.969034974812772,0.0550942532718181,0.0684803277254104,0.0429452285170555,0.2642549346014857,0.0930196079425513,-9.88499989628792,14973.0
37.0,1.5,339.0,23.32695770263672,27.043983459472656,-79.78276826962501,40.459051869307146,308.43273306274415,-0.0002359583741053,-0.0133644631132483,-0.99216490983963,0.1242181584239006,0.0156392987668147,0.050229746865334,2.9571943055798573,-0.0807915776968002,7.721483416389674e-05,-0.0803019106388092,0.1631722903624177,0.2315382829494774,-9.715132434368137,14973.0
37.19,1.600000023841858,342.0,23.301916122436523,25.859169006347656,-79.78276830885964,40.45905187504629,309.02740621948243,-0.001179133192636,-0.0135624296963214,-0.9921749830245972,0.1241108775138855,0.0269790652112713,0.0429473369456468,2.952374270668217,0.0378256067633628,-0.0220075137913227,0.0312417224049568,0.2778946249186993,0.099681468643248,-9.808579126596449,14974.0
37.39,1.600000023841858,346.0,23.36577033996582,25.191219329833984,-79.7827683352577,40.45905190669416,309.322595123291,-0.0017603441374376,-0.0126649672165513,-0.9921918511390686,0.1240643337368965,0.0396397558567211,0.0338284524363372,2.9490658032612345,0.077046237885952,0.0238190609961748,0.0384530387818813,0.2637207914516329,-0.1297086020931601,-9.815198174715045,14974.0
37.49,1.600000023841858,341.0,23.288143157958984,26.06591415405273,-79.78276834704832,40.45905193270275,309.91622686767585,-0.0024563402403146,-0.0105896173045039,-0.9922295808792114,0.1239454448223114,0.0227572447382071,0.0211046859339249,2.9548598688287235,-0.0226417407393455,-0.0697864815592765,-0.0074215712957084,0.1130237366817891,-0.0043324213474988,-9.848922575712203,14974.0
37.59,1.7000000476837158,338.0,23.280630111694336,26.853139877319336,-79.78276836493058,40.45905197044402,310.21219778442384,-0.0029065150301903,-0.0101199382916092,-0.9922722578048706,0.12363251298666,0.0361834105527439,0.0137226840272707,2.9632967054850066,0.1049741804599762,0.0336644314229488,0.0408275723457336,0.2288438494317233,-0.0251990235317498,-9.900424851179125,14975.0
37.79,1.5,337.0,23.27186584472656,26.67820167541504,-79.78276839512112,40.459051970074725,310.8113074340821,-0.0023940582759678,-0.0104143898934125,-0.9923134446144104,0.1232878342270851,0.0161695186546569,0.0175125305042741,2.991181787452869,-0.0623449645936489,0.0292862635105848,-0.0240534450858831,0.125771214980632,0.3021675682626665,-9.950706228017808,14975.0
37.89,1.5,342.0,23.38830757141113,25.11170196533203,-79.78276840622469,40.45905200465872,311.1112608947754,-0.001873500063084,-0.0112424762919545,-0.9922696352005004,0.1235765144228935,0.0339697938730198,0.0191284839286939,3.005770723551314,0.1163114160299301,-0.0138785438612103,0.0318815372884273,0.212369081787765,-0.2252977506816387,-9.978934246301652,14976.0
38.09,1.399999976158142,330.0,23.24056434631348,26.3521785736084,-79.78276840688416,40.45905205190832,311.7180914916992,-0.0001235968229593,-0.012228263542056,-0.9922338128089904,0.1237842738628387,0.0043012800199899,0.0192287672341922,3.004705583229393,-0.0635876655578613,0.0058594816364347,-0.0313369259238243,0.2373741148039698,0.1496089427545666,-9.850445190668104,14976.0
38.29,1.399999976158142,324.0,23.3394775390625,25.98639678955078,-79.78276837341853,40.45905213990185,312.3171706237793,-0.0010731905931606,-0.0110127180814743,-0.9922226071357728,0.1239837259054184,0.0013215537796243,0.006457639169499,2.9728432630160624,-0.0258881747722625,-0.0703619495034217,0.003595502814278,0.2329352010414004,-0.0488106833305209,-9.663709681034089,14977.0
38.39,1.399999976158142,320.0,23.23931312561035,26.98832130432129,-79.78276837948313,40.45905219783744,312.61366415405274,-0.0019432550761848,-0.0110339513048529,-0.9922335743904114,0.1238833516836166,0.0173131308461524,-0.0056025483293557,2.9587524627872344,0.1495229750871658,0.0852407366037368,0.1075771898031234,0.2380848438665271,-0.1678675314411521,-9.700347749590872,14977.0
38.49,1.399999976158142,320.0,23.27937889099121,25.46953201293945,-79.78276838488325,40.45905219105591,312.9165320434571,-0.0029925361741334,-0.0105648394674062,-0.992217779159546,0.124030090868473,-0.0024631557500436,0.0025763025267602,2.975450441868704,-0.1433179527521133,-0.0465297624468803,-0.0910794213414192,0.1516716211661696,0.3183656895160675,-9.79987379193306,14977.0
38.69,1.2999999523162842,314.0,23.35074615478516,24.58688545227051,-79.78276839706334,40.4590523049464,313.5115942993164,-0.001099893823266,-0.0092412745580077,-0.9921827912330629,0.124445728957653,0.0069881100347765,-0.002893382793097,2.9730248571366067,-0.0138552719727158,-0.0775592997670173,-0.0764216482639312,0.14682756844908,0.0005201281048357,-9.769599248170854,14978.0
38.89,1.100000023841858,308.0,23.28689193725586,26.46350288391113,-79.78276839658106,40.45905230261682,313.82060766601563,0.0006753302295692,-0.009551940485835,-0.992161512374878,0.1245951727032661,0.0101817175412405,-0.008091580570212,2.9690266353623773,0.1512520611286163,0.0439111180603504,0.0626444667577743,0.2742179139889777,-0.1779841646924615,-9.711523532867432,14978.0
38.99,1.100000023841858,310.0,23.234304428100582,26.12157821655273,-79.78276837485062,40.45905238480361,314.42563772583014,0.0004474537854548,-0.0108159305527806,-0.9920979142189026,0.1249986886978149,-0.0274031045777705,-0.0054475999272449,2.953453946675372,-0.1391325742006302,-0.0325196199119091,-0.0652049258351326,0.1979625839553773,0.1597069380059838,-9.647033421993257,14979.0
39.2,1.100000023841858,305.0,23.42586898803711,24.74592018127441,-79.78276845964055,40.4590524470795,315.02718115234376,-0.0002126374456565,-0.0110399723052978,-0.9919911026954652,0.125824749469757,-0.0131574460449339,0.0109428099580579,2.952128798880675,-0.1397856026887893,-0.1022563800215721,-0.0826527625322341,0.1329890362545848,0.047031604014337,-9.678027758002283,14980.0
39.29,0.8999999761581421,299.0,23.41460037231445,23.60086441040039,-79.78276846678824,40.4590525036066,315.32130575561524,-0.0004823607741855,-0.0106787094846367,-0.9920010566711426,0.1257766783237457,0.0105443348588471,-0.0049802534424764,2.9310947705453563,0.127797320485115,0.0420424342155456,0.0843644142150878,0.2143302744626999,-0.0610055175237357,-9.648354892730714,14980.0
39.39,0.8999999761581421,297.0,23.18672752380371,26.566877365112305,-79.78276847745681,40.459052562493326,315.6132292785645,-0.0009418079862371,-0.0107883689925074,-0.9920145273208618,0.1256580650806427,0.0030866551951621,-0.0044803465008849,2.913407085554096,-0.0132531467825174,-0.0328796245157718,-0.0613191090524196,0.1569468512199819,0.0510931119835004,-9.647343909144404,14980.0
39.59,1.0,301.0,23.275623321533203,25.77169990539551,-79.78276851298081,40.459052608912,316.2139983215332,-0.0008992351358756,-0.0091895926743745,-0.9921215772628784,0.1249382197856903,0.0132337617523195,-0.0020074553396282,2.9344444359567787,0.0364820398390293,0.0426745302975177,-0.0149340368807315,0.1828308852016925,0.1978995253890753,-9.813559784889222,14981.0
39.79,1.0,304.0,23.33071327209473,25.61266326904297,-79.78276852608927,40.459052659432665,316.5077948608398,-5.631078965961934e-05,-0.0083488347008824,-0.9921755194664,0.1245718672871589,0.0050791187736375,-0.0028047968484145,2.9425613696093227,-0.0565680600702762,-0.0149766895920038,-0.0105721829459071,0.1318583492003381,-0.0207536504231393,-9.85455461382866,14981.0
39.89,1.100000023841858,304.0,23.25559043884277,26.04205894470215,-79.78276853290531,40.45905269076707,317.1108489074707,-0.0001052464722306,-0.0083225350826978,-0.9921820163726808,0.1245216131210327,0.0066888923391567,0.0007710146383809,2.956782170392453,0.0880972370505333,-0.0061144526116549,0.0618875138461589,0.238652096875012,-0.3469104076176882,-9.841096662282943,14982.0
40.09,1.0,308.0,23.28689193725586,24.658451080322266,-79.782768586462,40.45905272447185,317.41339254760743,-0.0005913420463912,-0.0080971075221896,-0.9921599626541138,0.1247108876705169,-0.0079865985994557,-0.0058455105734014,2.9601477807176177,-0.0656689926981926,0.0127144418656826,-0.0017892465693876,0.1824526434391737,0.216230674367398,-9.774821981191636,14982.0
40.19,1.0,312.0,23.420860290527344,24.42784881591797,-79.78276860642418,40.45905281041816,318.00561285400386,0.0003924478951375,-0.0074444445781409,-0.9920937418937684,0.1252780109643936,-0.0126649455678215,0.0016075042332501,2.960162472293789,-0.1525034755468368,-0.0674271583557128,-0.1139973849058151,0.0243895313423126,0.2525526095554232,-9.717412263751031,14983.0
40.29,1.2000000476837158,317.0,23.344486236572266,25.366159439086918,-79.78276856236157,40.45905280683469,318.29979849243165,0.0013528168201446,-0.0085111493244767,-0.9920167922973632,0.1258116662502288,0.0091189466016173,0.0006659430624528,2.934382839510513,0.1251196414232254,0.053173616528511,0.0528932772576808,0.2051601957902313,-0.1217796588968485,-9.724883251190183,14983.0
40.5,1.2000000476837158,325.0,23.231800079345703,26.73386383056641,-79.78276858332812,40.45905283033334,318.8920912780762,0.0024765557609498,-0.00990975741297,-0.9919249415397644,0.1264145523309707,0.0077012528591477,0.0196064653290699,2.9304750279060583,0.0694398358464241,0.0122751854360103,0.066170796751976,0.1935699545592069,-0.1273839501477778,-9.750861845612526,14983.0
40.69,1.2000000476837158,325.0,23.241817474365234,25.191219329833984,-79.78276862958091,40.45905287970639,319.4835448303224,0.0009497581631876,-0.0102500766515731,-0.992013692855835,0.1257097721099853,0.0125341793500454,0.0282988342066573,2.9522326726096804,-0.0190249569714069,0.0017480992246419,0.0674310326576232,0.2328668799810112,-0.1287621936947107,-9.933337658643724,14984.0
40.79,1.399999976158142,333.0,23.27186584472656,25.636518478393555,-79.78276865791148,40.45905290866184,319.77925634765626,0.000396741030272,-0.0093945888802409,-0.99212384223938,0.1249077543616294,0.0077632162125555,0.0293107255208379,2.9593206690775404,-0.1156919449567794,-0.1135532781481742,-0.0432971343398094,0.1600435183569789,0.1090573144890368,-9.822489652633667,14984.0
40.89,1.5,329.0,23.348241806030277,23.990501403808597,-79.78276868694904,40.45905293612829,320.0753073730469,-0.0001942595263244,-0.0088728843256831,-0.99219810962677,0.1243550479412078,0.038438474989728,0.0158385694591926,2.9638554685567566,0.1837426275014877,0.0400657281279563,0.1712615042924881,0.2579925849102437,-0.2110935116931796,-9.900119626522065,14985.0
41.09,1.399999976158142,326.0,23.25559043884277,25.20712280273437,-79.78276879750685,40.45905291821524,320.6663031616212,0.0010578804649412,-0.0105019714683294,-0.9922205805778505,0.1240445002913475,0.0261683622199882,0.0258214165251576,2.9406991785119843,0.010612198151648,0.0647672638297081,-0.0174588821828365,0.2455083774961531,0.0899228859879076,-9.693988317847252,14985.0
41.29,1.5,328.0,23.275623321533203,25.22302627563477,-79.78276884208546,40.45905291492056,320.9624838867188,0.0012615433661267,-0.0112203210592269,-0.9921885132789612,0.1242359429597854,0.0211996901231529,0.0344237650056959,2.9245683889208536,-0.036299243569374,0.0488713718950748,-0.0018113807309418,0.2242852322012186,0.0407498762849718,-9.683079752326012,14985.0
41.39,1.399999976158142,325.0,23.184223175048828,26.28061294555664,-79.78276891068823,40.45905295139829,321.54841375732417,0.0015157109592109,-0.0103153409436345,-0.9920896291732788,0.1250977963209152,0.0457089527392984,0.0351686511099064,2.9289705456482285,0.1793584823608398,0.04952397570014,0.0885871052742004,0.2905822058022022,-0.2012809702008962,-9.83375606775284,14986.0
41.59,1.2999999523162842,324.0,23.189231872558597,25.50929069519043,-79.78276901560409,40.4590529424074,322.13958883667,0.0006302898400463,-0.0087727205827832,-0.9920368790626526,0.1256404370069503,0.0295006606401003,0.0345341871715806,2.941256582102732,0.0345877781510353,0.0898907557129859,0.0356431417167186,0.2757280122488737,0.0715651869960129,-9.851607617139816,14987.0
41.69,1.600000023841858,330.0,23.24056434631348,25.859169006347656,-79.78276901275912,40.45905291905046,322.43630361938483,-0.0007749894284643,-0.0092026256024837,-0.9920148849487304,0.125782236456871,0.0129937563700782,0.037784378015095,2.9440129971758746,-0.1228174343705177,-0.0301349498331546,-0.0224600490182638,0.1786857392080128,0.1062677358090877,-9.83183467268944,14987.0
41.79,1.7000000476837158,334.0,23.35199737548828,24.658451080322266,-79.78276903967141,40.45905292875632,322.73072576904303,-0.0013202327536419,-0.0103531368076801,-0.9920137524604796,0.125697985291481,0.0314079363311843,0.039471421594198,2.9423165303805767,-0.0147100621834397,0.022182485088706,0.0257661826908588,0.1857351606711745,-0.0631800330709666,-9.791530984640122,14987.0
41.99,2.0,338.0,23.185474395751957,25.668325424194336,-79.78276917008556,40.45905291977402,323.32133245849616,-0.001434069359675,-0.0110886897891759,-0.9919559955596924,0.1260887533426284,0.0566650723714872,0.0462692095537479,2.9439538096430264,0.1258814483880996,0.0591994039714336,0.0974213406443596,0.2789187830127776,-0.1794869539327919,-9.926485891342164,14988.0
42.19,2.0999999046325684,340.0,23.33572196960449,24.93676376342773,-79.78276920351911,40.4590529269957,323.61637258911134,-0.0010776262497529,-0.0106376558542251,-0.9919584393501282,0.1261120587587356,0.0253153081865669,0.051978637325995,2.953904056392461,-0.1538975089788437,-0.0234385319054126,-0.0772001817822456,0.1872875598818064,0.3172968184947968,-9.850552779436114,14988.0
42.29,2.0,342.0,23.246826171875,25.175315856933597,-79.78276930543822,40.459052919608695,324.2093787231445,0.0004528813879005,-0.0117387594655156,-0.9919675588607788,0.1259462386369705,0.0385864701643258,0.0498815966694716,2.9436960412612367,-0.0605828203260898,-0.0682847872376442,-0.0730932131409645,0.1726532216370105,0.0369952420704066,-9.772157405018806,14989.0
42.49,2.0999999046325684,345.0,23.25559043884277,25.270736694335927,-79.78276940755191,40.459052936831455,324.80343389892585,-0.0006415304960682,-0.0128385126590728,-0.991997003555298,0.125605821609497,0.0280518152467473,0.0430934154620709,2.9462973384545994,-0.0726191326975822,0.029891662299633,-0.0573812387883663,0.1975045459717512,0.2745341021753848,-9.84075635433197,14989.0
42.59,2.200000047683716,350.0,23.33572196960449,24.39604187011719,-79.78276944801937,40.45905295841599,325.09834814453126,-0.0023409859277307,-0.0126683376729488,-0.9920132756233216,0.1254741698503494,0.0366706531927185,0.043337456855517,2.952450848989082,-0.0992347076535224,-0.0706625580787658,-0.0388421863317489,0.1077578987181186,0.0234859812073409,-9.846037559509275,14990.0
42.79,2.200000047683716,348.0,23.25183296203613,25.3900146484375,-79.78276955973087,40.45905292556146,325.39713430786134,-0.0030838639941066,-0.0124310730025172,-0.9920294880867004,0.1253532469272613,0.0629200889083136,0.0413969384285395,2.9504532349542814,0.0780262798070907,-0.0025175882037729,-0.014283150434494,0.2510140792094171,0.0815523044206202,-9.836922919750211,14990.0
42.89,2.200000047683716,350.0,23.165441513061523,26.65434646606445,-79.78276964858371,40.45905297005421,325.98825216674805,-0.0015283999964594,-0.0118840020149946,-0.9919256567955016,0.1262532919645309,0.047981893212464,0.0301336398890763,2.957472555473344,-0.003332799533382,0.0592691004276275,-0.0351208448410034,0.2064066577143968,0.2918554735556245,-9.783714426755903,14990.0
43.09,2.5,351.0,23.1641902923584,25.652421951293945,-79.78276982111286,40.45905300417336,326.58405447387696,0.0008592762169428,-0.0110596101731061,-0.9918331503868104,0.1270587742328643,0.0437403442346862,0.0209038240126984,2.9774818048381984,0.0127349849790334,-0.023866020143032,-0.0349289327859878,0.1591508312523365,-0.0154104099422693,-9.85948966383934,14991.0
43.19,2.5999999046325684,0.0,23.16794586181641,26.527118682861328,-79.78276988817323,40.45905300008212,326.88664007568366,0.0012914958642795,-0.0103343687951564,-0.991790533065796,0.1274485141038894,0.0478585489366862,0.0145201699304487,2.982071072949831,0.0446403063833713,-0.017603188753128,0.0358558669686317,0.2222578380815685,0.0425227566389367,-9.917123329639436,14991.0
43.29,2.5,8.0,23.30817604064941,24.87314796447754,-79.78276995469986,40.45905303526085,327.18552542114264,-4.909995914204046e-05,-0.0090445410460233,-0.9917892217636108,0.1275635212659835,0.0373242362593033,0.0106169340174,2.995778000164997,-0.1222884953022003,-0.0611044988036155,-0.0110495015978813,0.0775858822278678,0.2252547553740441,-9.90831391453743,14992.0
43.49,2.299999952316284,9.0,23.205507278442383,25.79555511474609,-79.78277006762812,40.45905309688618,327.7891936340332,-0.0064854221418499,-0.0083040408790111,-0.9918966889381408,0.1266097128391266,0.0546998647480463,-0.0122006771678824,2.9976033227077568,-0.1415526866912841,0.0275187790393829,-0.0280895195901393,0.1281368887983262,0.354213360697031,-9.79961651444435,14992.0
43.69,2.0999999046325684,14.0,23.30942726135254,23.219179153442383,-79.7827701243844,40.459053140281775,328.0886549987793,-0.008793830871582,-0.0078793708235025,-0.9919434785842896,0.1261300295591354,0.083096423202193,-0.0143338761361877,2.99182579635726,0.0183058250695467,0.022848779335618,0.1072551012039184,0.1764268684387207,-0.0579828268010169,-9.812556402683258,14993.0
43.79,2.0,17.0,23.21427154541016,25.93073463439941,-79.78277025964475,40.45905325943153,328.6908659973145,-0.008650179952383,-0.0061000073328614,-0.9921026229858398,0.1249819099903106,0.0924851575632853,-0.0351939936325029,2.9730838757730864,0.1738442182540893,0.0563926547765731,0.1143634542822837,0.2318774945475161,-0.0101893123146146,-9.702525252699852,14993.0
43.99,2.0,26.0,23.20175170898437,25.898927688598643,-79.78277043023971,40.45905330388885,329.29703665161134,-0.0042033321224153,-0.0073322430253028,-0.9921241402626038,0.1249729394912719,0.043799283816772,-0.0162883076310248,2.9578857543471835,-0.124372623860836,-0.0748316198587417,-0.0487280189990997,0.1044726954214275,0.2023255752772093,-9.655547552704812,14994.0
44.09,1.8999999761581416,36.0,23.22053337097168,25.80350685119629,-79.78277046353077,40.45905334550129,329.5922026672364,-0.003600868396461,-0.0080890385434031,-0.992095112800598,0.1251758635044098,0.0635359960554566,-0.0115478704526891,2.944125788974552,0.1675671488046646,0.0511399656534194,0.0903345048427581,0.2611740732192993,-0.1972352268733084,-9.74681440293789,14994.0
44.29,1.8999999761581416,45.0,23.19048309326172,25.61266326904297,-79.78277049363831,40.45905338431073,329.88643408203126,-0.0036345706321299,-0.008273490704596,-0.9920414686203004,0.125587522983551,0.0333767002328926,-0.0013476402596854,2.9425452793134466,-0.0618201978504657,-0.0164028797298669,-0.0658335834741592,0.1387040317431092,0.2115768754296005,-9.746460646390917,14994.0
44.39,2.0,53.0,23.075294494628903,26.55892562866211,-79.78277059543841,40.45905346043203,330.48947286987305,-0.0059097777120769,-0.0092575279995799,-0.9919317364692688,0.1262973546981811,0.0523552894240068,-0.006786157834537,2.94317319287987,0.0158387590199708,0.0177392493933439,0.0223315116018056,0.14773552226834,-0.0356113500217907,-9.731892308592796,14995.0
44.59,2.0,51.0,23.34323310852051,23.49749183654785,-79.78277062521585,40.45905352838371,331.0934920349121,-0.0078898919746279,-0.008612317033112,-0.991811215877533,0.1271773874759674,0.0458111130780725,-0.0043981594389184,2.958051346845468,0.0410260967910289,0.103211797773838,-0.0162962768226861,0.2049384035915136,0.1328940646816045,-9.796692321896554,14996.0
44.7,1.7000000476837158,54.0,23.204256057739247,26.29651641845703,-79.78277063009153,40.459053576252735,331.38808203125,-0.0080941710621118,-0.0082147847861051,-0.9917951822280884,0.1273164153099059,0.0259540304321164,-0.0047277460737555,2.9321883563087887,-0.1344572007656097,-0.1201081126928329,-0.0435323305428028,0.0691159071307629,0.2686138328723609,-9.595935189127925,14996.0
44.79,1.7000000476837158,53.0,23.22428894042969,25.54109764099121,-79.78277069499592,40.45905359078199,331.6954131164552,-0.0074457684531807,-0.0071960454806685,-0.9917887449264526,0.1274672746658325,0.0568161603017939,-0.0086235955082342,2.9314159434393816,0.1905533075332641,-0.0016703495057299,0.043178517371416,0.2064868924766779,-0.1376219222601503,-9.724131883978844,14996.0
44.99,1.7999999523162842,46.0,23.03022003173828,27.529041290283203,-79.78277062793451,40.45905361750447,332.2992796936035,-0.004745909012854,-0.005635424517095,-0.991722583770752,0.1281879693269729,0.0060085201712207,-0.005826582901692,2.96260292891208,-0.0338090434670448,0.0181269906461238,-0.0059015457518398,0.1639007072523236,0.1875444171018898,-9.946664632558823,14997.0
45.09,1.8999999761581416,48.0,23.189231872558597,26.01820373535156,-79.78277060538987,40.45905365260701,332.5971045532226,-0.0039114067330956,-0.0065596760250628,-0.991692304611206,0.1284059584140777,0.0077772313616704,0.0003933493963809,2.991520420846088,0.0800267830491066,0.0313900634646415,-0.0282416734844446,0.1513755601923913,0.0667261866386979,-9.988092155456544,14997.0
45.3,1.8999999761581416,46.0,23.174205780029297,26.137481689453125,-79.78277056049944,40.45905370239765,333.20249319458014,-0.0015707776183262,-0.0092481672763824,-0.991705060005188,0.1281922161579132,-0.0200621087203608,0.021295894995174,3.0004067732901816,-0.1266597062349319,0.0482817962765693,-0.065619096159935,0.2077933431789279,0.4451888734102249,-9.750887573361398,14998.0
45.49,1.8999999761581416,44.0,23.22428894042969,24.920860290527344,-79.78277047798458,40.45905372696448,333.80444860839845,-0.0015299429651349,-0.0102068725973367,-0.9917451739311218,0.1278090327978134,-0.0084326633818862,0.0366264225004325,2.980408588848598,0.0153587637469172,0.0009640448843128,0.0559686124324798,0.2369445637241006,-0.0473238277528435,-9.770991470217703,14998.0
45.59,2.0999999046325684,37.0,23.08656311035156,27.012176513671875,-79.78277045357069,40.45905375135846,334.10238409423835,-0.001837128191255,-0.0103751868009567,-0.9917541742324828,0.1277214884757995,-0.0118028086211669,0.0375478240308484,2.982262720107405,0.0127755152061581,-0.0354044251143932,0.0177539475262165,0.1917675503343344,0.1382809856906533,-9.821889728307726,14999.0
45.7,2.0999999046325684,32.0,23.179214477539062,26.081817626953125,-79.78277046130451,40.459053788062704,334.4085669555664,-0.0024087864439934,-0.0112461531534791,-0.991752862930298,0.1276483237743377,0.0075732882365914,0.0265149779732628,2.993318327164082,0.0718260705471038,0.1045666337013244,0.0256450679153204,0.2787548782490194,-0.0115285302652046,-9.858095687627792,14999.0
45.89,2.200000047683716,30.0,23.185474395751957,25.37411117553711,-79.78277043673128,40.45905384734664,335.007955078125,-0.0024003491271287,-0.0130041353404521,-0.9917221665382384,0.1277201175689697,0.0134164615389031,0.0396104166445647,2.99796261771894,0.0552916936576366,-0.0311118438839912,-0.0137648098170757,0.2209033488482236,-0.0270150864869356,-9.791844395399094,15000.0
45.99,2.299999952316284,27.0,23.13038444519043,26.16133689880371,-79.78277037357124,40.45905385462629,335.3128485717773,-0.001913140527904,-0.0143124498426914,-0.9916675686836244,0.1280119270086288,0.0174224442819478,0.0379706586906878,2.986948180967194,0.1606359332799911,0.1209568157792091,0.0716950818896293,0.2774911304935813,-0.0972754307650029,-9.759936724305154,15000.0
46.19,2.299999952316284,28.0,23.25058174133301,23.624719619750977,-79.7827703613677,40.45905388902243,335.6111121215821,-0.0008900232496671,-0.0147126605734229,-0.9916204810142516,0.1283419132232666,-0.0120740404844687,0.044645009547458,2.979188770013826,-0.122063435614109,-0.028505964204669,-0.0740145817399025,0.1892349750548601,0.333905396014452,-9.731165499687195,15000.0
46.29,2.400000095367432,27.0,23.17045021057129,25.19917106628418,-79.78277033083555,40.45905395231603,336.21825933837886,-0.001302967662923,-0.0140561321750283,-0.9916011691093444,0.1285611391067505,-0.0041001181112307,0.0357676664605507,2.9875979998678583,-0.0662759095430374,-0.118662916123867,-0.0264350436627864,0.18862255230546,-0.0935522344708442,-9.760699201226236,15001.0
46.5,2.400000095367432,25.0,23.06653022766113,26.034107208251957,-79.78277033164194,40.45905400717593,336.5163855590821,-0.0022839640732854,-0.0120252128690481,-0.9916977882385254,0.1280070841312408,0.0128022007763062,0.0139817400906673,2.9758532115977143,0.1110786274075508,0.0018118428997695,0.10916268825531,0.260545132085681,0.0310403371509164,-9.748372685909274,15001.0
46.59,2.299999952316284,28.0,23.301916122436523,23.72809410095215,-79.78277037743342,40.45905408937989,337.11768103027345,-0.0025001023896038,-0.0080400398001074,-0.9919286966323853,0.1265176087617874,0.0226089948653282,-0.0124817148869794,3.0082398146330784,-0.0388370752334594,-0.0291934795677661,0.0613775849342346,0.0880010889284312,0.0473364814929664,-9.981592390537262,15002.0
46.69,2.200000047683716,29.0,23.301916122436523,23.990501403808597,-79.78277040093921,40.45905414890432,337.41841650390626,-0.0018654628656804,-0.0077196261845529,-0.9920151829719543,0.1258685290813446,0.0314916306670832,-0.0271619595741189,3.0059670418478976,0.1077444702386856,0.0079217841848731,0.0299564823508262,0.0988166654482484,0.0997842425946146,-9.805809885263445,15002.0
46.9,2.400000095367432,36.0,23.16794586181641,24.44375228881836,-79.78277050636237,40.45905423927145,338.0223288574219,-0.0018591185798868,-0.0072072953917086,-0.9919912815093994,0.1260875910520553,0.0370679887798439,-0.0216264393248472,2.990715982368082,0.025047106668353,0.0162103455513715,0.0647546574473381,0.1419184106402099,0.0075055408291518,-9.805565471649173,15003.0
