time,wind_speed,wind_angle,battery_voltage,battery_current,position_x,position_y,position_z,orientation_x,orientation_y,orientation_z,orientation_w,velocity_x,velocity_y,velocity_z,angular_x,angular_y,angular_z,linear_acceleration_x,linear_acceleration_y,linear_acceleration_z,node_ids
0.0,0.4000000059604645,99.0,23.06527900695801,0.0079517737030982,-79.78277107387295,40.45903453255429,270.00536072540285,-0.0314703360199928,-0.0054899672977626,-0.9964928030967712,0.0773412361741066,-0.0078838607336012,-0.004217387363582,-0.0004195379976652,0.0003171196731273,-0.0013658329844474,-0.0021813544444739,0.0476882006507366,0.6178957432508468,-9.790932814478875,14935.0
0.11,0.4000000059604645,104.0,23.075294494628903,-0.0238553211092948,-79.7827710653447,40.45903453726978,270.0052620201111,-0.0314843617379665,-0.0054746652022004,-0.9964918494224548,0.0773486718535423,-0.0090231427546811,-0.0049885262866528,-0.0004456316007373,0.0045402268879115,0.001390190096572,0.0097218370065093,0.0519895495288074,0.5872406919300557,-9.794756308794025,14935.0
0.21,0.5,104.0,23.06653022766113,0.0,-79.78277108344619,40.45903458990853,269.98991620826723,-0.031479574739933,-0.0054549849592149,-0.9964908361434937,0.0773650035262107,-0.0072434479352973,0.0021664421745394,-0.0011554262426134,0.0098628643900156,0.005828252993524,0.0082322703674435,0.0439892885740846,0.6195085515081883,-9.790636360645292,14934.0
0.39,0.5,104.0,23.069034576416016,0.0079517737030982,-79.78277107350193,40.45903458906151,269.9897660045624,-0.0314833521842956,-0.0054449369199573,-0.9964897036552428,0.0773788169026374,-0.0106661091643983,0.0016455802951458,-0.0008097074733819,-0.0087853418663144,-0.0004275890823919,-0.0052163247019052,0.0459593936847522,0.6004026281833649,-9.793893844485282,14934.0
0.6,0.5,104.0,23.069034576416016,-0.055662415921688,-79.78277111500839,40.45903469082478,269.9742049007416,-0.0314602516591548,-0.0054422891698777,-0.996492564678192,0.0773524120450019,-0.0066627573119801,-0.0024789078444778,-0.0017068623102499,0.003173382487148,0.0002922343555837,0.0074716676026582,0.050610278150998,0.5866972297802567,-9.794913014173508,14934.0
0.7,0.5,105.0,23.07028579711914,-0.0159035474061965,-79.78277110628792,40.459034694561225,269.9739960460663,-0.031462874263525,-0.0054370248690247,-0.9964929223060608,0.0773463621735572,-0.0099499411414252,-0.0032914410435331,-0.0012985353362771,-0.0089322049170732,-0.0050174049101769,-0.0124143036082386,0.0450667385570704,0.619566585123539,-9.792077699303627,14934.0
0.9,0.5,107.0,23.067781448364247,0.0079517737030982,-79.78277115421763,40.45903475432075,269.95937550354006,-0.0314511656761169,-0.0054310029372572,-0.9964925050735474,0.0773576572537422,-0.0063913784795786,0.0014150792681758,-0.0015979662755079,-0.0082781519740819,-0.0040992214344441,-0.0035278284922242,0.0533446463244035,0.5968804116547108,-9.794604865908624,14934.0
1.0,0.5,107.0,23.0715389251709,0.0079517737030982,-79.78277116051405,40.45903482985805,269.94632995414736,-0.0314319133758544,-0.0054289260879158,-0.996493637561798,0.0773507878184318,-0.0076980507510324,0.0045679526797135,0.0007611087171024,0.0013930468121543,-0.0009880567668005,-0.0040516015142202,0.0469466046849265,0.6162461706250907,-9.792094656229018,14934.0
1.2,0.5,107.0,23.0715389251709,0.0238553211092948,-79.78277113820359,40.4590348251785,269.9463964729309,-0.0314295068383216,-0.0054383599199354,-0.9964934587478638,0.0773531273007392,-0.012102411015076,0.0030969670052438,0.0011751894633815,-0.0070679932832717,-0.0053404038771986,-0.0082856221124529,0.0508864860003814,0.5882840910181404,-9.795027619600296,14934.0
1.3,0.5,108.0,23.072790145874023,0.0079517737030982,-79.78277115595971,40.45903491751826,269.93345582771303,-0.0314402021467685,-0.005451584700495,-0.9964932203292848,0.07735076546669,-0.0116162397412098,0.0030006928796569,0.0027280375603266,0.0067280977964401,0.003456006757915,0.007214450277388,0.0515608389861881,0.6017242451012135,-9.793963426351548,14934.0
1.5,0.5,109.0,23.069034576416016,0.0159035474061965,-79.78277118831174,40.45903498505502,269.92123616027834,-0.0314189754426479,-0.0054623358882963,-0.9964914321899414,0.0773808732628822,-0.0091377992820544,0.0068616535038589,0.0046307898082161,-0.0059882313944399,0.0014498142991214,-0.0110739767551422,0.0465580663410946,0.6216003929078578,-9.791222836375235,14934.0
1.6,0.5,108.0,23.0715389251709,0.0,-79.7827711764603,40.45903498031965,269.92163527297976,-0.0314301364123821,-0.0054548103362321,-0.9964913725852966,0.0773778557777404,-0.0093729476937771,0.0058459276040352,0.0044452565690907,0.0078243594616651,0.0040241670794785,0.0075317854061722,0.052995001100935,0.5957617296651007,-9.79400611102581,14934.0
1.8,0.5,105.0,23.05401039123535,-0.1033730581402778,-79.78277126372045,40.45903507354616,269.90736353683474,-0.0313926488161087,-0.0054394155740737,-0.9964929819107056,0.0773743614554405,-0.0022809001411966,0.0030949117810275,0.0017519766193366,-0.0022369145881384,-0.0015320129459723,-0.0050597786903381,0.046815521987155,0.6186376818269491,-9.791710494160652,14934.0
1.9,0.5,107.0,23.06027030944824,-0.1669872552156448,-79.78277126101673,40.4590350710738,269.9075280456543,-0.0313822962343692,-0.0054207211360335,-0.9964940547943116,0.0773655921220779,-0.0026790796051378,0.0021769090874818,0.001704737587708,0.0073455665260553,0.0054837940260767,0.0099833002313971,0.053710343982093,0.5925770802050829,-9.794387349486351,14934.0
2.1,0.5,107.0,23.06527900695801,-0.1669872552156448,-79.78277132048414,40.45903516528151,269.8962441711426,-0.0313562899827957,-0.005438725464046,-0.9964945316314696,0.077369101345539,-0.0018326742256393,0.0016767211329489,0.003964132059329,-0.0019426923245191,-0.0004852983402088,-0.003548027947545,0.046904888455756,0.603431741707027,-9.794413661956789,14934.0
2.2,0.5,110.0,23.062774658203125,-0.1669872552156448,-79.78277131684015,40.45903516451232,269.8966275482178,-0.0313767418265342,-0.0054384479299187,-0.9964923858642578,0.0773880034685134,-0.0028057943298841,0.0008065065655899,0.0039703181324179,0.0065284157171845,0.0017321978230029,0.0090996949002146,0.0529417274845764,0.5898656166717411,-9.7948744225502,14934.0
2.4,0.5,110.0,23.059017181396484,-0.1669872552156448,-79.78277138363171,40.45903525692295,269.88558471488955,-0.0313616693019866,-0.0054506822489202,-0.9964945912361144,0.0773644670844078,-0.0007247926702228,0.0006656555857914,0.0056087777977644,0.0049325968138873,0.0043873121030628,0.0040302569977939,0.046658757221885,0.6109850652515888,-9.792562433481216,14934.0
2.5,0.5,113.0,23.062774658203125,-0.1431319266557693,-79.78277141056154,40.45903535579571,269.8734921245575,-0.0313781052827835,-0.0054500899277627,-0.996493935585022,0.0773669183254242,-0.0044553414891466,0.0018795992154036,0.0063773840416242,0.0032184037845581,0.0012625362724065,0.0071497266180813,0.0506079621054232,0.5879905607923865,-9.795414120554923,14934.0
2.7,0.5,115.0,23.06152153015137,-0.1669872552156448,-79.78277139498283,40.45903535589073,269.87472021865847,-0.0313517376780509,-0.005467074457556,-0.9964951276779176,0.0773603543639183,-0.0074038875455813,-0.0003554963066775,0.006534567307031,0.007998569868505,0.0003849616041406,0.0071749067865312,0.0445587251521647,0.6180379767715931,-9.79126785993576,14934.0
2.81,0.5,118.0,23.059017181396484,-0.1590354740619659,-79.78277141991059,40.459035472355005,269.8632246284485,-0.0313689261674881,-0.0054593901149928,-0.9964942336082458,0.0773661807179451,-0.0108607296639434,-0.0015893804727971,0.0076533349874982,-0.0028363917954266,-0.0030060780700296,0.004039685241878,0.0497711113421246,0.5927924770116806,-9.795222331881524,14934.0
3.0,0.5,119.0,23.05776596069336,-0.0795177370309829,-79.78277143852823,40.45903558998946,269.852960231781,-0.0313773937523365,-0.0054736235179007,-0.9964946508407592,0.077356718480587,-0.012628453403819,-0.0038071518520198,0.0078276010311904,0.0086517389863729,0.0032056029886007,0.0064582866616547,0.0443714041169732,0.6209185344725847,-9.79114974617958,14934.0
3.1,0.5,125.0,23.06027030944824,-0.1828908026218414,-79.78277142317897,40.45903559526912,269.8536657123566,-0.0313808880746364,-0.0054660444147884,-0.9964927434921264,0.0773797482252121,-0.015678882177535,-0.0044865480333641,0.0080990976009065,-0.0037583375815302,-0.0034189799334853,-0.0041033099405467,0.0456978541240096,0.5973918968439103,-9.792876428961756,14934.0
3.3,0.5,128.0,23.06027030944824,-0.1590354740619659,-79.78277146398166,40.459035661371104,269.84581816482546,-0.0313682928681373,-0.0054423492401838,-0.9964920282363892,0.0773961097002029,-0.0100514702378837,0.0049226993650424,0.0116516570069741,0.0049300543032586,0.0028482072521001,0.0105456402525305,0.0482449012622237,0.6183184969425202,-9.790720560550689,14934.0
3.4,0.5,131.0,23.06152153015137,-0.1431319266557693,-79.7827714489588,40.45903565867169,269.84692609596254,-0.0313662365078926,-0.0054401298984885,-0.9964916110038756,0.0774020552635192,-0.0134019071020186,0.0043740979800293,0.0120212744848303,-0.0070604770444333,-0.0007995702908374,-0.0081840250641107,0.0460624188836664,0.611473673209548,-9.792759484648704,14934.0
3.6,0.5,131.0,23.06152153015137,-0.1749390214681625,-79.7827714985241,40.45903575991966,269.8367890148163,-0.0313411019742488,-0.0054490840993821,-0.9964912533760072,0.0774156898260116,-0.0101994007711379,0.00323605770294,0.0105983480995391,-0.0012011284707114,0.0013164487900212,0.0076477066613733,0.0494814320560544,0.6097303258627653,-9.793791518211368,14934.0
3.7,0.5,129.0,23.05776596069336,-0.1749390214681625,-79.78277148423031,40.45903575930237,269.8377848892212,-0.0313322842121124,-0.0054539102129638,-0.9964929223060608,0.077398881316185,-0.0128810378355057,0.0022242932267016,0.0108280986118803,-0.006487822625786,-0.0024779592640697,-0.0130334356799721,0.0442896984145045,0.6199478966742754,-9.790473808050155,14934.0
3.9,0.5,132.0,23.06152153015137,-0.1431319266557693,-79.78277157452065,40.45903583727284,269.8277846603394,-0.0313339978456497,-0.0054341428913176,-0.9964924454689026,0.0774056315422058,-0.0051968853812283,0.0060254636802204,0.0097856281017201,-0.0076175685971975,-0.0039899037219583,-0.0027483622543513,0.0513235745066776,0.5969301129877568,-9.794507802128791,14934.0
4.0,0.5,134.0,23.06152153015137,-0.1669872552156448,-79.78277160603787,40.45903596052189,269.81751597213747,-0.031337272375822,-0.0054503483697772,-0.9964934587478638,0.0773890912532806,-0.0092757451630046,0.0033592106829751,0.0097375164116129,-0.0021479623392224,-0.0010013548890128,-0.0096564162522554,0.0477996997442096,0.6195944324880839,-9.792851285934448,14934.0
4.2,0.5,134.0,23.06027030944824,-0.1590354740619659,-79.78277157988491,40.45903595885844,269.8193203239441,-0.0313696265220642,-0.0054438742808997,-0.9964912533760072,0.0774055421352386,-0.0129669970035489,0.0018108687586847,0.009841832137126,-0.0057427552528679,-0.0002277284511364,-0.0061112754046916,0.0538959519658237,0.5922239814698697,-9.793820754289628,14934.0
4.31,0.5,127.0,23.07404327392578,-0.0715659633278846,-79.78277164264317,40.459036051499865,269.81073630142214,-0.0313609577715396,-0.0054376814514398,-0.99649178981781,0.0774018764495849,-0.0084829862790736,0.0054145285849016,0.0124976078772209,0.0013463133946061,0.0009376890957355,-0.0025868248194456,0.0473739128094166,0.6152375990152359,-9.79157542347908,14934.0
4.5,0.5,126.0,23.07404327392578,-0.0795177370309829,-79.78277170021849,40.45903615838445,269.8034662036896,-0.0313393212854862,-0.0054311682470142,-0.9964924454689026,0.0774034932255745,-0.0073061646037081,0.004614522999255,0.0149760982137355,-0.0112573429942131,-0.0059438119642436,-0.0103303426876664,0.0506838480010628,0.5886306481808424,-9.795063287615775,14934.0
4.6,0.5,125.0,23.07404327392578,-0.0795177370309829,-79.78277169019412,40.45903615572047,269.80491555023195,-0.0313180461525917,-0.0054244236089289,-0.9964944124221802,0.0773876830935478,-0.0077580338626887,0.0033147926057542,0.0149903156948144,0.0025811719242483,0.0029668523930013,-5.8673394960351295e-05,0.0475850292714312,0.6111203917488456,-9.793348299264908,14934.0
4.8,0.6000000238418579,122.0,23.07654571533203,-0.0795177370309829,-79.78277175322364,40.45903628608331,269.7976526050568,-0.0313479416072368,-0.0054254760034382,-0.996492564678192,0.0773991793394088,-0.0082005681845521,-0.000685549017455,0.0165884994928213,-0.0094333831220865,-0.0046337912790477,-0.0092977033928036,0.0499316082755103,0.5882617619633675,-9.795486041307448,14934.0
4.9,0.6000000238418579,123.0,23.075294494628903,-0.0715659633278846,-79.78277174383348,40.4590362882277,269.7992497711182,-0.031338594853878,-0.0054240259341895,-0.9964946508407592,0.0773758590221405,-0.0082518307339543,-0.001932394433141,0.0164990358779609,0.0090633295476436,0.000903898908291,0.0014184431638568,0.0497734685009345,0.6057163950428367,-9.793501496315002,14934.0
5.1,0.6000000238418579,124.0,23.067781448364247,-0.0795177370309829,-79.78277178314146,40.45903639198722,269.7905088691712,-0.0313182212412357,-0.0054175988771021,-0.9964947700500488,0.0773829296231269,-0.0122129944912961,0.0013701048335695,0.0148244344558419,-0.0068654310889542,-0.0016771213850006,-0.0107365986332297,0.0506784850079566,0.5888466662541032,-9.794898396134377,14934.0
5.2,0.6000000238418579,122.0,23.075294494628903,-0.0715659633278846,-79.78277176774475,40.45903639317348,269.7919093399048,-0.0313209109008312,-0.0054136305116117,-0.9964944124221802,0.0773867964744567,-0.0122054845695614,0.000143277613764,0.0147749649815004,0.0087572783231735,0.0023972757626324,0.0060915406793355,0.0512225044704973,0.6006158322840931,-9.794768003225329,14934.0
5.4,0.6000000238418579,126.0,23.07404327392578,-0.0795177370309829,-79.78277183535006,40.45903650780845,269.78532159614565,-0.0313054323196411,-0.0054307910613715,-0.9964955449104308,0.0773763060569763,-0.0115238747566523,0.0006336810135616,0.0163319637176413,-0.0031356052495539,-0.0003461585147306,-0.008895318955183,0.0481754016224294,0.6221216721832753,-9.791291248798371,14934.0
5.51,0.6000000238418579,126.0,23.069034576416016,-0.0715659633278846,-79.78277191539009,40.45903662530442,269.7772208480835,-0.0313151627779006,-0.0054147979244589,-0.9964947700500488,0.0773838013410568,-0.007174234350002,0.0014485007434357,0.0166908427239636,0.0066645392216742,0.005301980767399,0.0096016488969326,0.0533352131210267,0.5914127899333835,-9.794349927306175,14934.0
5.7,0.6000000238418579,129.0,23.0715389251709,-0.0954212844371795,-79.78277189123357,40.45903662688842,269.7804785995484,-0.0313040576875209,-0.0054026721045374,-0.9964963793754578,0.0773684233427047,-0.0108841648784553,-0.0004322885135048,0.0170113443276788,0.0047177895903587,-0.0012429918861016,-0.0003161175991408,0.0445106363715604,0.6069336026161909,-9.792098749279978,14934.0
5.8,0.6000000238418579,131.0,23.07654571533203,-0.0874695107340812,-79.7827719776417,40.45903674720349,269.77005923080446,-0.0312870629131794,-0.0054074740037322,-0.9964951872825624,0.0773910507559776,-0.0079296042162143,0.0008741628862703,0.0139593447472992,0.0022444450296461,0.0001443208020646,0.0112177804112434,0.0503773122886195,0.5879484973847866,-9.795729870200155,14934.0
6.0,0.6000000238418579,134.0,23.06027030944824,-0.1669872552156448,-79.78277204652878,40.45903686648207,269.7619565753937,-0.0312760397791862,-0.0054160822182893,-0.9964972138404846,0.0773686021566391,-0.0065870261245522,0.0007911213434112,0.0123424668143044,0.0092762457206845,0.0036944600287824,0.0052737211808562,0.0439557904237881,0.6199560827761889,-9.791269614100456,14934.0
6.1,0.6000000238418579,130.0,23.06152153015137,-0.1590354740619659,-79.78277203712457,40.459036866902345,269.7631486682892,-0.0312706008553504,-0.0054261549375951,-0.996496856212616,0.0773748010396957,-0.0091108028124089,0.0003054943264641,0.0125848665762491,-0.0013033399591222,-0.0029333524871617,0.0016046415548771,0.048458411428146,0.5958705975115299,-9.795111234784128,14934.0
6.3,0.6000000238418579,132.0,23.056514739990234,-0.1749390214681625,-79.7827720739876,40.45903699690072,269.7562605171204,-0.0312871970236301,-0.0054361415095627,-0.996496081352234,0.0773773714900016,-0.012594488062926,-7.13300265014732e-05,0.0140804827606221,0.0071452064439654,0.001825816463679,0.0124666020274162,0.0531846290454268,0.5921111302077771,-9.795170876383782,14934.0
6.41,0.699999988079071,135.0,23.06027030944824,-0.1590354740619659,-79.78277218397847,40.45903709338703,269.74758494186403,-0.0312348250299692,-0.0054182950407266,-0.9965002536773682,0.0773457139730453,-0.003627745649308,0.0049049703383313,0.0115760337427313,0.0033985537011176,-0.0008355203317478,-0.0007115494809113,0.047334914621897,0.6033686283230781,-9.794518911838532,14934.0
6.5,0.8000000119209291,133.0,23.05025291442871,-0.1828908026218414,-79.78277217788529,40.45903708977887,269.7487217216492,-0.0312388073652982,-0.0053963782265782,-0.9964993596076964,0.077357493340969,-0.0043498270598614,0.004042340599785,0.0116457513676854,0.0059304456226527,0.0040409145876765,0.0107958661392331,0.0479627045849338,0.6155689899623394,-9.79297524690628,14934.0
6.7,0.8000000119209291,129.0,23.0715389251709,-0.0874695107340812,-79.78277216968415,40.45903708752282,269.74986422348024,-0.0312315188348293,-0.0053963172249495,-0.9964995384216307,0.0773581862449646,-0.0073644374479884,0.003377615220111,0.0119863321914143,-0.0059462841600179,-0.0055995811708271,-0.008347500115633,0.0460132977040484,0.6101092619821429,-9.793326079845428,14934.0
6.9,0.8000000119209291,129.0,23.07404327392578,-0.0715659633278846,-79.78277228345921,40.4590371913226,269.74689686584475,-0.03120575286448,-0.0053593614138662,-0.9965006113052368,0.0773573294281959,-0.0006976031612593,0.0059253621385595,0.0179897054106152,0.0017891983734443,0.0036444410216063,0.0088078649714589,0.0492615402024239,0.6094145396724343,-9.792354272603989,14934.0
7.01,0.8000000119209291,122.0,23.075294494628903,-0.0874695107340812,-79.78277237104756,40.45903732315618,269.73771417427065,-0.0311760380864143,-0.0053567998111248,-0.9965025782585144,0.0773438140749931,-0.0019874953401733,0.005085317660752,0.0156297612549106,-0.0099929478019475,-0.002430492080748,-0.0124535765498876,0.0437578210607171,0.6174778135120869,-9.791684181690217,14934.0
7.2,0.8999999761581421,125.0,23.067781448364247,-0.1192766055464744,-79.7827723618062,40.45903731647932,269.7407997875214,-0.0311676748096942,-0.0053628874011337,-0.996501088142395,0.0773659348487854,-0.0037632204107273,0.0034997158334643,0.0156527315428384,0.0021514715626835,-0.001660989713855,0.0046324841678142,0.0510350692318752,0.6021480951458216,-9.794095573425292,14934.0
7.3,0.8999999761581421,124.0,23.0715389251709,-0.1033730581402778,-79.78277243380917,40.459037481141145,269.7333363323212,-0.031155290082097,-0.0053767319768667,-0.9965016841888428,0.0773618966341018,-0.0076870590644171,-0.002905375195006,0.0170358109114688,-0.0078273583203554,-0.0015597499441355,-0.0133510790765285,0.044342990303412,0.6200779241323472,-9.791239793300631,14934.0
7.5,0.8999999761581421,123.0,23.07028579711914,-0.0874695107340812,-79.78277248715655,40.45903759279357,269.72880208778383,-0.0311796590685844,-0.0053465333767235,-0.9964994192123412,0.0773836821317672,-0.0113163853393429,0.0053907681523074,0.0207292546594386,-0.0043010460212826,-0.0012990975519642,-0.0014967707684263,0.0478209141734987,0.5950197910889984,-9.794739936590195,14934.0
7.6,1.0,123.0,23.06653022766113,-0.0954212844371795,-79.78277247156255,40.459037590107314,269.7308040885925,-0.0311640165746212,-0.0053579066880047,-0.9964998960494996,0.0773828625679016,-0.0126083663103441,0.0043821573685272,0.020898429910439,-0.0016538983909413,-0.0015727111604064,-0.0088551752269268,0.0474946121312677,0.6184032084792853,-9.79237883090973,14934.0
7.8,1.0,124.0,23.075294494628903,-0.0874695107340812,-79.78277259679642,40.45903774784749,269.7199949054718,-0.0311563685536384,-0.0053553520701825,-0.9964995980262756,0.0773904398083686,-0.0054819843992121,-0.0010202343847318,0.0113799163501255,-0.0083214538171887,-0.0016572751337662,-0.0055159325711429,0.0534260642342269,0.5918034935742617,-9.795017679333688,14934.0
7.91,0.8000000119209291,124.0,23.06527900695801,-0.0715659633278846,-79.78277259063158,40.45903774990036,269.7210940151215,-0.0311342217028141,-0.005353563465178,-0.9965003728866576,0.0773892328143119,-0.0058672990029449,-0.0021354364888203,0.0113953196600089,0.0024777979124337,0.0022305904421955,-0.0046340837143361,0.0490167565690353,0.6152869348973036,-9.792325621247294,14934.0
8.0,0.8000000119209291,120.0,23.062774658203125,-0.0874695107340812,-79.78277271935026,40.45903785082332,269.71595251846315,-0.0311041846871376,-0.0053219301626086,-0.996499240398407,0.0774178057909011,0.0003020623363905,0.0043511455727879,0.0134461186664928,-0.009876238182187,-0.0041456054896116,-0.0126982666552066,0.0515404559578746,0.5884391884133221,-9.796112862825394,14934.0
8.2,0.8000000119209291,123.0,23.022708892822266,1.1927660703659058,-79.782772718426,40.45903784750421,269.71729409980776,-0.0310965161770582,-0.0053205699659883,-0.9964975118637084,0.077443428337574,0.0008693700551802,0.0031870530516173,0.0133161924964677,0.0077380081638693,0.0054776025936007,-0.0001298546994803,0.0508433490805327,0.6038179503008724,-9.794989612698556,14934.0
8.4,0.8999999761581421,123.0,23.06527900695801,0.2226496636867523,-79.78277275615056,40.459037985077465,269.7102948455811,-0.0310815591365098,-0.0053521385416388,-0.9964935183525084,0.0774983167648315,-0.0078805971582018,0.0022587345589609,0.0128806750892621,-0.0021433213260024,-0.0007137978100217,-0.0034172858577221,0.0556739669060334,0.5974033720046282,-9.798642368316653,14934.0
8.5,0.8000000119209291,123.0,23.062774658203125,0.2385532110929489,-79.78277281353405,40.45903813972586,269.7021149425507,-0.031099097803235,-0.0053589870221912,-0.9964982867240906,0.0774292722344398,-0.0116348686177059,-3.898415503807368e-05,0.0114766082548427,0.0067397127859294,0.0026398585177958,-0.0054439734667539,0.0547011181293055,0.5869948530569673,-9.791776567697523,14934.0
8.7,0.8000000119209291,125.0,23.05776596069336,0.2146978974342346,-79.78277278252506,40.45903814423553,269.70431840705874,-0.0310695637017488,-0.0053423657082021,-0.996493637561798,0.0775030478835105,-0.013290580004926,-0.0016099668916242,0.0120148605275133,0.006444705184549,0.0048212129622697,0.0013838082086294,0.0401045994926244,0.6146699074655771,-9.793933020830154,14934.0
8.8,0.8000000119209291,121.0,23.059017181396484,0.2624085247516632,-79.7827728908199,40.459038257570185,269.698923948288,-0.031057309359312,-0.0053422763012349,-0.996499001979828,0.077438898384571,-0.0085744070320808,0.0044491448274847,0.0146524410053324,-0.0051741045899689,-0.0043152361176908,-0.0034913150593638,0.0485816003847867,0.5881353159248829,-9.798096823096277,14934.0
9.0,0.8000000119209291,120.0,23.05776596069336,0.3021674156188965,-79.7827729654992,40.45903838922798,269.6933883457184,-0.0310194008052349,-0.0053502777591347,-0.9964945316314696,0.0775109156966209,-0.0066147439965603,0.0033271818596427,0.0130046198842546,0.0030373886693269,0.001612652442418,0.0057264333590865,0.0472038684692233,0.6206271238625051,-9.79310563981533,14934.0
9.1,0.8000000119209291,117.0,23.05401039123535,0.326022744178772,-79.78277295621693,40.4590383875232,269.6946424274445,-0.0310005098581314,-0.0053585530258715,-0.9965003132820128,0.0774432271718978,-0.0088881829066954,0.0027529154023097,0.0131488637830253,-0.0044528134167194,-0.0029824702069163,-0.012590761296451,0.047843192978762,0.6176135420054197,-9.786862567663194,14934.0
9.3,0.8000000119209291,115.0,21.76189422607422,29.80324935913086,-79.78277299893328,40.459038525520775,269.6906708507538,-0.0310226064175367,-0.0053831506520509,-0.9964959621429444,0.077488824725151,-0.012898120875022,0.0024879474392878,0.0144116939572587,-0.0084894001483917,-0.007796405814588,-0.0170785505324602,0.0580073302891105,0.5925376480445266,-9.797763531804083,14934.0
9.4,0.8000000119209291,111.0,22.973878860473643,1.1450554132461548,-79.78277298445029,40.459038525419054,269.6921187667847,-0.0309438426047563,-0.0053292848169803,-0.9965086579322816,0.0773607715964317,-0.0103866785270192,0.0031901446379414,0.0146832741141767,0.0151787772774696,-0.0105025758966803,0.013900133781135,0.0675863303337246,0.5760520813241601,-9.782110535502436,14934.0
9.6,0.8000000119209291,112.0,23.05776596069336,0.1590354740619659,-79.78277307723549,40.45903865654464,269.6888958244324,-0.0308771356940269,-0.005312115419656,-0.9965091943740844,0.0773813277482986,-0.0080661724983202,0.000230162211281,0.0162483393865278,0.0051181348972022,0.0221276227384805,-0.0034327483735978,0.0745581163046881,0.6436204223334789,-9.794555749297142,14934.0
9.7,0.8000000119209291,110.0,22.15503692626953,15.227646827697756,-79.78277306578774,40.45903865723251,269.6904426841736,-0.0309066716581583,-0.0053075933828949,-0.9965028762817384,0.0774513185024261,-0.0113560198004145,3.935883338932801e-05,0.0168679913376407,-0.0174154378473758,-0.0002291647397214,-0.0099502066150307,0.039414920406416,0.5832315850630403,-9.790742195248605,14934.0
9.9,0.8000000119209291,110.0,23.046497344970703,0.3419262766838074,-79.7827731578449,40.4590387652647,269.6881452827454,-0.030883003026247,-0.005255171097815,-0.9965092539787292,0.0773823410272598,-0.0036333816522627,0.005895437922783,0.01674607412256,0.011089077219367,-0.031450156122446,0.0054841432720422,0.0464686815999448,0.5833886924386025,-9.807226665616035,14934.0
10.0,0.8000000119209291,107.0,23.05526161193848,0.1749390214681625,-79.78277320938854,40.45903890519088,269.68280089187624,-0.0308712646365165,-0.0052708419971168,-0.9965069890022278,0.077415607869625,-0.0049279685601781,0.00438058700977,0.0159173363556975,0.011470085941255,-0.0085301650688052,0.0120827909559011,0.0434838333260268,0.558977553807199,-9.799346373081208,14934.0
10.2,0.8000000119209291,106.0,22.98264312744141,1.5187888145446775,-79.78277318737551,40.45903890333742,269.6858645706177,-0.0308717973530292,-0.0053140479139983,-0.9965053796768188,0.0774326100945472,-0.0079709286450919,0.0012561841474382,0.0159157050985198,0.0071767191402614,-0.0133781237527728,0.0059615885838866,0.0405078929197043,0.6305622010678054,-9.794971486330034,14934.0
10.3,0.8999999761581421,104.0,22.886234283447266,3.347696781158448,-79.78277329442128,40.459039053373104,269.682655456543,-0.0308598857372999,-0.0052955881692469,-0.996501326560974,0.077490784227848,-0.0023530419159762,-0.0017648523257032,0.0171438720363492,-0.0070976042188704,-0.0182089637964963,0.0008196145645342,0.0476701290998607,0.6044796723872423,-9.798603776693344,14934.0
10.5,0.8999999761581421,104.0,22.79358291625977,5.248170852661133,-79.7827733958765,40.45903916687523,269.67953002738955,-0.030750909820199,-0.005245410837233,-0.9965142011642456,0.0773722380399704,-0.0001979061620223,0.003106451098483,0.014426962731331,-0.0294532310217618,-0.0044164205901324,-0.011727743782103,0.0529982353420928,0.593646937943995,-9.807229589223862,14934.0
10.6,0.8999999761581421,102.0,22.747257232666016,6.289853096008301,-79.78277339733026,40.45903916385564,269.68093192863466,-0.0307248067110776,-0.0051585915498435,-0.9965155124664308,0.0773712694644928,0.0040667335523313,0.0006129277714681,0.0134803665601783,0.0404512584209442,0.027902903035283,0.0265361946076154,0.0713622977491468,0.5794630911201238,-9.815867096185682,14934.0
10.8,0.8999999761581421,104.0,22.62956428527832,8.691288948059082,-79.78277345416245,40.45903930097586,269.6784638195038,-0.0303833447396755,-0.0051031825132668,-0.9965304136276244,0.0773172527551651,0.0026936417510369,0.0018724301517285,0.0148117742601824,0.0393822118639946,0.0057034622877836,-0.0472782105207443,0.0244603283330798,0.6759955783188344,-9.795324073433877,14934.0
10.91,0.8999999761581421,104.0,22.581987380981445,10.766701698303224,-79.782773454748,40.45903930130892,269.68008220481875,-0.0296572521328926,-0.0053920526988804,-0.9965431094169616,0.0774158835411071,0.0068771989935198,-0.0025605122000072,0.0198048110470846,0.0947679206728935,0.1204783618450164,-0.0387871637940406,-0.0691493458952754,0.5424989306554199,-9.79164208173752,14934.0
11.1,0.8999999761581421,105.0,22.43800163269043,12.897777557373049,-79.78277353268784,40.45903944652616,269.6798058776856,-0.0276860296726226,-0.0058549009263515,-0.9965904355049132,0.0775042250752449,0.0025855226213177,0.0013183690950681,0.0202641442786857,-0.0282906163483858,-0.0114557314664125,0.0772020518779754,0.0406391080934554,0.6846484342217446,-9.85759048819542,14934.0
11.2,0.8999999761581421,104.0,22.356616973876957,14.710782051086426,-79.78277353553256,40.45903945019928,269.6817871360779,-0.0265127457678318,-0.0061391503550112,-0.9966158270835876,0.0775656104087829,0.005735791273274,-0.0075241116651312,0.0219961802008534,0.0491123385727405,-0.0119041018187999,-0.0219585131853818,0.1174519975483417,0.6616403715312481,-9.79426572740078,14934.0
11.4,0.8999999761581421,104.0,22.1988582611084,17.899442672729492,-79.78277360141945,40.45903953691585,269.6834412841797,-0.0250918548554182,-0.0087828449904918,-0.9966201782226562,0.0777268186211586,-0.0006216489789992,-0.0057690360832922,0.034718439008383,0.0113801322877407,0.057272981852293,-0.0911768451333046,0.0558747502416372,0.6288349335640671,-9.882553421258924,14934.0
11.5,0.8999999761581421,104.0,22.123735427856445,19.50570106506348,-79.78277364058144,40.45903965759403,269.6797062187195,-0.0264749880880117,-0.0095928721129894,-0.9965606331825256,0.0779370293021202,-0.0268684595908231,0.0019189130614393,0.0430621271947788,-0.0825172886252403,0.0306013207882642,-0.0193006098270416,0.1068731327634304,0.3121687372773886,-9.89972669363022,14934.0
11.7,0.8999999761581421,103.0,21.940937042236328,23.24303436279297,-79.78277352230289,40.459039670189455,269.6891456871033,-0.0272873006761074,-0.0071901753544807,-0.9965124726295472,0.078527994453907,-0.078058424789129,-0.0017870026506602,0.0883248812742029,0.0184377301484346,0.0169739071279764,0.0360807105898857,0.0481036772998049,0.3743134568631649,-9.821359970569612,14934.0
11.8,1.0,100.0,21.86205673217773,25.127605438232425,-79.78277353629792,40.4590398467521,269.69330680656435,-0.0265717189759016,-0.0047303196042776,-0.9967960715293884,0.0752951577305793,-0.1037765261925562,-0.0035729935376667,0.1638019218369401,-0.0249695479869842,0.0146932424977421,0.0219128523021936,0.0937832177616656,0.3844094055891037,-10.53080615401268,14934.0
12.0,1.0,97.0,22.20011138916016,18.392452239990234,-79.78277312337043,40.45904021449145,269.73034179496767,-0.0121981501579284,0.00217847363092,-0.9975500702857972,0.0688507333397865,-0.1238562487311742,-0.0096909704954084,0.3023016707992749,0.4031402468681336,0.1023238524794578,0.0194128733128309,0.0234457998722791,0.2345667203888297,-10.786810119152072,14934.0
12.1,1.0,95.0,22.137508392333984,19.060401916503903,-79.78277294916401,40.45904022498111,269.76028120803835,0.0021101864986121,0.0033384340349584,-0.997610569000244,0.0689748600125312,-0.1418051726822263,0.0059228046264163,0.2996997608839922,0.252421110868454,0.0438202768564224,-0.0195310432463884,-0.0636461109761148,0.0378548924066126,-9.99346457719803,14934.0
12.3,1.0,95.0,22.1988582611084,17.756311416625977,-79.78277239545162,40.45904041957865,269.7955499916077,0.0094571374356746,-0.0026408126577734,-0.9972948431968688,0.0728466808795929,-0.1299218468372575,0.0015764683168873,0.1973531633834274,0.027152881026268,0.0821644812822341,-0.0190924704074859,-0.1087228446174413,-0.0553407121589407,-9.577984237074851,14934.0
12.4,1.100000023841858,100.0,22.073654174804688,20.18955421447754,-79.78277225276666,40.45904042698472,269.81345594215395,0.0090443501248955,-0.0033500229474157,-0.997148871421814,0.0748414024710655,-0.1162857553403531,0.0197011269975108,0.1429301921836249,-0.0268234107643365,-0.0578195974230766,-0.0484613217413425,0.1811254351213574,-0.0569151800405234,-9.24714234352112,14934.0
12.6,1.100000023841858,99.0,22.01105117797852,21.64472770690918,-79.78277238403498,40.4590405112914,269.8155673770905,-0.0004204896977171,-0.0034821503795683,-0.997053325176239,0.076632060110569,-0.0548318255218892,0.0153527841795462,0.0565548926831929,-0.0940481126308441,-0.0346885249018669,0.0438819862902164,0.1165518186986446,-0.0803983015939593,-9.303103120923044,14934.0
12.7,1.100000023841858,98.0,21.974742889404297,21.946895599365234,-79.78277232225719,40.459040503272206,269.8214687137604,-0.001800252823159,-0.002715412992984,-0.9970241785049438,0.0770203918218612,-0.0419013822267844,0.0261018128714434,0.058531628307742,0.0800991430878639,-0.0512309409677982,0.0054861772805452,0.2104624692164361,0.0213751569134183,-9.771295525431633,14934.0
12.8,1.100000023841858,99.0,21.937179565429688,22.185449600219727,-79.7827723582318,40.459040549233016,269.8388747005463,0.0043329927138984,-0.0035895337350666,-0.9971011281013488,0.0758803188800811,-0.0135130800412044,0.0385672895085801,0.0930698410987818,0.0547924973070621,0.0052442075684666,0.0255222413688898,0.1731575257144868,-0.0774057879857719,-9.832698891162874,14934.0
13.0,1.2000000476837158,97.0,21.97223854064941,21.795812606811523,-79.78277222459614,40.459040634065,269.8520602016449,0.0051876767538487,-0.0065306443721055,-0.9971563220024108,0.0748986452817916,-0.0359547889228887,0.050285619474916,0.1105038335554012,-0.0762741267681121,0.0225741062313318,0.0094947591423988,0.2064510600082576,0.1400597635097801,-9.931279438734055,14934.0
13.2,1.2000000476837158,97.0,21.99352264404297,21.239187240600582,-79.78277217125739,40.45904055630381,269.87748706626894,0.008575277402997,-0.0076201022602617,-0.9972402453422546,0.0733508542180061,0.0131319603919301,0.0458842046429131,0.1455861925854663,0.2104504853487014,-0.0176753588020801,-0.0377674736082553,0.1672336932644248,-0.0061162492423318,-9.985869044065476,14934.0
13.3,1.2000000476837158,98.0,21.96973419189453,22.137739181518555,-79.78277216153923,40.4590406679459,269.8911150722504,0.012111890129745,-0.0076990607194602,-0.9972181916236876,0.0731429830193519,0.0096115617679591,0.0436569484762385,0.1488640330835935,0.0055876262485981,-0.0462834052741527,-0.0359000861644744,0.1045652915630489,-0.0132262190803885,-9.862980451583864,14934.0
13.5,1.2000000476837158,99.0,21.869569778442383,23.05219268798828,-79.782772027337,40.45904065531553,269.9224642543793,0.0076341056264936,-0.0089641660451889,-0.9972450733184814,0.0732373893260955,0.0118128050125911,0.0468217760513978,0.1431719466130107,-0.0359662994742393,-0.0293301455676555,-0.0112800691276788,0.1241224737558514,0.0537909533316269,-9.787305201888085,14934.0
13.6,1.2999999523162842,104.0,21.922155380249023,22.479665756225582,-79.78277203873556,40.45904061413156,269.9374495773316,0.0063309865072369,-0.0092349164187908,-0.9972361326217652,0.0734488815069198,0.0237502500658882,0.0443473860662715,0.1599562663133667,-0.0799316093325614,-0.109479583799839,-0.0822600200772285,0.062242039181292,0.1161567844636738,-9.907503490448,14934.0
13.8,1.2999999523162842,102.0,22.392927169799805,8.222134590148926,-79.7827723146862,40.45904058558863,269.97901070404055,0.0080476365983486,-0.0085604730993509,-0.997214376926422,0.0736574605107307,0.0841586196788836,0.0372481412918566,0.1946193435313374,0.0111204786226153,0.0309993121773004,0.0157285500317811,0.0895931578427553,0.1180144996941089,-9.990164408683777,14934.0
13.9,1.399999976158142,103.0,21.974742889404297,21.37436866760254,-79.78277242268996,40.4590405498984,269.9977840213776,0.0099887158721685,-0.0100296447053551,-0.9971659183502196,0.0738905221223831,0.0962214719515362,0.0252641686777045,0.1483375113560601,-0.0111645190045237,-0.0042795469053089,-0.0046284860000014,0.0486935106106102,0.0783113389648497,-9.275638164281846,14934.0
14.1,1.2999999523162842,105.0,21.76189422607422,25.294591903686523,-79.78277269590438,40.459040563120695,270.0185850887299,-0.0018556246068328,-0.0073955007828772,-0.9972038269042968,0.0743401050567627,0.1056809217514538,0.021715733961009,0.0521822042066166,-0.1678812503814697,-0.0614861845970153,-0.0389654599130153,0.1563874188624322,-0.058642292227596,-8.920964189171789,14935.0
14.2,1.2999999523162842,111.0,21.70054244995117,26.86904335021973,-79.78277282373848,40.4590405308652,270.02725374984743,-0.0069288415834307,-0.0048954840749502,-0.9971661567687988,0.0747506245970726,0.1097345419985088,0.0236394078711034,0.1308216571353397,-0.0562601946294307,-0.0518214777112007,-0.1033078134059906,0.1206255007535219,0.273140107691288,-10.422405792474748,14935.0
14.4,1.2999999523162842,109.0,21.59161376953125,29.12734794616699,-79.78277281409973,40.45904035004632,270.1153172283173,-0.0044307215139269,-0.0021181378979235,-0.997108280658722,0.0758364647626876,0.0945020008688855,0.05548381237864,0.4279765637805821,-0.0121171837672591,0.0063238623552024,-0.0269893910735845,0.0661607334762811,0.3214481954276562,-10.850568158626556,14935.0
14.5,1.2999999523162842,112.0,21.524003982543945,30.391679763793945,-79.78277266674267,40.45904037386165,270.14645707893374,-0.0024249861016869,-0.0047974158078432,-0.9970890283584596,0.0760566964745521,0.0856900222179686,0.0472436985320375,0.5453059826065129,0.0658560320734977,0.0793026909232139,0.0009608266991563,0.1167225299868732,-0.0412623481918126,-11.340873563289644,14935.0
14.6,1.2999999523162842,113.0,21.5064754486084,30.137222290039062,-79.78277281573162,40.45904028090676,270.2917054920197,-0.0024340599775314,-0.0100395595654845,-0.997024416923523,0.076392188668251,0.0672279344144817,0.0551133097341624,0.9255685991356438,-0.0297206919640302,-0.0563651658594608,-0.0443603172898292,0.169418432302773,-0.065185061590746,-11.544542609453206,14935.0
14.8,1.399999976158142,117.0,21.45263671875,31.592397689819336,-79.78277296312206,40.4590403574972,270.38718283462526,-0.0027324419934302,-0.0089533142745494,-0.9970113635063172,0.0766867473721504,0.0692123078890442,0.0542342582199223,1.1521953813936348,-0.0481038279831409,-0.0738835334777832,-0.1064959838986396,0.1596501469239592,0.1708704969473183,-12.141245119571687,14935.0
15.0,1.399999976158142,121.0,21.286113739013672,34.39937210083008,-79.78277320146499,40.4590404230914,270.6594413547516,-0.003429282689467,-0.0011360053904354,-0.9970101714134216,0.0771864652633667,0.0734540533942677,0.0411442049310896,1.6267227563112678,-0.0366819985210895,-0.1039204597473144,-0.1058530434966087,0.1548685863241553,0.1326117081195116,-12.16743479847908,14935.0
15.1,1.5,127.0,21.43260383605957,31.49697685241699,-79.78277327555539,40.45904038987213,270.83622741985323,-0.0019462421769276,0.0025112971197813,-0.9970359206199646,0.0768720135092735,0.0786738970643023,0.0363645086494039,1.9051454464778568,0.0123657835647463,-0.0885652974247932,-0.0447395034134388,0.0855267848074436,0.0547000628896057,-12.516209517717366,14935.0
15.3,1.600000023841858,131.0,21.258569717407227,34.83672332763672,-79.78277360737216,40.45904048988071,271.2313600211144,-0.0004475693567655,0.0022641748655587,-0.9971089363098145,0.0759502425789833,0.0769580938636115,0.0310811643502712,2.305669224867062,-0.0682229846715927,-0.0184705331921577,-0.0567796975374221,0.0260759551310911,-0.0315995593741536,-12.202498211860654,14936.0
15.4,1.7999999523162842,130.0,21.39253807067871,32.11721420288086,-79.78277368858134,40.45904042975994,271.47277927684786,-0.0029661988373845,-0.0002052506897598,-0.9971309304237366,0.0756382346153259,0.0711935965512684,0.0525104895975419,2.5275846781940574,-0.1173915341496467,-0.0281977280974388,-0.022687628865242,0.0524940271954983,0.0983546988666057,-12.00191181778908,14936.0
15.6,1.8999999761581416,129.0,21.57032966613769,28.50710868835449,-79.78277411258009,40.45904055261318,271.9547116338015,-0.0151865994557738,-0.0015467746416106,-0.9970069527626038,0.0757911056280136,0.0999621661010048,0.0712550053771653,2.8406376325465144,-0.1415969282388687,-0.0556986555457115,-0.0654885321855545,0.1564719294011592,0.1546256527863443,-11.832146097421653,14936.0
15.7,2.200000047683716,130.0,21.600378036499023,27.179162979125977,-79.78277415410244,40.45904048515647,272.2453139229417,-0.0177102498710155,-0.002712981076911,-0.9969487190246582,0.0759755447506904,0.1242214777483658,0.0730076413035255,2.959342141718478,0.0043319216929376,0.0181668195873498,-0.0305334702134132,0.1041866934858262,0.1886008079722524,-11.120743435621264,14937.0
15.9,2.200000047683716,129.0,21.620410919189453,26.81338119506836,-79.78277460759419,40.45904075181896,272.7435549526215,-0.0125434463843703,-0.0049231015145778,-0.9970309138298036,0.0758150145411491,0.1103038210563354,0.0657734822113953,3.017299697939201,0.2053480297327041,0.0475345365703105,0.0892054289579391,0.0716745984507724,0.1813663221336901,-10.72285444378853,14937.0
16.0,2.400000095367432,124.0,21.654216766357425,26.3521785736084,-79.78277519527566,40.459041081225365,272.929601433754,-0.0093730390071868,-0.0061478512361645,-0.9970306754112244,0.0761863738298416,0.0845217433155306,0.0481189266092119,2.973995285337895,-0.0742063745856285,0.020479179918766,-0.0817778557538986,0.0422290162788704,0.170035971365869,-10.247605619430542,14937.0
16.2,2.400000095367432,125.0,21.70805549621582,24.984474182128903,-79.7827752087546,40.45904105078419,273.52896154212954,-0.0057530682533979,-0.0104602109640836,-0.997012495994568,0.0763128399848938,0.0515426775996393,0.0588544046429708,3.0124982838195296,0.0529804676771164,0.0320328697562217,0.0112372189760208,0.1190271826274693,-0.0763834206014871,-10.117848887443545,14938.0
16.3,2.5,121.0,21.66924095153809,25.58085632324219,-79.78277606913444,40.45904149848203,273.6808631448746,-0.0050387741066515,-0.0114496070891618,-0.997035801410675,0.0759153738617897,0.0783127730443583,0.0263928497598382,2.9140545017315422,0.0538220964372158,0.0225343685597181,0.0034662946127355,0.1742428054846823,0.0570761794690042,-9.823428715467452,14938.0
16.5,2.5999999046325684,118.0,21.72182846069336,24.197248458862305,-79.78277700051103,40.459041983889975,274.1222912101746,-0.0050330040976405,-0.011737635359168,-0.9970894455909728,0.0751644596457481,0.0979285729863703,-0.0150774002677239,2.801357402970451,-0.0938954949378967,0.0195385199040174,-0.0187776330858469,0.1706611483544111,0.1200780186429619,-9.75598985373974,14939.0
16.6,2.700000047683716,113.0,21.590362548828125,26.717960357666016,-79.78277709479529,40.45904202710512,274.40261614608767,-0.0055432640947401,-0.0114631382748484,-0.9970942735671996,0.0751056596636772,0.10487895587338,-0.0263711457364299,2.769393449357324,0.0143898064270615,-0.0043251584284007,-0.0154565051198005,0.0769915675744414,0.0069257254432886,-9.57454022705555,14939.0
16.8,2.5999999046325684,110.0,21.71807098388672,24.29266929626465,-79.78277800931326,40.45904258383623,274.8405741481781,-0.0059717325493693,-0.0119290323927998,-0.9970728754997252,0.0752844884991645,0.1320060636533926,-0.0814448617351747,2.6925295977335244,0.0241890382021665,0.0153183760121464,0.0380200892686843,0.1261294117569923,0.0186271551344543,-9.750507504343988,14939.0
16.9,2.5999999046325684,106.0,21.75563240051269,23.354360580444336,-79.78277812686301,40.45904267736165,275.11127198028566,-0.0063387262634933,-0.0124088646844029,-0.997051477432251,0.0754607245326042,0.1310460601985586,-0.0900044427918274,2.6729602392678697,0.061694074422121,0.0388037413358688,0.0626038759946823,0.124485275214538,-0.0418499202746898,-9.63863974392414,14940.0
17.1,2.5999999046325684,106.0,21.686769485473643,24.6027889251709,-79.78277901055559,40.459042675399424,275.6248382358551,-0.0047799544408917,-0.0147891426458954,-0.9970159530639648,0.0756162330508232,0.1695201423778944,-0.0916220030116603,2.571115404338684,0.1034658849239349,0.033857125788927,-0.0300872698426246,0.1529279411304742,-0.0146028272341936,-9.500269478559494,14940.0
17.2,2.5,99.0,21.71807098388672,24.05411529541016,-79.78277919101748,40.45904280691021,275.8797575263977,-0.0037045094650238,-0.0157479234039783,-0.9970027804374696,0.0756556689739227,0.162417436185153,-0.1030979400154906,2.5315427542290982,0.1016114354133606,0.0106644481420516,-0.0029540169052779,0.1372060481831431,0.1202275611832738,-9.419096091985704,14940.0
17.4,2.400000095367432,99.0,21.74186134338379,23.12375831604004,-79.78277939855505,40.45904221237405,276.6376706390381,-0.0014316976303234,-0.0151141891255974,-0.9970153570175172,0.0756962746381759,0.1780978403378892,-0.0637887951802967,2.567311661871428,0.0225453097373247,-0.0288026202470064,0.0036382132675498,0.156213957555592,0.1117135949246585,-9.443940326571465,14941.0
17.5,2.299999952316284,95.0,21.660476684570312,25.04808807373047,-79.78277844084197,40.45904207062925,277.1092125205994,-0.0007809521048329,-0.0145402150228619,-0.9970136880874634,0.0758406892418861,0.1301353423422847,-0.0646020270130565,2.6147924330689034,0.0317464210093021,0.0047852210700511,-0.0036429446190595,0.1538966146297753,0.0054367342614568,-9.539476813673971,14942.0
17.7,2.299999952316284,95.0,21.76439666748047,22.686410903930664,-79.78277877121727,40.45904231721543,277.6273041992188,0.0010641447734087,-0.0137185659259557,-0.996989130973816,0.0763114318251609,0.1452357396147279,-0.0982465844266092,2.5827707652693466,0.1708324402570724,0.0262477621436119,0.0414041094481945,0.1682053177803754,-0.0795296520274132,-9.60651806473732,14942.0
17.8,2.400000095367432,90.0,21.654216766357425,24.952667236328125,-79.78277784796373,40.45904229415153,278.0937505989075,0.0018208480905741,-0.0127960238605737,-0.9970007538795472,0.0763058811426162,0.0937722464287477,-0.0969886832539245,2.6432065946541923,0.05970349162817,-0.010403330437839,0.0218899082392454,0.1747205595485866,0.0993979974556714,-9.640537750124931,14943.0
18.0,2.400000095367432,90.0,21.64169692993164,25.07194328308105,-79.78277724298877,40.459042338571095,278.80020296859743,0.0003210681315977,-0.0103258909657597,-0.9970721006393432,0.0757660269737243,0.0736172726367093,-0.1057113708626434,2.6857286533356937,0.0194078087806701,-0.0113369468599557,0.0501173511147499,0.1333083125017583,-0.0066993376985192,-9.732913817167285,14943.0
18.1,2.299999952316284,86.0,21.66548538208008,24.73796844482422,-79.78277736289475,40.459042479145886,279.0681945114136,0.0003425339818932,-0.0098395962268114,-0.9970932602882384,0.0755522027611732,0.0889074914646868,-0.1189896692884365,2.679255214684793,0.0733382031321525,0.0032394330482929,0.0004458387265913,0.2044878025352955,-0.0241831748792901,-9.779769310355189,14944.0
18.3,2.299999952316284,83.0,21.652965545654297,25.10375022888184,-79.78277674823819,40.4590424959214,279.78926575469967,0.0013703332515433,-0.0105230743065476,-0.9970503449440002,0.0760131850838661,0.0609718155429772,-0.105559525434921,2.7391935879280176,0.0084330355748534,0.0510892122983932,0.0112713258713483,0.1632100779935717,0.1448483042232692,-9.768379518985748,14944.0
18.4,2.0999999046325684,82.0,21.70805549621582,23.87917709350586,-79.78277684021786,40.459042623986655,280.0630914001465,0.0025864460039883,-0.0106548042967915,-0.9970062971115112,0.0765395835041999,0.0713212208957813,-0.1064368854514656,2.734604152270741,0.0019554474856704,0.0453900583088398,0.0249656606465578,0.1413113417476415,0.114142272491008,-9.757294367551804,14945.0
18.6,2.0,79.0,21.574085235595703,26.43964767456055,-79.78277647460249,40.4590425504399,280.7897244720459,0.0036061322316527,-0.0108404653146862,-0.996906876564026,0.077757328748703,0.0698716486098028,-0.0872637528382943,2.780383492051195,0.0979905501008033,0.0451236590743064,-0.0102555379271507,0.1251452339999377,0.0139425189862959,-9.689386559128762,14945.0
18.7,2.0999999046325684,77.0,21.584102630615234,26.30446815490723,-79.78277659819742,40.45904267095022,281.0676127700806,0.0022612630855292,-0.0103860711678862,-0.9968851208686828,0.0781478360295295,0.0704912246479096,-0.0900607422970632,2.7866261434234607,-0.0443913862109184,-0.0221068747341632,0.0163174178451299,0.1319644853007048,0.1524732104782015,-9.805346201062203,14946.0
18.9,2.0,76.0,21.695533752441406,23.815563201904297,-79.78277625119459,40.4590426461809,281.7613488464356,-0.0010335475672036,-0.0098595488816499,-0.9968662261962892,0.0784825980663299,0.0957368728950559,-0.0828347704019838,2.874325073443017,0.0483111441135406,0.0634382516145706,0.0181091763079166,0.1469219644367695,0.0078577533457428,-9.963105833530426,14946.0
19.0,2.0,76.0,21.602882385253903,25.326400756835927,-79.78277627118091,40.45904262705147,282.1161443023682,-0.0027046441100537,-0.0098378174006938,-0.99686861038208,0.0784152150154113,0.0991571720220431,-0.0687172677328055,2.9003780457340183,-0.1004408746957779,-0.0023349795956164,-0.0398488603532314,0.1769370197318494,0.248120036367327,-9.849768083095553,14947.0
19.2,1.8999999761581416,74.0,21.619159698486328,25.159412384033203,-79.78277655199307,40.45904282812988,282.695085647583,-0.0029359126929193,-0.0083081815391778,-0.9969363212585448,0.0777199864387512,0.1237074418066068,-0.0745060170061033,2.9002308763191325,-0.01221838966012,-0.0383018217980861,-0.0365641638636589,0.2261577664688229,0.0858328956831246,-9.887428829669954,14947.0
19.3,1.7999999523162842,73.0,21.64294815063477,24.83338928222656,-79.78277655967614,40.45904279553609,283.0446654586792,-0.0027704427484422,-0.0068806698545813,-0.9969623684883118,0.0775317102670669,0.1154466342783989,-0.0655665254264382,2.9201462494097243,0.0029583962168544,-0.0441869050264358,0.0174364745616912,0.184470444470644,0.1042877954989671,-9.823305923938753,14948.0
19.5,1.7000000476837158,73.0,21.610395431518555,25.07989501953125,-79.78277682239728,40.459042899928576,283.67993653106686,-0.0024519213475286,-0.0064717479981482,-0.9969980120658876,0.0771179646253585,0.1289399569709556,-0.071630131228012,2.9092961151250187,0.0009942437754943,0.0589432045817375,0.0221136678010225,0.1821982530131936,0.0979998276941478,-9.730222928524018,14948.0
19.6,1.7000000476837158,70.0,21.68927383422852,23.592912673950195,-79.78277696707907,40.45904297778324,283.97068226623537,-0.0032619978301227,-0.0081150708720088,-0.9969959855079652,0.0769590362906456,0.1237727429915079,-0.0645724691998569,2.905959415351117,-0.0245754420757293,0.0461358241736888,-0.0309659596532583,0.1774944238364696,0.1341434684861451,-9.74675768494606,14948.0
19.8,1.7000000476837158,68.0,21.576589584350582,26.07386589050293,-79.78277708970336,40.4590430632313,284.6015969543457,-0.0038439254276454,-0.0100458161905407,-0.9969876408576964,0.0768113508820533,0.1221810294390241,-0.0362293774418647,2.9047597312584847,-0.0901100635528564,-0.0055811824277043,-0.0323020331561565,0.1879301871545612,0.264446851182729,-9.72457276403904,14949.0
19.9,1.7000000476837158,65.0,21.652965545654297,24.332427978515625,-79.78277722309181,40.45904313020929,284.89202034759523,-0.0038326513022184,-0.0095324255526065,-0.9969868063926696,0.0768885388970375,0.1246636305959734,-0.0344917079010027,2.905638739557993,-0.0294712465256452,-0.0278150606900453,-0.0342647023499012,0.2320273477211594,0.0796763714589178,-9.837733343839648,14949.0
20.1,1.7999999523162842,62.0,21.54153251647949,26.36808204650879,-79.78277736084719,40.45904314026256,285.5134078292847,-0.0046750800684094,-0.0082874819636344,-0.9969482421875,0.077483907341957,0.117133461854866,-0.0273691257408859,2.8998534812392283,-0.0291441399604082,0.018036138266325,0.0088170487433671,0.1952524908632039,0.1666985268518328,-9.752746403217316,14950.0
20.2,1.7000000476837158,54.0,21.62166404724121,24.44375228881836,-79.78277747857031,40.45904319505348,285.8035012512207,-0.0041668666526675,-0.0083288578316569,-0.9969103932380676,0.0779939591884613,0.119885867247979,-0.0289693653230729,2.9035458754099817,-0.0242257770150899,0.0369579046964645,0.0142940022051334,0.185222195405513,0.075353588880971,-9.83025124669075,14950.0
20.4,1.7000000476837158,51.0,21.629175186157227,24.54712677001953,-79.78277778409446,40.45904328413157,286.43034661102297,-0.0056901383213698,-0.0081037739291787,-0.9968461394309998,0.0787390395998954,0.1129508879618076,-0.0258562916545136,2.920522232341197,-0.1309733539819717,-0.0261725522577762,-0.01820033416152,0.1390864944644272,0.1731322730518877,-9.824444961547847,14951.0
20.5,1.7999999523162842,44.0,21.56532096862793,25.57290458679199,-79.78277783477287,40.45904323031676,286.7616311340332,-0.0071529280394315,-0.0085111455991864,-0.996818482875824,0.0789264589548111,0.1183842529768659,-0.0121606478521084,2.9225642460851686,-0.0876755341887474,-0.0017952946946024,-0.0228277929127216,0.1498827843088656,0.125380694065243,-9.721020580530167,14951.0
20.6,1.8999999761581416,37.0,21.59537124633789,24.849292755126957,-79.78277794198323,40.45904326891566,287.0535184173584,-0.0074405325576663,-0.009301328100264,-0.9967933893203736,0.0791279003024101,0.1210485703624145,-0.0086726738918485,2.9162281854760645,-0.0199730154126882,0.0204464253038167,-0.0788728520274162,0.2360738767683506,0.2229670505225658,-9.758259742856026,14952.0
20.8,2.0,30.0,21.557809829711918,25.88302421569824,-79.78277814665981,40.45904346973528,287.6706439285278,-0.0078481640666723,-0.0111568048596382,-0.9967808723449708,0.0790053978562355,0.1189374226085506,-0.0145706353428385,2.925858011310137,0.0013189800083637,0.0599299445748329,0.0173200219869613,0.2805350447818637,0.0185414363234303,-9.805463730096818,14952.0
20.9,2.0,28.0,21.636688232421875,24.332427978515625,-79.78277823576536,40.45904352256861,287.96287358093264,-0.0080822249874472,-0.0111769260838627,-0.9967979788780212,0.0787625759840011,0.1055018166869819,-0.006518203682838,2.9186717671018982,-0.0076468111947178,-0.007441725116223,-0.0547868721187114,0.2069557112641632,0.189134969394654,-9.736195274591449,14952.0
21.1,2.200000047683716,22.0,21.57158088684082,24.89700508117676,-79.78277845946734,40.45904353409182,288.5716630249024,-0.006482093129307,-0.0099440002813935,-0.9968487024307252,0.0784341022372245,0.1154958169129314,0.000940187930352,2.9176169267627503,0.0802318453788757,0.0316310189664363,0.0360361374914646,0.2009199594520032,0.0631980132590979,-9.902754381895068,14953.0
21.3,2.200000047683716,20.0,21.52024841308593,26.23290252685547,-79.78277855791667,40.45904353613476,289.1820851593018,-0.0053641092963516,-0.0108004435896873,-0.996952474117279,0.077074334025383,0.0772241356518092,0.0200973122074024,2.959898046506184,-0.0595890805125236,0.0112794302403926,0.0298536513000726,0.2491004865244031,-0.032861434193328,-9.985320575237273,14954.0
21.4,2.299999952316284,16.0,21.57158088684082,25.437725067138672,-79.78277861776634,40.45904356446152,289.47909176635744,-0.0063934097997844,-0.0120692541822791,-0.996947705745697,0.0768687427043914,0.0805268321344717,0.023634611164327,2.978606558824412,0.0277655012905597,0.0646460503339767,-0.045796126127243,0.2636639272794127,0.1270512983947992,-10.007397322654723,14954.0
21.5,2.400000095367432,15.0,21.65046119689941,23.457733154296875,-79.78277871847388,40.45904353762965,289.79267323303225,-0.0052553839050233,-0.0134030962362885,-0.9968966245651244,0.0773944556713104,0.0889364137835693,0.0373444199075024,2.985307840106972,0.0343951843678951,0.0613082014024257,-0.0158512890338897,0.294506692495197,0.245918468311429,-9.963538527488708,14954.0
21.7,2.5999999046325684,15.0,21.48518943786621,26.69410514831543,-79.78277884296584,40.45904357113811,290.38720143127443,-0.0021466962061822,-0.0118282716721296,-0.9967939853668212,0.0791030153632164,0.0739471759189628,0.0530800680077601,2.9391816602980763,-0.0266640055924654,-0.0262999664992094,0.0610402300953865,0.2424550163000822,-0.0141593433357775,-9.547976326346395,14955.0
21.8,2.700000047683716,16.0,21.55906105041504,25.44567680358887,-79.78277886333505,40.45904353327311,290.6976529388428,-0.0041555534116923,-0.0105175105854868,-0.9967592358589172,0.0796445459127426,0.0768815006521101,0.0499142855554175,2.932165426196645,0.0612663477659225,0.0089662577956914,0.0580466389656066,0.300386999733746,-0.0393861183011904,-9.778947776556016,14955.0
22.0,2.799999952316284,15.0,21.48894691467285,26.67820167541504,-79.78277896007991,40.45904350881955,291.3081342010498,-0.0053920000791549,-0.0121089844033122,-0.996691644191742,0.0801883563399314,0.0965760550617669,0.0472798670577454,2.955965935593776,0.0647487565875053,0.0539847798645496,0.0059778597205877,0.245809308104217,0.1263168150186538,-9.88298728466034,14956.0
22.2,2.700000047683716,17.0,21.53151512145996,25.588808059692383,-79.7827790947164,40.45904351197078,291.90196240234377,-0.0037608144339174,-0.0140890758484601,-0.996746301651001,0.0792731568217277,0.091062318470986,0.0652750942511971,2.9779387399342685,-0.0246635004878044,-0.0019368107896298,0.0567456521093845,0.2021924049407244,0.220349233802408,-9.890951192378996,14956.0
22.3,2.700000047683716,16.0,21.617908477783203,23.93483924865723,-79.78277907248639,40.459043432688986,292.2156201629639,-0.0036807300057262,-0.013675445690751,-0.9967970848083496,0.0787093713879585,0.0785261320353997,0.0671504179611908,2.981471448156684,0.0301974955946207,0.0198606569319963,-0.0006890337681397,0.2175036497600376,0.162959232442081,-9.897004230022429,14957.0
22.4,2.5999999046325684,14.0,21.53151512145996,25.71603775024414,-79.78277913064989,40.4590434369618,292.51392948913576,-0.0050639808177948,-0.0140869515016675,-0.996820867061615,0.0782561600208282,0.0676701298076186,0.0592246822070547,2.976728454865588,-0.096511535346508,0.0076782903634011,0.0078144138678908,0.2030175201594829,0.1775934245064854,-9.776342841982842,14957.0
22.6,2.5999999046325684,16.0,21.596622467041016,24.181344985961918,-79.78277918943073,40.45904340392785,293.1236954956055,-0.0079713882878422,-0.0122723234817385,-0.9968019127845764,0.0785617753863334,0.0824771597334043,0.0599806526770512,2.957541974254953,-0.0153343873098492,-0.0212897341698408,0.0045056855306029,0.2345856690220535,0.0987494681496173,-9.781289001703264,14958.0
22.7,2.400000095367432,16.0,21.53026390075684,25.58085632324219,-79.78277923174531,40.45904341573072,293.4192868499756,-0.0067044240422546,-0.0102637568488717,-0.9967666864395142,0.0794100761413574,0.0833699090116063,0.0488335411232379,2.9494618254038603,0.0724009647965431,-0.0238147620111703,0.0335179530084133,0.2199827230162918,0.082040464701131,-9.7229834908247,14958.0
22.9,2.400000095367432,17.0,21.50271797180176,26.1772403717041,-79.78277928986947,40.45904334653387,294.03575527954104,-0.0058737364597618,-0.0092993099242448,-0.9966764450073242,0.0807161256670951,0.0653845264876881,0.0481856463153856,2.9529086294527462,0.0256816949695348,0.0055034481920301,-0.0027412932831794,0.2408723577484489,0.0318341514933854,-9.764847216010097,14959.0
23.1,2.400000095367432,18.0,21.554052352905277,25.14350891113281,-79.78277930137062,40.45904331637217,294.6495229034424,-0.0066910171881318,-0.0111533030867576,-0.9966984391212464,0.0801448449492454,0.0486524411672769,0.0665185728304319,2.9598014235648846,-0.0936688631772995,-0.0471925102174282,-0.0469229705631732,0.2282592192292213,0.2261459624022245,-9.768587679862977,14959.0
23.2,2.200000047683716,15.0,21.55906105041504,25.056039810180664,-79.7827793173049,40.45904330999186,294.9457131652832,-0.0061761238612234,-0.0119711495935916,-0.9967325925827026,0.0796416401863098,0.0621747186804574,0.0705255620374495,2.9618191553707187,0.0303618442267179,-0.0095106055960059,0.0178474579006433,0.2532638867944479,0.0006093164160847,-9.826280987262724,14959.0
23.3,2.0999999046325684,14.0,21.58785820007324,24.29266929626465,-79.78277929809205,40.459043273335816,295.26144612121584,-0.004573087207973,-0.0125340884551405,-0.9967620968818665,0.0792933851480484,0.050031713758209,0.0752851783621349,2.9720593766370595,0.1055363118648529,-0.0026398345362395,-0.0206125304102897,0.2509411900117994,0.0500173522112891,-9.799192006587983,14960.0
23.5,2.0,10.0,21.577842712402344,24.39604187011719,-79.78277934443678,40.45904313960918,295.87134373474123,-0.00274020107463,-0.0145321916788816,-0.9967551827430724,0.0791235268115997,0.0340509772723562,0.0970608480088193,2.959510784328373,-0.0250669717788696,-0.0002572677622083,-0.0121103161945939,0.1907099900208413,0.0914194260165095,-9.71638256907463,14960.0
23.6,1.8999999761581416,10.0,21.52525520324707,25.41386985778809,-79.78277936394302,40.4590431105178,296.4605675964356,-0.0021394253708422,-0.0133376941084861,-0.996759831905365,0.0792935490608215,0.0357865531276658,0.0919783276786767,2.9327846677468616,0.0155133875086903,-0.0074653546325862,0.0388528741896152,0.2004398116841912,0.0035956630390137,-9.649651220440864,14961.0
23.81,2.0,11.0,21.511484146118164,25.50929069519043,-79.78277933031552,40.45904304527571,296.77876866149904,-0.002243636874482,-0.0126420734450221,-0.9967424273490906,0.0796228498220443,0.0276753760437272,0.0844635311823893,2.9450698472145382,0.040884219110012,-0.0218886360526084,0.0101483101025223,0.1970953870564699,0.0411478661047294,-9.751994451284409,14961.0
23.9,2.0,10.0,21.58159828186035,24.141586303710927,-79.78277933949451,40.45904303870984,297.0735322265625,-0.0018040629802271,-0.0119856912642717,-0.9967212080955504,0.0799999088048935,0.0271902380338254,0.0802041490935819,2.9496078886547368,-0.032060120254755,-0.0339463055133819,-0.0111007429659366,0.1856184539012611,0.1444291045423597,-9.797119168639185,14962.0
24.1,2.0999999046325684,13.0,21.57533836364746,24.32447624206543,-79.78277927503706,40.4590429642662,297.68495571899416,-0.0031073992140591,-0.0101297358050942,-0.9966648817062378,0.0809128656983375,0.0281482192627598,0.0780134383620767,2.959470757840861,0.0005435452912934,-0.0434570014476776,-0.0185126438736915,0.225454620514065,0.0723309621121734,-9.812720124721528,14962.0
24.2,2.200000047683716,11.0,21.500215530395508,25.75579643249512,-79.78277928570513,40.459042951871545,297.981125,-0.0042258528992533,-0.0097885001450777,-0.9966578483581544,0.0809916704893112,0.0309754342105824,0.0718975588357142,2.9604283482941205,-0.0682383403182029,-0.0257333144545555,0.0308875255286693,0.2067787781730294,0.1203048632014542,-9.811051329374315,14962.0
24.4,2.299999952316284,15.0,21.56156539916992,24.74592018127441,-79.78277929634895,40.45904287557728,298.58783543396,-0.0052995756268501,-0.0126326046884059,-0.9966593384742736,0.0805143341422081,0.043670037969329,0.0774095002398462,2.97511026612946,0.0064082816243171,0.0431648008525371,-0.0390268750488758,0.2302368571981788,0.2225254395604133,-9.911058597564695,14963.0
24.5,2.400000095367432,14.0,21.521499633789062,23.815563201904297,-79.78277920671778,40.45904281479709,299.20028889465334,-0.0048295618034899,-0.0143848871812224,-0.996697962284088,0.0797683969140052,0.0344665649706711,0.0949790240117853,2.9850498885477235,-0.0081224516034126,0.0468821339309215,0.0345491133630275,0.2265651164017617,0.2163617616333067,-9.877377465963365,14964.0
24.7,2.299999952316284,17.0,21.51899528503418,25.04808807373047,-79.7827791974281,40.45904280464975,299.49852383422854,-0.0042600845918059,-0.014331285841763,-0.9967079758644104,0.079685129225254,0.0388913813975151,0.091410435192406,2.9735700964156586,0.0595429986715316,0.0461708828806877,0.0464687347412109,0.3028686494193971,-0.0215791333769448,-9.763472535610198,14964.0
24.8,2.400000095367432,19.0,21.54654121398925,24.483510971069336,-79.78277915394945,40.45904276052294,299.80702984619137,-0.0035013491287827,-0.0138396369293332,-0.9967094659805298,0.0797900930047035,0.0304406860774459,0.091535246322817,2.973497380234038,0.0850763693451881,0.0172151774168014,0.0198111161589622,0.3191042293980717,0.0639896440319717,-9.808100239634514,14964.0
25.0,2.5,23.0,21.592866897583008,23.82351493835449,-79.78277916100515,40.45904272859326,300.41216290283205,-0.0042664352804422,-0.0115569084882736,-0.9966614246368408,0.080710731446743,0.0165162481028238,0.0816533370945625,2.9651625109805457,-0.1143148317933082,-0.0161651615053415,-0.0585385560989379,0.2075826789624989,0.1816505881771444,-9.738296179175377,14965.0
25.2,2.5,23.0,21.55530548095703,24.3721866607666,-79.7827791549821,40.45904271773013,301.0027371673584,-0.0049347509630024,-0.0119414431974291,-0.996586263179779,0.0815413892269134,0.0314925211209691,0.0715038834394971,2.93465682213192,0.0132807604968547,0.0187732391059398,-0.0080618243664503,0.1979978682473302,0.0944249314069748,-9.698798822164536,14966.0
25.3,2.5,22.0,21.57533836364746,23.70423889160156,-79.78277921852356,40.459042645154135,301.30968678283693,-0.0051920595578849,-0.0122871929779648,-0.9965603947639464,0.0817895755171775,0.0336640527939193,0.0812524012715247,2.9291879884351664,0.0173878632485866,0.0154040874913334,0.0371888503432273,0.2244159174710512,0.1120961764175444,-9.662479426860813,14966.0
25.4,2.5,21.0,21.451385498046875,26.19314384460449,-79.78277921484231,40.45904263041741,301.6020509033204,-0.005317788105458,-0.0123812323436141,-0.9965584874153136,0.0817902609705925,0.0344383187622616,0.0845051385509226,2.9159594050721567,-0.0030127498321235,0.0124929565936326,0.0661875903606414,0.2103662642464041,0.0779276611190289,-9.65581710934639,14966.0
25.6,2.400000095367432,22.0,21.521499633789062,24.952667236328125,-79.78277918889526,40.45904258814736,302.205698135376,-0.0052099861204624,-0.0120250191539526,-0.9965702295303344,0.0817076116800308,0.02783949227801,0.0871160613145931,2.9514609377305385,0.0492198579013347,-0.033557403832674,0.0024826352018862,0.2179147821106016,0.0351749992696568,-9.943068594932557,14967.0
25.7,2.5,21.0,21.46515655517578,26.01820373535156,-79.78277917368759,40.459042574614415,302.5017167358398,-0.0042384513653814,-0.011136457324028,-0.9965908527374268,0.0816383436322212,0.0216817460091915,0.0862465973688267,2.965546975717925,0.0252789370715618,-0.0622349642217159,0.0536289662122726,0.2161639612913132,0.061550368387252,-9.902092477083208,14967.0
25.9,2.400000095367432,21.0,21.554052352905277,24.332427978515625,-79.78277914817164,40.45904249205142,303.1087857513428,-0.0019487618701532,-0.0101244412362575,-0.9965905547142028,0.0818593278527259,0.0112846265534642,0.0823482863207299,2.9967439538642524,0.0146356550976634,0.0305290799587965,-0.0197489783167839,0.2138923728279769,0.0614654284436255,-9.968725007772449,14968.0
26.1,2.400000095367432,17.0,21.566574096679688,23.74399757385254,-79.78277927868876,40.45904238154285,303.7057515411377,-0.0043043070472776,-0.0124223046004772,-0.9965006709098816,0.0825449675321579,0.0290331832220861,0.0961282900311082,2.977996839087509,-0.0274781361222267,0.0559918358922004,0.0069281426258385,0.1967590259760618,0.0780096317734569,-9.856660780906678,14968.0
26.2,2.299999952316284,14.0,21.56156539916992,24.403993606567383,-79.78277927836973,40.45904235193348,304.0029431610108,-0.0047341929748654,-0.0131463473662734,-0.9964838624000548,0.0826120972633361,0.0409694462148114,0.1057065103570936,2.9597123499760283,0.0160232651978731,0.0176025759428739,0.0123800849542021,0.2471428569965064,0.0175368458451703,-9.647938570976258,14969.0
26.3,2.299999952316284,11.0,21.500215530395508,25.318449020385746,-79.78277934876591,40.45904231909808,304.3033601074219,-0.0038862326182425,-0.0127583025023341,-0.9964774250984192,0.0827946737408638,0.0436806521995658,0.102332162695468,2.9336994968719408,0.0468775145709514,-0.0139290383085608,0.0267168637365102,0.1945086884871125,-0.0288882237486541,-9.596066751480103,14969.0
26.5,2.299999952316284,6.0,21.52024841308593,24.316524505615234,-79.78277942722093,40.45904224984962,304.8972321777344,-0.0001223759318236,-0.0130796115845441,-0.9964017868041992,0.0837407335639,0.0235346981803761,0.0951630978163627,2.9231807535061223,-0.0050875707529485,0.0328139178454875,-0.0029894316103309,0.2356532975099981,0.1251673803292215,-9.705248301029206,14969.0
26.7,2.299999952316284,3.0,21.44512367248535,26.185192108154297,-79.78277945207317,40.459042208532864,305.4783211975098,-0.0003468212380539,-0.0146564114838838,-0.9964037537574768,0.083454318344593,0.0193531917601758,0.0970174503155689,2.8855615371325136,-0.0523704849183559,0.0194115340709686,0.0247927419841289,0.199319649618119,-0.0140419696178287,-9.642070305347444,14970.0
26.8,2.299999952316284,1.0,21.51523971557617,24.722064971923828,-79.78277929770941,40.459042159895695,305.7825738220215,-0.0018347068689763,-0.0155889438465237,-0.9964107871055604,0.0831815674901008,-0.000848506377151,0.0956689594096916,2.8960993297100512,0.023302175104618,0.0076656155288219,0.0238045211881399,0.2225858486071229,0.0441322667011991,-9.714556483626367,14970.0
27.0,2.299999952316284,359.0,21.501466751098643,24.36423492431641,-79.78277905413825,40.45904214995964,306.3877640991211,-0.0023298836313188,-0.0157166980206966,-0.9963986277580258,0.083290509879589,-0.01411105233301,0.0984613844793316,2.9228560510211063,0.0353107638657093,-0.0101357037201523,-0.002363190986216,0.2133143755607307,0.0924295873381197,-9.712885934114457,14971.0
27.1,2.299999952316284,356.0,21.44512367248535,25.779651641845703,-79.78277900707815,40.4590421549844,306.68051922607424,-0.0007556414348073,-0.0159039124846458,-0.996376633644104,0.0835476815700531,-0.0155919075789954,0.0896207942794992,2.9284841527365315,0.0892105922102928,-0.0148143032565712,-0.0261011570692062,0.2915340046025813,0.0136644222121685,-9.862598043680194,14971.0
27.2,2.400000095367432,353.0,21.443872451782227,25.20712280273437,-79.78277896213571,40.459042164120895,306.97350704956057,3.689895675051957e-05,-0.0157812815159559,-0.9963573813438416,0.0838029608130455,-0.0257452025397544,0.0887677735143921,2.9333057655920505,-0.0216378588229417,-0.0223880130797624,-0.0118360044434666,0.2541290919855237,0.017280733231455,-9.882402563095091,14971.0
27.4,2.299999952316284,351.0,21.48393821716309,25.54904937744141,-79.7827789587363,40.4590421202029,307.57432568359377,-0.0023949234746396,-0.0150484824553132,-0.9963718056678772,0.0837329477071762,-0.0295625090748795,0.0864238298464114,2.955194912240008,-0.0754948481917381,-0.0341633670032024,0.0256922468543052,0.2392947424203157,0.0609152739727869,-9.773678265810007,14972.0
27.5,2.400000095367432,350.0,21.500215530395508,24.78567886352539,-79.78277899123485,40.45904208046794,307.8733178405762,-0.0048389420844614,-0.0141972592100501,-0.9964016675949096,0.0834195986390113,-0.0083366568403617,0.0874387626959052,2.9342722097227587,-0.021129896864295,-0.0224744901061058,-0.0204150322824716,0.2924129690229893,0.0537875820463523,-9.70777078986168,14972.0
27.7,2.5,346.0,21.415075302124023,26.30446815490723,-79.78277891450185,40.45904209097891,308.45881665039065,-0.0024478768464177,-0.0126948468387126,-0.996496856212616,0.0826259329915046,-0.0021989878366172,0.0746846720558212,2.9323718326412527,0.030781514942646,-0.0366479232907295,0.0261517893522977,0.2641763991862536,0.058847858402878,-9.860771373510364,14973.0
27.8,2.5999999046325684,348.0,21.46515655517578,25.533145904541016,-79.78277899276996,40.45904206027177,308.7653962402344,-0.000269315962214,-0.0127276852726936,-0.9964908361434937,0.0827289372682571,0.0019881284771251,0.0769888647550026,2.9589769085711084,0.0758454799652099,0.0082052825018763,-0.0101834591478109,0.2562071741558611,-0.0593654831685125,-9.9821116232872,14973.0
28.0,2.700000047683716,349.0,21.427595138549805,26.08976936340332,-79.78277901469323,40.45904200276307,309.35840618896486,0.0008853311301209,-0.0163874328136444,-0.996388018131256,0.0833169296383857,-0.0013956215700422,0.0919640925041314,2.9790072027867103,0.0110373143106699,0.0652448758482933,0.0299214869737625,0.313340665474534,-0.1069200383964926,-9.996441979408266,14974.0
28.1,2.700000047683716,350.0,21.421335220336918,26.360130310058597,-79.78277900520011,40.45904199701119,309.65776837158205,-0.0003982124035246,-0.0185953807085752,-0.9963423013687134,0.0834036394953727,-0.0073949733663977,0.1037406676822701,3.0044877465081066,-0.0434155948460102,0.020991563796997,-0.0885546430945396,0.3022879478149116,0.2114291966892779,-9.989921164512635,14974.0
28.3,2.700000047683716,347.0,21.430099487304688,26.06591415405273,-79.78277887644367,40.45904204385381,310.25684750366213,-0.0050433692522346,-0.0183362886309623,-0.9963558912277222,0.0831471905112266,-0.0008636611879973,0.099798225872905,3.02784387024697,0.0879357457160949,-0.0058175302110612,0.0172616150230169,0.3585607655346394,0.001476650359109,-10.031172101497653,14975.0
28.5,2.799999952316284,346.0,21.471418380737305,25.040136337280277,-79.78277891627975,40.4590421351566,310.8538743286133,-0.0037767207249999,-0.0146941328421235,-0.9964444041252136,0.0828758031129837,-0.0013417059117671,0.0685402899227951,3.0282730771545268,0.0735066980123519,-0.0512757748365402,-0.0064786304719746,0.2972098054736853,-0.0135037882346659,-9.949022229909897,14975.0
28.6,2.799999952316284,342.0,21.443872451782227,25.39796638488769,-79.78277887324944,40.45904216776858,311.1569863586426,-0.0012539105955511,-0.0138489585369825,-0.9964657425880432,0.0828412324190139,-0.0224681780353822,0.0611519095749996,3.0314581922249486,0.0095850201323628,-0.0724525079131126,0.0042678196914494,0.291743243560195,0.1078496451862156,-9.830522557497025,14976.0
28.7,2.799999952316284,341.0,21.47892951965332,24.66640281677246,-79.78277882399684,40.45904220032742,311.460243347168,0.0005912224878557,-0.0133520159870386,-0.996488392353058,0.0826578065752983,-0.0300433026680294,0.0549871710218158,3.0348883693095594,0.024255558848381,0.0085507342591881,-0.0051659783348441,0.3063237508758902,-0.0823927228990942,-9.885397506952287,14976.0
28.9,2.900000095367432,339.0,21.422588348388672,25.5570011138916,-79.78277891573093,40.45904220601837,312.0656052856445,0.0024526047054678,-0.016171671450138,-0.9963602423667908,0.0836585164070129,-0.020853147908556,0.0584315497711529,3.0030695649436274,0.012965670786798,0.0412498004734516,0.0084587316960096,0.3060593836382032,0.0027651802590116,-9.724108495116234,14977.0
29.1,2.799999952316284,339.0,21.4426212310791,25.5649528503418,-79.78277889260566,40.45904234330385,312.6652871398926,0.0023979130201041,-0.0156324487179517,-0.9962540864944458,0.0850164145231247,-0.0353203541297439,0.0456812107971535,2.986890617890288,-0.0314841121435165,-0.0376365408301353,-0.0903243124485016,0.2413233242556453,0.0182902116165496,-9.757075681686402,14977.0
29.2,2.700000047683716,338.0,21.461400985717773,25.04808807373047,-79.7827788848718,40.4590423935081,312.96388638305666,0.002318802755326,-0.0150901693850755,-0.996233344078064,0.0853591710329055,-0.0254047600807508,0.0391886165430132,2.986621703603465,-0.0724363625049591,-0.0604345761239528,0.0349087007343769,0.2086740252189338,0.0539094096980989,-9.776104860305788,14977.0
29.4,2.700000047683716,335.0,21.652965545654297,20.921117782592773,-79.78277889851029,40.45904246154358,313.5687600402832,0.0028862648177891,-0.0149596501141786,-0.9962364435195924,0.0853279829025268,-0.0152324549694198,0.0306650849955746,2.9650508265654425,0.0337620005011558,0.0198117941617965,-0.0035437541082501,0.2504166582226753,-0.0497746470803395,-9.7576124560833,14978.0
29.5,2.700000047683716,336.0,21.72808837890625,19.664737701416016,-79.78277890339704,40.45904246989355,313.8758622436524,0.0018631140701472,-0.0146898049861192,-0.9962556958198548,0.0851781889796257,-0.0157321680566152,0.0297473003926392,2.9246620828440086,-0.039456482976675,0.0355090722441673,0.0455097369849681,0.2381806468404829,-0.0254389238264411,-9.33815659403801,14978.0
29.6,2.700000047683716,337.0,21.680509567260746,20.316781997680664,-79.78277891124544,40.4590425228206,314.1636086730957,0.0009134481078945,-0.0150969764217734,-0.9962470531463624,0.0852240771055221,-0.0089094239231416,0.0206113427067533,2.8236151757117964,-0.0286200735718011,0.0299228355288505,0.0028880715835839,0.2091234933771193,0.0390621734177693,-8.90663851082325,14979.0
29.8,2.5999999046325684,338.0,21.74812126159668,18.91727066040039,-79.78277897589193,40.459042612532016,314.7318917541504,-0.000363653700333,-0.0166479591280221,-0.9962613582611084,0.0847706943750381,0.0090576876154475,0.0217945775913308,2.5909324821622146,-0.0304582491517066,-0.0152975209057331,-0.0402345210313797,0.2077636685594917,0.1474305260181427,-8.400956098437309,14979.0
29.9,2.5,339.0,21.75563240051269,18.77413749694824,-79.78277899600003,40.45904266931971,314.983192565918,7.660616392968221e-05,-0.0157299693673849,-0.9963204860687256,0.0842505469918251,0.0147150666669442,0.0142426916873893,2.4380411356421314,0.0084269978106021,-0.0402771458029747,0.0216326136142015,0.1926178633980452,0.0245281103532761,-8.298596495389939,14979.0
30.1,2.5,343.0,21.76064109802246,19.01269149780273,-79.78277906697527,40.4590427188803,315.4659348754883,-0.0004134891496505,-0.0132625941187143,-0.9964278936386108,0.0833992213010788,0.0082981843845665,-0.0047959511017183,2.180232421554609,-0.0564442574977874,-0.0158038660883903,0.0423589423298835,0.154211176559329,-0.0252319872099906,-8.447915087342261,14980.0
30.3,2.5,345.0,21.670494079589844,20.55533599853516,-79.78277910192635,40.45904277613096,315.898834350586,-0.0023973162751644,-0.0142741603776812,-0.9964543581008912,0.0828809216618537,0.0109887226970761,-0.0052438556202337,1.9729553654722085,-0.0095396805554628,-0.0161778759211301,0.0028423923067748,0.2725500139966607,0.0722710281517356,-8.497602387070657,14980.0
30.4,2.400000095367432,347.0,21.576589584350582,22.360387802124023,-79.78277911452938,40.459042831152026,316.0918885498047,-0.0017468351870775,-0.014179915189743,-0.996461033821106,0.0828330293297767,0.0104533170130194,-0.010549825373691,1.8898909165883668,-0.0287437383085489,0.009008290246129,0.0567544475197792,0.2576762505434453,-0.0043474642233923,-8.928270869851113,14981.0
30.5,2.299999952316284,347.0,21.64795684814453,20.92906951904297,-79.78277908115275,40.45904277547383,316.31836712646486,-0.0010581774404272,-0.0140354605391621,-0.99645334482193,0.0829621478915214,-0.0035016820648544,0.0015914050774897,1.8688153237976213,0.0027823084965348,-0.0327490754425525,0.0291673690080642,0.1912743194215,0.0103283938206732,-9.098424845337869,14981.0
30.7,2.200000047683716,347.0,21.616655349731445,21.461837768554688,-79.78277908242326,40.45904287380929,316.679538848877,0.0005967295728623,-0.0150155741721391,-0.996420919895172,0.0831842571496963,0.0004738717506536,-0.0052987638787239,1.7303475302886382,0.0476699210703372,-0.0173919051885604,-0.0129369609057903,0.2094792050868273,-0.0487016601674258,-9.019203844070436,14981.0
30.8,2.0999999046325684,350.0,21.72808837890625,19.48184585571289,-79.78277890668473,40.45904274465606,316.9247552185059,0.0012036047410219,-0.0152465431019663,-0.9963933229446412,0.083466000854969,-0.018545279087765,0.0121093204812282,1.7163893111076782,-0.0531147979199886,-0.0001729358336888,0.0315279923379421,0.2081232175044715,0.0352851142175495,-9.03903876900673,14981.0
31.0,1.8999999761581416,353.0,21.67800521850586,19.65678596496582,-79.78277864367655,40.45904257498599,317.3489686279297,0.0012991043040528,-0.0142532447353005,-0.9963125586509703,0.0845959857106208,-0.0228813371460837,0.0321523684094377,1.6354407011913918,0.0345968194305896,-0.0377428829669952,0.0138376448303461,0.2920128915645182,-0.0199110849201679,-9.102901473641396,14982.0
31.2,1.7999999523162842,353.0,21.664234161376957,20.626901626586918,-79.78277859770637,40.45904261368955,317.6655732421875,0.0010357704013586,-0.011817860417068,-0.9962261319160458,0.0859818384051323,-0.0111947825487636,0.0200233665743003,1.5135821549593949,-0.001282031647861,-0.0025810187216848,-0.0083281602710485,0.2736334299668669,0.0498278156295418,-9.14871616244316,14982.0
31.3,1.7000000476837158,354.0,21.64169692993164,21.06424903869629,-79.7827783396176,40.45904233976333,317.91272747802736,0.0012836961541324,-0.0113490475341677,-0.9961720705032348,0.086665041744709,-0.0314249051907194,0.0450699866667016,1.5289426524616312,-0.0226801335811615,0.0037256197538226,-0.0271567646414041,0.2652004293724894,0.0989239435829222,-9.186383340954784,14982.0
31.4,1.600000023841858,356.0,21.69428253173828,19.8635311126709,-79.78277830832768,40.4590423344251,318.06301129150387,0.0002202640898758,-0.0110533880069851,-0.9961194396018982,0.0873148962855339,-0.0197317202666376,0.0459168475194487,1.4764819732674406,0.0250728745013475,-0.0174155589193105,-0.011679733172059,0.246811447776854,-0.0544655895419418,-9.250857664346697,14983.0
31.6,1.5,0.0,21.70555114746093,19.37052154541016,-79.78277795803999,40.459041993465256,318.4536172180176,-0.0002493887732271,-0.0123856840655207,-0.9959417581558228,0.0891443863511085,-0.0345768711719453,0.071605139755882,1.2244570895655733,-0.015282298438251,-0.0213595535606145,-0.168349489569664,0.1292180206999182,-0.036954544535838,-7.422752587795258,14983.0
31.8,1.399999976158142,3.0,21.679258346557614,20.10208511352539,-79.78277782718818,40.45904192567887,318.687896850586,-0.0003024578618351,-0.0118022141978144,-0.98747718334198,0.1573196202516555,-0.0731758033331562,0.0606650326553027,0.7749653233160705,0.0327187925577163,-0.0641282945871353,-1.0180337429046629,0.194025891199708,-0.2092759595252572,-7.219488753676415,14983.0
31.9,1.2000000476837158,6.0,21.686769485473643,19.67268943786621,-79.78277773143066,40.4590419108749,318.758339050293,0.0010827482910826,-0.0103753982111811,-0.9774371981620787,0.2109684646129608,-0.0712653503035146,0.0513262724536487,0.6412484645504827,0.0467979460954666,-0.0222030226141214,-1.2200140953063965,0.1269482594914734,0.0208683015312999,-8.297782562971115,14983.0
32.0,1.2000000476837158,9.0,21.680509567260746,20.01461410522461,-79.78277778873789,40.45904194687128,318.81946957397463,0.0027090683579444,-0.0098000336438417,-0.9622935652732848,0.2718232274055481,-0.0658110572231828,0.0471704669299615,0.5636193468398674,0.0294334404170513,0.0005013311165384,-1.3181729316711426,0.0517477717297151,0.1054875893332064,-8.727944092154504,14983.0
32.2,1.0,359.0,21.683013916015625,19.839675903320312,-79.78277763373272,40.45904193082451,318.9172860412598,0.005004824604839,-0.0097093824297189,-0.9152162075042723,0.4028151333332062,-0.0477534396452906,0.043466308972596,0.4236672142370738,-0.0155325876548886,-0.0201380737125873,-1.5088882446289062,0.1030064695514738,0.086177899679169,-9.16432764351368,14983.0
32.3,1.0,354.0,21.69303131103516,20.300878524780277,-79.7827776964513,40.45904198854913,318.94292462158205,0.0048562143929302,-0.008956080302596,-0.8822405338287354,0.4706888794898987,-0.025192269409271,0.0399722915557612,0.3857568461493825,0.0040641278028488,0.0013475570594891,-1.5208523273468018,0.169069938249886,0.042662153346464,-9.313781306147575,14983.0
32.5,0.8999999761581421,4.0,21.596622467041016,21.597017288208008,-79.78277771545524,40.45904206075548,318.9810067443848,0.0064166728407144,-0.0049855695106089,-0.7990565896034241,0.6012009382247925,0.0196193209855647,0.0213528179442877,0.3455498278860344,0.1497010439634323,0.0114237032830715,-1.5194026231765747,0.0891533375903964,0.1058689557015896,-9.61316693365574,14983.0
32.7,0.8999999761581421,10.0,21.60538673400879,21.49364471435547,-79.78277770733824,40.45904199295345,319.0520478515625,0.0102211674675345,-0.0010842178016901,-0.7004312872886658,0.7136458754539491,0.0548164228283548,0.0007715452876887,0.3785515472389818,0.0206625387072563,-0.0490198470652103,-1.374752163887024,0.1198988471645862,0.1073467298224568,-9.822934041023254,14984.0
32.8,0.8000000119209291,358.0,21.66172981262207,20.284975051879886,-79.78277768895286,40.4590419846306,319.0494424133301,0.0117172952741384,0.0017497688531875,-0.6545756459236145,0.7559036612510681,0.0894562660691691,-0.0055068164687387,0.4093139250817757,0.0099806189537048,-0.0178866367787122,-1.1136890649795532,0.0936315373331308,0.336346498914063,-10.035224221944809,14984.0
32.9,0.8000000119209291,355.0,21.606639862060547,21.28689956665039,-79.78277769837183,40.45904187445957,319.09000790405275,0.0125354565680027,0.0047111194580793,-0.6177316308021545,0.7862749099731445,0.128052703533479,-0.0142342603154011,0.4069671497285664,-0.0564368925988674,-0.0435299277305603,-0.8209416270256042,0.1096234711445868,0.2846331024169922,-9.812600841522215,14984.0
33.1,0.8000000119209291,9.0,21.522750854492188,22.70231437683105,-79.78277729107977,40.45904159765843,319.13702786254885,0.0139731271192431,0.0050361454486846,-0.5739532709121704,0.8187533617019653,0.213276923978153,-0.0199441081317882,0.4339241469058841,-0.0646942853927612,0.0822265371680259,-0.327808290719986,0.1997463684529066,0.1668295958451927,-10.06401591181755,14984.0
33.3,0.8000000119209291,15.0,21.477678298950195,23.88712882995605,-79.78277641575295,40.4590409831868,319.1701699523926,-0.0134094525128602,0.0132726021111011,-0.5624708533287048,0.8266018629074097,0.3290893551672289,0.1113778379766074,0.5032193143758179,0.0133717432618141,-0.5566314458847046,-0.0167994052171707,0.3594870741292834,0.1566237194649875,-10.1787102162838,14984.0
33.4,0.8999999761581421,15.0,21.594118118286133,21.93894386291504,-79.78277611083054,40.45904074214818,319.2222405700684,-0.0397657454013824,0.0309780128300189,-0.5641672611236572,0.8241204023361206,0.3451375182534152,0.1695651094213749,0.5491859857036844,-0.0104911243543028,-0.6299314498901367,0.0386404246091842,0.22577656455338,0.2965637612342834,-10.198324116468427,14984.0
33.5,0.8999999761581421,11.0,21.560312271118164,22.11388397216797,-79.78277640671178,40.4590408994756,319.0871850280762,-0.0627053529024124,0.047240175306797,-0.5683386325836182,0.8190407156944275,0.3480627044957602,0.2405333234647927,0.5387089646524775,0.0149527639150619,-0.5765600800514221,0.189145028591156,-0.0516791674448177,0.07071507493034,-10.2080948138237,14984.0
33.7,1.0,21.0,21.510231018066406,23.012434005737305,-79.78277513535029,40.45904057311761,319.19837582397463,-0.0891854986548423,0.062478456646204,-0.5793011784553528,0.8078073263168335,0.3635318032827657,0.5447045711970591,0.6885955531817581,0.0021768228616565,-0.176209881901741,0.1313388049602508,-0.1409921751357615,0.0644139052089303,-10.307372349500657,14984.0
33.81,1.100000023841858,24.0,21.510231018066406,22.495569229125977,-79.78277489521406,40.459040841355296,319.1066476135254,-0.095645971596241,0.0639215856790542,-0.5837914347648621,0.8037123084068298,0.3442078224611605,0.7242798207138512,0.7303566798639057,0.0323212631046772,-0.113971509039402,0.0971432104706764,-0.0095095963357016,0.0145567598543129,-10.370107126235965,14984.0
34.0,1.2000000476837158,24.0,21.447628021240234,24.51531982421875,-79.78277271545083,40.45904129224309,319.0923119812012,-0.1068824455142021,0.0659575834870338,-0.5885681509971619,0.7986320853233337,0.2928813071488988,1.1531469451099752,0.8317378978951658,-0.0362239889800548,-0.0516314022243022,0.0049035581760108,0.0751132591813802,0.1261710548959672,-10.235735771656037,14984.0
34.2,1.2999999523162842,26.0,21.48894691467285,23.82351493835449,-79.78276900024515,40.45904168320155,319.2033730773926,-0.1140151768922805,0.0669803321361541,-0.5880021452903748,0.7979773283004761,0.2522676185279513,1.6165468316620564,1.019249677569774,-0.0734632909297943,-0.0621917210519313,-0.1377187520265579,-0.1877966148220002,0.2967685965076089,-10.226718195676805,14984.0
34.3,1.600000023841858,32.0,21.470165252685547,23.52134704589844,-79.78276719763942,40.45904238105855,319.16115200805666,-0.11524398624897,0.065888226032257,-0.586077094078064,0.7993067502975464,0.2287884877190849,1.8254185509392984,1.0637993186679977,0.0489454939961433,-0.0626619383692741,0.0533358193933963,-0.1484576808102429,-0.1566174337081611,-10.265480557680132,14984.0
34.4,1.7999999523162842,34.0,21.624168395996094,20.897262573242188,-79.78276468976969,40.45904279719323,319.2174607543945,-0.116339161992073,0.0657738372683525,-0.5834569334983826,0.8010725378990173,0.2123880322937217,2.0665372849833425,1.1416259573185048,-0.0482392348349094,0.0072948667220771,-0.0781629458069801,-0.0929817929025739,0.1691346413455903,-10.248034805059431,14984.0
34.6,2.200000047683716,37.0,21.456392288208008,24.197248458862305,-79.78275954376745,40.45904445432386,319.2109071044922,-0.1202494874596595,0.0692043304443359,-0.5761208534240723,0.8055033683776855,0.1698662392060959,2.504780056347872,1.2100738206381785,-0.028842095285654,-0.1309659630060196,-0.1578126102685928,-0.2786066147871316,0.1508564370777458,-9.973881082534788,14984.0
34.7,2.400000095367432,39.0,21.490198135375977,23.24303436279297,-79.78275629769065,40.45904514855217,319.26116955566414,-0.1218200698494911,0.0713918283581733,-0.5727676749229431,0.8074654340744019,0.1747831601350828,2.725851634044544,1.2991303111762462,-0.0456124730408191,-0.0767396688461303,0.0136635368689894,-0.3593266046047211,-0.1133326889388263,-10.189732217788697,14984.0
34.9,2.900000095367432,42.0,21.584102630615234,21.54930686950684,-79.7827497989497,40.45904764266056,319.2435685424805,-0.1269631385803222,0.0770723447203636,-0.5669902563095093,0.8102236390113831,0.1325765615121675,3.1603236119502336,1.4243653033759918,-0.0360746681690216,-0.2182687371969223,0.0159200876951217,-0.5030988201498986,0.0129355028271675,-10.0675651717186,14984.0
35.1,3.2000000476837163,44.0,21.576589584350582,21.84352302551269,-79.78274246883021,40.45905083315829,319.20092785644533,-0.1381064355373382,0.0866912826895713,-0.562390148639679,0.8106347322463989,0.0773034126785226,3.580333931586232,1.570269950218394,0.0503132045269012,-0.0524648502469062,-0.2565862536430359,-0.6790068943798543,0.2345584063790739,-9.74338968873024,14984.0
35.2,3.700000047683716,44.0,21.54654121398925,22.583038330078125,-79.78273801270441,40.45905204497885,319.2384835510254,-0.1407590061426162,0.0896144732832908,-0.5620484352111816,0.8100973963737488,0.0783257592668272,3.8082209043236768,1.666232735643934,-0.0142824696376919,-0.0826277881860733,-0.0082601774483919,-0.6122913697734476,-0.1378921458497643,-9.809183728694917,14984.0
35.3,4.0,41.0,21.56782531738281,22.52737617492676,-79.78273399697363,40.45905428721906,319.1758996276856,-0.1429315507411956,0.0904739648103714,-0.5604396462440491,0.8107357621192932,-0.0050515612230883,4.013201658869308,1.6995119612449183,0.0523195452988147,-0.0809339433908462,-0.0171685758978128,-0.772553500905633,0.1677240919321775,-9.724935291409492,14984.0
35.5,4.599999904632568,42.0,21.53276824951172,22.360387802124023,-79.78272464923208,40.45905840592387,319.15008938598635,-0.1456371545791626,0.0906337052583694,-0.5586568713188171,0.8114665150642395,-0.0995110002797045,4.468320581911747,1.8081833652888848,0.0912321135401725,0.0915759578347206,-0.0678272768855094,-0.7228365265578032,0.3695775410905481,-9.749680123329163,14984.0
35.7,4.800000190734863,43.0,21.659225463867188,20.038471221923828,-79.78271361005099,40.45906183701524,319.18186962890627,-0.1449487954378128,0.0888094305992126,-0.5584660768508911,0.8119226694107056,-0.0929386124091722,4.934803273999295,1.9150686050954653,0.0730479210615158,0.0771208852529525,-0.0272324178367853,-0.8170146323740483,0.1154840714391321,-9.766858658194543,14984.0
35.8,5.400000095367432,43.0,21.497711181640625,23.42592620849609,-79.78270843741548,40.45906486779533,319.1437608032227,-0.144516572356224,0.0882778689265251,-0.5567092895507812,0.8132630586624146,-0.2081351184685256,5.15207444771,1.9386517113763777,-0.0714208930730819,-0.0159204434603452,-0.029525876045227,-0.8762423222512007,0.1031086039636284,-9.794473888278008,14984.0
35.9,5.599999904632568,44.0,21.51774406433105,22.78183174133301,-79.78270235369975,40.459066863050055,319.1512376098633,-0.1443447768688202,0.0904119089245796,-0.5573471784591675,0.8126220703125,-0.1774679556306325,5.381718746854969,1.96331197832708,0.0901114493608474,-0.1725470572710037,0.2300107032060623,-0.978480376303196,-0.3040530029498041,-9.571403195858002,14984.0
36.1,6.099999904632568,44.0,21.590362548828125,21.50954818725586,-79.78269019173828,40.459072377387535,319.1216088562012,-0.1422660201787948,0.0940101966261863,-0.5562400221824646,0.813338577747345,-0.2996950269593273,5.782043604372567,2.076555077433525,-0.0700242966413497,-0.0352630577981472,0.006904515903443,-1.0524628570675851,-0.0880043414421379,-9.781198954582214,14984.0
36.2,6.4000000953674325,45.0,21.53026390075684,22.765928268432607,-79.78268345381925,40.4590746760024,319.1208421020508,-0.1418370306491851,0.0949337780475616,-0.5565140843391418,0.8131187558174133,-0.2946477387119256,5.994916541168907,2.107337908050452,0.0858184844255447,-0.0555133335292339,-0.1163867637515068,-1.301158825904131,0.0727368959225714,-9.60634966492653,14984.0
36.4,6.9000000953674325,46.0,21.526508331298828,22.217256546020508,-79.78266935961122,40.45908053131033,319.1072121887207,-0.1428074538707733,0.0936871021986007,-0.5544478297233582,0.8145038485527039,-0.3372484801366227,6.4050667667904735,2.2472279258171133,0.0509804114699363,0.0459567941725254,-0.0330354906618595,-1.160621801689267,-0.073166954065673,-9.85308228492737,14984.0
36.6,7.099999904632568,46.0,21.45764541625977,23.91098403930664,-79.78265429188163,40.459086550435735,319.0756112365723,-0.1441191136837005,0.0916075333952903,-0.5530744791030884,0.8154425024986267,-0.3980042469960361,6.796944803460278,2.3520443342823745,-0.0209492854773998,-0.070884920656681,0.1941595375537873,-1.3294723597168925,0.1322007128130644,-9.699381204843524,14984.0
36.7,7.5,47.0,21.564069747924805,21.80376434326172,-79.78264648488727,40.45908931658892,319.0683747558594,-0.1447272449731826,0.0914588719606399,-0.5533017516136169,0.8151971697807312,-0.3885654412987406,6.982416352252241,2.418488824639939,0.0604327358305454,0.0773522928357124,0.0443043634295463,-1.5158820332586769,-0.1858406663686036,-9.941826646327971,14984.0
36.9,7.800000190734862,47.0,21.470165252685547,23.354360580444336,-79.78263029188685,40.45909593045391,319.0240403442383,-0.1441006809473037,0.0950388759374618,-0.5529769659042358,0.8151191473007202,-0.4460869905705086,7.357598635003523,2.5430916014820624,0.172040656208992,0.0625495091080665,-0.0418164171278476,-1.3115541520714755,0.2378745999187231,-9.726337453722952,14984.0
37.0,8.199999809265138,48.0,21.467660903930664,22.75002479553223,-79.78262193097649,40.45909962194031,318.9702492980957,-0.143538549542427,0.0987806469202041,-0.5520757436752319,0.8153843283653259,-0.5263576945249818,7.527743081283626,2.6055852601564453,0.0261704642325639,-0.0685847178101539,-0.1449010372161865,-1.5543147584795949,0.1303373970463872,-9.701138877868653,14983.0
37.2,8.399999618530272,47.0,21.473920822143555,24.04616355895996,-79.78260452575846,40.45910593976241,318.94563305664065,-0.1463481187820434,0.1005547270178794,-0.5510333776473999,0.8153731226921082,-0.5165142356201624,7.879795271004003,2.7632113309500346,-0.0442296043038368,0.0371689349412918,-0.1212468445301056,-1.5095632396638394,-0.0293661788105964,-9.656380780935288,14983.0
37.31,8.800000190734863,48.0,21.33995246887207,26.95651435852051,-79.78259553546505,40.45910972711997,318.888523223877,-0.1479000598192215,0.0993384718894958,-0.5493909120559692,0.8163498044013977,-0.5318755338360306,8.043083002854864,2.8421396537117145,0.0475932359695434,-0.0143840415403246,0.1273469924926757,-1.5430185225605966,-0.1070499927643686,-9.783063631653787,14983.0
37.4,9.0,49.0,21.481433868408203,23.36231231689453,-79.78258633694014,40.4591130703552,318.87469876098635,-0.1484065949916839,0.0995446145534515,-0.5490294098854065,0.8164761066436768,-0.4987526643112325,8.210300788043803,2.939356848979878,0.0660637840628624,-0.1150286048650741,0.1454793363809585,-1.8880244189500808,-0.3135635174810886,-9.957213009595874,14983.0
37.6,9.300000190734863,49.0,21.44011688232422,24.53122329711914,-79.7825672265738,40.45912063877081,318.7961350708008,-0.1471972465515136,0.1031898334622383,-0.5487417578697205,0.8164357542991638,-0.5237780695018759,8.567308488502391,3.100094226338268,0.0393543988466262,-0.1043687090277671,0.168279230594635,-1.7208311811089516,-0.3705434280261397,-9.957674939632415,14983.0
37.7,9.5,49.0,21.477678298950195,23.282794952392567,-79.78255741725155,40.45912421109888,318.7857590942383,-0.1485713571310043,0.1061731576919555,-0.5486725568771362,0.8158506751060486,-0.5295346520180684,8.732482084718523,3.1918665125206696,0.1167780980467796,0.0043009463697671,-0.0725781694054603,-1.8416548293828965,0.026911791767925,-10.016012610197068,14983.0
37.9,9.899999618530272,49.0,21.417579650878903,24.865196228027344,-79.78253729489364,40.459132200379706,318.7055665283204,-0.1521477103233337,0.103127509355545,-0.5468212962150574,0.8168245553970337,-0.5538761390523262,8.998900024939902,3.3947648131032206,-0.0092072580009698,0.0167531557381153,0.1410339921712875,-2.156039442121984,0.000374166984111,-9.61043102145195,14983.0
38.0,10.100000381469728,49.0,21.481433868408203,23.537250518798828,-79.78252696258652,40.45913647316072,318.63489926147463,-0.1460178643465042,0.096363365650177,-0.5462905764579773,0.8191211223602295,-0.5737153546731452,9.145722045746268,3.380254596845333,-0.0518219321966171,0.3902102112770081,-0.3355244398117065,-1.875698342174292,0.3013083564676344,-9.713739042878151,14983.0
38.2,10.399999618530272,51.0,21.455141067504886,24.29266929626465,-79.7825059851303,40.459144196607966,318.60522091674807,-0.1285167038440704,0.0828451588749885,-0.5478742718696594,0.8224682211875916,-0.5125682462861548,9.486433921735896,3.054968897057246,0.1420305669307708,0.0507597103714942,0.0432956293225288,-1.9499926257133484,0.0743450264073908,-9.676308676600458,14983.0
38.4,10.600000381469728,53.0,21.58284950256348,21.09605598449707,-79.78248409446878,40.459152611078224,318.5184594421387,-0.1180812120437622,0.0839534476399421,-0.5489594340324402,0.8231964111328125,-0.5650314449154586,9.763931980374194,2.8378894971990865,-0.1321800947189331,0.1455001980066299,0.0179292783141136,-1.901424336880445,-0.2747057727724314,-9.841021817922591,14983.0
38.5,10.899999618530272,54.0,21.49896240234375,21.620872497558597,-79.7824728810681,40.45915719448937,318.4504853515625,-0.1194527819752693,0.0795591920614242,-0.5489693284034729,0.8234282732009888,-0.6151252983228945,9.879053528859224,2.8015660048450206,-0.1077471002936363,0.1733240038156509,0.1957340240478516,-2.0615782579779625,-0.1275096196029335,-9.768096513748173,14983.0
38.6,11.0,54.0,21.711811065673828,18.106189727783203,-79.78246193974006,40.45916125638474,318.43740093994137,-0.1195027753710746,0.0770058929920196,-0.5498567223548889,0.8230715990066528,-0.5942968215168255,9.936305327238223,2.826768119212112,-0.0144095057621598,0.1740427017211914,-0.1031484752893448,-2.379096247404814,0.1959836120903492,-9.83122422337532,14983.0
38.8,11.300000190734863,57.0,21.58785820007324,20.8177433013916,-79.78243945903688,40.45916999124143,318.35588848876955,-0.1083432957530021,0.0717475712299346,-0.5497275590896606,0.8251749873161316,-0.6431619021399286,10.097836187770683,2.7097722233243893,-0.1125844866037368,0.1496259272098541,-0.1645798236131668,-2.245687344521284,0.018890654426068,-9.409683828949928,14983.0
39.0,11.399999618530272,57.0,21.610395431518555,19.457990646362305,-79.78241676272637,40.459178852431975,318.275974395752,-0.087541826069355,0.0593847669661045,-0.5491794347763062,0.8289825320243835,-0.6108010638485504,10.255940829164109,2.308238427465945,0.0252434387803077,0.3121190965175629,0.0170908421277999,-2.2469602833688262,-0.2960555468313396,-9.447590158581734,14983.0
39.1,11.699999809265137,57.0,21.71431541442871,18.36859703063965,-79.78240562508508,40.45918302619851,318.2585908203125,-0.0790727138519287,0.0540280938148498,-0.5493189096450806,0.8301067948341371,-0.5966036740418628,10.306223345079832,2.03005975499928,-0.0121742598712444,0.1355403959751129,0.0852372571825981,-2.117088945955038,0.0638714206404984,-9.420093042254448,14983.0
39.2,11.800000190734863,57.0,21.735599517822266,18.24932098388672,-79.78239451447341,40.459187195207136,318.2386971740723,-0.0759100541472435,0.0503207929432392,-0.5489701628684998,0.8308654427528381,-0.5789066329790701,10.31352747964487,1.7854839902417408,-0.0512621402740478,0.069175474345684,-0.1934991329908371,-1.9368206030130388,0.0718048954289406,-9.367495583295822,14983.0
39.41,12.0,63.0,21.64294815063477,20.40425109863281,-79.78237195450279,40.45919558248684,318.1582528381348,-0.0731547027826309,0.0502872690558433,-0.5482680797576904,0.8315778970718384,-0.533796320746739,10.272827107266238,1.6382520571453725,0.0118630528450012,-0.1058140993118286,0.0116114551201462,-2.158674636036157,-0.1853649405576288,-9.425591763854026,14983.0
39.5,12.0,63.0,21.622915267944336,19.99871063232422,-79.78236035780778,40.45920011295112,318.10608685302736,-0.0751936212182045,0.0472626462578773,-0.5469638705253601,0.8324319124221802,-0.5432142053630253,10.291357190910498,1.6354210561611056,-0.0281291231513023,0.0463497154414653,0.0798969194293022,-1.938957614153624,0.0347430225089192,-9.75377785205841,14983.0
39.7,12.100000381469728,63.0,21.6917781829834,18.59124755859375,-79.78233836725809,40.459208399867975,318.0689317016602,-0.0746276229619979,0.040133710950613,-0.5484209060668945,0.8318982124328613,-0.5415185665927486,10.212643456853082,1.640825511821569,-0.0383111871778965,0.1203255355358123,-0.1842430233955384,-1.9118645404279235,0.1954585503973067,-9.804189621806144,14983.0
39.8,12.100000381469728,63.0,21.61415100097656,20.475818634033203,-79.78232684787406,40.45921296952925,318.0092049865723,-0.0721362382173538,0.0406025908887386,-0.548742413520813,0.8318831920623779,-0.5631415145252003,10.243409547573982,1.5687469862654153,0.0122966356575489,-0.0280531346797943,0.0868644937872886,-1.9527650830149648,-0.0616910487413406,-9.58085931301117,14983.0
40.0,12.100000381469728,64.0,21.617908477783203,20.34063720703125,-79.78230441689006,40.4592216444654,317.93190777587887,-0.066416248679161,0.0438473112881183,-0.5489776134490967,0.8320396542549133,-0.5854933856868999,10.184768260624027,1.4960306427968684,0.0883664414286613,0.0372875891625881,-0.1301508992910385,-1.9551071852445605,0.0854221013747155,-9.798076942563055,14982.0
40.1,12.199999809265137,64.0,21.709306716918945,18.479923248291016,-79.78229355930439,40.45922577389055,317.9158440856934,-0.0618561804294586,0.0426788702607154,-0.5490615963935852,0.8323964476585388,-0.6000696177353226,10.129146573501115,1.4871696028490269,-0.0271596070379018,0.1364778131246566,0.1736022680997848,-2.172663953304291,-0.0299861207138747,-9.860495384931564,14982.0
40.3,12.100000381469728,64.0,21.61289978027344,19.163774490356445,-79.7822714141777,40.45923420203338,317.83982861328127,-0.0469581373035907,0.0297709796577692,-0.5479631423950195,0.8346527218818665,-0.5570250090416474,10.052455847228256,1.2243710249926532,-0.0929138660430908,0.3144646883010864,0.0578250586986541,-1.7744266135990616,0.1371469821687788,-9.916815766096118,14982.0
40.5,12.100000381469728,64.0,21.699291229248047,18.32088661193848,-79.78224976062126,40.459242663670565,317.7630311279297,-0.033025924116373,0.0146861262619495,-0.5480648279190063,0.8356545567512512,-0.5251753383927579,9.919277607060092,0.7977086221725124,0.1833038926124572,0.1985910981893539,0.2711772322654724,-1.971327069103718,-0.1981728827208281,-9.871267125606536,14982.0
40.6,12.0,69.0,21.706802368164062,17.80402183532715,-79.78223931733979,40.459246663395255,317.7539788513184,-0.0281653683632612,0.0108007052913308,-0.5480889081954956,0.8358760476112366,-0.5336492948363402,9.817497876556462,0.6254268801715596,0.159876674413681,0.1752995252609253,-0.137862890958786,-1.702305447757244,0.0260698520997539,-9.822958599328995,14982.0
40.7,11.899999618530272,72.0,21.753129959106445,17.28715705871582,-79.78222901176993,40.4592506279938,317.7454682617188,-0.0246681291610002,0.0082535753026604,-0.5481587052345276,0.8359697461128235,-0.5487343662176982,9.691569498003902,0.4953713446090897,0.1706602275371551,0.1270104646682739,0.1506956070661544,-1.8340869243443008,0.0338085643574595,-9.715056420564652,14982.0
40.91,11.699999809265137,72.0,21.711811065673828,18.654861450195312,-79.78220804906529,40.45925858601323,317.64455426025387,-0.0240532103925943,0.0067480602301657,-0.5478033423423767,0.8362340927124023,-0.5439324816790102,9.479554049598397,0.3254050464550608,0.1029747426509857,-0.0802659019827842,0.2973521649837494,-1.837699187994004,-0.2665143718197942,-9.564744386672976,14982.0
41.1,11.600000381469728,72.0,21.72182846069336,17.85173225402832,-79.7821874252878,40.45926653319422,317.5652314453125,-0.0183594971895217,0.0049592549912631,-0.5482012629508972,0.8361302018165588,-0.5615486983065627,9.271242495776011,0.249577212464117,-0.2069133669137954,0.1506466120481491,-0.0961087122559547,-1.6713030718266966,-0.2816670291870832,-9.847406977415083,14982.0
41.2,11.399999618530272,75.0,21.62541961669922,20.110036849975582,-79.782177731055,40.459270316167455,317.5491219787598,-0.0194970648735761,0.0057858512736856,-0.5485308766365051,0.8358829617500305,-0.5857711186454354,9.162331898054418,0.1661730809735113,-0.0308560896664857,-0.0702479407191276,-0.1091713532805442,-1.4893859602510928,0.0852766153402626,-9.520442957282066,14982.0
41.3,11.300000190734863,77.0,21.69303131103516,18.535585403442383,-79.78215918927758,40.45927828859804,317.4211159973145,-0.0281457360833883,0.0047637573443353,-0.5492069125175476,0.8351988196372986,-0.6781355468302692,8.876808908875132,0.1912772407402396,-0.0297274105250835,-0.1251547932624817,-0.1223465874791145,-1.586595335751772,0.0171481841616332,-9.75964202463627,14982.0
41.5,11.100000381469728,77.0,21.789438247680664,16.53173828125,-79.78214943333991,40.45928215997921,317.3395234375,-0.0356970950961113,0.0063200551085174,-0.5485370755195618,0.8353399634361267,-0.6669067787308945,8.810991657293563,0.2244199808609164,0.07001693546772,-0.024392332881689,-0.123613454401493,-1.6480144889652732,0.1638930693268776,-9.472097008824347,14982.0
41.6,11.0,77.0,21.680509567260746,18.797992706298828,-79.782140264678,40.45928585736148,317.31224072265627,-0.0441213101148605,0.010568113066256,-0.5486217141151428,0.8348388075828552,-0.6847433523908003,8.724512907488425,0.301601177134668,0.0082642659544944,-0.1032852381467819,0.0203824955970048,-1.295254307538271,0.1500507729873061,-9.386162234544754,14982.0
41.8,10.800000190734863,73.0,21.69803810119629,18.567392349243164,-79.78212154929938,40.459293365903775,317.1947938232422,-0.0570607371628284,0.0227202177047729,-0.5473752021789551,0.8346306085586548,-0.6947390980323934,8.609486289797756,0.5447966191445693,0.102718137204647,-0.026433365419507,0.0259681306779384,-1.3650219690799714,0.050155561203137,-9.383094200491906,14982.0
41.9,10.600000381469728,70.0,21.6091423034668,20.475818634033203,-79.78211258333712,40.459297024123394,317.1538773803711,-0.0613147467374801,0.0279139783233404,-0.547353208065033,0.8341857194900513,-0.6880893739842517,8.566314594363062,0.612033948896361,0.1797775030136108,-0.0746125951409339,-0.1376587599515915,-1.6895745974779133,0.1832251519896089,-9.10740675330162,14982.0
42.1,10.399999618530272,70.0,21.54153251647949,21.787860870361328,-79.78209409049185,40.45930449565014,317.02243817138674,-0.0700435489416122,0.0355483740568161,-0.5459901690483093,0.8341013789176941,-0.6918666159527026,8.534146254620062,0.7323744858094129,-0.0675843879580497,-0.1508484333753585,-0.0932507514953613,-1.3523270791769029,-0.0245827544108033,-9.336689527630806,14982.0
42.3,10.300000190734863,70.0,21.48644256591797,23.227130889892567,-79.78207569029385,40.45931187208723,316.891510131836,-0.0846143811941146,0.0459777265787124,-0.5435400605201721,0.8338410258293152,-0.6689505666819638,8.524382604618424,0.9753820782676614,-0.0059086810797452,-0.4251485466957092,0.124714694917202,-1.7734160685539246,0.1276626430638134,-9.336488968133926,14981.0
42.4,10.199999809265137,65.0,21.4138240814209,24.78567886352539,-79.78206674780822,40.459315524312224,316.8402787475586,-0.0945904329419136,0.052235659211874,-0.5420988202095032,0.8333384394645691,-0.6451942137754936,8.538349015235536,1.1492408978282005,0.0260134004056453,-0.1466555148363113,-0.1427195072174072,-1.3732102636992929,0.1900874625518918,-9.64684104859829,14981.0
42.5,10.199999809265137,62.0,21.29863548278809,26.717960357666016,-79.78205728128084,40.45931916549268,316.77221691894533,-0.1047997400164604,0.0584382228553295,-0.5395500659942627,0.8333593010902405,-0.6062381962185422,8.551990298181586,1.4181038170854374,-0.0549874380230903,-0.2536871135234833,0.0561857186257839,-1.4371081978082658,-0.1169141633436083,-9.977810411453248,14981.0
42.7,10.100000381469728,62.0,21.362489700317383,25.5570011138916,-79.78203903224181,40.459326572486944,316.694130065918,-0.1197710111737251,0.0668446198105812,-0.5367221832275391,0.832535982131958,-0.5647776605272512,8.63094743616383,1.9734505122445751,-0.0522784441709518,-0.2030638903379441,0.0136543996632099,-1.6704620960354806,0.1445905242394656,-10.302585818767549,14981.0
42.8,10.199999809265137,61.0,21.50271797180176,22.84544563293457,-79.78202967090957,40.45933008616552,316.6267815856934,-0.1249347478151321,0.0724063068628311,-0.5356715917587279,0.8319883346557617,-0.5070569132322736,8.65866287162061,2.180968512355145,0.0234628282487392,-0.1508252918720245,0.0365672037005424,-1.945176128000021,0.0161108881048858,-10.31485327720642,14981.0
43.0,10.199999809265137,57.0,21.271089553833008,27.354103088378903,-79.78201089584991,40.45933766667776,316.51683438110354,-0.1355049312114715,0.0834565684199333,-0.5369361639022827,0.8284764289855957,-0.5243934269713931,8.776996392429346,2.4908198122737755,0.0477849207818508,-0.0697759762406349,-0.0316660702228546,-1.4846251572668554,0.0738730647414922,-9.961883765459064,14981.0
43.2,10.300000190734863,54.0,21.08828926086425,30.91649627685547,-79.78199153877647,40.45934540758503,316.46899044799807,-0.1431644409894943,0.0893929079174995,-0.5370540022850037,0.8264901041984558,-0.5764147799352136,8.931974644840091,2.9024830662985663,0.0131854219362139,0.1699747592210769,-0.1603145003318786,-1.9139281690120693,-0.2114503380283712,-9.969883925914765,14981.0
43.31,10.399999618530272,54.0,21.408815383911133,23.338457107543945,-79.78198168209614,40.45934944356949,316.4116479187012,-0.1354692429304123,0.0872447416186332,-0.5377447009086609,0.8275670409202576,-0.5851600274476587,8.97919834230235,3.0812723537891573,-0.0291750784963369,0.2347313761711121,-0.1305496096611023,-2.1879219701886177,0.175424235407263,-10.64844160795212,14981.0
43.4,10.5,54.0,21.42884826660156,23.84737014770508,-79.7819716608095,40.45935341995119,316.40810025024416,-0.1230668872594833,0.0814417004585266,-0.5385914444923401,0.8295426368713379,-0.5761130222333974,9.118344189057437,3.0648686581596887,0.0298705603927373,0.2915942072868347,-0.1503432989120483,-2.0278696444630624,0.1407929129898548,-10.530561740398408,14981.0
43.6,10.600000381469728,55.0,21.455141067504886,23.410022735595703,-79.78195113665029,40.45936166639999,316.3633996276856,-0.1056106686592102,0.0701758116483688,-0.5396897196769714,0.8322600722312927,-0.5550809217008383,9.383525545492612,2.6768445699396946,-0.0933959633111953,0.0738547444343566,-0.107878603041172,-1.9941152764856809,-0.0729100831411779,-10.049517155885695,14981.0
43.8,10.699999809265137,57.0,21.57533836364746,20.77003288269043,-79.78193020295416,40.459370022710296,316.30270016479494,-0.1011140272021293,0.0620151571929454,-0.5391278266906738,0.8338294029235841,-0.5202350360465929,9.558033451792117,2.4012309438572963,-0.0152869997546076,0.1822853982448578,-0.017322489991784,-1.7862767270207407,0.1020024112612009,-9.928004997968674,14981.0
43.9,10.899999618530272,57.0,21.562816619873047,21.23123550415039,-79.78191984588861,40.45937408459708,316.30567181396486,-0.1002289056777954,0.060225635766983,-0.5386355519294739,0.8343852758407593,-0.4965049112339003,9.59900814744372,2.3507318690141608,0.0599719323217868,0.0242855418473482,0.062345553189516,-1.9581842824816704,0.1993939823471009,-9.529754648208616,14981.0
44.0,11.0,57.0,21.55906105041504,20.865455627441406,-79.78190909169908,40.45937849269532,316.27105725097664,-0.0999283269047737,0.0605879351496696,-0.5376895070075989,0.8350051045417786,-0.4835692841654844,9.654103215287249,2.272770085496605,0.0676871538162231,0.0559399612247943,-0.2884190678596497,-1.922275215536356,0.066635541091673,-9.333665932416915,14981.0
44.2,11.199999809265137,59.0,21.594118118286133,20.58714294433593,-79.78188825388838,40.45938666751771,316.25958264160164,-0.092618703842163,0.0640546754002571,-0.5379040837287903,0.8354507684707642,-0.4751487135788634,9.687442785375136,2.20086976942732,-0.0218075457960367,-0.0747599527239799,-0.1768274754285812,-2.2360677976906302,0.0968036061432212,-9.34416811645031,14981.0
44.3,11.199999809265137,59.0,21.53276824951172,20.97677993774414,-79.78187732339917,40.45939100495143,316.25378430175783,-0.0898774117231369,0.0637388452887535,-0.5382755994796753,0.8355351686477661,-0.4616457072870189,9.722963393257944,2.137091646949851,0.0791198834776878,0.1481790542602539,-0.0759043395519256,-2.10410315707326,0.137797813815996,-9.349497853517532,14981.0
44.5,11.300000190734863,59.0,21.57909393310547,21.310754776000977,-79.78185598340427,40.45939944257574,316.2422601013184,-0.0851632729172706,0.0620807036757469,-0.5395203828811646,0.8353508114814758,-0.4883214944564689,9.77997243860672,2.057791686369002,-0.0962347760796547,0.0190919209271669,0.0130350012332201,-2.072751994729042,0.0081941509712487,-9.476456692814828,14981.0
44.7,11.399999618530272,60.0,21.597875595092773,20.35654067993164,-79.78183498719372,40.459407600358965,316.2228165893555,-0.0828008130192756,0.0595062561333179,-0.5399906635284424,0.8354718685150146,-0.4679494395105233,9.781113630234344,1.9323248849939023,-0.020692266523838,0.2161013633012772,0.1053714007139206,-2.085458286702633,0.1600145563669502,-9.355164974927902,14981.0
44.81,11.399999618530272,61.0,21.47892951965332,21.77195739746093,-79.78182404546091,40.4594118254234,316.2209817199707,-0.0811935067176818,0.057803276926279,-0.5401503443717957,0.835645854473114,-0.4556997918110898,9.793698225983809,1.9058243869285656,-0.0748509094119072,-0.0768373757600784,0.1874106675386428,-2.1400005295872693,-0.1123940098285675,-9.335593174695966,14981.0
44.9,11.399999618530272,61.0,21.63167953491211,19.91124153137207,-79.78181354204865,40.45941587490867,316.2089005737305,-0.0805982947349548,0.0560758709907531,-0.5402063727378845,0.8357850313186646,-0.4367565047386697,9.800572423547742,1.8510263439782089,0.0348764024674892,0.0607079230248928,-0.1928587108850479,-1.877861958146096,0.0204809509031474,-9.553615965843203,14981.0
45.1,11.399999618530272,62.0,21.610395431518555,20.046422958374023,-79.78179197529279,40.45942406364412,316.2081109313965,-0.0821946263313293,0.0530997812747955,-0.5391756296157837,0.8364892005920409,-0.4038542904095257,9.8032344857973,1.8143954582740025,-0.0776768252253532,-0.0298240352421998,-0.2227814495563507,-1.9265121079981329,0.0002822651993483,-9.368137607574464,14981.0
45.2,11.399999618530272,62.0,21.6279239654541,19.426183700561523,-79.78178147520866,40.45942808413531,316.19464505004885,-0.0826543271541595,0.0514287613332271,-0.538693368434906,0.8368589282035828,-0.3823462268184761,9.778597529115595,1.7950937201295185,0.0462149791419506,-0.046335581690073,0.0721882358193397,-2.190597509890796,-0.0798870265390724,-9.3078148072958,14981.0
45.4,11.399999618530272,62.0,21.53026390075684,21.33460998535156,-79.78175991987631,40.45943626867968,316.18830883789065,-0.0809966027736663,0.0490383058786392,-0.5387424230575562,0.8371329307556152,-0.3747200986741751,9.795336251462778,1.7702731590953504,-0.0884478017687797,0.0290575139224529,-0.0013313690433278,-1.8656539951264857,0.0075860039982944,-9.491695706248285,14981.0
45.6,11.399999618530272,63.0,21.580345153808597,20.038471221923828,-79.78173860911478,40.4594443458016,316.17287457275387,-0.0808599814772605,0.0477898530662059,-0.5385473966598511,0.8373437523841858,-0.3566255442176183,9.7691372610226,1.7301512835314283,0.0262076370418071,0.2057861387729644,-0.1281865984201431,-1.5281616246700287,0.0566826801281422,-9.797779904007912,14981.0
45.7,11.399999618530272,63.0,21.56907844543457,20.467866897583008,-79.78172815058697,40.45944835172703,316.1599160461426,-0.0816463008522987,0.0485995858907699,-0.538348376750946,0.8373488783836365,-0.3715655093508127,9.748699686304292,1.7180034404171476,0.0099200261756777,-0.0744389817118644,0.2524575293064117,-2.177050826847553,-0.0563312716037035,-9.387084340453148,14981.0
45.8,11.399999618530272,63.0,21.5352725982666,21.54930686950684,-79.78171727253793,40.45945249046191,316.1569215087892,-0.0820095837116241,0.0506296604871749,-0.5382842421531677,0.8372342586517334,-0.3621257330367336,9.77762550812173,1.7659278106039804,-0.023209348320961,0.0333255752921104,-0.0957256034016609,-1.7044740338623523,0.0969384301453828,-9.648647253513335,14981.0
46.0,11.300000190734863,65.0,21.574085235595703,20.26907157897949,-79.78169585905484,40.45946050571374,316.14276516723635,-0.0828803181648254,0.0513436831533908,-0.5378276705741882,0.8373984098434448,-0.3544144933735135,9.757745153028404,1.8282328457094144,-0.0600462108850479,0.1741012334823608,0.0702479630708694,-1.8334916777908803,0.0065710644051432,-9.6774301725626,14981.0
46.1,11.300000190734863,63.0,21.610395431518555,19.6965446472168,-79.78167492517882,40.45946850873585,316.1256715087892,-0.0837112590670585,0.0505751557648181,-0.5369989871978761,0.8378942012786865,-0.3241778680029244,9.750364382072275,1.8493672790572613,0.1366672366857528,0.0292864181101322,-0.3369233608245849,-2.107536495923996,-0.029800115302205,-9.618720034360884,14981.0
46.3,11.399999618530272,63.0,21.592866897583008,20.54738426208496,-79.78166405963266,40.45947259473857,316.12363446044924,-0.0836763009428978,0.0507117845118045,-0.5366712212562561,0.8380994200706482,-0.3291439610683973,9.744378227904972,1.845618776094484,-0.0371912606060504,0.0477397255599498,0.0475789755582809,-2.0806759952008727,0.1957651089504361,-9.513495880365372,14981.0
46.4,11.300000190734863,63.0,21.61415100097656,19.664737701416016,-79.78165359642752,40.459476597434815,316.11467755126955,-0.0843991711735725,0.0500805638730526,-0.5365769267082214,0.8381253480911255,-0.3207964132350083,9.7543757271142,1.8441783196978223,-0.0630857273936271,0.0512750521302223,-0.0425397604703903,-1.7133996623754502,0.0828261112142354,-9.649582808017731,14981.0
46.6,11.300000190734863,63.0,21.55906105041504,20.68256378173828,-79.78163238191121,40.45948466806399,316.0949097900392,-0.0835134983062744,0.0525212064385414,-0.5370546579360962,0.8377585411071777,-0.3065816194500897,9.739981880255025,1.8393925885884308,0.2169212847948074,0.005648786202073,0.1219528391957283,-1.8656886398792267,0.0706300801690667,-9.564501727223396,14981.0
46.7,11.300000190734863,64.0,21.58159828186035,20.49967384338379,-79.7816219198754,40.459488660694745,316.0843430786133,-0.0827027186751365,0.0543372966349124,-0.5374639630317688,0.8374606966972351,-0.3236056462879664,9.739209430436173,1.8412014151227245,-0.0170065052807331,0.0497941821813583,0.162516638636589,-2.0374465066194536,0.1031084486469626,-9.484377915859223,14981.0
46.9,11.300000190734863,63.0,21.564069747924805,21.167621612548828,-79.78160081455695,40.45949675719185,316.06251919555666,-0.081270694732666,0.0520467720925808,-0.5367547273635864,0.8382009267807007,-0.3229148548850673,9.726862089234611,1.822736723800008,-0.0340429209172725,-0.0713642016053199,0.0792720988392829,-1.938481650799513,-0.0871912130154669,-9.643041527867318,14981.0
47.1,11.300000190734863,63.0,21.57158088684082,20.284975051879886,-79.781579504515,40.45950486131541,316.0489884643555,-0.0815911814570427,0.0491230152547359,-0.5347551703453064,0.8396229743957521,-0.2633449937874848,9.732008398023424,1.8201063134364504,-0.0701851323246955,0.1805264502763748,0.0087564336135983,-1.963307905197144,-0.048072070358321,-9.836183831691743,14981.0
47.2,11.300000190734863,62.0,21.58535385131836,20.2531681060791,-79.78156904553745,40.45950882587961,316.0427361755372,-0.0826883688569068,0.0465612336993217,-0.5340503454208374,0.8401100635528564,-0.2392037652442663,9.726905228522249,1.82389021263462,-0.118480272591114,-0.1211980879306793,0.2433709502220153,-2.120799442827701,-0.1313370516523719,-9.673147087097169,14981.0
47.3,11.300000190734863,63.0,21.58785820007324,20.17365074157715,-79.78155821156331,40.45951289831282,316.03783047485354,-0.0839432254433631,0.0461194701492786,-0.5332697629928589,0.8405057787895203,-0.2096183491119852,9.738507348455856,1.8378069971944744,0.0170497838407754,-0.1013064086437225,-0.1504347473382949,-2.052749400883913,0.3043906248360872,-9.710251178741457,14981.0
47.5,11.300000190734863,63.0,21.470165252685547,22.392194747924805,-79.78153707602206,40.45952090415189,316.0260697631836,-0.0843132585287094,0.0437126383185386,-0.5325970053672789,0.8410238027572632,-0.1824008922140736,9.687906411304851,1.8438087327317456,0.0561844371259212,0.1114795058965683,-0.0102796023711562,-2.1866943472623825,-0.0738809310737997,-9.438025283217431,14981.0
