time,wind_speed,wind_angle,battery_voltage,battery_current,position_x,position_y,position_z,orientation_x,orientation_y,orientation_z,orientation_w,velocity_x,velocity_y,velocity_z,angular_x,angular_y,angular_z,linear_acceleration_x,linear_acceleration_y,linear_acceleration_z,node_ids
0.0,0.8000000119209291,171.0,25.788488388061523,-0.1033730581402778,-79.78279824519682,40.459004514310045,274.03380787086485,0.0140508273616433,0.0001130705859395,-0.9990006685256958,0.0424293912947177,-0.016500446768146,-0.0115339514108336,0.0191000111155243,0.0055870339274406,0.0047354139387607,0.0093515692278742,-0.0142722962389234,-0.3238198626413942,-9.809301842451095,14939.0
0.21,0.8000000119209291,167.0,25.79099273681641,-0.1033730581402778,-79.78279835697573,40.45900448524994,274.0527683467865,0.0140280630439519,0.000105954670289,-0.9990006089210508,0.0424401052296161,-0.0175510482922375,-0.0126589404171468,0.0187006237083698,0.0055911364033818,0.0010746525367721,0.0006343033164739,-0.0196122990525327,-0.3093905423954129,-9.807089256048204,14939.0
0.3,0.8000000119209291,163.0,25.7872371673584,-0.1113248318433761,-79.78279846764539,40.4590044200916,274.0670704813004,0.0140488278120756,0.0001277003466384,-0.9990001320838928,0.0424419306218624,-0.0164916867074712,-0.0046784797627033,0.0127258789019838,0.0039727152325212,-0.0002977892872877,0.0047103511169552,-0.0127303306537214,-0.3247992712631822,-9.809626947641371,14939.0
0.5,0.8000000119209291,166.0,25.79224395751953,-0.0954212844371795,-79.78279844693645,40.45900442683771,274.0684331626892,0.0140410084277391,0.0001198434038087,-0.9990005493164062,0.0424367114901542,-0.0210428024926854,-0.0070886052827547,0.0135684683108182,-0.0053270668722689,-0.0061943591572344,-0.0067451633512973,-0.020166695038788,-0.3020028595067561,-9.806168904304505,14939.0
0.6,0.8000000119209291,169.0,25.79099273681641,-0.1113248318433761,-79.78279855201805,40.45900440161979,274.0863262386322,0.0140501651912927,0.0001238365512108,-0.999000370502472,0.0424358658492565,-0.0195939650553539,-0.0077724653016233,0.0149898384033056,-0.0025145260151475,-0.0014899604720994,0.0025545977987349,-0.0180597285367548,-0.318396168127656,-9.809658522605895,14939.0
0.8,0.8999999761581421,167.0,25.78973960876465,-0.1192766055464744,-79.78279864899652,40.45900437064663,274.1020525665283,0.0140568893402814,0.0001434500445611,-0.9990001916885376,0.0424393452703952,-0.0171614370835371,-0.0060370841313404,0.0120774442018078,0.0069925640709698,0.0029086710419505,0.0114346090704202,-0.019203000809066,-0.3030043596401811,-9.804328200817109,14939.0
0.9,0.8999999761581421,163.0,25.79099273681641,-0.1033730581402778,-79.78279862714038,40.45900437857738,274.10335254383085,0.0140316719189286,0.0001256360410479,-0.9990005493164062,0.0424392223358154,-0.0223082467063395,-0.0082262633498824,0.0128461795050643,-0.0083783725276589,-0.0060537941753864,-0.010469676926732,-0.0213296765391714,-0.3035188597999513,-9.80620398759842,14939.0
1.1,0.8000000119209291,165.0,25.78598403930664,-0.1113248318433761,-79.78279880230787,40.45900434970889,274.12061786365507,0.0140955103561282,0.0001502504892414,-0.998999297618866,0.0424468591809272,-0.0085167793891261,-0.0068662523640565,0.0144027894123473,-0.0040948037058115,0.0005676785949617,0.0064106914214789,-0.0160187487769871,-0.3147132993489504,-9.806520321965216,14939.0
1.2,0.8000000119209291,161.0,25.79099273681641,-0.1192766055464744,-79.78279879152035,40.45900435781732,274.1221173973084,0.0140982754528522,0.0001349881058558,-0.9989992380142212,0.0424481593072414,-0.012708125905598,-0.0093068425869844,0.0151150459820683,-0.0086059411987662,-0.0029993434436619,-0.011113042011857,-0.0193717660708352,-0.2982543009147048,-9.80576252281666,14939.0
1.41,0.8000000119209291,160.0,25.79349708557129,-0.0954212844371795,-79.78279886694591,40.45900434596869,274.13838433933256,0.0141034824773669,0.0001337525463895,-0.998998522758484,0.0424632802605629,-0.0179086934815402,-0.0100481176831469,0.015295834565104,-0.0052722985856235,-0.0017754257423803,-0.0001253872760571,-0.0134677764668595,-0.3191138773038983,-9.8072693502903,14939.0
1.51,0.8000000119209291,159.0,25.79224395751953,-0.0954212844371795,-79.78279884791402,40.4590043565849,274.13999998283384,0.0141144674271345,0.0001292761735385,-0.9989979863166808,0.0424726717174053,-0.0210955495864528,-0.0125909963530059,0.0159295506413765,-0.0014622977469116,-0.0013512696605175,-0.0070431609638035,-0.0186696182540617,-0.3010818316787481,-9.80536023437977,14939.0
1.7,0.8000000119209291,159.0,25.79099273681641,-0.1192766055464744,-79.78279892352157,40.45900434578351,274.15389096450804,0.0140989162027835,0.0001303751632804,-0.998997151851654,0.0424964986741542,-0.0229487471999859,-0.0118069047290869,0.0140806244461786,-0.0064442525617778,-0.0045016733929514,-0.0059947986155748,-0.0146681527385953,-0.3253028627112508,-9.809874869585038,14939.0
1.81,0.8000000119209291,162.0,25.79349708557129,-0.0954212844371795,-79.78279901286038,40.45900431843621,274.1652607889175,0.0141174988821148,0.0001607120793778,-0.9989973902702332,0.0424835495650768,-0.0201508774788534,-0.0059044972280413,0.010114333063121,0.0044064377434551,-0.0040676221251487,-0.0009734092745929,-0.0168564606341533,-0.3059415987879038,-9.806230884790422,14939.0
2.0,0.8000000119209291,163.0,25.79099273681641,-0.0874695107340812,-79.78279898792842,40.45900432643246,274.1663620443344,0.0141054028645157,0.0001598152157384,-0.9989967942237854,0.04250293597579,-0.0234525431539344,-0.0083644119467237,0.0106049751512037,0.0030358263757079,0.006214783526957,0.0090505164116621,-0.0124031206942163,-0.3261367852985859,-9.808124797940255,14939.0
2.1,0.8000000119209291,165.0,25.78973960876465,-0.1033730581402778,-79.78279907374234,40.45900432963751,274.1784980268478,0.0141213657334446,0.0001489726419094,-0.9989972114562988,0.0424885004758834,-0.0202608023006565,-0.0097797101147107,0.008707067426884,0.007672241423279,0.0032675103284418,0.0036665441002696,-0.0181657355872448,-0.3161776614189148,-9.806702755093577,14939.0
2.3,0.8000000119209291,165.0,25.78473281860352,-0.1033730581402778,-79.78279904852434,40.45900434107283,274.1794656486511,0.0141089931130409,0.0001343837357126,-0.9989967346191406,0.0425026156008243,-0.024600862279662,-0.0119192644304954,0.0092984177187651,-0.003013435518369,0.0015519114676862,0.0034194181207567,-0.0161532198905479,-0.3208203141018748,-9.807290400266648,14939.0
2.41,0.8000000119209291,164.0,25.778472900390625,-0.0954212844371795,-79.78279915345803,40.45900433039273,274.1905363769531,0.0141172846779227,0.000131584572955,-0.9989970922470092,0.0424920096993446,-0.0174671032804566,-0.009558020023554,0.008058509808524,0.0069664306938648,0.0036019766703248,0.0101577723398804,-0.0150001009984407,-0.3236053429171443,-9.8076663762331,14939.0
2.6,0.8000000119209291,163.0,25.78347969055176,-0.1033730581402778,-79.7827992160982,40.45900435867723,274.2005850048065,0.0141725623980164,0.0001226862077601,-0.9989966750144958,0.0424837283790111,-0.0194055759603017,-0.0144432977489189,0.0075567364781121,0.0018585914513096,-0.0020328229293227,-0.0040061557665467,-0.0194313322962261,-0.3130665772408247,-9.80702318251133,14939.0
2.7,0.8000000119209291,165.0,25.77721977233887,-0.2067461162805557,-79.78279919295748,40.45900437429611,274.2014327020645,0.0141549482941627,0.000113641450298,-0.9989961981773376,0.0425002947449684,-0.0225246501328179,-0.0169352127307873,0.0081569076328165,0.0055200206115841,0.0003738182131201,0.0078061623498797,-0.0152104694279842,-0.3250093690305948,-9.80813883125782,14939.0
2.91,0.8000000119209291,166.0,25.778472900390625,-0.198794350028038,-79.78279925891663,40.45900437736053,274.21072768878935,0.0141724208369851,0.0001156004145741,-0.9989964962005616,0.0424879752099514,-0.020923041313829,-0.0131612830591427,0.0076089612274798,0.0039263977669179,0.0001406430674251,-2.9824414014001367e-05,-0.0201950357621535,-0.3077796710282564,-9.807903188467026,14939.0
3.01,0.8999999761581421,171.0,25.76970863342285,-0.198794350028038,-79.78279923557913,40.45900439050922,274.211586353302,0.0141626726835966,0.0001217556200572,-0.9989959597587584,0.0425038486719131,-0.0243534743156167,-0.0152318808213221,0.0081923641383125,-0.0009046548511832,0.0037420238368213,0.0084285140037536,-0.0138685037428513,-0.3252268489077688,-9.808566262722016,14939.0
3.2,0.8999999761581421,170.0,25.78973960876465,-0.0954212844371795,-79.78279930624022,40.45900440759348,274.219789144516,0.0141519932076334,0.0001221628626808,-0.9989970326423644,0.042483028024435,-0.0215775872716333,-0.015419782264506,0.0069833679648035,0.0054170726798474,-4.707685548055451e-06,0.0035973573103547,-0.0200082811759784,-0.3028296192549169,-9.805729778409004,14939.0
3.3,0.8999999761581421,171.0,25.78598403930664,-0.1113248318433761,-79.78279939818192,40.45900443210931,274.2267278404236,0.0141797428950667,0.0001367592485621,-0.9989964365959167,0.0424853637814521,-0.017069265552082,-0.0159816594924131,0.0057429485709785,-0.0005868564476259,0.0031612787861377,0.0043330593034625,-0.0157677216420415,-0.3216118078306317,-9.808280918598175,14939.0
3.5,0.8999999761581421,170.0,25.780975341796875,-0.0874695107340812,-79.78279937822664,40.45900444903632,274.2273802728653,0.0141816288232803,0.0001220107733388,-0.9989968538284302,0.0424767322838306,-0.0208419565176332,-0.0184409053755728,0.0063694145748593,-0.0039624930359423,-0.0022752583026885,-0.0106209097430109,-0.0190936316095758,-0.3005431386642158,-9.805002384781837,14939.0
3.6,0.8999999761581421,172.0,25.77721977233887,0.0397588685154914,-79.78279944203895,40.45900446025264,274.23409211349485,0.0141965029761195,0.0001587605074746,-0.9989956617355348,0.0424999147653579,-0.0181935534518611,-0.0131032050101226,0.006295446736656,-0.0086432294920086,-0.0024553248658776,-0.005049895029515,-0.0180007116298656,-0.3167501038312912,-9.80730852663517,14939.0
3.8,0.8999999761581421,171.0,25.7872371673584,-0.0715659633278846,-79.7827995298135,40.45900446708945,274.239970085144,0.014229810796678,0.0001821952027967,-0.9989951252937316,0.0424992851912975,-0.0099623711017911,-0.0080600846102276,0.0058690283052897,0.0090605486184358,0.005904724355787,0.0102488072589039,-0.0186184848099946,-0.3028696178644896,-9.805697034001351,14939.0
3.9,0.8999999761581421,172.0,25.774715423583984,-0.0715659633278846,-79.78279951664868,40.45900447629288,274.2406276435852,0.0142221264541149,0.0001848439278546,-0.9989948272705078,0.0425099991261959,-0.0145058567080513,-0.0102569149591515,0.0065644168422075,-0.0084941005334258,-0.0049748066812753,-0.004362370353192,-0.0209387536277063,-0.3087315611913801,-9.806295788884164,14939.0
4.11,0.8999999761581421,173.0,25.77972412109375,-0.0238553211092948,-79.7827995508327,40.459004526983705,274.24546658706663,0.0142408944666385,0.0001851211127359,-0.9989954233169556,0.042490717023611,-0.0181010201601344,-0.0146102502922383,0.0055013975851175,0.0022828723303973,6.289436714723706e-05,0.0074555892497301,-0.0163116303272545,-0.3100017591565847,-9.806364786028864,14939.0
4.21,0.8999999761581421,176.0,25.778472900390625,-0.0477106422185897,-79.78279952928716,40.45900454269438,274.246104475975,0.014233112335205,0.0001736657868605,-0.9989957213401794,0.0424853190779686,-0.0221449044852365,-0.0169191603889284,0.0062195906357984,-0.0078267743811011,-0.0030674554873257,-0.012196185067296,-0.0207912164996378,-0.300609577652067,-9.805806961655616,14939.0
4.4,0.8999999761581421,176.0,25.77721977233887,0.1510837078094482,-79.78279959217049,40.4590045550932,274.24968301963804,0.0142474146559834,0.0002049512550001,-0.9989948868751526,0.0425010547041893,-0.0189965014932066,-0.011306950940963,0.0054264594555226,-0.0050333268009126,-0.0019943951629102,0.0019867429509758,-0.0154333100141957,-0.3197645993158221,-9.807933009266854,14939.0
4.5,0.8999999761581421,175.0,25.782228469848643,-0.0159035474061965,-79.78279957161861,40.45900456694183,274.25030815315245,0.0142700737342238,0.0002078393299598,-0.9989944696426392,0.0425026528537273,-0.0219457098296561,-0.013705931926606,0.0060227327151842,-0.0025815914850682,-0.0004533897445071,-0.0081694861873984,-0.0194296923349611,-0.3012794858403504,-9.805634468793867,14939.0
4.7,0.8000000119209291,174.0,25.77721977233887,-0.0477106422185897,-79.78279960499171,40.4590046154174,274.2535146446228,0.0142608592286705,0.0001958279317477,-0.9989927411079408,0.0425460301339626,-0.0232888296754238,-0.0152740438639226,0.0059790956077136,-0.0054986905306577,-0.0017595877870917,-0.0048992405645549,-0.0128805549885146,-0.3246875163540244,-9.809664954543114,14939.0
4.8,0.8000000119209291,175.0,25.76845550537109,-0.0238553211092948,-79.78279968603273,40.45900464077703,274.25336193752287,0.0143162999302148,0.0002206747885793,-0.9989919662475586,0.0425449237227439,-0.0142402592263067,-0.0102573820613102,0.0015589821276612,0.0026444131508469,-0.0004151082539465,-0.0032892592716962,-0.0175172896496951,-0.3072839367762208,-9.805691771507265,14939.0
5.0,0.8000000119209291,175.0,25.774715423583984,-0.0715659633278846,-79.7827996683578,40.45900465210768,274.2535940380096,0.014300312846899,0.0002295592275913,-0.9989917278289796,0.042556382715702,-0.017289022989328,-0.012397502271714,0.0020829178305556,0.0043249218724668,0.0062935538589954,0.0067935590632259,-0.0124564331397414,-0.3255546584352851,-9.810408135652544,14939.0
5.1,0.8000000119209291,177.0,25.780975341796875,0.0,-79.78279971029221,40.459004719664826,274.25255679798124,0.0143304755911231,0.0002324554516235,-0.9989903569221495,0.0425776839256286,-0.0162782036957492,-0.0163595662140957,-0.0008630483573225,0.0052670473232865,0.001383890165016,0.0005565737956203,-0.0154188130307011,-0.3126709400117397,-9.807351211309433,14939.0
5.3,0.8000000119209291,177.0,25.770959854125977,-0.055662415921688,-79.78279971086774,40.45900477857143,274.2507191867828,0.0143268276005983,0.0002645494823809,-0.9989895224571228,0.0425986647605896,-0.0233367371957777,-0.0138309419862185,-0.0031568997902202,-0.0063676787540316,-0.0070161926560103,-0.0110800908878445,-0.019735969947651,-0.3014874091744423,-9.805860171318054,14939.0
5.41,0.8000000119209291,176.0,25.775968551635746,-0.0477106422185897,-79.78279968376785,40.45900479394126,274.25049507331846,0.0143162403255701,0.0002435844216961,-0.998990535736084,0.0425792410969734,-0.0251518081924932,-0.0163816984059603,-0.0026870727327359,0.0083228833973407,0.0043068453669548,0.0017294707940891,-0.0152182204148266,-0.3183912710845471,-9.808470953106882,14939.0
5.6,0.8000000119209291,179.0,25.782228469848643,-0.0636141896247863,-79.7827997229068,40.45900483386557,274.24856948566435,0.014359944500029,0.000281543820165,-0.9989914298057556,0.0425431728363037,-0.021459481529686,-0.0114687690915918,-0.0032757135072481,-0.0057686674408614,-0.004291795194149,-0.010575458407402,-0.0164666763308923,-0.3204260290414095,-9.809224074482918,14939.0
5.71,0.8000000119209291,180.0,25.77346420288086,-0.0636141896247863,-79.78279969746606,40.45900484689509,274.24833237838743,0.0143472934141755,0.0002677492739167,-0.998992085456848,0.0425332896411418,-0.0234414412812793,-0.0138513441613381,-0.0027813848899103,0.0084681883454322,0.0029733057599514,0.0109887244179844,-0.0132412265532184,-0.3235139070823789,-9.808931713700296,14939.0
5.9,0.8000000119209291,180.0,25.782228469848643,-0.0477106422185897,-79.78279977276162,40.459004896790425,274.24757468414305,0.0143819134682416,0.0002767009136732,-0.9989919066429138,0.0425252318382263,-0.0157947705997656,-0.0120571495498255,-0.0005785100926867,0.0029147078748792,0.0009642652003094,-0.0039530782960355,-0.0185640177677851,-0.3136342322453857,-9.807557618021963,14939.0
6.0,0.8000000119209291,180.0,25.77972412109375,0.0,-79.78279975523706,40.45900490859074,274.2475889892578,0.0143849272280931,0.0002724838850554,-0.9989914298057556,0.0425337702035903,-0.0181362743486946,-0.0140256722263932,-0.0001657739880081,0.0068782628513872,0.0028226668946444,0.0075492020696401,-0.0119338256784249,-0.3269740334898233,-9.808519484996795,14939.0
6.2,0.8000000119209291,177.0,25.77972412109375,-0.0238553211092948,-79.78279979237819,40.45900497796701,274.2463046283722,0.0143955573439598,0.0002653539995662,-0.9989913702011108,0.0425324775278568,-0.0178670637001915,-0.0150984214341469,0.0011039427062969,0.0078884046524763,-0.0003154685546178,0.0011915391078218,-0.0194804694643244,-0.3063093338347971,-9.806223283410072,14939.0
6.3,0.8000000119209291,177.0,25.774715423583984,-0.0238553211092948,-79.7827998522166,40.45900505026813,274.2443482847213,0.0144385984167456,0.0002701580233406,-0.9989906549453736,0.0425356030464172,-0.014388483806056,-0.0163534036260305,0.001132788350985,-0.0006017998675815,-0.0013994899345561,0.0052083227783441,-0.014205826416146,-0.3252084301784634,-9.80948836863041,14939.0
6.5,0.8000000119209291,176.0,25.78598403930664,-0.0159035474061965,-79.78279983530624,40.45900506716829,274.2445336551666,0.0144251901656389,0.0002512510109227,-0.9989914894104004,0.0425195135176181,-0.0180198808656989,-0.0185333226578136,0.0017829601944943,-0.0073638283647596,-0.0025529933627694,-0.0116601213812828,-0.0205835832422599,-0.3011141010001302,-9.805743227005005,14939.0
6.6,0.8000000119209291,176.0,25.770959854125977,-0.0318070948123931,-79.78279988678294,40.45900516288218,274.2405967683792,0.0144291240721941,0.0002432623732602,-0.998990535736084,0.0425415374338626,-0.0152937477119993,-0.0212612175452501,-0.0003161151896986,-0.0036704947706311,-0.001829303568229,0.0011280125472694,-0.0172077115578576,-0.3195854187011719,-9.809142798185349,14939.0
6.8,0.8000000119209291,175.0,25.788488388061523,-0.0795177370309829,-79.78279986981002,40.45900518441948,274.24063503456114,0.0144280595704913,0.0002234164712717,-0.9989901185035706,0.0425513423979282,-0.0181342826903929,-0.0237836923915336,0.0002711232461389,-0.0024751008022576,-0.0023668233770877,-0.0104231918230652,-0.0196435862244106,-0.3008779283054173,-9.805398826003076,14939.0
6.91,0.8000000119209291,174.0,25.788488388061523,-0.0954212844371795,-79.78279991062145,40.45900523343772,274.23783278179167,0.0144325857982039,0.0002385787811363,-0.9989900588989258,0.0425498746335506,-0.0175988567061841,-0.0152111960501163,0.0012131049749041,-0.0069201881997287,-0.000923091371078,-0.0048507689498364,-0.0187312926747836,-0.3124375630170107,-9.807912544012073,14939.0
7.1,0.8000000119209291,174.0,25.7872371673584,-0.0954212844371795,-79.78279998303091,40.45900532876031,274.234561917305,0.0144621729850769,0.0002394940238445,-0.998990535736084,0.0425291061401367,-0.0113937703273028,-0.0186670624570659,0.0015950505174947,0.0038518272340297,0.0005499686230905,0.009019854478538,-0.0175944374932441,-0.3068169635161757,-9.80654078722,14939.0
7.2,0.8999999761581421,172.0,25.78598403930664,-0.0874695107340812,-79.78279996954001,40.45900534751769,274.23479604434965,0.0144548956304788,0.0002282633504364,-0.9989902973175048,0.0425380170345306,-0.0153766054371833,-0.0207846634173134,0.0024055019100819,-0.0115128671750426,-0.0043879225850105,-0.0096957134082913,-0.0195220829104073,-0.3039459258131683,-9.807796184420589,14939.0
7.4,0.8999999761581421,172.0,25.7872371673584,-0.1033730581402778,-79.78280004158123,40.45900543397983,274.2311446638107,0.0144492872059345,0.0002177318092435,-0.9989903569221495,0.0425383709371089,-0.0115488124364875,-0.0197286491873258,0.0024342758074857,-0.0040382398292422,0.0029966246802359,0.0054368190467357,-0.0151454968121834,-0.31420839227736,-9.807518441677097,14939.0
7.5,0.8999999761581421,169.0,25.788488388061523,-0.1113248318433761,-79.78280003026035,40.45900545284832,274.2314578266144,0.0144729567691683,0.0002184881013818,-0.9989899992942808,0.0425397083163261,-0.0146911592608307,-0.0219661363696756,0.0031307318061621,-0.0067763328552246,-0.0027934538666158,-0.0108131328597664,-0.0203080423409119,-0.3000388163141906,-9.80484100162983,14939.0
7.7,0.8999999761581421,168.0,25.77346420288086,-0.1828908026218414,-79.78280004192277,40.45900559329651,274.2274756402969,0.0144468666985631,0.0001731000957079,-0.9989902973175048,0.042540356516838,-0.020245831386775,-0.029517205997251,0.0033583241131575,-0.0068020457401871,-0.0012396802194416,-0.0013973369495943,-0.0146318760188296,-0.3214256471022964,-9.80847972393036,14939.0
7.8,0.8999999761581421,171.0,25.770959854125977,-0.1908425688743592,-79.78280013786367,40.45900560588535,274.2225885362625,0.014493154361844,0.0002367821871303,-0.9989904761314392,0.0425206795334816,-0.0086447984674587,-0.0113766623334683,0.0029379704454909,-0.0004177642404101,0.0015396751696243,-0.0051807160489261,-0.0182509507611394,-0.302545883115381,-9.80640688598156,14939.0
8.0,0.8999999761581421,170.0,25.76970863342285,-0.1908425688743592,-79.78280011640527,40.45900563093043,274.2233591051101,0.0145024061203002,0.000240974171902,-0.9989908933639526,0.0425085052847862,-0.0145505377569146,-0.0157265679580786,0.0042573448880535,-0.007141132839024,-0.0042114462703466,-0.0089395977556705,-0.0143866081628948,-0.3253018394485116,-9.810232719182968,14939.0
8.1,1.0,172.0,25.775968551635746,-0.1749390214681625,-79.78280017382771,40.45900568989446,274.2177164525985,0.0145183214917778,0.0002507490571588,-0.9989911317825316,0.0424959547817707,-0.0110732746141391,-0.0104052221261254,0.0029417570293896,0.0045932908542454,0.0019291985081508,-0.000523876864463,-0.0160936136939562,-0.3087625514343381,-9.806818529963492,14939.0
8.3,1.0,172.0,25.76970863342285,-0.1908425688743592,-79.78280020305334,40.45900578432065,274.2122989864349,0.0145080089569091,0.0002376836055191,-0.998989760875702,0.0425317510962486,-0.0157901831682606,-0.0117163875980357,0.0025215794522905,-0.0063090813346207,-0.004319654777646,-0.0135533921420574,-0.0138565455016214,-0.3250235119834542,-9.810085369348524,14939.0
8.41,1.0,172.0,25.770959854125977,-0.1669872552156448,-79.78280018510715,40.45900579726374,274.2126173944473,0.0145112099125981,0.0002189497026847,-0.99899023771286,0.0425212867558002,-0.0172225885756542,-0.0143932304081399,0.0029883739223726,0.0089707933366298,0.0046207089908421,0.0071066585369408,-0.0146311382646672,-0.318980378061533,-9.808014285564424,14939.0
8.6,1.0,172.0,25.770959854125977,-0.2067461162805557,-79.78280022113093,40.45900590982251,274.2074813814163,0.0145157044753432,0.0002166063350159,-0.9989904165267944,0.0425133295357227,-0.0183530835838366,-0.0184603562994948,0.0030937933172356,-0.0035518722143024,-0.0059972065500915,-0.0066560362465679,-0.0167549828917253,-0.3207792739570141,-9.80959537267685,14939.0
8.7,1.0,172.0,25.775968551635746,-0.2146978974342346,-79.78280020050947,40.45900592891483,274.207871553421,0.0145066771656274,0.0002117153635481,-0.998990535736084,0.0425151772797107,-0.0199698430064579,-0.0209948831119485,0.0035572306580753,0.0086909942328929,0.0006363874417729,0.0077912425622344,-0.0131823044351767,-0.3228399058431387,-9.809057428836825,14939.0
8.91,1.0,172.0,25.763446807861328,-0.2067461162805557,-79.78280026627327,40.45900600994488,274.20219969463346,0.0145404431968927,0.0002119407290592,-0.9989903569221495,0.0425075553357601,-0.0155318322048854,-0.0170490335430732,0.0034772619069539,0.0017349967965856,-0.0001562884135637,-0.0044589363969862,-0.0186595911928452,-0.3149532179161906,-9.808608947396277,14939.0
9.0,1.0,174.0,25.76970863342285,-0.2226496636867523,-79.78280024975363,40.45900602627874,274.20262407970426,0.0145328408107161,0.0002241527545265,-0.9989905953407288,0.0425045266747474,-0.0174622556552576,-0.0192990330617477,0.0039628800423523,0.0078177386894822,0.0035206761676818,0.0047793043777346,-0.0130421688314527,-0.3259884487465024,-9.80912408709526,14939.0
9.2,0.8999999761581421,177.0,25.770959854125977,-0.198794350028038,-79.78280030673686,40.4590061009862,274.1944119901657,0.0145366936922073,0.000245853618253,-0.9989912509918212,0.0424868166446685,-0.0159377357665269,-0.0152024138335792,-0.0003883185194357,0.0062881554476916,0.003567781066522,0.00094127189368,-0.0202781073376536,-0.3077932292595506,-9.807186319828034,14939.0
9.31,0.8999999761581421,179.0,25.76970863342285,-0.198794350028038,-79.78280037763406,40.45900617111072,274.1864191265106,0.0145530356094241,0.0002650136593729,-0.9989907741546632,0.0424921438097953,-0.0115031161972393,-0.009318675531692,-0.0038285458249941,0.0026306547224521,0.0047865347005426,0.0064623039215803,-0.0143507802626118,-0.3255755256861448,-9.810215177536012,14939.0
9.5,0.8999999761581421,179.0,25.7722110748291,-0.1908425688743592,-79.78280036327949,40.45900618151061,274.1861059637069,0.0145540600642561,0.0002619767037685,-0.998991310596466,0.0424799472093582,-0.0149973043636551,-0.01147218594383,-0.0031281120461333,-0.0062490622512996,-0.0039070369675755,-0.0087563572451472,-0.020693855790887,-0.3016426344774664,-9.806657146811483,14939.0
9.61,0.8999999761581421,180.0,25.762195587158203,-0.1908425688743592,-79.78280042245525,40.459006288134326,274.1803348035812,0.0145454574376344,0.000276910548564,-0.9989917874336244,0.0424727387726306,-0.013021869222009,-0.0140453783393822,-0.0015860725881128,0.0003380335692781,0.0015090134693309,0.0029064039699733,-0.0162446374527644,-0.3224347668886185,-9.809637472629548,14939.0
9.8,0.8999999761581421,178.0,25.76970863342285,-0.2067461162805557,-79.78280049191257,40.4590063952304,274.1746090621948,0.0145911648869514,0.0002745963283814,-0.998991847038269,0.0424552336335182,-0.0084127963116829,-0.0148514180063482,-0.0005473677477488,0.0095330150797963,0.0032527588773518,0.0092520741745829,-0.0203397634858265,-0.3003998270630837,-9.805627452135086,14939.0
9.9,0.8999999761581421,179.0,25.760942459106445,-0.1828908026218414,-79.78280048114611,40.459006410235226,274.1746261091232,0.0145814549177885,0.0002563202288001,-0.99899160861969,0.0424640998244285,-0.0122705412320801,-0.0167758019576964,0.0001790248691143,-0.0063362526707351,-0.0025560990907251,-0.0020503846462816,-0.0180733324494212,-0.3166190896555781,-9.80893697619438,14939.0
10.1,0.8999999761581421,180.0,25.770959854125977,-0.198794350028038,-79.78280051324167,40.459006515076325,274.16864406776426,0.0146102216094732,0.0002825791016221,-0.99899160861969,0.0424539893865585,-0.0147717953397917,-0.0160297226214341,0.0006197594721948,0.0068045631051063,0.0039517232216894,0.0072058383375406,-0.0127300953946542,-0.3252647827193141,-9.808928790092471,14939.0
10.2,0.8999999761581421,181.0,25.775968551635746,-0.1908425688743592,-79.78280049533693,40.45900653164906,274.16879379463194,0.0145945092663168,0.000281173386611,-0.9989908933639526,0.0424751192331314,-0.0186701358935662,-0.0180040522571961,0.0014373435716292,-0.0080710453912615,-0.003520444734022,-0.0042246640659868,-0.0197357483929954,-0.3094692970812321,-9.808541119694713,14939.0
10.4,0.8999999761581421,182.0,25.78598403930664,-0.0715659633278846,-79.78280058423934,40.45900661175587,274.1622960538864,0.0146159352734684,0.0003070442180614,-0.998990833759308,0.0424707345664501,-0.0098922891895057,-0.0125006799483526,0.0010608566804344,0.0043203304521739,0.0020209746435284,0.000385738821933,-0.0169560505938716,-0.3069385490566492,-9.80668579816818,14939.0
10.51,0.8999999761581421,182.0,25.788488388061523,-0.1033730581402778,-79.78280055899184,40.45900663913213,274.162719127655,0.0146280378103256,0.0002916004450526,-0.9989907741546632,0.0424679927527904,-0.0157647831489933,-0.0166773940784996,0.002558741114963,-0.0096039902418851,-0.0057524731382727,-0.0110847447067499,-0.0213643966661766,-0.3030914283357561,-9.807525458335876,14939.0
10.7,0.8999999761581421,183.0,25.77721977233887,-0.1192766055464744,-79.78280061758926,40.45900674010851,274.15502047252653,0.0146125257015228,0.0002863824774976,-0.9989910125732422,0.042467463761568,-0.0136941647215332,-0.0160329814239302,0.0002546208867896,-0.0050530759617686,-0.0008761610952205,0.0043526040390133,-0.0166942746320273,-0.3170027400925756,-9.808641107082368,14939.0
10.81,0.8999999761581421,183.0,25.7872371673584,-0.1033730581402778,-79.7828006810727,40.459006851954975,274.15029954624174,0.014644687063992,0.0002921192499343,-0.998990535736084,0.0424656830728054,-0.0121100128550495,-0.0174753498792004,0.0037271851999545,-0.0030092617962509,-0.0025625857524573,-0.00842728279531,-0.0199187091412022,-0.301941061746329,-9.805776556134225,14939.0
11.0,0.8999999761581421,186.0,25.78473281860352,-0.1192766055464744,-79.7828006537599,40.4590068884488,274.151221868515,0.0146309277042746,0.000299465318676,-0.9989894032478333,0.0424981079995632,-0.0169218201196358,-0.0215731345940451,0.0048394456286929,-0.0075455945916473,-0.0010225719306617,-0.0044205761514604,-0.0137170471530407,-0.3231493331864476,-9.808907155394555,14939.0
11.1,0.8999999761581421,187.0,25.78473281860352,-0.1192766055464744,-79.78280069793811,40.45900698211653,274.1413967580795,0.0146361198276281,0.0002998742857016,-0.9989897012710572,0.0424901284277439,-0.0165187601543321,-0.0171767399307236,-0.0007536546105078,0.001912526320666,0.0004073133750353,-0.0016372775426134,-0.0187650683394167,-0.303200807813555,-9.805529218912127,14939.0
11.3,0.8999999761581421,187.0,25.78473281860352,-0.1192766055464744,-79.78280077491598,40.4590070809936,274.1316984863281,0.0146374041214585,0.0003403837617952,-0.9989882111549376,0.0425238013267517,-0.01065224315473,-0.012317047989061,-0.0036279764808917,-0.0095069147646427,-0.0060084364376962,-0.0103629482910037,-0.0121287423837929,-0.3254265313223004,-9.809243370294572,14939.0
11.4,0.8999999761581421,186.0,25.78598403930664,-0.1033730581402778,-79.7828007630301,40.459007094095575,274.1313745946884,0.0146284913644194,0.0003223303647246,-0.9989888072013856,0.0425118282437324,-0.012044115716336,-0.0149291013364871,-0.003306950430407,0.0096087828278541,0.0046518165618181,0.0015044232131913,-0.0169994764483999,-0.3131998572126031,-9.806782277226446,14939.0
11.61,0.8999999761581421,187.0,25.77972412109375,-0.1033730581402778,-79.78280080509239,40.45900722719434,274.1218522758484,0.0146424621343612,0.000327168876538,-0.9989882707595824,0.0425218865275383,-0.0143682235768736,-0.0185519855732405,-0.0041902768219771,-0.0060045844875276,-0.0037588216364383,-0.0111528765410184,-0.0142417411110363,-0.32617541346699,-9.810651379823684,14939.0
11.7,0.8999999761581421,187.0,25.78473281860352,-0.1272283792495727,-79.78280078931903,40.4590072460698,274.1214945287704,0.0146301062777638,0.0003227698616683,-0.9989888668060304,0.0425114743411541,-0.0155105953629176,-0.0210308675541042,-0.0038193913934687,0.0108521655201911,0.0046325763687491,0.0060074818320572,-0.0158569133793935,-0.3213599390164018,-9.808557491898537,14939.0
11.9,0.8999999761581421,187.0,25.77721977233887,-0.1431319266557693,-79.78280086943457,40.459007380968345,274.1132932872772,0.0146618280559778,0.0003161242930218,-0.9989882707595824,0.0425150878727436,-0.011156659622182,-0.0226427744903001,-0.0014346600229504,-0.0026001543737947,-0.0006076788413338,-0.0035604133736342,-0.0184698696015402,-0.3180407305061817,-9.80892118871212,14939.0
12.0,0.8999999761581421,186.0,25.778472900390625,-0.1590354740619659,-79.78280085843342,40.459007402132585,274.11320745658867,0.0146623607724905,0.0003321237454656,-0.9989877343177797,0.0425267629325389,-0.0125765759336763,-0.0247593748891694,-0.0009820815891792,0.0056435773149132,0.0056465375237166,0.0072568324394524,-0.0141107474919408,-0.3253634910285473,-9.810270141363144,14939.0
12.2,0.8999999761581421,187.0,25.78347969055176,-0.1192766055464744,-79.78280088297889,40.45900753404239,274.1028585405349,0.0146704064682126,0.0003192565927747,-0.9989871382713318,0.0425373278558254,-0.0166179224847994,-0.0234132405340115,-0.0031720898882826,-0.0008922918350435,0.0019863836932927,-0.0017175180837512,-0.0199556356784887,-0.3096725243702531,-9.808656309843064,14939.0
12.31,0.8999999761581421,187.0,25.78347969055176,-0.1113248318433761,-79.78280092988295,40.4590076202332,274.0946179599762,0.0146537041291594,0.0003502737090457,-0.9989866614341736,0.042555209249258,-0.0152356587569262,-0.0134888253395403,-0.0022178413610561,0.00395850231871,0.0010733676608651,0.0074670203030109,-0.0143767912359908,-0.3271793803945184,-9.809718164205552,14939.0
12.5,0.8999999761581421,187.0,25.780975341796875,-0.1192766055464744,-79.78280089158446,40.45900765042805,274.0944000453949,0.0146676367148756,0.0003545711224433,-0.9989860653877258,0.0425629913806915,-0.0198374231590399,-0.0179896033907535,-0.0011711405827903,0.0070207817479968,0.004817449953407,0.0067645064555108,-0.0216201004316099,-0.3037594179064035,-9.806869985461235,14939.0
12.6,0.8000000119209291,183.0,25.76720428466797,-0.198794350028038,-79.78280097216098,40.4590077634546,274.0848406524658,0.0146820498630404,0.0003766409063246,-0.9989848732948304,0.0425858795642852,-0.0142228794598762,-0.0165753090077962,-0.0034538222380067,0.0001402345660608,-0.005765511188656,0.00261338846758,-0.0176584896293934,-0.3241714995726943,-9.809113562107086,14939.0
12.8,0.8000000119209291,184.0,25.75718688964844,-0.2465049922466278,-79.78280103555096,40.45900790755336,274.076501247406,0.0146947391331195,0.0003801206476055,-0.998985767364502,0.0425620302557945,-0.0088892152983539,-0.0194863894096937,-0.0016684899347323,0.0101844258606433,0.0044644130393862,0.0066144568845629,-0.0204263205500319,-0.3002780405245721,-9.806724974513054,14939.0
12.9,0.8000000119209291,184.0,25.775968551635746,-0.1192766055464744,-79.78280102477399,40.45900792669023,274.07640254211424,0.0146849108859896,0.000386752653867,-0.998985767364502,0.0425638742744922,-0.0124610212953616,-0.0212496380112312,-0.0009344629721353,-0.0062217414379119,0.0001317513233516,-0.0020137741230428,-0.0178325093910098,-0.3189236600697041,-9.810542621612552,14939.0
13.11,0.8000000119209291,184.0,25.734649658203125,0.6440936923027039,-79.78280107501249,40.45900804587728,274.06803428840635,0.0147136412560939,0.0004097503842785,-0.998985469341278,0.0425616167485714,-0.0116434599737916,-0.0173436973807527,-0.0003441867238732,0.0101380134001374,0.0030032540671527,0.0107548888772726,-0.0193954655667766,-0.301715121679008,-9.8070489102602,14939.0
13.2,0.699999988079071,182.0,25.75343132019043,0.1908425688743592,-79.78280106131146,40.45900806303938,274.0680932970047,0.0147324725985527,0.000410667998949,-0.9989860057830808,0.0425417982041835,-0.0167765763777148,-0.0190369031478467,0.0003604668145153,-0.0128754572942852,-0.0015171158593147,-0.0109438188374042,-0.0299796522315591,-0.3311054202541709,-9.804810011386872,14939.0
13.4,0.699999988079071,182.0,25.762195587158203,0.1908425688743592,-79.78280114758779,40.45900818918885,274.05894088459013,0.0147376647219061,0.000422168028308,-0.998984694480896,0.04257058724761,-0.0083770421171428,-0.0173905561384251,0.0007016715622588,0.0044110426679253,0.0049806274473667,0.0090150563046336,-0.0165501636068802,-0.2909894826449454,-9.808261622786524,14939.0
13.5,0.699999988079071,182.0,25.75343132019043,0.1828908026218414,-79.78280113875735,40.45900820576507,274.0590779752731,0.0147402053698897,0.0004188809834886,-0.9989842772483826,0.0425799712538719,-0.0121365513072367,-0.0190122797738744,0.0013716252535724,-0.011806521564722,-0.0054767383262515,-0.0143599361181259,-0.0198897334467619,-0.2971703733131289,-9.807154160141945,14939.0
13.7,0.699999988079071,182.0,25.760942459106445,0.1828908026218414,-79.78280119202178,40.45900830362362,274.048584815979,0.01474423520267,0.0004069281858392,-0.9989832639694214,0.0426032431423664,-0.0094493331941871,-0.0142870845639243,-0.0016965905758923,0.0068199937231838,-0.0012793191708624,0.0041728783398866,-0.0118455772614106,-0.3131930963695049,-9.807845885753633,14939.0
13.8,0.699999988079071,179.0,25.758440017700195,0.2306014448404312,-79.78280123552676,40.45900845930745,274.0393243999481,0.0147270485758781,0.0004169195599388,-0.9989826679229736,0.0426222719252109,-0.0122007889837339,-0.0208232170304736,-0.0010893833808119,-0.0098970113322138,-0.0080425627529621,-0.0080784074962139,-0.0283818891341798,-0.3048716679587961,-9.805332167744636,14939.0
14.0,0.699999988079071,178.0,25.752178192138672,0.3021674156188965,-79.78280120931231,40.45900850194942,274.039330121994,0.0147317079827189,0.000379559060093,-0.9989820122718812,0.0426363199949264,-0.0160194112918281,-0.0247176011094181,-3.9996489909907694e-05,-0.0054409597069025,-0.0047153392806649,0.0056151989847421,-0.0173225613799877,-0.317494892925024,-9.806094059944153,14939.0
14.1,0.6000000238418579,178.0,25.75092697143555,0.3339745104312897,-79.78280128256364,40.45900856218264,274.02801346492765,0.0147443087771534,0.0003983317001257,-0.9989821910858154,0.0426278673112392,-0.0091197186265724,-0.0106338058623461,-0.0034286214107891,-0.0095224408432841,-0.0045693698339164,-0.0098058441653847,-0.0149440259719267,-0.2984610182605684,-9.802364705801011,14939.0
14.3,0.6000000238418579,178.0,25.24635124206543,4.421186447143555,-79.7828013324613,40.459008693393294,274.0183318824768,0.0148271024227142,0.0007951621664687,-0.9989808201789856,0.0426259897649288,-0.0078747882360981,-0.0123530987089673,-0.0004444028391415,0.001970968209207,-0.0117325633764266,0.0030747943092137,-0.0027710377529729,-0.3055260810256005,-9.812556402683258,14939.0
14.4,0.6000000238418579,174.0,25.70334815979004,0.4771064221858978,-79.78280132206662,40.45900870703581,274.0182042093277,0.0147432498633861,0.0006662083324044,-0.9989811182022096,0.0426488257944583,-0.0141388362506336,-0.0119369292317973,-0.0016191267984557,-0.0220255106687545,-0.0282194968312978,-0.0193353816866874,-0.0338140872353687,-0.2721051322482527,-9.7931734675169,14939.0
14.6,0.6000000238418579,173.0,25.75593566894531,7.053223609924316,-79.7828013495305,40.459008842619,274.0069472761154,0.0147903067991137,0.000617726764176,-0.9989811778068542,0.0426321662962436,-0.0088124414716335,-0.0192637656439508,-0.0025082918871075,0.0144615489989519,0.0229023434221744,-0.0071083009243011,-0.0327448941604234,-0.2535169615969062,-9.801884649395944,14939.0
14.71,0.6000000238418579,173.0,25.47171974182129,2.449146270751953,-79.78280133642468,40.459008858940784,274.0068591804504,0.0147860692813992,0.0008133902447298,-0.99898099899292,0.042636714875698,-0.0112808065403861,-0.0178454217636967,-0.0001432120978263,0.0096045974642038,0.0147305186837911,0.012378841638565,-0.0104285388090647,-0.3740182090178133,-9.806151362657546,14939.0
14.9,0.6000000238418579,173.0,25.749675750732425,0.1510837078094482,-79.78280139004049,40.4590089903522,273.9972318382263,0.0148973185569047,0.0006912763928994,-0.998979389667511,0.0426364801824092,-0.0112655168702208,-0.0170084777092987,-0.0023145084022852,0.0066250427626073,0.0285650473088026,0.0222189147025346,-0.0194788706162944,-0.3441086046025157,-9.795598892569544,14938.0
15.0,0.6000000238418579,169.0,25.74091148376465,0.1351801604032516,-79.78280137794869,40.459009006129975,273.9971312255859,0.0148592526093125,0.0006684796535409,-0.9989787340164183,0.0426649861037731,-0.0201590208692068,-0.0172675186878563,-0.0006769320375366,-0.0565134026110172,-0.0152640109881758,-0.0067347777076065,-0.0399478849768638,-0.2110916296206414,-9.807215555906296,14938.0
15.2,0.6000000238418579,169.0,25.519296646118164,4.0792598724365225,-79.78280142566582,40.459009146094,273.9860038728714,0.0148253580555319,0.0006109567475505,-0.998979151248932,0.0426677614450454,-0.0110229646565383,-0.0177178886005163,0.0001677362500616,0.0098593402653932,-0.0037963695358484,-0.0002095275558531,-0.0111270755133591,-0.3403483698517084,-9.805891161561012,14938.0
15.3,0.6000000238418579,165.0,25.41537666320801,5.184556484222412,-79.78280145108548,40.45900928509747,273.9745721788406,0.0147307198494672,0.0007840649341233,-0.9989801049232484,0.0426749363541603,-0.0090432178812957,-0.0177600568345276,-0.000461158796131,0.0184357389807701,-0.0055755274370312,0.0066415551118552,-0.0195204018359072,-0.3439793445914984,-9.806177090406418,14938.0
15.5,0.699999988079071,164.0,25.23883819580078,7.538281440734862,-79.78280143735283,40.45900930251991,273.9746404857636,0.0146597893908619,0.0008126789471134,-0.998981237411499,0.0426733568310737,-0.0153439578988849,-0.0179899254792443,0.0020618535810629,-0.017909325659275,-0.0178593751043081,-0.0060290149413049,-0.0663303255708888,-0.2915319398045539,-9.788344836831094,14938.0
15.6,0.699999988079071,162.0,25.15244674682617,8.603819847106934,-79.78280145236162,40.45900943049681,273.9655790300369,0.0143131762742996,0.0006524866330437,-0.9989843368530272,0.0427213087677955,-0.0158825470981113,-0.0189652240978032,0.0018164946261707,0.0152473868802189,0.0138777494430542,0.0046813087537884,-0.0643568171979859,-0.2997037891298532,-9.783389906287193,14938.0
15.8,0.8000000119209291,162.0,24.915809631347656,11.967419624328612,-79.7828014715186,40.45900958988864,273.9546933145523,0.0125787397846579,-0.0007365615456365,-0.9989988207817078,0.0429266393184661,-0.0065940419662744,-0.0214320633360678,0.0049847529777248,0.0570396222174167,0.0026369367260485,-0.0259095579385757,0.0042325024819001,-0.1985803788341582,-9.816737161874771,14938.0
15.91,0.8999999761581421,163.0,24.79561233520508,13.613436698913574,-79.78280145883441,40.45900960922975,273.95527207565306,0.0123988529667258,-0.0010378289734944,-0.9989982843399048,0.0429854616522789,-0.0095491130809765,-0.0184413352695104,0.0056051555839368,-0.0203123670071363,-0.0185874700546264,-0.0172890424728393,0.1501520668622106,-0.1959411466866732,-9.893534492254258,14938.0
16.11,0.8999999761581421,164.0,24.53768920898437,17.311012268066403,-79.78280144314749,40.45900975241787,273.9403330059052,0.0123279392719268,-0.0041225170716643,-0.998988151550293,0.0430554896593093,-0.0098253232120038,-0.035993384773058,0.0120578396601374,0.0129499826580286,0.0751557797193527,-0.0281270276755094,-0.1693697176873684,-0.3407808079943061,-9.770347107052803,14938.0
16.21,0.8999999761581421,164.0,24.408727645874023,19.092208862304688,-79.78280143073808,40.459009787204366,273.9417233438492,0.0125066423788666,-0.0066161239519715,-0.9989746212959292,0.0430061556398868,-0.0184300140524235,-0.0368977558380133,0.0198839467120908,-0.0139154940843582,0.0282355695962905,0.0244394019246101,0.035638377405703,-0.251102006714791,-9.858031368255618,14938.0
16.4,0.8999999761581421,164.0,24.139537811279297,22.64665222167969,-79.78280148475723,40.45900993565778,273.9281152458191,0.0100163370370864,-0.008531579747796,-0.9989508390426636,0.0438662767410278,-0.0142619981526368,-0.0344988419337102,0.0251953440325505,-0.0306346714496612,0.0049916771240532,-0.0039975810796022,0.1307308872509748,-0.2304624318145216,-9.917053163051603,14938.0
16.51,1.0,166.0,23.97927474975586,24.920860290527344,-79.78280141326623,40.45900999090657,273.9426183671951,-0.0055515794083476,-0.0063954279758036,-0.9987608790397644,0.04904256016016,-0.0445242102402909,-0.0164392829613771,0.150667253654451,-0.1548135131597519,-0.1470466256141662,-0.0290777310729026,0.284335625320673,-0.2529004457965493,-10.58238093495369,14938.0
16.7,1.0,168.0,24.43376922607422,17.899442672729492,-79.7828015466968,40.45901022190024,273.9722096891403,-0.0061334846541285,0.0001060780850821,-0.9985396862030028,0.0536742284893989,-0.0347536004885403,-0.0184679077255523,0.3547570754307249,0.123084545135498,-0.0672084018588066,-0.105666235089302,0.122766513582319,0.2102963900193572,-11.260697711706165,14938.0
16.8,1.100000023841858,167.0,24.3686637878418,18.16980361938477,-79.78280131376813,40.45901049411129,273.9819353790283,-0.0031271101906895,0.0009119344176724,-0.9985181093215942,0.0543234646320343,-0.0570146775770342,-0.018324869225248,0.3016241197422776,-0.0271675195544958,0.0571848340332508,-0.0343261957168579,-0.004103306424804,0.1928248365595936,-9.817692596912384,14938.0
17.0,1.100000023841858,169.0,24.31732940673828,18.42426109313965,-79.78280124698259,40.45901050426749,274.00929355335234,-0.0038409277331084,2.773413143586368e-05,-0.9985336065292358,0.0540003329515457,-0.0482270833293079,-0.0063262002084518,0.2490729282942704,0.0777076557278633,0.1053002625703811,-0.0353130139410495,0.0843736042454838,0.0906061057280749,-9.435921455025673,14939.0
17.11,1.0,173.0,24.40246772766113,18.18570709228516,-79.78280095139547,40.45901058392341,274.00538611125944,-0.0003819300036411,-0.0029000299982726,-0.998602330684662,0.0527731031179428,-0.0624349148078727,0.0167129584862096,0.0866535666509058,-0.0027690548449754,0.0584533810615539,0.0805266425013542,0.1084565496258437,-0.1206353222485631,-9.284258129596711,14939.0
17.3,1.100000023841858,173.0,24.177099227905277,20.436058044433597,-79.78280087687222,40.459010566987146,274.01066100311283,-0.0007942144293338,-0.0025393641553819,-0.9986580610275269,0.0517214462161064,-0.0713559515189402,0.022223405827537,0.0268500118842174,-0.080908678472042,0.0148011865094304,-0.0458749793469905,-0.0102805608557537,0.0243265093211084,-9.222381724119185,14939.0
17.41,1.100000023841858,174.0,24.21466064453125,19.18762969970703,-79.78280074003978,40.45901062359906,274.027656671524,-0.0034057358279824,-0.0056564346887171,-0.9987833499908448,0.0488701872527599,-0.0515031647921007,0.0384517944736508,0.045406510202635,-0.0096164746209979,0.0349642112851142,-0.0272495504468679,0.1151606747321784,0.1059333298914134,-9.690759485363962,14939.0
17.6,1.100000023841858,174.0,23.98553466796875,23.250986099243164,-79.78280063696549,40.459010722511024,274.03990661811827,-0.0024410299956798,-0.0039996206760406,-0.9988671541213988,0.0473546534776687,-0.0579484086772485,0.0399670880301049,0.0552593447563554,0.0054736747406423,-0.060551069676876,-0.0561888627707958,0.1157189924642443,0.0697538931760937,-9.695978710055352,14939.0
17.71,1.100000023841858,174.0,24.0218448638916,22.241111755371094,-79.78280056865009,40.459010690744655,274.0472098560333,-0.0014002313837409,-0.0031313493382185,-0.998871684074402,0.0473667494952678,-0.0627863604025154,0.0392647555261106,0.098216010605916,0.0170286260545253,-0.0425044372677803,-0.0311798993498086,0.0669357225252315,0.130492457896471,-10.15675859928131,14939.0
17.9,1.100000023841858,173.0,24.16457939147949,20.626901626586918,-79.78280038805477,40.45901074872317,274.07185494613645,0.0009876148542389,-0.0049197953194379,-0.9988049268722534,0.0486168898642063,-0.054971333102441,0.0504121710160718,0.1820278085007584,-0.0088386284187436,0.0417055897414684,-0.0017396220937371,0.0565736661013215,0.0615148830972611,-10.237700436115263,14939.0
18.01,1.2000000476837158,170.0,24.09947204589844,22.90110969543457,-79.78280031386319,40.4590107100133,274.09053384971617,-0.0007707149488851,-0.004250852856785,-0.9987996816635132,0.0487911216914653,-0.0557765429659828,0.0513452589996991,0.1862077292381378,-0.0286994725465774,0.0142005020752549,0.0031565632671117,0.0983304146490991,-0.0858068664371967,-9.89560791492462,14939.0
18.2,1.2999999523162842,169.0,24.16207504272461,21.18352508544922,-79.78280024230966,40.45901070920132,274.1036540241241,-0.0013661632547155,-0.0041184457950294,-0.9987711310386658,0.0493703931570053,-0.0415712955556578,0.0613050290320727,0.2309741514321752,-0.0153810074552893,0.0217252429574728,0.0255932994186878,0.0475134419929236,-0.1456070535443723,-10.048785084486008,14939.0
18.3,1.2000000476837158,166.0,24.12200927734375,20.833646774291992,-79.78280016580051,40.45901069243708,274.094830748558,-0.0020984902512282,-0.0047209849581122,-0.9987373948097228,0.0499692186713218,-0.0324966233102934,0.0908046185362902,0.2148298681153393,-0.0411442704498767,-0.0295692700892686,-0.0394228771328926,0.0691801625490188,0.1355810338631272,-10.05194375038147,14939.0
18.5,1.2999999523162842,166.0,24.85821533203125,12.738741874694824,-79.78280011736449,40.45901062048353,274.11720132541654,-0.0030150890816003,-0.0061290450394153,-0.9987095594406128,0.0503246188163757,-0.036263946565433,0.0838104366893852,0.2274389109900795,-0.0316360183060169,-0.0121856108307838,-0.0397624634206295,-0.0131823307019658,0.2523319137096405,-9.929968492984774,14939.0
18.6,1.2999999523162842,165.0,23.822769165039062,26.26470947265625,-79.78280001962881,40.459010603148585,274.1194364995956,-0.0022925660014152,-0.0068328278139233,-0.9986845254898072,0.0507687591016292,-0.0283365729357015,0.0785441983946173,-0.008913789658258,0.0111927958205342,-0.0124701280146837,-0.0433073677122592,0.0517257121950388,0.1201202465035021,-8.700355174541475,14939.0
18.8,1.2999999523162842,166.0,23.76642608642578,25.52519416809082,-79.78279993887591,40.45901058154982,274.09416091156004,-0.0019179098308086,-0.0033276290632784,-0.9986781477928162,0.0512573048472404,-0.0231785916905787,0.0793127199936953,0.0328617268368501,0.013810628093779,0.0310310088098049,0.0232130400836467,0.0419084107037633,0.1148890898376703,-9.54727992296219,14939.0
18.9,1.2999999523162842,161.0,23.602407455444336,28.713855743408203,-79.78279989761191,40.45901051259532,274.1019268007278,-0.0019757291302084,-0.0049241478554904,-0.9986555576324464,0.0515661537647247,-0.0323334079277394,0.0810239585073154,0.1325266086955223,-0.0314077660441398,-0.0201911609619855,-0.0270091872662305,0.0554675693297758,-0.0259673293959349,-10.658895260095598,14939.0
19.1,1.2999999523162842,161.0,23.563594818115234,29.29433441162109,-79.78279985375978,40.45901044296168,274.1223230333328,-0.0015948520740494,-0.0063669490627944,-0.9986233711242676,0.0520423278212547,-0.0294156635621956,0.0819239131697905,0.2861522314029674,0.0462820902466774,0.077618658542633,0.0697451904416084,0.1305569965392351,0.075610656235367,-11.232772579193115,14939.0
19.21,1.2999999523162842,156.0,23.30066299438477,33.58034133911133,-79.782799825142,40.45901061467233,274.16707539272306,-0.0001988323347177,-0.0052704606205224,-0.9986159205436708,0.0523309558629989,-0.0258094212856305,0.0565874771509874,0.6475283363417391,0.0693876594305038,-0.0189537424594163,0.0378386490046978,0.0773110813647508,0.0432556274626404,-11.90646888613701,14939.0
19.4,1.2999999523162842,155.0,23.069034576416016,35.337684631347656,-79.78279965288732,40.45901067810979,274.31365930747984,0.0002747810794971,-0.0041758026927709,-0.998626172542572,0.0522328205406665,-0.0329972310632194,0.0576184589597564,1.1249157966168082,-0.0926793813705444,-0.0442728102207183,-0.0828986912965774,0.0739650304801762,0.1718511298298836,-12.169445071220398,14939.0
19.5,1.399999976158142,152.0,23.18672752380371,35.52057266235352,-79.78279961982551,40.459010639594496,274.4394526453018,-0.003586491337046,-0.0034587865229696,-0.9986392259597778,0.0519138388335704,-0.0213144056125935,0.0553659028754384,1.3861826011653018,-0.0915217101573944,0.0122493142262101,0.0323162414133548,0.0482907973369583,-0.0311518271081149,-12.396481930017474,14939.0
19.71,1.5,150.0,23.27812767028809,33.02371597290039,-79.78279943620707,40.45901077688367,274.73302876663206,-0.009585840627551,-0.0039458237588405,-0.9986472725868224,0.050953134894371,-0.0086905510547484,0.0429803488981557,1.88442800552498,0.0126765929162502,0.036835353821516,-0.0406952686607837,0.000963315074332,0.0216425733827054,-12.47648938179016,14939.0
19.81,1.7000000476837158,149.0,22.867454528808597,37.81068420410156,-79.7827992820693,40.45901090990096,274.8917106361389,-0.0084600420668721,-0.0057686073705554,-0.9986833930015564,0.0502673424780368,-0.0174422691538071,0.0356238740381736,2.0811428921403645,0.0631929039955139,0.0217646714299917,0.0347651541233062,0.0530179742630571,0.177443790603429,-12.2959343791008,14939.0
20.01,1.7999999523162842,147.0,23.181718826293945,34.52660369873047,-79.78279911138449,40.45901089479113,275.359690782547,-0.0054800184443593,-0.0078291613608598,-0.998744249343872,0.0491803884506225,-0.0492913279129737,0.0416513544600336,2.5801386398167345,0.0476533845067024,-0.0288317669183015,0.0432341881096363,0.0699465817725285,-0.0272388795297592,-12.399761048555376,14940.0
20.1,2.0,149.0,23.274370193481445,29.588550567626957,-79.7827989146342,40.4590110282371,275.5414499015808,-0.0064189448021352,-0.0071868509985506,-0.9987345337867736,0.0493612550199031,-0.0768290107606241,0.0302136862005126,2.7131828958992963,-0.0834141373634338,-9.120241884374992e-05,-0.0364261716604232,0.0119900628738105,-0.0421915529854595,-11.930076434612277,14940.0
20.3,2.200000047683716,151.0,23.582374572753903,27.00422477722168,-79.78279855505556,40.4590112017764,275.994114276886,-0.0068263271823525,-0.006700022611767,-0.9986841678619384,0.050383061170578,-0.0829912502094509,0.0002088448337032,2.868552059033875,0.0600733533501625,0.0132565954700112,0.0471675172448158,0.0669791061244905,-0.1402590622007846,-11.415313296318054,14940.0
20.4,2.299999952316284,155.0,23.6712703704834,25.86712074279785,-79.78279839618041,40.45901125330417,276.2839716644287,-0.0060330037958919,-0.0068936720490455,-0.998652994632721,0.0510718822479248,-0.1049468094502983,-0.0113492312486404,2.92566171298094,0.0246685296297073,0.0047834129072725,0.0035838766489177,0.019769417848438,-0.0421345472009852,-10.48525166630745,14941.0
20.6,2.5,156.0,23.56484603881836,26.63049125671387,-79.78279821622102,40.45901131674787,276.57801902008055,-0.007589800748974,-0.0076518361456692,-0.9986029267311096,0.0517314672470092,-0.1262959888027592,-0.0202682032667298,2.9603915062019794,-0.0331788137555122,-0.0084949480369687,0.0561461262404918,0.0227042290312238,-0.1264523790590465,-10.26673887848854,14941.0
20.71,2.799999952316284,157.0,23.82402038574219,22.257015228271484,-79.78279770809763,40.45901163829869,277.06275927734373,-0.0081539107486605,-0.009926144964993,-0.9985482692718506,0.0523111745715141,-0.1567862909754555,-0.0433880380629885,2.9359737604843663,-0.0818616449832916,-0.0681994929909706,-0.0908553674817085,-0.0163225093460641,0.0622657934948802,-9.91753380417824,14942.0
20.9,2.900000095367432,159.0,23.59113883972168,25.318449020385746,-79.78279712290954,40.459012064348094,277.5795291633606,-0.0062636462971568,-0.0115894461050629,-0.9986041188240052,0.0511504523456096,-0.1924543827712937,-0.0721239010353335,2.8438697674322766,0.0137634985148906,0.0090278042480349,0.0254772417247295,0.0449813920492306,0.0052163924463093,-9.685085932016372,14942.0
21.0,3.0,163.0,23.718849182128903,23.115806579589844,-79.78279685738534,40.45901220934503,277.86327016067503,-0.0056606037542223,-0.0110633354634046,-0.9986470341682434,0.0504945181310176,-0.219363371607819,-0.0784672503563283,2.841621393003655,-0.0785431787371635,-0.1081907674670219,-0.0466509498655796,0.0886820702813565,0.1356488158833235,-9.747300891280174,14942.0
21.1,3.0999999046325684,163.0,23.827777862548828,23.266889572143555,-79.7827964347825,40.4590123643605,278.09644019317625,-0.0043589528650045,-0.0086214998736977,-0.9987110495567322,0.0498306676745414,-0.2183619268877356,-0.0865293103824003,2.7645323604251333,0.1202016919851303,0.0105125615373253,0.0735261812806129,0.0663789442554116,-0.065537575604394,-9.60397043287754,14943.0
21.3,3.0,168.0,23.54606628417969,26.185192108154297,-79.78279605551528,40.45901225239358,278.6598113746643,-0.0001423391804564,-0.0061793657951056,-0.9987636804580688,0.049324594438076,-0.2191067710886377,-0.0660418487906137,2.670711289931675,0.0727804079651832,0.0605937279760837,0.0689141303300857,0.0323410091595724,0.0085041927290149,-9.546478269696236,14943.0
21.5,3.0,171.0,23.628700256347656,25.83531379699707,-79.78279579118255,40.45901236712496,278.9259313316345,0.0024749808944761,-0.0063369367271661,-0.9987518787384032,0.049481488764286,-0.2326597248542661,-0.0738867413536821,2.6571652752631376,-0.0014273145934566,-0.0109327798709273,-0.0841066539287567,0.0481886035390198,-0.0944775837566703,-9.674438737034796,14943.0
21.61,2.799999952316284,174.0,23.619935989379893,25.81941032409668,-79.78279530096299,40.45901290259598,279.6541856498718,0.0056879776529967,-0.0056728194467723,-0.9987301230430604,0.0497373566031456,-0.2359639288510748,-0.0810073492492408,2.705823957342961,-0.005885265301913,-0.0481492169201374,-0.0802104249596595,0.0897414761222899,-0.1446587173920125,-9.635448918342592,14944.0
21.8,2.799999952316284,177.0,23.67502593994141,25.127605438232425,-79.7827944921932,40.45901338045931,280.34399306488035,0.0058217667974531,-0.0061402912251651,-0.9987152218818665,0.0499637946486473,-0.2197526604023222,-0.0835116924763117,2.72576963556541,-0.0093594081699848,-0.0423181131482124,-0.0151653876528143,0.0614908866723999,0.0961954134888947,-9.615694684982302,14945.0
21.9,2.5999999046325684,175.0,23.62244033813477,25.07194328308105,-79.78279428511726,40.45901350553874,280.6155375213623,0.006651472300291,-0.0064721289090812,-0.998719334602356,0.0497353374958038,-0.2140110346537616,-0.0888482233913863,2.703816341761497,0.0314179584383964,0.0288203675299882,0.0274934191256761,0.0908875852078199,0.08364750796929,-9.58730996131897,14945.0
22.1,2.5,176.0,23.58487892150879,25.83531379699707,-79.78279408818725,40.45901363344037,280.88517272186283,0.0065817451104521,-0.0069905770942568,-0.9987015724182128,0.0500307641923427,-0.2065934349847863,-0.0909820808249886,2.6854483941786227,0.0153297614306211,-0.017305226996541,0.0084293987601995,0.0698569183750078,-0.1763709727115929,-9.640009746551517,14945.0
22.2,2.299999952316284,177.0,23.685043334960927,24.483510971069336,-79.78279351818763,40.45901404323017,281.5382670135498,0.0055095795542001,-0.0066312747076153,-0.99868243932724,0.0505889393389225,-0.1829023002973538,-0.0855164596532117,2.723868748072776,0.031742688268423,0.0440720841288566,0.0696706920862197,0.0505460912548005,-0.1538601243495941,-9.797379954457282,14946.0
22.4,2.299999952316284,176.0,23.69756317138672,24.26086235046387,-79.782793111574,40.45901442548308,282.19280135345457,0.0047729136422276,-0.0063169552013278,-0.9987207055091858,0.0499428659677505,-0.1617809843189945,-0.0831676419371096,2.764434321080417,0.0210500080138444,0.0145568177103996,0.028961181640625,0.0723919878574088,0.0074429162358865,-9.796863060593603,14947.0
22.6,2.0999999046325684,176.0,23.76642608642578,22.86134910583496,-79.78279296332197,40.45901454170126,282.4684733123779,0.0041443733498454,-0.0059558022767305,-0.9987499713897704,0.049457412213087,-0.1527489895980221,-0.0836963031514649,2.7514114700955257,-0.0087303705513477,0.0262610092759132,0.0329148657619953,0.1228746139816939,-0.0792024820391088,-9.71741986513138,14947.0
22.7,2.0,170.0,23.64497756958008,25.58085632324219,-79.78279282717683,40.45901474957268,282.84901034545896,0.0026901545934379,-0.0064035370014607,-0.9987786412239076,0.0489197149872779,-0.139686899232292,-0.0754848851934275,2.802851526467296,-0.091068297624588,-0.0175829790532588,-0.0229526460170745,0.0358328658482059,0.0561367877293378,-9.718121531009675,14947.0
22.9,2.0,167.0,23.74764633178711,23.75990104675293,-79.78279264773872,40.45901502728843,283.50602233123783,0.0031146677210927,-0.0080033056437969,-0.9988175034523008,0.0478535592555999,-0.1088214231373364,-0.0589966568423117,2.8344734674962444,-0.0349195152521133,-0.0510342754423618,-0.0159108508378267,0.1101399356033653,0.2029588287323713,-9.679081426262856,14948.0
23.0,1.7000000476837158,163.0,23.68253898620605,25.135557174682607,-79.78279248328866,40.45901522748648,284.07206618499754,0.0035816121380776,-0.0060340198688209,-0.9988287091255188,0.0478750690817832,-0.1046200341646611,-0.0614252028724838,2.825629648072021,-0.1257732659578323,-0.1106491759419441,-0.05129324644804,0.0408862534537911,0.1990945135429501,-9.725573222637175,14949.0
23.11,1.7000000476837158,157.0,23.74138641357422,22.71026611328125,-79.78279219860215,40.45901523670306,284.4348801345825,0.002801289781928,-0.0056569371372461,-0.9988211989402772,0.0481285452842712,-0.0850569142995726,-0.0439211893398211,2.8624237065954685,0.0761257857084274,0.0280767641961574,0.0571192950010299,0.1447242336161434,-0.2716363865509629,-9.801778814792634,14949.0
23.3,1.600000023841858,149.0,23.65249061584473,23.77580451965332,-79.78279207584625,40.45901524048647,285.07872855377195,0.001226132386364,-0.006386631168425,-0.9987962245941162,0.0486197471618652,-0.0582614400377054,-0.0039008793164153,2.873188252185624,-0.0041373986750841,0.0066421004012227,-0.0113625582307577,0.1859730875305831,-0.0602170204930007,-9.737247188687324,14950.0
23.4,1.7000000476837158,148.0,23.722604751586918,23.871225357055664,-79.78279202567187,40.459015279591405,285.3654860229492,5.991603757138364e-05,-0.0061818249523639,-0.998788833618164,0.0488124638795852,-0.0539869363636523,-0.0004475367704699,2.861106175234828,-0.0430504530668258,0.0092475051060318,-0.0300991218537092,0.1159409947972744,0.1658659198880195,-9.656611745953562,14950.0
23.62,2.0999999046325684,130.0,23.526033401489247,25.88302421569824,-79.78279187233176,40.45901535669446,286.0556296081543,-0.0002408766304142,-0.0079873744398355,-0.99874746799469,0.0493940375745296,-0.0227177998890057,0.0078183524823459,2.922617692665648,0.0677123218774795,0.1162730529904365,0.0688241273164749,0.2054900152981281,0.031111664045602,-9.764968838095664,14951.0
23.8,1.8999999761581416,131.0,23.62118911743164,25.00832939147949,-79.78279183414911,40.4590153850176,286.3483608932495,-0.0004471220308914,-0.0102237090468406,-0.9987335801124572,0.0492604039609432,-0.0367487359754213,0.0196336131332443,2.9334926299972235,-0.0540151707828044,-0.0296392627060413,-0.0516204945743084,0.1955067716538906,-0.0053071247879415,-9.877234793901444,14951.0
23.9,1.8999999761581416,133.0,23.62619781494141,24.332427978515625,-79.78279188781488,40.45901560876474,287.0042341918945,3.4593420423334464e-05,-0.0124406395480036,-0.9987612962722778,0.0481781549751758,-0.0209370190975051,0.0345124715969695,2.9661401037968163,0.0075336694717407,-0.0538438707590103,-0.0087567949667573,0.2120963274501264,-0.1704680440574884,-9.758713486790658,14952.0
24.0,1.8999999761581416,136.0,23.72385597229004,22.28087043762207,-79.7827918573284,40.45901564664799,287.3002890319824,0.0022286467719823,-0.0123506290838122,-0.9987713694572448,0.0479416921734809,-0.0275987231022531,0.0324543774776511,2.956534738214181,0.0637620836496353,0.022841814905405,0.0168007872998714,0.244394135735929,0.0093016410246491,-9.709438415765764,14952.0
24.2,2.0,193.0,23.539804458618164,25.89097595214844,-79.78279139787027,40.45901548712385,287.9224194259644,0.004620477091521,-0.0129183437675237,-0.9987261891365052,0.0485567040741443,-0.0622315218546499,0.0583791364745739,2.9084982852187022,0.0721017569303512,0.0698147863149643,0.0546975620090961,0.2401101914606989,-0.184106016755104,-9.601444435715676,14952.0
24.3,2.0,240.0,23.642473220825195,24.05411529541016,-79.78279145139558,40.45901555189787,288.26533305358885,0.004244468640536,-0.0126584600657224,-0.9987207651138306,0.0487717688083648,-0.0669019871416248,0.0674775360360919,2.9331098763134063,-0.0647697001695633,0.0075019830837845,-0.0556660667061805,0.1735373754613101,0.280332164671272,-9.65228305220604,14953.0
24.5,2.0,285.0,23.507251739501957,25.7876033782959,-79.78279139020934,40.45901558332648,288.85049235534666,0.0022040070034563,-0.0122925192117691,-0.9987134337425232,0.0491488799452781,-0.0304614453211457,0.0489815091722047,2.9307031880982453,0.0215055048465728,0.0607560500502586,0.0349683389067649,0.1887795865908265,0.0726300197839737,-9.84881966471672,14953.0
24.7,2.0,281.0,23.54481315612793,25.77169990539551,-79.78279142904515,40.45901553024167,289.47680651855467,-0.0016727303154766,-0.0118590136989951,-0.9986931085586548,0.0496854595839977,-0.0221842584040278,0.0639395773094827,2.9736763608860923,-0.1333624273538589,-0.0262771751731634,-0.0998862087726593,0.2524798482656479,-0.162221058011055,-9.925594775676728,14954.0
24.8,1.8999999761581416,270.0,23.537302017211918,25.97049331665039,-79.78279144797673,40.459015559986966,289.7851008148193,-0.0024852242786437,-0.0108633143827319,-0.9986791014671326,0.0501591302454471,0.029908652409275,0.0601847059702766,2.9746789556239426,0.0587135255336761,0.017575979232788,0.064386636018753,0.2334937928617001,-0.228917834982276,-9.872498549222945,14954.0
24.9,1.8999999761581416,258.0,23.55107307434082,25.3900146484375,-79.78279145309135,40.45901556893705,290.0829580993652,-0.0016308081103488,-0.0091355610638856,-0.9986891150474548,0.0503381341695785,0.0113535635560474,0.0562882159493861,2.980702646905252,-0.0779718309640884,-0.1473545283079147,-0.0915191546082496,0.1379901141207665,0.0525015098042786,-9.808241742253305,14955.0
25.1,1.600000023841858,241.0,23.559837341308597,25.37411117553711,-79.78279148334691,40.45901571640911,290.6893023223877,-0.0010920413769781,-0.0088297938928008,-0.9987099170684814,0.0499941259622573,0.0092341919441583,0.0305829568211164,2.9707536920180284,-0.0543996430933475,-0.0371850691735744,-0.0478762984275817,0.1467348900809884,-0.0319102292507886,-9.77620016992092,14955.0
25.3,1.2999999523162842,233.0,23.51100730895996,25.73989295959473,-79.78279149215098,40.45901573314879,290.98608958435057,-0.0018273527966812,-0.0088698826730251,-0.9987185001373292,0.049794428050518,0.0067725604297755,0.0319138603253109,2.9628033647510965,-0.0448925234377384,0.0149008128792047,-0.0469504818320274,0.0916458046250045,0.1844386502355337,-9.677721948623658,14955.0
25.41,1.2999999523162842,226.0,23.469690322875977,26.209047317504893,-79.78279141387141,40.45901580460476,291.5899103851318,-0.0001479501952417,-0.0075100134126842,-0.99873685836792,0.04968286678195,0.0030534083424449,0.0381170371146228,2.9624430654613017,-0.0436650514602661,-0.074021890759468,-0.0195404030382633,0.1400718233920634,0.0716186524741351,-9.8687575006485,14956.0
25.6,1.2999999523162842,220.0,23.522275924682607,26.21699905395508,-79.78279157035169,40.459015866042215,292.19408023071287,-0.0008303269278258,-0.0065219886600971,-0.998778760433197,0.0489675216376781,0.0248546611761806,0.0393016746020754,2.9920957938195154,-0.0650080144405365,-0.0408840402960777,0.0225986428558826,0.1778766307421028,-0.017708658054471,-9.990371400117876,14957.0
25.7,1.2999999523162842,220.0,23.563594818115234,25.294591903686523,-79.78279159925756,40.45901586594157,292.4937304229736,-0.0016377753345295,-0.0074347211048007,-0.998782515525818,0.0487397462129592,0.0273026942812503,0.0383396636566864,2.9965644478053366,-0.0285319443792104,0.0032265570480376,-0.0232777334749698,0.1446412305627018,0.0613341219071298,-9.838146157264712,14957.0
25.8,1.2999999523162842,218.0,23.5886344909668,24.865196228027344,-79.78279146423506,40.45901594578644,292.7956141204834,-0.0027156590949743,-0.007977788336575,-0.9987914562225342,0.0484224967658519,0.0206243799596115,0.0465129398370207,2.9736085512328425,0.0162260923534631,0.0144449491053819,0.0347018800675869,0.1600567659549415,0.0293040293036028,-9.717992307543756,14957.0
26.1,1.600000023841858,217.0,23.46718597412109,25.779651641845703,-79.7827914713389,40.45901594324323,293.39038073730467,-0.002358031226322,-0.00906219240278,-0.9988126754760742,0.0478076376020908,0.0206606959369232,0.0483723842843781,2.9869846163339275,0.0459368601441383,0.0113322706893086,0.0371020548045635,0.1321101449243724,-0.018337293122895,-9.932611434459687,14958.0
26.2,1.600000023841858,214.0,23.53604888916016,26.10567283630371,-79.78279144761711,40.45901601177758,293.6947020263672,-0.0022292237263172,-0.0095366453751921,-0.9987813830375672,0.0483729764819145,0.0145134196338306,0.0497744808805117,2.9927782439764634,-0.0041035450994968,0.0049985875375568,-0.0544990375638008,0.1555365758948028,0.0160690713766962,-9.920851514339446,14958.0
26.3,1.8999999761581416,213.0,23.51977348327637,24.34037971496582,-79.78279143447705,40.45901609736721,294.29547869873045,-0.0014467453584074,-0.010449893772602,-0.9986713528633118,0.0504420287907123,0.0188680046991159,0.0477176294300619,2.998537016715276,0.0930263698101043,-0.0044267689809203,0.0495483539998531,0.2015900869108736,-0.213414746671915,-9.955255361795428,14959.0
26.5,2.0,214.0,23.559837341308597,24.55507850646973,-79.78279142350101,40.45901611424885,294.596303817749,-0.0004851110861636,-0.0097105456516146,-0.9986600875854492,0.0508292615413665,-0.0061650454152887,0.0418310513665316,3.0182880092038618,-0.0344795733690261,-0.0742730125784874,-0.0102743655443191,0.1476090214122087,-0.1833128236792981,-9.988674538135529,14959.0
26.61,2.0999999046325684,216.0,23.46843910217285,25.5570011138916,-79.78279140245327,40.45901613877998,294.8988913269043,0.0001305779878748,-0.0094859292730689,-0.9986626505851746,0.0508232712745666,-0.0361046426106271,0.0306473541796154,3.030213300868274,-0.0817238390445709,-0.0088500371202826,-0.0994330272078514,0.1957391984760761,-0.2442427842132747,-9.817271597385409,14959.0
26.7,2.299999952316284,221.0,23.46718597412109,24.97652244567871,-79.78279130615203,40.4590162018884,295.50103366088865,0.0020152211654931,-0.0071711717173457,-0.9987216591835022,0.0499976463615894,-0.0359803824662153,0.0357473960256709,3.0116934529860764,-0.0616218335926532,-0.0733278393745422,-0.0180915538221597,0.0957558125071227,0.0001345407776534,-9.813332912921906,14960.0
26.9,2.299999952316284,226.0,23.529788970947266,25.437725067138672,-79.78279110308506,40.45901637211168,296.103664276123,0.0058080037124454,-0.0081904055550694,-0.9988028407096864,0.047875378280878,-0.0539731843615075,0.0162433017366045,2.9955720865931434,0.0053381733596324,-0.0212641637772321,0.0532649233937263,0.0836863188631832,-0.1806297008693218,-9.756278121471404,14961.0
27.1,2.299999952316284,227.0,23.48346328735352,27.314342498779297,-79.78279097365159,40.459016529563606,296.7084864349365,0.0038877744227647,-0.0101426774635911,-0.9988667964935304,0.0463375113904476,-0.0473461237392198,0.0317195491520976,2.9886137714941867,-0.0547461062669754,-0.0602898895740509,-0.0332346782088279,0.1718324187397956,0.1101041670888662,-9.775666903853416,14961.0
27.21,2.299999952316284,233.0,23.3494930267334,27.870967864990234,-79.78279095932585,40.45901655723189,297.00716006469725,0.0030867415480315,-0.0104361716657876,-0.9988549947738647,0.0465872809290885,-0.0343332637234027,0.0284897729031671,2.987888884154918,-0.0090407375246286,0.0361917689442634,0.025986323133111,0.1543884202837944,0.0147212973050773,-9.800003600120544,14962.0
27.3,2.299999952316284,234.0,23.537302017211918,22.948820114135746,-79.78279087261119,40.45901663905421,297.31271922302244,-5.852342837897595e-06,-0.0105014713481068,-0.9988105297088624,0.0476151444017887,-0.0226794822193597,0.0402600201963611,2.9940288177408734,-0.0266725607216358,0.0195393282920122,-0.0343395695090293,0.1966218539513648,-0.1910585754364729,-9.85109189271927,14962.0
27.5,2.200000047683716,242.0,23.40959167480469,24.507368087768555,-79.78279084705923,40.459016681135246,297.909572479248,-0.0029238166753202,-0.0087600033730268,-0.998756229877472,0.0489974357187748,0.0159944995932718,0.0366415965226454,2.9814926425989987,0.1119429394602775,0.0388626605272293,0.0747562050819397,0.2450748247280717,-0.2275712943077087,-9.848616181612016,14962.0
27.61,2.0999999046325684,243.0,23.43838882446289,25.23892974853516,-79.78279077471144,40.459016751344045,298.2169569702148,-0.0029797425959259,-0.008628349751234,-0.9987375736236572,0.0493963286280632,-0.0094800198662885,0.0350038263171498,2.990169808056524,-0.1156769692897796,-0.1080048307776451,-0.0745579153299331,0.0989647187758237,0.161613276489079,-9.76223994255066,14963.0
27.81,2.0,242.0,23.397071838378903,26.320371627807607,-79.78279069251741,40.45901684457217,298.8216990203857,-0.001975575229153,-0.0093396930024027,-0.9987125396728516,0.0498210117220878,-0.0023490479023538,0.0486752219433931,3.005377669434408,-0.0090841017663478,-0.0386699177324771,-0.0007577107753604,0.1343952550739049,-0.1310616477951407,-9.906565597057345,14963.0
28.0,1.8999999761581416,242.0,23.3394775390625,26.63049125671387,-79.7827906687277,40.45901685028822,299.1229323120117,-0.0002451435721013,-0.0090867150574922,-0.998726487159729,0.0496277548372745,-0.0124385517832364,0.0511910245683281,3.0190504117439447,-2.423336354695493e-06,-0.025859136134386,-0.055260881781578,0.2035400785133242,0.1514848483074456,-9.90385599732399,14964.0
28.1,1.600000023841858,237.0,23.453413009643555,25.62856674194336,-79.78279075049834,40.45901688719052,299.73431384277336,0.0038928750436753,-0.0079784486442804,-0.9987934231758118,0.0483011044561862,-0.0111402870814931,0.0645526503220051,3.02513655193722,-0.0757704600691795,-0.0587405301630497,-0.046548094600439,0.1030622008256614,0.0286173514835536,-9.804624654650686,14964.0
28.3,1.7000000476837158,236.0,23.490976333618164,23.89508056640625,-79.78279082105895,40.45901675296831,300.3426359863281,0.0005874934140592,-0.0093016168102622,-0.9988199472427368,0.0476644299924373,0.0050838832374095,0.1020368807323915,3.0029672912552354,-0.1124584823846817,-0.0876397714018821,-0.018717423081398,0.1309620258584618,-0.1159158791787922,-9.725165086984637,14965.0
28.4,1.600000023841858,232.0,23.38329887390137,26.3521785736084,-79.78279084777951,40.459016707717645,300.6418818206787,-0.0013658814132213,-0.009714676067233,-0.998806357383728,0.0478510446846485,0.0323402642953423,0.0988648021839786,2.982020895690776,0.0529782548546791,0.1185954362154007,0.0216924585402011,0.1948616775870323,-0.0334096563421189,-9.65535868763924,14965.0
28.5,1.600000023841858,230.0,23.46843910217285,24.89700508117676,-79.78279086873636,40.45901666666237,300.94003855895994,-0.0029273282270878,-0.0098656360059976,-0.998773992061615,0.0484213046729564,0.0192379712000532,0.1008008836813433,2.976824977056556,-0.116797961294651,-0.058462917804718,-0.0715713873505592,0.1091714996472001,0.1130776498373598,-9.671627395749091,14965.0
28.71,1.600000023841858,226.0,23.413349151611328,25.517242431640625,-79.78279071811556,40.459016844449245,301.2568606109619,-0.0028287700843065,-0.0097346594557166,-0.9987617135047911,0.0487055629491806,0.0276584207678652,0.0814122178873235,2.9786249356225087,0.0939271971583366,0.1024455577135086,0.0730070173740387,0.1364256184827536,-0.1422079939953983,-9.608304973840712,14966.0
28.9,1.600000023841858,220.0,23.402080535888672,26.185192108154297,-79.78279068229223,40.459016870501856,301.8633745880127,-0.0001689561759121,-0.009440173394978,-0.9987830519676208,0.0484081767499446,0.0054521285722153,0.0771573873302592,2.9766341719360487,0.081845723092556,0.0282966643571853,0.0444108806550502,0.1611672435700893,-0.10561573471874,-9.755864138603211,14966.0
29.01,1.5,207.0,23.49347877502441,24.89700508117676,-79.78279064867318,40.45901683998655,302.4628962249756,0.0017775110900402,-0.0080930171534419,-0.9988173842430116,0.0479096285998821,-0.0147616388472908,0.0643676920318814,3.0076905431310186,-0.0119114136323332,-0.0076477504335343,-0.0598107278347015,0.1312953628320247,0.1010204353462904,-9.862921979427338,14967.0
29.2,1.5,202.0,23.490976333618164,24.56303024291992,-79.7827904457463,40.45901694336121,303.0675505371093,-0.0006482588360086,-0.0090400511398911,-0.998798668384552,0.0481574982404708,-0.0415831990500859,0.0554102965804667,3.0140103918111656,-0.1461890339851379,-0.0251200068742036,-0.0444184206426143,0.1689959344267845,-0.1848735368996858,-9.863641186952592,14968.0
29.3,1.2999999523162842,195.0,23.36577033996582,24.87314796447754,-79.78279033571226,40.45901708794197,303.3687132568358,-0.0024102462921291,-0.0086623849347233,-0.9987824559211732,0.0485069416463375,-0.0132217666907794,0.0488741267810884,3.006688047765692,0.0386715419590473,0.0057667307555675,0.0181642789393663,0.1539936418645084,-0.1478751793596893,-9.824665986299513,14968.0
29.5,1.399999976158142,200.0,23.517269134521484,23.227130889892567,-79.78279030069005,40.45901709756193,303.66958415222166,-0.0022669923491775,-0.0081011671572923,-0.9987677335739136,0.0489108189940452,-0.0204543169581938,0.043713921151598,3.0125237771339712,-0.0371212624013423,-0.0958220809698104,-0.0110118631273508,0.1270177134498953,0.017284250697121,-9.8430087018013,14968.0
29.6,1.2999999523162842,196.0,23.39832305908203,26.88494682312012,-79.78279026094215,40.45901710956301,303.9714812011718,-0.0015842125285416,-0.008036614395678,-0.9987614750862122,0.0490765571594238,-0.0234856500278432,0.0359259588551506,3.0224484603828903,0.0233970563858747,0.0748906284570694,-0.0516009107232093,0.1731269740127027,0.1340023952722549,-9.888505886793135,14968.0
29.8,1.2000000476837158,194.0,23.38580322265625,26.23290252685547,-79.78278991579134,40.45901748723769,304.85962283325193,0.0014330928679555,-0.0094260862097144,-0.9987696409225464,0.0486657917499542,-0.0452304295269915,0.0182535700220261,2.9797714810745983,0.0576911196112632,-0.0008028175798244,0.0934825092554092,0.1304549078084528,-0.0127416859008371,-9.735793570876124,14969.0
29.91,1.0,189.0,23.394567489624023,25.827362060546875,-79.78278986125939,40.459017527374016,305.1580237121582,0.001808074535802,-0.0092801991850137,-0.9987927079200744,0.048206128180027,-0.0592656058363539,0.0112853317816102,2.9874957845560988,-0.012831687927246,0.0275596175342798,-0.0345036424696445,0.1284343933034688,0.1458293391019106,-9.858736542463305,14970.0
30.0,1.100000023841858,182.0,23.33572196960449,26.61458778381348,-79.78278980955132,40.459017573966605,305.45733248901365,0.0017503938870504,-0.0102214841172099,-0.998808205127716,0.0476928800344467,-0.0508245237913847,0.0037698494999542,3.001410908929796,0.030848229303956,0.074761115014553,0.0719854533672332,0.1027499960549175,-0.1048559986799955,-9.910965042114258,14970.0
30.21,1.2000000476837158,176.0,23.27061462402344,27.3620548248291,-79.78278963592717,40.45901773114319,306.05374514770506,0.0009812143398448,-0.0105032538995146,-0.9988608956336976,0.0465383753180503,-0.0554763549222176,0.0094530017980833,3.0131246111939194,-0.0466300174593925,-0.0014484102139249,-0.0468592979013919,0.1109883665945381,0.1865181942097842,-9.867285171747206,14971.0
30.3,1.399999976158142,171.0,23.48847198486328,24.12568283081055,-79.78278951503356,40.459017845239245,306.3529280395508,-0.0003241139056626,-0.009321323595941,-0.9988711476325988,0.046578548848629,-0.0350210430916724,0.0136827717851369,3.020565827824228,0.0046411543153226,-0.0365237072110176,0.0491772666573524,0.1573859040252864,-0.1216714031808078,-9.928347644805909,14971.0
30.51,1.5,171.0,23.390811920166016,27.11554908752441,-79.78278944294595,40.45901795727843,306.9560927124023,-0.0003980111796408,-0.006565935909748,-0.9988688230514526,0.0470935627818107,-0.0216619394494724,-0.0182782634464638,3.0083093800155227,0.0679746121168136,0.0268925931304693,0.0033904882147908,0.0913909939303994,-0.0482150073722004,-9.764056087732316,14971.0
30.7,1.600000023841858,173.0,23.40583610534668,25.00832939147949,-79.78278935623287,40.45901817049848,307.5594214172363,-0.0001744319451972,-0.0058175032027065,-0.9987725615501404,0.0491896495223045,-0.011847481571198,-0.0389579000498369,3.0372934918183647,0.0955556482076644,0.0481365248560905,0.1139744371175766,-0.0044408689253032,0.1631171072646975,-9.951556413173677,14972.0
30.8,1.600000023841858,177.0,23.33196449279785,25.040136337280277,-79.78278928562943,40.459018310630505,307.86160647583006,-0.0004711882211267,-0.0065930658020079,-0.9987195134162904,0.0501556321978569,-0.0256482236618084,-0.0272212447641834,3.026022511038102,-0.0425546988844871,-0.0384443290531635,-0.0723061934113502,0.1148298136889934,-0.0085598943103104,-9.81106302380562,14972.0
30.9,1.7000000476837158,176.0,23.265605926513672,27.48928260803223,-79.78278926453362,40.45901836845551,308.1637839050293,-0.0001619116519577,-0.0069334330037236,-0.9986990690231324,0.0505199134349823,-0.0291552885355585,-0.0226476979849166,3.0189068737499247,-0.015721246600151,0.0410131998360157,-0.0268508065491914,0.1126841230876743,0.2153812018409371,-9.75269319355488,14973.0
31.1,1.8999999761581416,175.0,23.469690322875977,24.157489776611328,-79.78278920488566,40.45901853415543,308.7647017211914,-0.0008834709296934,-0.0075923316180706,-0.99869704246521,0.0504582002758979,-0.0265682610027603,-0.0138670320303187,3.0128628382378166,-0.1018825024366378,-0.0747163668274879,-0.0715452134609222,0.127997195161879,0.1493988998048007,-9.7241915255785,14973.0
31.3,2.0,175.0,23.268110275268555,27.06783866882324,-79.7827891864507,40.4590185930572,309.0651701660156,-0.0008484211284667,-0.0072013237513601,-0.998730719089508,0.0498437769711017,-0.0009721930389098,-0.0227379882217252,2.9978130537647067,0.1207152009010315,0.0800509452819824,0.1038142368197441,0.1633848914690315,-0.1565336540713906,-9.732983399033548,14974.0
31.4,2.299999952316284,175.0,23.30692481994629,26.01025199890137,-79.78278909757255,40.459018757256864,309.3675497741699,-0.0003054999106097,-0.0073863267898559,-0.9987765550613404,0.0488971918821334,-0.0336867018835585,-0.027477042487065,2.990495744806132,-0.0782357156276702,-0.104161374270916,-0.0072191818617284,0.1385324799176305,0.053924087123014,-9.804551564455034,14974.0
31.5,2.299999952316284,174.0,23.410844802856445,25.11965370178223,-79.78278904126674,40.45901889180436,309.9661139221191,0.0016058911569416,-0.0062270327471196,-0.998860001564026,0.0473022647202014,-0.0294567731980885,-0.0290084415006282,2.997516717726736,0.0260216165333986,-0.0271803643554449,0.0693146437406539,0.1210231936443597,-0.0742048668209463,-9.839762327671052,14974.0
31.7,2.200000047683716,176.0,23.480958938598643,25.087846755981445,-79.78278901267637,40.45901909834271,310.5710753173828,0.0033385483548045,-0.0048102615401148,-0.9988797307014464,0.0469574481248855,-0.0293461261256687,-0.0424800012557961,3.0053932606507376,0.0333355963230133,0.0179760716855525,0.0428446754813194,0.1300910099968314,0.0160132121946662,-9.81948652267456,14975.0
31.8,2.200000047683716,175.0,23.26685905456543,25.978445053100582,-79.78278893379974,40.45901920659927,310.87432467651365,0.0024279200006276,-0.0054920823313295,-0.9988807439804076,0.0469170175492763,-0.0320704786089903,-0.0304895402920594,3.0101843813886533,-0.0698637440800666,0.0149977151304483,-0.0817823559045791,0.0969009896926582,0.0347819613106548,-9.831783217191695,14975.0
32.01,2.0999999046325684,176.0,23.433380126953125,23.37026405334473,-79.78278893489072,40.45901931615749,311.47858416748045,-0.00130050862208,-0.0062049557454884,-0.9989189505577089,0.046052161604166,-0.0070985631996211,-0.0232695446042619,3.0336330076765523,-0.0602832697331905,-0.042627677321434,-0.0240421369671821,0.1078537199646234,0.0411672852560877,-9.916455577611924,14976.0
32.2,2.0,171.0,23.328208923339844,24.78567886352539,-79.78278885783484,40.45901944917144,312.0834883422852,-0.0047375857830047,-0.0068527241237461,-0.9989175796508788,0.0457647368311882,0.0084392133717886,-0.0127254492345214,3.016837761000017,-0.0589631423354148,-0.0042545087635517,-0.0630496218800544,0.0534412532905116,0.144599888920784,-9.77832621753216,14977.0
32.31,1.8999999761581416,166.0,23.30692481994629,25.95458984375,-79.78278881926614,40.45901955293632,312.388633605957,-0.0051922099664807,-0.0066312034614384,-0.9989053606987,0.0460123717784881,0.0283424459528828,-0.0088413318934129,3.0159498818296484,0.0652493387460708,0.0249196998775005,0.0734174624085426,0.1285783901251852,-0.0809632248524576,-9.80230331003666,14977.0
32.4,1.8999999761581416,164.0,23.420860290527344,24.316524505615234,-79.78278880411294,40.45901959542799,312.6905134887695,-0.0052361548878252,-0.0064921327866613,-0.9988788366317748,0.0466005615890026,0.0079212564318106,-0.0093763166332323,3.022763675802067,-0.0196128282696008,-0.0263672489672899,-0.0419339276850223,0.0866455764323473,0.1005732238478958,-9.848866442441938,14977.0
32.6,1.8999999761581416,156.0,23.417104721069336,24.451704025268555,-79.78278875577215,40.45901975385149,313.30158984375,-0.0023529401514679,-0.0070380372926592,-0.998858630657196,0.047186255455017,-0.005003921944566,-0.001658024006037,3.0404938532775576,-0.0677717104554176,-0.0539920553565025,-0.0704189017415046,0.0950199038721621,0.0021358782425522,-9.860905859470368,14978.0
32.8,1.7000000476837158,153.0,23.46593475341797,23.24303436279297,-79.78278871491891,40.459019922379646,313.91353213500975,0.0004104162217117,-0.0071665910072624,-0.9988672733306884,0.0470395199954509,-0.0177872738100751,0.001752757723915,3.049469506564014,-0.0438610091805458,-0.051249723881483,-0.0802810788154602,0.1526201765891164,-0.1825690943934023,-9.909961659908298,14978.0
32.9,1.7000000476837158,146.0,23.506000518798828,23.40207099914551,-79.78278870444723,40.45901996189762,314.2180670471191,0.0012028275523334,-0.0070738582871854,-0.9988649487495422,0.0470884814858436,-0.0084917012951747,-0.0024865232377611,3.0409936801727486,0.0384055264294147,0.0735930502414703,0.0281807444989681,0.110853432957083,-0.0527155178971588,-9.774469978809355,14979.0
33.1,1.5,145.0,23.407087326049805,24.88905143737793,-79.78278869636978,40.4590200032798,314.52150714111326,0.0006218529888428,-0.0075928471051156,-0.9988599419593812,0.0471257455646991,-0.0176574541634692,-0.0012673128342504,3.032729599441013,-0.0647717416286468,-0.0161414109170436,-0.0291912648826837,0.0281274004932493,0.0180505648534744,-9.720359260439873,14979.0
33.21,1.399999976158142,147.0,23.280630111694336,26.39193725585937,-79.7827886167718,40.45902015938928,315.13099658203123,-0.0007848596433177,-0.0088918171823024,-0.9988232851028442,0.0476713478565216,-0.012998668863796,0.0029463630963013,3.0373641256420303,-0.0432915166020393,0.0217800848186016,-0.0241696890443563,0.0960815937817096,0.2444624019786716,-9.780282111167908,14980.0
33.3,1.399999976158142,144.0,23.320695877075195,24.84134101867676,-79.78278859570516,40.459020236542784,315.43693530273435,-0.0014837859198451,-0.008942799642682,-0.998810350894928,0.0479146689176559,0.0120912066434847,0.0144238973133662,3.0543571548486663,-0.0174391418695449,0.009631454013288,-0.0162772983312606,0.1084939900785684,-0.0545097908377647,-9.909300924539568,14980.0
33.5,1.2999999523162842,146.0,23.38830757141113,24.491464614868164,-79.7827886098127,40.45902031264745,316.05052935791014,-0.0034784497693181,-0.0083400225266814,-0.9988321661949158,0.0474632568657398,0.0218661823143334,0.0039419748280707,3.0819276431329983,0.0378424450755119,-0.0042209159582853,0.0763071775436401,0.1742305080592632,-0.0400212492607533,-9.988192727565766,14981.0
33.7,1.2999999523162842,148.0,23.407087326049805,24.730016708374023,-79.78278850460883,40.45902051412192,316.6661757202148,-0.0026557724922895,-0.0074023916386067,-0.9988102912902832,0.0481272377073764,0.0140885557642086,-0.0044774330787171,3.070189676213215,0.035604178905487,-0.021645437926054,0.0202512014657259,0.0583934840653091,0.2005821731127798,-9.882852798700332,14981.0
33.8,1.2999999523162842,143.0,23.42461585998535,23.91098403930664,-79.78278848898094,40.45902065676442,316.9745367736816,-0.0024685733951628,-0.0078229354694485,-0.9987984299659728,0.0483171194791793,0.0134168544752428,-0.004794801293566,3.0566924747225017,0.0255404654890298,0.056412000209093,0.0069510978646576,0.0746594695653766,0.0042892524506896,-9.658035542964935,14981.0
33.9,1.2999999523162842,140.0,23.42962455749512,23.338457107543945,-79.78278848251973,40.45902070060875,317.2790182800293,-0.0024765382986515,-0.0081191770732402,-0.9987824559211732,0.0485965684056282,0.0067156908573294,-0.003056047664705,3.036591519233058,0.0025741092395037,-0.0218794494867324,-0.0160657931119203,0.1265984315425157,0.1170682740211487,-9.63553019464016,14982.0
34.1,1.100000023841858,134.0,23.368274688720703,25.159412384033203,-79.78278845159986,40.45902086226575,317.8891447753906,-0.000894850003533,-0.009653640910983,-0.9987458586692808,0.0491195432841777,0.0068674608585887,0.0036717406457251,3.005323022750176,0.0191056225448846,0.0562066212296485,0.0101482346653938,0.1381158566661179,0.159017770551145,-9.598234899044035,14982.0
34.3,1.100000023841858,138.0,23.48847198486328,23.473636627197266,-79.78278840795221,40.45902104933442,318.4978750915527,-0.0030834546778351,-0.0109337130561471,-0.9987610578536988,0.0484495535492897,0.0085173061439667,0.0195276936570488,3.009260743786614,-0.0235407818108797,0.0483545884490013,0.0176416542381048,0.1641800762526691,0.093429634803906,-9.69696688950062,14983.0
34.4,1.100000023841858,138.0,23.35575485229492,24.722064971923828,-79.7827884077702,40.45902109333335,318.797813293457,-0.0041761510074138,-0.0105810957029461,-0.9988021254539492,0.0475924387574195,0.0065551951227086,0.0150851630089248,2.9925789983000177,-0.0810427442193031,-0.105569526553154,-0.0323605462908744,0.1363259325921535,0.0487044924125075,-9.65206027328968,14983.0
34.5,1.2000000476837158,139.0,23.443397521972656,23.15556526184082,-79.78278840352961,40.459021144329576,319.09654986572264,-0.0042959107086062,-0.0103283757343888,-0.9988378882408142,0.046880304813385,0.0305501359440784,0.0034625357337664,2.9847021626658186,0.0879164487123489,0.0470210202038288,0.087841160595417,0.1331458786781877,-0.1668211904726922,-9.724741163849831,14984.0
34.7,1.399999976158142,136.0,23.35575485229492,24.66640281677246,-79.78278839155027,40.45902115390446,319.41225421142576,-0.0027960478328168,-0.009066617116332,-0.99887615442276,0.0464383363723754,0.0282344835463918,0.0175361065921559,2.9976172044096536,0.041722759604454,-0.0628803744912147,-0.0212647672742605,0.1677368644438684,0.1240960881952196,-9.68284761786461,14984.0
34.8,1.5,138.0,23.280630111694336,25.652421951293945,-79.78278835757001,40.459021321074594,320.014423248291,-0.0004431952838785,-0.005356672219932,-0.9989436864852904,0.0456360280513763,0.0059845126404054,-0.0092607290809441,3.0009133913580985,0.0317073464393615,0.0364124700427055,-0.0084151737391948,0.1614034345373511,0.0469143582042306,-9.776716479063037,14985.0
35.0,1.5,138.0,23.506000518798828,23.67243003845215,-79.78278835007826,40.45902140509283,320.6160200805664,-0.0015128202503547,-0.0034015583805739,-0.9989903569221495,0.044772058725357,0.0037583448923575,-0.0135874162051754,3.012651276955072,0.0024645368102937,-0.0307475961744785,-0.0001393959828419,0.1277639643475413,-0.0462754585314542,-9.815278866291049,14985.0
35.2,1.600000023841858,136.0,23.30442047119141,25.056039810180664,-79.78278831823604,40.45902157672352,321.21301257324217,-0.002088641282171,-0.0037600800860673,-0.9989617466926576,0.0453544184565544,-0.0034654582326468,-0.0102880441267217,2.998367244141148,-0.0566181503236293,-0.0283920150250196,-0.0407469272613525,0.1785993283241987,-0.1253128846362233,-9.783871716856956,14986.0
35.3,1.7999999523162842,138.0,23.336973190307607,25.54109764099121,-79.78278830434353,40.45902170205039,321.50832354736326,-0.0030174155253916,-0.0048169805668294,-0.998910129070282,0.0463284626603126,0.0178906090204965,-0.0037694257744803,3.0015640438384468,-0.0217417534440755,0.0242085922509431,-0.0613579154014587,0.1349029213003814,-0.0464968030527234,-9.857850104570389,14986.0
35.4,1.7000000476837158,148.0,23.46217918395996,23.115806579589844,-79.78278831155419,40.45902172344277,321.8089255065918,-0.0035831171553581,-0.0055361036211252,-0.9988654851913452,0.0471626222133636,0.0316455180226334,0.0065835357310047,3.006719709317509,0.0470533780753612,0.0579904802143573,0.0261522773653268,0.1504362049978226,0.0118706517666578,-9.80704189360142,14986.0
35.61,2.0,142.0,23.42336463928223,24.077970504760746,-79.78278824507538,40.45902186868376,322.40326678466795,-0.0037737342063337,-0.0047647673636674,-0.9988452196121216,0.0476594530045986,0.0322867451542998,0.0116345981143758,2.9877368608969403,0.0725882276892662,0.0364419519901275,0.0718428567051887,0.1891735975630581,-0.0928960124216974,-9.780738778710363,14987.0
35.8,2.0999999046325684,139.0,23.2856388092041,26.33627510070801,-79.7827882272866,40.45902198306915,322.99612796020506,-0.0023066522553563,-0.0049687447026371,-0.99892395734787,0.0460538081824779,0.0162950452981661,0.0210416211908464,2.963937210386145,-0.0373668894171714,0.0152480024844408,-0.0420391149818897,0.1656994935125112,0.1758067712187767,-9.717794086933138,14987.0
35.91,2.0999999046325684,138.0,23.29690742492676,26.02615547180176,-79.78278823293896,40.459021985185096,323.29283511352537,-0.0026750876568257,-0.0058602886274456,-0.9989219903945924,0.0459733456373214,0.0198451374181992,0.0288470625137102,2.975337596793141,-0.0388844199478626,0.0059398608282208,-0.0259655117988586,0.122331910142675,0.0209272898873314,-9.86814705133438,14988.0
36.0,2.0,136.0,23.42336463928223,24.21315193176269,-79.78278823641462,40.4590219866494,323.591441986084,-0.0045070326887071,-0.0082358941435813,-0.998876690864563,0.0464460551738739,0.0251604052116204,0.030222660678151,2.9934124091687995,0.0006489547085948,0.078787513077259,0.0676267817616462,0.150411820281297,-0.0725142357777804,-9.938793110847474,14988.0
36.21,1.8999999761581416,132.0,23.42336463928223,24.777727127075195,-79.78278818362244,40.45902206260108,324.18338381958006,-0.0059918235056102,-0.0136867500841617,-0.9987615942955016,0.0474565625190734,0.0285402303904211,0.0641629734592341,2.9835825284240176,-0.038242619484663,-0.0402939468622207,-0.052711509168148,0.1722791642881929,0.1424016556050628,-9.746849486231804,14989.0
36.3,1.8999999761581416,131.0,23.30316734313965,24.96857070922852,-79.78278812365964,40.45902214568856,324.4740294189453,-0.0056490120477974,-0.013062066398561,-0.9987632036209106,0.0476403497159481,0.0408577155422212,0.0698365796753957,2.972156818455844,0.0439120270311832,0.0013634498463943,0.0199191719293594,0.1216551406122744,-0.077420945065096,-9.790831072926524,14989.0
36.5,2.0999999046325684,122.0,23.284387588500977,25.44567680358887,-79.78278810276903,40.45902217885227,325.0704802246093,-0.0063159465789794,-0.0088780308142304,-0.9987816810607908,0.0481302998960018,0.0140355354936106,0.0386453963542777,2.9930318155523854,-0.054415289312601,-0.0024966180790215,0.0057663396000862,0.106725316978991,0.1907256130501628,-9.903489961624146,14990.0
36.7,2.0999999046325684,126.0,23.369525909423828,24.077970504760746,-79.78278807201781,40.45902231324303,325.66488635253904,-0.0052045392803847,-0.0049320347607135,-0.998830795288086,0.0478086695075035,0.0360576505570465,1.3579421130449632e-05,2.9969346058220934,0.1313892155885696,0.0213673710823059,0.0841512531042099,0.0821136736683547,-0.1041537663526833,-9.927516170740128,14990.0
36.81,2.200000047683716,128.0,23.415851593017567,23.91098403930664,-79.78278801608337,40.45902242191934,325.9603842468261,-0.0039260634221136,-0.0043754316866397,-0.9988452196121216,0.0476830303668975,0.0055765125374793,-0.0018171416793196,2.9882143312107803,-0.0551926493644714,-0.0375045239925384,-0.0551002025604248,0.0428365282807499,0.3209476737678051,-9.755448986291889,14990.0
36.9,2.200000047683716,124.0,23.31819152832031,25.01628112792969,-79.78278800472418,40.45902244942658,326.258506652832,-0.0032320213504135,-0.0039231763221323,-0.9988474845886228,0.0477282293140888,0.0167717514495017,-0.0053405446932528,2.9743420144530703,0.0286564175039529,0.0320911444723606,-0.0330819711089134,0.0564506096206605,-0.0619745473377406,-9.716730478405951,14991.0
37.1,2.299999952316284,120.0,23.341981887817383,23.93483924865723,-79.78278790205258,40.45902259522904,326.84802615356443,-0.0018743495456874,-0.0031088360119611,-0.9988788366317748,0.0472024753689765,0.0067210796746917,-0.006780472967471,2.9633006152224737,-0.0099369576200842,-0.0380706787109375,-0.0183410849422216,0.0489797272486612,0.1557190272957086,-9.76410988211632,14991.0
37.2,2.299999952316284,122.0,23.43713760375977,23.86327362060547,-79.78278789711909,40.45902261774541,327.14396655273435,-0.0013370848027989,-0.0035973787307739,-0.9988964796066284,0.0468095205724239,0.0106318890735878,-0.0106253599219716,2.9531818742404683,0.0366928428411483,0.0985233858227729,0.0348359048366546,0.1137241052091121,0.0129934633523225,-9.747970982193946,14992.0
37.4,2.5,129.0,23.35825729370117,23.91098403930664,-79.78278782508735,40.459022755302016,327.4408186645508,-0.0027946063783019,-0.0044851680286228,-0.9989065527915956,0.0464528165757656,-0.0032234774849381,-2.307085938932537e-05,2.9606691883194967,-0.0888334661722183,0.0113536240532994,0.0128838391974568,0.0750397989666089,0.1795684677734971,-9.762809461355207,14992.0
37.6,2.5,125.0,23.185474395751957,26.550973892211918,-79.78278782521981,40.45902279555644,328.0332182617188,-0.0062906011007726,-0.0043991096317768,-0.9988806247711182,0.0466754250228405,0.0252353520453248,0.0022032799095636,2.9591666190821004,-0.0145086785778403,-0.0306306052953004,-0.0106011489406228,0.0871636671479791,0.1440080776065588,-9.796949014663696,14993.0
37.71,2.5999999046325684,121.0,23.321949005126957,23.27484130859375,-79.78278777298769,40.4590229503326,328.6298559875488,-0.0078766699880361,-0.005855924449861,-0.9987159371376038,0.0497010163962841,0.0312230384393566,-0.0097843496437719,2.997797040481826,-0.0555902160704135,-0.0388718396425247,-0.0318317711353302,0.0452127499273046,0.0989388174377382,-9.944135127067566,14993.0
37.8,2.700000047683716,121.0,23.2856388092041,25.517242431640625,-79.78278773464949,40.45902305991927,328.926288482666,-0.0087925633415579,-0.0081523796543478,-0.9986229538917542,0.0510744266211986,0.040556539433525,-0.007638087120232,2.9837153145509547,0.0626778379082679,0.1026533022522926,0.0189560409635305,0.1089349980466067,0.0648315151780843,-9.775944646596908,14993.0
38.0,2.799999952316284,124.0,23.336973190307607,24.78567886352539,-79.78278769523892,40.45902313844744,329.5212057800293,-0.0079196272417902,-0.0070331743918359,-0.9986091852188108,0.0516493655741214,0.0209011224355547,0.002832570004336,2.968365190788029,-0.0087258573621511,-0.0546567030251026,-0.0343767069280147,0.0634940833691507,0.2593150606378913,-9.737041951417924,14994.0
38.2,2.700000047683716,123.0,23.42962455749512,22.74207305908203,-79.78278776450439,40.45902324024024,329.8172339172363,-0.0047410516999661,-0.0040979944169521,-0.9987074732780457,0.0504400692880153,0.0489984468004076,0.0011525886713315,2.96207963839061,0.1108961477875709,-0.0300550181418657,0.0964116752147674,0.1042631732393056,0.0179368890426121,-9.784762247800828,14994.0
38.31,2.799999952316284,122.0,23.260597229003903,27.179162979125977,-79.78278775789315,40.45902327546835,330.1133993835449,-0.0027120718732476,-0.0021481087896972,-0.99882173538208,0.0484076850116252,0.0147419739635723,-0.0127755284153734,2.9585050584787926,-0.0201453045010566,-0.0940556973218917,0.0048422184772789,0.052273281100206,0.0439731995947659,-9.738400844335557,14995.0
38.4,2.799999952316284,122.0,23.23931312561035,24.9924259185791,-79.78278767035053,40.45902344453543,330.7029265136718,-0.0028663710691034,-0.0016513977898284,-0.9989712238311768,0.045229073613882,-0.0035771629224672,-0.0234205435508419,2.946369004471587,-0.0449145846068859,0.0296384431421756,0.0376860275864601,0.0853384222369641,0.1625132360681891,-9.828080760240557,14995.0
38.61,2.799999952316284,124.0,23.35825729370117,24.51531982421875,-79.78278756903026,40.45902360769698,331.2956618041992,-0.0043120770715177,-0.0030079435091465,-0.9989895224571228,0.0446355603635311,0.0164298026516202,-0.0111909744067959,2.9594742425618668,0.0670161843299865,-0.0008005544077605,0.0600201301276683,0.1010950512997806,0.0898440947569906,-9.809254480004313,14996.0
38.71,2.700000047683716,123.0,23.29690742492676,25.23892974853516,-79.78278755640302,40.45902362759177,331.59158694458006,-0.0048119318671524,-0.0034602568484842,-0.998953342437744,0.0453570336103439,0.0047455277561939,-0.0056935726601552,2.9610032058200164,-0.0513375364243984,0.0548759400844574,-0.0679514557123184,-0.0067207896709442,0.2889443641528487,-9.781280815601349,14996.0
38.9,2.799999952316284,123.0,23.28313446044922,25.22302627563477,-79.78278747092463,40.45902377252251,332.18243014526365,-0.0030963052995502,-0.0056151477620005,-0.9988572001457214,0.0473626069724559,0.0173557987075461,0.0088444489816451,2.959492273448648,0.0240290164947509,0.0187068991363048,0.0261043906211853,0.111898677572608,0.0412701871152967,-9.772681315541268,14997.0
39.1,2.700000047683716,120.0,23.363265991210927,23.903032302856445,-79.78278745988901,40.45902378996534,332.47833239746086,-0.0026268905494362,-0.0057192821986973,-0.9988271594047546,0.0480072237551212,0.0085225839396802,0.0167023555620827,2.960713690287814,-0.0136478319764137,-0.045124527066946,-0.0321780927479267,0.1789794704318046,0.0944057178217917,-9.822113091945653,14997.0
39.2,2.700000047683716,118.0,23.22804450988769,26.59868431091309,-79.78278741526212,40.45902390348975,332.77194201660154,-0.0030956673435866,-0.0048752212896943,-0.9988256692886353,0.0481041744351387,0.0062593427031324,0.017822765222895,2.9550477208254256,-0.0459951907396316,0.006885724607855,0.0275755450129508,0.1232047349866479,0.1011236752476543,-9.775761628746986,14997.0
39.3,2.799999952316284,114.0,23.19173622131348,25.75579643249512,-79.78278732041433,40.45902403670391,333.363242980957,-0.0068403845652937,-0.0066423313692212,-0.9988510012626648,0.046967078000307,0.0213258783257291,0.0196206303298833,2.9638705083635224,-0.0335372611880302,-0.0560349263250827,0.0010835010325536,0.1008619575295597,0.0523710072599351,-9.891824766397477,14998.0
39.51,2.900000095367432,107.0,23.288143157958984,24.47555923461914,-79.78278731108038,40.45902406303348,333.9570921630858,-0.0032262322492897,-0.0070241610519587,-0.9989485144615172,0.0451908931136131,0.0253550158213101,0.0232565768315023,2.963206391033008,-0.0213898569345474,-0.0265400856733322,-0.0257478635758161,0.1366077501140535,0.3109436359629035,-9.751036092638971,14998.0
39.6,2.799999952316284,103.0,23.29315185546875,24.45965576171875,-79.78278722389929,40.45902417299804,334.2487333984375,-0.0026063257828354,-0.0071136597543954,-0.998970627784729,0.0447252392768859,0.0255263294019806,0.026007477001801,2.9403244985283763,0.0021515216212719,0.0136914569884538,0.0120942452922463,0.0952229484356939,-0.038691619830206,-9.65876819908619,14999.0
39.81,2.799999952316284,97.0,23.17545890808105,24.73796844482422,-79.78278713722769,40.45902427037753,334.8375128479004,-0.0073515069670975,-0.0095306131988763,-0.9988800287246704,0.045758381485939,0.0225965832217334,0.0426376905651598,2.957649950744158,-0.0718059763312339,0.0394732356071472,-0.0775190219283104,0.1660280339419841,0.1489119181036949,-9.95702472925186,14999.0
40.0,2.799999952316284,94.0,23.25934600830078,24.952667236328125,-79.78278713178791,40.45902427678547,335.13452136230467,-0.0094003500416874,-0.0103109208866953,-0.9988096952438354,0.0467397049069404,0.0420271798366941,0.047641518049085,2.9824769751117564,-0.0203504357486963,-0.0187188033014535,0.0442183464765548,0.2202862848713994,0.0495654675085097,-10.040360416173936,15000.0
40.11,2.700000047683716,87.0,23.234304428100582,26.04205894470215,-79.78278706634103,40.459024398745726,335.7323759765625,-0.0081982119008898,-0.0100072911009192,-0.9987853765487672,0.0475439056754112,0.0539605826214526,0.0486509615647658,3.0179740231619965,0.0664596259593963,0.0566842146217823,0.0459483414888382,0.2074606548808515,0.2149619382061064,-10.071210325956343,15000.0
40.2,2.5999999046325684,85.0,23.30316734313965,23.23508262634277,-79.78278705168641,40.45902441243656,336.03484713745115,-0.0055443965829908,-0.0103538772091269,-0.9987944960594176,0.0476625747978687,0.036558312223735,0.0421858423715196,3.0292667564296645,0.0488481558859348,-0.0222266297787427,-0.0103248329833149,0.1935256984457373,0.1686637212149798,-9.908206325769426,15001.0
40.41,2.5,80.0,23.29189872741699,24.96857070922852,-79.78278701138514,40.4590245114403,336.6314772338867,-0.0043856087140738,-0.010798992589116,-0.9987781643867492,0.0480261780321598,0.0163738539116803,0.0508723832511148,2.9928931513547274,-0.0306480210274457,0.0468928776681423,-0.0530891083180904,0.1174320165161043,0.2300574938580394,-9.674614738225936,15001.0
40.6,2.400000095367432,80.0,23.19048309326172,25.73194122314453,-79.78278700454622,40.459024524258325,336.93004595947264,-0.004497941583395,-0.0110084656625986,-0.9987630248069764,0.0482817627489566,0.021661956215499,0.0488642909458005,2.979092441232735,-0.0309157874435186,-0.0518174320459365,-0.016342194750905,0.1300306740403175,0.0058432870544493,-9.663600922822951,15001.0
40.71,2.299999952316284,78.0,23.2568416595459,25.27868843078613,-79.7827869143364,40.459024655651774,337.2263563842773,-0.0042543108575046,-0.0110877538099885,-0.9987725615501404,0.0480877123773098,0.0308851233868025,0.0416031029060462,2.960999552305731,0.0985255017876625,0.0740441977977752,0.0832012817263603,0.1963832692801952,-0.0234283130429685,-9.67221328675747,15002.0
40.8,2.200000047683716,78.0,23.30066299438477,23.147613525390625,-79.78278684310223,40.45902477283587,337.8233488769531,-0.0035454125609248,-0.0087543604895472,-0.998808741569519,0.0478749573230743,0.0214885984965248,0.0341844938297599,2.9615879907167786,0.0596521832048893,0.0809346213936805,0.0251104086637496,0.169860993437469,-0.0150743594951927,-9.745381835103036,15002.0
41.01,2.0,78.0,23.152921676635746,26.66229820251465,-79.78278682202121,40.45902481880688,338.411453125,-0.0033808723092079,-0.0079640755429863,-0.9988090395927428,0.0480183698236942,0.0186096645940108,0.0196017099381846,2.9200674790868164,0.0137684559449553,-0.0083932476118206,-0.0097832661122083,0.1478096357267349,-0.1441886834800243,-9.642053348422053,15003.0
41.1,1.8999999761581416,79.0,23.205507278442383,24.97652244567871,-79.78278671456158,40.45902492965174,338.70912158203123,-0.0034655111376196,-0.008256796747446,-0.9987950921058656,0.0482529364526271,0.0056884852510973,0.0222774723269558,2.931192755949777,-0.0044886707328259,0.0049492791295051,0.0445389524102211,0.196488866340369,0.1110779294930398,-9.755494594573976,15003.0
41.31,1.8999999761581416,82.0,23.165441513061523,25.596759796142567,-79.78278661109098,40.459025065415545,339.3010710449218,-0.0042843152768909,-0.0094813182950019,-0.998775839805603,0.048360988497734,0.0134983013263632,0.0355453871631573,2.9417223217512687,0.0023499121889472,0.0501100197434425,0.0258271861821413,0.2000619353726506,0.0535817280784249,-9.817333577871324,15004.0
41.5,1.7999999523162842,83.0,23.25058174133301,24.30857276916504,-79.78278658326451,40.45902509993299,339.8901823730468,-0.0031488831155002,-0.0111110266298055,-0.9987776875495912,0.0480610467493534,0.0193664836459337,0.0364582875955145,2.9465588922991763,0.0722101852297782,0.0188010688871145,0.081808753311634,0.1844554975256324,0.1128502296935766,-9.81521337747574,15004.0
41.61,1.7000000476837158,82.0,23.27311897277832,23.96664619445801,-79.78278653263456,40.45902522880039,340.1843718261718,-0.0027240640483796,-0.0122216492891311,-0.9987677931785583,0.0480226017534732,0.0052967634289985,0.0376600215591547,2.942775278904254,-0.0784790068864822,0.0353769697248935,-0.0571265183389186,0.1237909366283565,0.3228943214938045,-9.748780236840249,15005.0
41.7,1.7000000476837158,84.0,23.22428894042969,25.98639678955078,-79.78278652880965,40.45902525371611,340.47740924072264,-0.0049594342708587,-0.0120954774320125,-0.998773157596588,0.0477650798857212,0.0200067084466424,0.0414079760659526,2.9177841390727965,-0.0475518554449081,-0.0396452657878398,-0.00939716771245,0.1249047215748578,-0.116822709236294,-9.605256235599516,15005.0
41.92,1.7000000476837158,82.0,23.1103515625,26.16133689880371,-79.78278643750252,40.45902539858244,341.0654600830078,-0.0087291374802589,-0.0080600976943969,-0.998830497264862,0.0468680895864963,0.0280421211072794,0.0302089282552276,2.926582200168754,-0.0165208429098129,-0.057961743324995,-0.0371414870023727,0.162063055280596,0.0530514678452164,-9.882213113307952,15006.0
42.1,1.7999999523162842,80.0,23.29315185546875,24.157489776611328,-79.78278642384085,40.45902542389967,341.3590697021484,-0.0081544471904635,-0.0074599762447178,-0.998846471309662,0.0467306599020958,0.0247224199475745,0.0211657303159449,2.9436882186353297,-0.0345159582793712,-0.0156464651226997,0.0006555456784553,0.091503105154261,0.1932525055669249,-9.893024615049365,15006.0
42.2,1.7999999523162842,75.0,23.209264755249023,25.06399154663086,-79.78278628336967,40.45902556205961,341.9517897338867,-0.0042159860022366,-0.0080679943785071,-0.9988536834716796,0.0469948910176754,-0.0002971295905134,0.0215401089444263,2.956895164514288,-0.0095844911411404,0.0397615171968936,-0.0969580337405204,0.1123230392485857,0.2051987143233418,-9.784043040275574,15006.0
42.3,1.7000000476837158,76.0,23.181718826293945,24.06206703186035,-79.78278618267977,40.45902576250296,342.2496641845703,-0.0041816509328782,-0.0091800289228558,-0.9988340735435486,0.0472109913825988,-0.0122342693937836,0.0096765892326412,2.9488503280708063,-0.0588982291519641,-0.035826064646244,0.000812919519376,0.1486962746176868,0.0086915297526866,-9.724827117919922,15007.0
42.51,1.7000000476837158,79.0,23.59113883972168,19.720399856567383,-79.78278609044503,40.45902584074771,342.8315733642578,-0.0065225940197706,-0.0101072862744331,-0.9987911581993104,0.0476605743169784,-0.0104416260853615,0.0128736602431762,2.8380307076727385,-0.0034272561315447,-0.0451208539307117,-0.0273166485130786,0.1747638472169637,0.205021141692996,-9.066116055250168,15007.0
42.6,1.7999999523162842,81.0,23.526033401489247,20.17365074157715,-79.78278600523122,40.459025972841104,343.1162489624023,-0.0053085116669535,-0.0096996240317821,-0.9987966418266296,0.0477818436920642,-0.012607958896062,0.0186255640054437,2.742563583899053,-0.0030202511698007,-0.0444758906960487,-0.0289909504354,0.1248486339859664,0.2401978083327413,-8.764896156191826,15008.0
42.8,1.7999999523162842,82.0,23.61117172241211,19.22739028930664,-79.78278594349756,40.45902619600693,343.638748046875,-0.0038664313033223,-0.0109645463526248,-0.9987846612930298,0.0478964820504188,-0.013612407886025,-0.0141992972159349,2.4992480967993504,-0.0075416234321892,0.0296344831585884,0.0032483886461704,0.1517724308185279,0.0431718386895954,-8.448865844607353,15008.0
43.0,1.600000023841858,85.0,23.55858612060547,19.95895195007324,-79.78278590891225,40.45902625624417,343.8813551635742,-0.0019367350032553,-0.011906505562365,-0.9987967610359192,0.0475343763828277,-0.0076706385551871,-0.0148580823183672,2.355598823016253,0.1026351675391197,0.0552815683186054,0.0342533737421035,0.1831637927703559,-0.0923931427393108,-8.412071655392648,15008.0
43.1,1.7000000476837158,89.0,23.51601600646973,20.26907157897949,-79.78278582959359,40.45902649998435,344.3311384887695,0.0030632831621915,-0.0104120662435889,-0.998818039894104,0.0473802201449871,-0.0410671151949166,-0.0245932809343109,2.134763111659052,-0.0595104321837425,-0.0547933727502822,-0.0110578583553433,0.1007302489969879,-0.0381550464313477,-8.641173166036607,15009.0
43.2,1.7000000476837158,88.0,23.52352905273437,19.919193267822266,-79.78278580193366,40.45902657404446,344.5393828125,0.0005968744517304,-0.0103127108886837,-0.9988358020782472,0.0471210777759552,-0.0418955179955564,-0.0374860917873784,2.033807514762948,-0.1037244722247123,-0.0177887827157974,-0.0450252890586853,0.1184497061278671,0.0650260173249989,-8.752663781046868,15009.0
43.4,1.600000023841858,85.0,23.526033401489247,21.58906555175781,-79.78278568730167,40.45902684119526,344.93695056152336,-0.0032597214449197,-0.008174885995686,-0.9988622069358826,0.0468723848462104,-0.019197181990519,-0.0480176944775396,1.8733353124290053,-0.0644919499754905,-0.0696448981761932,-0.0300223492085933,0.0929907555878162,0.220737415831536,-8.862732937932014,15009.0
43.5,1.7000000476837158,83.0,23.46468162536621,22.11388397216797,-79.78278567107576,40.45902691840835,345.1203001708984,-0.0038459084462374,-0.0070677404291927,-0.998874306678772,0.0467488281428813,-0.0093974654943822,-0.0544334389160564,1.8050237576973407,-0.0123343104496598,-0.0336446426808834,0.0010438270401209,0.0971076339483261,0.024009174532257,-9.079783921837809,15010.0
43.71,1.7000000476837158,83.0,23.56234169006348,19.97485542297364,-79.78278558872977,40.45902711405942,345.3193892211914,-0.0039838161319494,-0.0058652525767683,-0.9988861680030824,0.0466513223946094,-0.0067555526951031,-0.0584072231622541,1.7860871406617125,-0.0023212621454149,-0.0296402368694543,-0.0273556169122457,0.1226949308719486,0.027370286565274,-9.170050898194312,15010.0
43.9,1.7000000476837158,92.0,23.33196449279785,22.86134910583496,-79.7827855365602,40.45902737889568,345.8634947509765,-0.0034560586791485,-0.0009478938882239,-0.998918890953064,0.0463495552539825,0.002064721844078,-0.0467413257389983,1.6405198666707617,0.0345579721033573,-0.0001802338811103,0.0207561384886503,0.1499716163054108,-0.0068272592453286,-9.099691352248191,15010.0
44.0,1.7000000476837158,87.0,23.68379211425781,18.69462013244629,-79.7827855277705,40.45902743282696,346.02535998535154,-0.0031911379192024,-0.0008440666715614,-0.998921275138855,0.0463189445436,0.0047179012249398,-0.0392226605935507,1.591566307906259,0.0334161296486854,0.0133453644812107,-0.0114953415468335,0.1292888725083321,-0.0790861133113503,-9.239939158558846,15011.0
44.1,1.7000000476837158,80.0,23.55858612060547,20.777984619140625,-79.78278550433464,40.45902756655428,346.2238157958984,-0.0033857463859021,-0.0009515439742244,-0.9989120960235596,0.046501662582159,0.012606576316962,-0.0334390765758047,1.5664751160589738,0.0317471958696842,0.0425930581986904,0.0413821786642074,0.1368417118303478,-0.0868979020603001,-9.05320715725422,15011.0
44.3,1.5,85.0,23.45466613769531,22.0105094909668,-79.78278541487566,40.45902779080868,346.56214892578123,-0.0036686707753688,-0.0021266040857881,-0.9988805055618286,0.0471141152083873,0.0086043010833366,-0.0176090663308049,1.4872092886108916,0.0017760612536221,-0.0031733836513012,-0.035231877118349,0.1285758319683373,0.0414947567414492,-9.170059669017792,15011.0
44.5,1.5,79.0,24.571495056152344,9.39104461669922,-79.78278540958625,40.459027816682,346.84259783935545,-0.003980794455856,-0.006500644609332,-0.9987979531288148,0.0484213791787624,0.0062342260980301,-0.0004172980127153,1.207742471347032,0.0148275764659047,0.0738754048943519,-0.0653714537620544,0.1115420522354543,-0.035987072456628,-9.172562862038614,15011.0
44.6,1.5,72.0,23.702571868896484,17.350770950317386,-79.7827852146975,40.45902798903732,346.9844588012695,-0.0039780880324542,-0.009128188714385,-0.9976029992103576,0.0684775486588478,-0.0352632626870279,-0.0077642232272302,0.9550092628213536,0.010606775060296,0.0327060744166374,-0.78196120262146,0.0842203249689191,-0.2300576948560774,-7.138966162204742,15011.0
44.71,1.399999976158142,72.0,23.646228790283203,19.00473976135254,-79.78278515690752,40.4590280118371,347.0684126586914,-0.0035697775892913,-0.0090146735310554,-0.99351567029953,0.1132817789912223,-0.0493714906203526,-0.0080590992342676,0.7384472711321505,0.0502482093870639,-0.0133876213803887,-1.0089164972305298,0.0943554865848273,-0.0907384263910353,-7.594341470003129,15012.0
44.91,1.2000000476837158,76.0,23.46593475341797,22.28087043762207,-79.78278481110087,40.45902819050696,347.1581114501953,0.0009098336449824,-0.006846921518445,-0.9726318717002868,0.2322488725185394,-0.0739802312957611,-0.0212603691663409,0.4808931464113466,0.0374076701700687,0.0207689441740512,-1.3399949073791504,0.0337847460899502,-0.038949048067443,-8.640824671983719,15012.0
45.0,1.2000000476837158,79.0,23.53229331970215,20.865455627441406,-79.78278475593558,40.459028234078616,347.2012709350586,0.002742409473285,-0.007012294139713,-0.956095814704895,0.2929576337337494,-0.071970583965788,-0.0221133125254972,0.4226346256966829,0.0458438619971275,-0.0151733364909887,-1.5293805599212646,-0.0071682489907834,0.0523382993973791,-9.073178907036784,15012.0
45.21,1.0,67.0,23.54857063293457,20.20545768737793,-79.78278451526923,40.4590283397501,347.210525390625,0.0046426863409578,-0.0068929912522435,-0.9315828680992126,0.3634339869022369,-0.0709276709111762,-0.0229098294332313,0.3923750393032659,0.0591923333704471,-0.0215819887816906,-1.5063990354537964,0.0815036720316857,-0.0542432674393057,-9.391259837150574,15012.0
45.4,1.0,58.0,23.51601600646973,20.77003288269043,-79.78278411450881,40.459028440391,347.242149230957,0.0075237266719341,-0.0045081390999257,-0.864333987236023,0.5028419494628906,-0.0443196029995386,-0.0173470699410946,0.3408348399032147,0.1226069182157516,0.0293466541916132,-1.5924900770187378,0.0163052897527813,-0.0455208753515034,-9.564404078722,15012.0
45.5,1.0,60.0,23.583627700805664,20.54738426208496,-79.7827841262893,40.45902851987461,347.3071745605468,0.0102637596428394,0.0007870526751503,-0.7734749317169191,0.6337433457374573,-0.027982548603096,-0.0291461816476772,0.2991135803952353,0.0316673144698143,-0.0351455956697464,-1.617703557014465,-0.0376319695939309,0.1343248052615672,-9.53376700758934,15012.0
45.61,0.8999999761581421,62.0,23.43588447570801,22.26496696472168,-79.78278372680784,40.45902844197446,347.3036650390625,0.0113350180909037,0.0028919100295752,-0.7215284705162048,0.69228595495224,0.0018647172470439,-0.0230696710278614,0.2909947208259645,0.0226296540349721,0.0042876144871115,-1.4365471601486206,0.0249378151609562,0.2668070980533957,-9.5470425260067,15012.0
45.81,0.8000000119209291,50.0,23.58613204956055,21.33460998535156,-79.78278336628405,40.459027941972366,347.4088820190429,0.012131106108427,0.0054589896462857,-0.6350961923599243,0.7723184823989868,0.0990538476247021,-0.0185249030565427,0.3505358502208759,-0.022131172940135,-0.0088744834065437,-0.9079018831253052,0.1205388705991208,0.2378360813856125,-9.691309123635293,15012.0
45.9,0.8000000119209291,47.0,23.368274688720703,22.88520622253418,-79.78278337602309,40.459027823509686,347.4425963134765,0.011680532246828,0.0064765135757625,-0.6062132120132446,0.7951900362968445,0.1436456716103019,-0.0279974875011839,0.3381526261146762,0.0721431747078895,-0.0187916979193687,-0.5635525584220886,0.0206341936346143,0.1393786268401891,-9.699100538492203,15012.0
46.1,0.8999999761581421,56.0,23.189231872558597,25.80350685119629,-79.78278316639258,40.45902747615063,347.4196013183593,-0.0050882375799119,0.0111208371818065,-0.5777051448822021,0.8161539435386658,0.1892910398689461,0.0293074817526837,0.4016867915672517,-0.1524188965559005,-0.5552541017532349,-0.28227898478508,0.5368876866996288,0.1502768044173717,-10.412117031812668,15012.0
46.3,1.0,66.0,23.410844802856445,22.33653259277344,-79.78278302814131,40.45902730880122,347.4632185668945,-0.0301980748772621,0.0232513938099145,-0.5736410021781921,0.8182196617126465,0.218837723033222,0.0777993138448914,0.471522066180243,-0.1158223673701286,-0.562061607837677,-0.0755515173077583,0.3454363610967993,0.1067409400083124,-10.459528595209123,15012.0
46.41,1.0,72.0,23.35074615478516,25.262784957885746,-79.78278277084357,40.459027107075,347.3963621826172,-0.0528143718838691,0.0372744984924793,-0.5742787718772888,0.8161036372184753,0.2505770453280455,0.1413819073932217,0.4647747184917061,-0.0358286313712596,-0.5347357392311096,0.0033798853401094,0.0574693407677114,0.1080271812714636,-10.282534546852114,15012.0
46.6,1.0,69.0,23.288143157958984,25.80350685119629,-79.7827818436903,40.45902686707609,347.4912260742188,-0.0807624533772468,0.058865949511528,-0.580873966217041,0.8078351616859436,0.2622770270907086,0.4055232699297633,0.5871917021889754,0.1279043853282928,-0.1476952284574508,0.1624947339296341,-0.0595558191742748,-0.060599209126085,-10.356464402675629,15012.0
46.7,1.2000000476837158,79.0,23.315689086914062,23.147613525390625,-79.78278011348569,40.459026806087365,347.486045715332,-0.0955028384923935,0.064459279179573,-0.589270293712616,0.7996779084205627,0.2204794808017793,0.7810615064746567,0.7393714835051375,-0.1011180207133293,-0.0787437111139297,0.0338623560965061,-0.0488568352209404,0.1805276304110884,-10.478884048461914,15012.0
46.9,1.2999999523162842,82.0,23.380794525146484,23.680383682250977,-79.7827789078391,40.459026865435725,347.433311340332,-0.099519096314907,0.0650976374745369,-0.5929005742073059,0.796446681022644,0.2089223568292341,0.9871130193140276,0.7736342376482485,0.0033093967940658,-0.0365689620375633,0.0479407683014869,-0.081196208987385,0.1139730686880648,-10.325408670902252,15012.0
47.1,1.600000023841858,84.0,23.230548858642567,24.55507850646973,-79.78277568845883,40.45902727616247,347.5417021484375,-0.1043033227324485,0.0658558085560798,-0.5977743864059448,0.7921172976493835,0.1409326969324032,1.430634574381236,0.924637533260802,-0.109954722225666,-0.0821071788668632,-0.0295752361416816,-0.1539339454472065,0.0158023378439247,-10.186084724664688,15012.0
47.2,1.7000000476837158,85.0,23.47970771789551,22.034364700317383,-79.78277161456808,40.459028069370106,347.54670703125,-0.1076623797416687,0.0678884387016296,-0.5996590852737427,0.7900689840316772,0.0712577026259559,1.8549143242982165,1.033788751510032,0.0173017848283052,-0.0670664831995964,0.0759906992316246,-0.1511930996552109,-0.0274870481528341,-10.255811601877213,15012.0
