time,wind_speed,wind_angle,battery_voltage,battery_current,position_x,position_y,position_z,orientation_x,orientation_y,orientation_z,orientation_w,velocity_x,velocity_y,velocity_z,angular_x,angular_y,angular_z,linear_acceleration_x,linear_acceleration_y,linear_acceleration_z,node_ids
0.0,2.0,234.0,23.17545890808105,0.1828908026218414,-79.7827954083794,40.45904428062214,267.2680672907829,-0.0042955162934958,0.0121620772406458,-0.7902438640594482,0.6126567721366882,-5.05741867378183e-05,-0.0007659148381878,0.0132090269931737,0.0007994238985702,-0.0001847361563704,0.0060127298347651,-0.2405722676776349,-0.0801399186160415,-9.805685924291607,14932.0
0.19,2.0,232.0,23.177963256835927,0.1510837078094482,-79.78279533551981,40.45904426650929,267.27763729333884,-0.0043155942112207,0.0121625903993845,-0.7902424335479736,0.6126584410667419,-0.0054570877062153,0.0030198958724654,0.0080687945933952,0.0024815551005303,0.002451793057844,0.0019408502848818,-0.2426105522364378,-0.0801387034915387,-9.8031371229887,14932.0
0.29,1.8999999761581416,229.0,23.181718826293945,0.2146978974342346,-79.78279532007673,40.45904421368119,267.28940956830985,-0.0042895921505987,0.0121677722781896,-0.7902417778968811,0.6126593947410583,0.0022579675858478,-0.0013760707608174,0.0095434367653526,-0.0023655891418457,0.0008702443446964,0.0019092091824859,-0.2398202061094344,-0.080604680897668,-9.803984384536744,14932.0
0.49,1.8999999761581416,232.0,23.184223175048828,0.1828908026218414,-79.78279532423474,40.45904420983887,267.291362067461,-0.0042895921505987,0.0121677722781896,-0.7902417778968811,0.6126593947410583,0.0026734204153244,-0.0014791345983584,0.0100450820780717,-0.0048185372725129,-0.0033302293159067,0.0017380136996507,-0.2393624604865909,-0.0795433929841965,-9.805616927146913,14932.0
0.59,1.7000000476837158,233.0,23.18297004699707,0.1669872552156448,-79.78279528497981,40.45904419535565,267.3033022785187,-0.0043006036430597,0.0121594155207276,-0.7902424931526184,0.6126585006713867,-0.0026351645522922,-0.0017386985167891,0.0105470777261927,-0.000507996417582,0.0001456967729609,-0.0008909472962841,-0.2411763033270836,-0.0764459492638707,-9.804728735089304,14932.0
0.69,1.7000000476837158,236.0,23.184223175048828,0.1192766055464744,-79.78279526541735,40.459044161781314,267.31670792937285,-0.0042928359471261,0.0121583323925733,-0.7902417778968811,0.6126595139503479,-0.0009885756697764,-0.0043040032949808,0.0109293155243744,0.0004022903158329,0.0003350793558638,-0.0027686809189617,-0.2395881447382271,-0.0825782258156687,-9.805120498538017,14932.0
0.89,1.600000023841858,242.0,23.18797874450684,0.0795177370309829,-79.78279526969976,40.45904416339886,267.317832609415,-0.0042928359471261,0.0121583323925733,-0.7902417778968811,0.6126595139503479,-0.0009678706598323,-0.004416035417525,0.0112800568064259,-0.0021865570452064,0.0023129559122025,0.0036134927067905,-0.2425426879897713,-0.0822384386323392,-9.805578920245171,14932.0
1.09,1.5,240.0,23.185474395751957,0.0795177370309829,-79.7827952391291,40.45904414407519,267.3331729078293,-0.0043003987520933,0.0121560338884592,-0.7902439832687378,0.6126567721366882,-0.0043237151468329,-0.0035117368312856,0.0155085981368284,-0.0009119259193539,-0.0006539725000038,0.0065285004675388,-0.2400155579298735,-0.0805869930703193,-9.804543378353118,14932.0
1.19,1.600000023841858,236.0,23.18672752380371,0.0715659633278846,-79.78279524158303,40.459044148627655,267.3347617292404,-0.0043003987520933,0.0121560338884592,-0.7902439832687378,0.6126567721366882,-0.0043481871722986,-0.0036360755539582,0.0160008968668832,-0.0015704231336712,-0.0028711173217743,-0.0030899650882929,-0.2384619892761111,-0.075244127176702,-9.80366980433464,14932.0
1.29,1.600000023841858,232.0,23.17545890808105,0.0874695107340812,-79.78279521124814,40.4590441167212,267.34858166217805,-0.0042982483282685,0.0121641941368579,-0.790243923664093,0.6126566529273987,-0.0024275529916986,-0.0021479212373402,0.0143223550466832,-0.0012061513261869,-0.0027079009450972,0.0004626012523658,-0.2419449015520513,-0.0784842703677713,-9.806796310544014,14932.0
1.49,1.5,223.0,23.19048309326172,0.0874695107340812,-79.78279521273898,40.45904411914484,267.3500324094296,-0.0042982483282685,0.0121641941368579,-0.790243923664093,0.6126566529273987,-0.0024794901343777,-0.0022236596278985,0.0144918450025847,0.0036092419177293,-0.004539274610579,-0.0039424207061529,-0.2401007262803614,-0.0784966682922095,-9.804124717712403,14932.0
1.59,1.5,222.0,23.18797874450684,0.0715659633278846,-79.7827951825685,40.45904408687136,267.36363281846053,-0.0042979582212865,0.0121691087260842,-0.7902434468269348,0.6126571893692017,-0.0011909959129556,-0.0012446929022351,0.013377052273036,-0.0008709117537364,-0.0011009136214852,-0.0036299841012805,-0.2416515540517867,-0.0823182713985443,-9.805052086114882,14932.0
1.8,1.2999999523162842,214.0,23.17545890808105,0.0,-79.7827951557072,40.45904404635164,267.3762005770206,-0.0042936489917337,0.0121772736310958,-0.7902430891990662,0.6126574873924255,0.0018337194193283,-0.0001851884545414,0.0130687247376709,0.0007940494106151,0.0007515922188758,-0.0012656670296564,-0.2395079465210438,-0.0789226562250405,-9.80512868463993,14932.0
1.89,1.2999999523162842,211.0,23.174205780029297,0.0079517737030982,-79.78279515693697,40.459044043113714,267.37886550068856,-0.0042936489917337,0.0121772736310958,-0.7902430891990662,0.6126574873924255,0.0018381846975178,-0.0004302928739942,0.0135427899397177,0.0018154857680201,-0.0002231837715953,-0.0042251688428223,-0.2409984748810529,-0.0794317568466067,-9.804225289821623,14932.0
2.09,1.399999976158142,203.0,23.19048309326172,0.0715659633278846,-79.78279513140906,40.459044031623904,267.39119737386704,-0.0043015000410377,0.0121692270040512,-0.7902434468269348,0.6126571297645569,-0.002616189205072,-0.0011849198657667,0.0126759958693657,0.0021641596686095,0.0029764573555439,0.0022751234937459,-0.240472865011543,-0.0779504652600735,-9.805397656559943,14932.0
2.19,1.5,198.0,23.185474395751957,0.0636141896247863,-79.78279512498477,40.45904400300368,267.40509079933173,-0.0042910068295896,0.0121672051027417,-0.7902438640594482,0.6126567125320435,-0.0004211539754767,-0.0049102960185757,0.0121144470960193,0.0028894888237118,-0.0010278299450874,-0.0033267496619373,-0.2401801205053925,-0.0786759676784277,-9.804027069211006,14932.0
2.39,1.5,187.0,23.184223175048828,0.0715659633278846,-79.78279513019687,40.45904400432722,267.4063408577441,-0.0042910068295896,0.0121672051027417,-0.7902438640594482,0.6126567125320435,-0.0004631423265526,-0.0050433339061572,0.0125956002756405,4.857726526097394e-05,0.0028363487217575,-0.0008532041101716,-0.2406941273063421,-0.0809825937543064,-9.805784742236137,14932.0
2.49,1.600000023841858,186.0,23.19048309326172,0.0874695107340812,-79.78279510656037,40.45904397562164,267.4204132759571,-0.0042932545766234,0.0121737271547317,-0.79024338722229,0.6126571893692017,8.704285867238754e-06,-0.0027179291593118,0.0122332555982613,-0.0015563305933028,0.0017109893960878,0.001355689484626,-0.2398695054464042,-0.0788894093222916,-9.803737047314645,14932.0
2.69,1.600000023841858,174.0,23.184223175048828,0.0636141896247863,-79.78279510941766,40.45904397613909,267.4216557943821,-0.0042932545766234,0.0121737271547317,-0.79024338722229,0.6126571893692017,7.467697592313573e-06,-0.0028150302851752,0.0125226929807248,-0.0030712408479303,0.0011086688609793,0.0029682605527341,-0.2407946445979178,-0.0788043140619993,-9.804230552315714,14932.0
2.89,1.399999976158142,174.0,23.18797874450684,0.0715659633278846,-79.78279508983306,40.45904394569785,267.4357967877388,-0.0042937183752655,0.0121767269447445,-0.7902427911758423,0.6126578450202942,0.0001277331850622,-0.0020679887169372,0.0127120407874953,0.0027526789344847,0.0020473892800509,-0.0002314747252967,-0.2402256008796394,-0.077725776862353,-9.80438082575798,14932.0
2.99,1.2999999523162842,173.0,23.18672752380371,0.0795177370309829,-79.78279509205225,40.45904394589567,267.43708755612374,-0.0042937183752655,0.0121767269447445,-0.7902427911758423,0.6126578450202942,8.6669681848133e-05,-0.0022748611220561,0.0130121681274602,-3.710481905727647e-05,0.0009516439167782,-0.003855507588014,-0.2403199968673289,-0.0797419607732445,-9.803307276964189,14932.0
3.09,1.2999999523162842,174.0,23.18672752380371,0.0636141896247863,-79.78279509416393,40.45904393397564,267.45099433302886,-0.0042926068417727,0.0121663305908441,-0.7902435660362244,0.6126571297645569,-0.0027267023697028,-0.0063684296211892,0.0124170511802488,0.0024341675452888,0.0030389681924134,0.0021333082113415,-0.242607957534492,-0.0799168107938021,-9.803144139647484,14932.0
3.29,1.2000000476837158,179.0,23.184223175048828,0.1749390214681625,-79.78279507088934,40.45904389151832,267.4639450514317,-0.004288409370929,0.0121806608512997,-0.7902430891990662,0.6126574873924255,0.0020484083929619,-0.0029255476414392,0.0122790984602608,0.0003626299439929,-0.0008464381680823,-0.0019871024414896,-0.2393133438751101,-0.0775603097956627,-9.802863473296163,14932.0
3.39,1.2000000476837158,180.0,23.185474395751957,0.0636141896247863,-79.78279507809228,40.45904388888963,267.46645410895354,-0.004288409370929,0.0121806608512997,-0.7902430891990662,0.6126574873924255,0.0019838221999399,-0.0028321787049361,0.0127313415419955,-0.0003984683426097,0.0013530498836189,0.0037502544000744,-0.2403498907573521,-0.0789546697307378,-9.80500940144062,14932.0
3.59,1.100000023841858,188.0,23.18672752380371,0.0874695107340812,-79.78279505244878,40.45904390209266,267.47932325840003,-0.0043045836500823,0.012165586464107,-0.7902442812919617,0.6126560568809509,-0.0085437936185045,-0.0037995771877343,0.0120025818493105,-0.0011202389141544,-0.0016791649395599,-3.125240982626565e-05,-0.2386626401357353,-0.0795246727578342,-9.803227754831315,14932.0
3.69,1.100000023841858,188.0,23.184223175048828,0.055662415921688,-79.7827950360426,40.45904387646693,267.49364285707475,-0.0042985249310731,0.0121746025979518,-0.7902450561523438,0.6126551032066345,-0.0042626013248272,-0.0022252228784249,0.0122699427335728,0.0016204124549403,0.0021465646568685,-4.7301287850132205e-05,-0.2389882935024798,-0.080447518704459,-9.805040976405143,14932.0
3.89,1.0,200.0,23.18797874450684,0.0795177370309829,-79.78279503700534,40.459043880482895,267.4948782229424,-0.0042985249310731,0.0121746025979518,-0.7902450561523438,0.6126551032066345,-0.0043155326803573,-0.0020880281103795,0.0122750392605258,-0.0017144700977951,-0.0005955734523013,0.0010207697050645,-0.2389783715084195,-0.0798152885120362,-9.802310326695444,14932.0
4.09,1.0,200.0,23.189231872558597,0.1113248318433761,-79.7827950394055,40.45904387151993,267.50889300346364,-0.0042935158126056,0.0121672973036766,-0.7902454733848572,0.6126546263694763,-0.0055923455430895,-0.0068463347489875,0.0120131682527467,-9.422597213415428e-05,0.0002575823746155,-0.0009787312010303,-0.2393160116672516,-0.0814579175692051,-9.805592953562735,14932.0
4.19,0.8999999761581421,197.0,23.18297004699707,0.0715659633278846,-79.78279504517803,40.45904387772968,267.51012580633164,-0.0042935158126056,0.0121672973036766,-0.7902454733848572,0.6126546263694763,-0.005441527659815,-0.0068220382939296,0.0121627036596654,0.0034645819105207,-9.830313501879571e-06,0.0021038439590483,-0.2411818033643067,-0.0782680421601981,-9.802957613468172,14932.0
4.39,0.8999999761581421,203.0,23.181718826293945,0.0795177370309829,-79.78279502687731,40.459043869934185,267.52619384765626,-0.0042986371554434,0.0121696628630161,-0.7902474403381348,0.6126520037651062,-0.0074827953092832,-0.0050596609091621,0.0165267536118539,-0.002754769520834,-0.0023462290409952,-0.0076596080325543,-0.2399008611403405,-0.0812459925469011,-9.806087043285368,14932.0
4.49,0.8000000119209291,214.0,23.18297004699707,0.0874695107340812,-79.78279502995348,40.459043877287385,267.5278793478012,-0.0042986371554434,0.0121696628630161,-0.7902474403381348,0.6126520037651062,-0.0073362633490841,-0.0050189590651374,0.0167572526466503,-0.0016827695071697,0.0016714124940335,0.0014077892992645,-0.2415507626719773,-0.0797865001112222,-9.80619287788868,14932.0
4.69,0.699999988079071,216.0,23.185474395751957,0.0636141896247863,-79.78279501065069,40.4590438445253,267.5417519712448,-0.004295258782804,0.0121793877333402,-0.7902467250823975,0.6126527786254883,-0.0039483405573427,-0.002770800109985,0.0148509140844047,0.002214946784079,0.0013934774324297,-0.000726158497855,-0.2403931601531804,-0.0800686374027282,-9.804446899294852,14932.0
4.79,0.699999988079071,224.0,23.18797874450684,0.0715659633278846,-79.78279499085808,40.45904381022096,267.5554953122139,-0.0042911637574434,0.0121869519352912,-0.7902477383613586,0.6126512885093689,-0.0004841534631896,-0.001667932979284,0.016745184043841,-0.0014901660615578,0.0026103691197931,0.0026522709522396,-0.2405245032347739,-0.0803399938903749,-9.805392394065857,14932.0
4.89,0.699999988079071,231.0,23.189231872558597,0.0795177370309829,-79.78279499354845,40.45904381156785,267.5588973069191,-0.0042911637574434,0.0121869519352912,-0.7902477383613586,0.6126512885093689,-0.0005831303915854,-0.0017290974999117,0.0171604680197897,0.002228703116998,0.0003568325773812,-0.000381938269129,-0.239235429726541,-0.0773864099476486,-9.803578587770463,14932.0
5.09,0.699999988079071,229.0,23.18046760559082,0.0715659633278846,-79.78279499038516,40.459043813103534,267.5711638832093,-0.0042948955669999,0.0121712889522314,-0.7902470827102661,0.6126524209976196,-0.007264108572735,-0.0072388819746608,0.0148808928539039,-8.895352220861241e-05,0.0004277869593352,-0.0004384327039588,-0.2421200439333916,-0.0819755514711141,-9.804409477114678,14932.0
5.19,0.8000000119209291,227.0,23.184223175048828,0.0636141896247863,-79.78279495437576,40.4590437761528,267.5869657301904,-0.0042949253693223,0.0121903596445918,-0.7902482151985168,0.6126506328582764,-0.00190480180928,-0.0003224194939262,0.0173615992020313,0.0009388062753714,0.0011342611396685,0.0033979192376136,-0.2402900116145611,-0.0769903433136642,-9.802484573721888,14932.0
5.39,0.8000000119209291,236.0,23.18297004699707,0.0715659633278846,-79.782794953822,40.45904377770204,267.58872144460685,-0.0042949253693223,0.0121903596445918,-0.7902482151985168,0.6126506328582764,-0.0020263170011421,-0.0004024675610082,0.0177532403477428,0.0014997911639511,0.001777117839083,-0.0023387758992612,-0.2402408401854336,-0.0804158158320933,-9.804442221522333,14932.0
5.49,0.699999988079071,236.0,23.19048309326172,0.0795177370309829,-79.78279495216816,40.459043747149046,267.60510640382773,-0.0042866277508437,0.0121878236532211,-0.7902487516403198,0.6126500964164734,0.0001311059783851,-0.0043563309201631,0.0196396471011652,0.0002576931146904,0.004306151997298,0.0031862563919276,-0.2408223092369735,-0.079180472753942,-9.80353356420994,14932.0
5.69,0.699999988079071,252.0,23.18797874450684,0.0636141896247863,-79.78279495659531,40.459043747780015,267.607096722126,-0.0042866277508437,0.0121878236532211,-0.7902487516403198,0.6126500964164734,-1.6100029314460566e-05,-0.0042275645704543,0.0199595414525326,-0.0014400868676602,-0.0007136372150853,-0.0012998414458706,-0.2397050525061786,-0.0777063805516809,-9.803021348118785,14932.0
5.79,0.699999988079071,260.0,23.19173622131348,0.0636141896247863,-79.78279493047397,40.45904371819547,267.6215712928772,-0.0042877858504652,0.012192377820611,-0.7902489900588989,0.6126496195793152,0.0002501769255448,-0.0022468341290583,0.0166568833334467,-0.0043638991191983,-0.0009289274457842,0.0021261135116219,-0.2393717794865369,-0.0789722022414207,-9.804817028045656,14932.0
5.99,0.8000000119209291,260.0,23.19173622131348,0.0954212844371795,-79.78279493271883,40.45904371820541,267.62324064016343,-0.0042877858504652,0.012192377820611,-0.7902489900588989,0.6126496195793152,0.0002819024285587,-0.0022503601371287,0.0167006547155436,0.0024221274070441,-1.3164011761546137e-05,-0.002611058531329,-0.2410385283082724,-0.0792059903685003,-9.80319501042366,14932.0
6.09,0.8000000119209291,265.0,23.18797874450684,0.1033730581402778,-79.7827949063951,40.459043686946686,267.6401930952072,-0.0042888280004262,0.0121947405859828,-0.7902500629425049,0.6126482486724854,0.0003270897153522,-0.0016012019788601,0.0187291346599368,-6.844518338766648e-06,-0.0016781628364697,-0.003759698010981,-0.2399047166481614,-0.082783718900755,-9.804602435231208,14932.0
6.29,0.8999999761581421,272.0,23.19048309326172,0.1113248318433761,-79.78279486225131,40.45904364689288,267.65541719436646,-0.0042902370914816,0.0122057972475886,-0.7902505397796631,0.6126472353935242,0.0027919568961807,0.0029346382444951,0.0201808885847009,-0.0021414074581116,0.0004074026655871,0.0062432554550468,-0.2412792691402137,-0.0824109954480081,-9.80629754304886,14932.0
6.39,0.8999999761581421,274.0,23.18672752380371,0.0795177370309829,-79.78279485593556,40.45904364019857,267.65948503255845,-0.0042902370914816,0.0122057972475886,-0.7902505397796631,0.6126472353935242,0.0029913586194233,0.0031074213713361,0.0205734147998799,0.0013132449239492,0.0031398739665746,3.469365037744865e-05,-0.2396093957126141,-0.0781427929736673,-9.803322479724883,14932.0
6.6,1.0,277.0,23.18797874450684,0.0715659633278846,-79.78279485305228,40.45904362829452,267.67534719944,-0.0042886692099273,0.0121914939954876,-0.7902519702911377,0.6126458048820496,-0.0015049895745176,-0.0038085164678539,0.0211790698848252,0.0005616825073957,0.000259430904407,-0.0003909827792085,-0.2402429415285587,-0.0802266035880893,-9.80436854660511,14932.0
6.69,1.0,283.0,23.18297004699707,0.055662415921688,-79.78279485959501,40.45904363189892,267.679650118351,-0.0042883013375103,0.0121918162330985,-0.7902535200119019,0.612643837928772,-0.0014018298723401,-0.0037066455011339,0.0216385514948912,0.0009706930140964,0.0006879309657961,0.005158347543329,-0.2409525194205344,-0.0800601954851299,-9.80373646259308,14932.0
6.89,1.0,286.0,23.18297004699707,0.0715659633278846,-79.78279482168826,40.45904359699743,267.69579522848136,-0.0042891060002148,0.0121965939179062,-0.7902528643608093,0.6126445531845093,-0.000704515682787,-0.0020777969553197,0.0219817121169632,0.000879468745552,-0.0018848986364901,-0.0036585968919098,-0.2406711952574551,-0.0777514132484793,-9.80266876101494,14932.0
6.99,0.8999999761581421,289.0,23.18797874450684,0.0795177370309829,-79.78279478759205,40.459043563538216,267.71414314746863,-0.0042894831858575,0.0121997231617569,-0.7902532815933228,0.6126439571380615,-0.0004351356165429,-0.0014325478571699,0.0224364845590488,-0.0032675825059413,-0.0016146596753969,-0.0033484175801277,-0.2415874904952943,-0.0799669598042965,-9.805401164889336,14932.0
7.19,1.0,293.0,23.165441513061523,0.3498780429363251,-79.78279478842406,40.45904356376688,267.71639733552934,-0.0042894831858575,0.0121997231617569,-0.7902532815933228,0.6126439571380615,0.0001111458869759,-0.0015371800866917,0.0224831267267429,0.0074584470130503,-0.0040509989485144,-0.0014824004611,-0.2405009864643216,-0.0719509570486843,-9.806784031391144,14932.0
7.29,1.0,295.0,23.16669464111328,0.3578298389911652,-79.78279477091004,40.4590435616264,267.73345457553864,-0.0042824721895158,0.0121982973068952,-0.7902373671531677,0.612664520740509,-0.0068632333580027,-0.0063583755672015,0.0184310393714615,-0.0011861349921673,-0.0068844393827021,-0.0096016796305775,-0.2370416457764805,-0.0748514546686783,-9.802542461156843,14932.0
7.5,0.8999999761581421,298.0,23.155426025390625,0.3657816052436829,-79.78279477578731,40.45904356875052,267.7353306317329,-0.004282864741981,0.012211998924613,-0.7902284860610962,0.6126757264137268,-0.0066667470584795,-0.0063656094233495,0.0186217819566406,-0.0001399324974045,-0.0019968231208622,0.001919410075061,-0.2413549357652664,-0.0805313805676996,-9.806043189167976,14932.0
7.6,0.8999999761581421,298.0,23.17045021057129,0.3498780429363251,-79.78279476246854,40.45904353261325,267.7543514275551,-0.0042657917365431,0.012203961610794,-0.7902237176895142,0.6126821041107178,-0.0024524985766002,-0.0080363061721313,0.0202546083799646,-0.0003175330348312,-0.0021185691002756,-0.0012342153349891,-0.2396785938553513,-0.0828988542314618,-9.802224372625352,14932.0
7.79,0.8999999761581421,296.0,23.17170333862305,0.3896369338035584,-79.78279477027444,40.45904353609633,267.75643067598344,-0.0042831394821405,0.0121907871216535,-0.7902164459228516,0.6126917004585266,-0.0019417628516686,-0.0077237719911498,0.020883009841542,-0.0032748542726039,-0.0017762521747499,0.0065876091830432,-0.2435516433231533,-0.0825461392197758,-9.800131069421766,14932.0
7.89,0.8000000119209291,295.0,23.162939071655277,0.4214440286159515,-79.782794725397,40.45904350137787,267.77335589170457,-0.0042954427190124,0.0122103188186883,-0.7902191281318665,0.6126877069473267,-0.0006333047110264,-0.0040162931584384,0.0175247247478599,0.0024139191955327,0.0017584399320185,0.0003592352150008,-0.2365922324359417,-0.0759176944429054,-9.800771339535713,14932.0
8.09,0.8000000119209291,300.0,23.15793037414551,0.4850582182407379,-79.78279468097283,40.45904344797342,267.7902310395241,-0.0043151150457561,0.0122409285977482,-0.7902182936668396,0.6126880049705505,0.0043427473238299,-0.0015566471075019,0.0191450657137136,-0.0008885661372914,-0.0063808877021074,-0.0076683778315782,-0.2465721687488258,-0.0841972376033663,-9.799560965895653,14932.0
8.29,0.8000000119209291,298.0,22.952592849731445,2.409387588500977,-79.78279464084231,40.45904342441143,267.80880104541785,-0.0042771785520017,0.0123147489503026,-0.7901902198791504,0.6127231121063232,0.0002484060411095,0.0003765599155107,0.0236775266602893,-0.0105730537325143,-0.0289536602795124,0.0049794623628258,-0.2485128413513303,-0.0871505748666822,-9.803637059926988,14932.0
8.39,0.699999988079071,303.0,23.13664436340332,0.4771064221858978,-79.78279464130927,40.45904342320357,267.8109430575371,-0.0041420515626668,0.0125224441289901,-0.7902421951293945,0.6126527786254883,-0.0012191176609564,-0.002299033601333,0.0195798302565073,0.004814728628844,-0.0005619521834887,-0.0114527251571416,-0.2428750108368695,-0.1015798677038401,-9.8026155513525,14932.0
8.59,0.699999988079071,307.0,22.41546440124512,20.22931289672852,-79.78279459119899,40.459043396046695,267.8271387720108,-0.0042177718132734,0.01239890512079,-0.7902340888977051,0.6126652359962463,-0.0037513958410655,-0.0011581606595178,0.0143533493416437,-0.0109861269593238,0.0217583253979682,-0.0257910136133432,-0.2550156029686332,-0.0960369082633406,-9.807937687039376,14932.0
8.69,0.699999988079071,309.0,23.03397750854492,1.5187888145446775,-79.78279459080724,40.45904339515311,267.8288676643372,-0.0041602849960327,0.0125657254830002,-0.7902287244796753,0.6126691102981567,0.0053136175732552,-0.000894855269211,0.0172557724141098,0.0504493117332458,0.0155311170965433,0.0064095994457602,-0.2243029200285673,-0.1245941247884184,-9.805691771507265,14932.0
8.79,0.6000000238418579,309.0,23.13789749145508,0.508913516998291,-79.78279454882785,40.45904336882676,267.8469582700729,-0.004202561918646,0.0125587349757552,-0.7902347445487976,0.6126612424850464,0.0014839622831282,0.0010909457917526,0.0191357855762898,0.0126042440533638,-0.0083696851506829,-0.0128584941849112,-0.2477405155263841,-0.0536059163650497,-9.816571100950242,14932.0
8.99,0.6000000238418579,314.0,23.15667724609375,0.3339745104312897,-79.78279454956218,40.45904336856052,267.8488607907296,-0.0042053321376442,0.0124349743127822,-0.7902127504348755,0.6126920580863953,0.000529473896637,-0.0009651132840801,0.0189738238438086,0.0101836426183581,-0.0024582229088991,-0.0146668078377842,-0.2349866418354213,-0.0785626596026122,-9.812173994779588,14932.0
9.09,0.6000000238418579,317.0,23.10784721374512,1.6619207859039309,-79.78279450460991,40.45904334392056,267.8663706088066,-0.0042236628942191,0.0123870447278022,-0.7901901006698608,0.6127220392227173,-0.0001149870609534,0.0007630304277952,0.0214441888769439,-0.0127170495688915,-0.0150641910731792,0.0041430592536926,-0.2297385099716485,-0.0836535379104316,-9.797772887349131,14932.0
9.29,0.6000000238418579,330.0,22.89124298095703,4.59612512588501,-79.78279445746443,40.459043332348905,267.88044153690345,-0.0041867820546031,0.012359058484435,-0.7901862263679504,0.6127278804779053,-0.0024751500930538,0.0006345156058145,0.0177636020036632,0.0061846491880714,-0.01976546831429,0.0047643203288316,-0.220548642128706,-0.0651708546839654,-9.811099276542665,14932.0
9.39,0.6000000238418579,332.0,22.831144332885746,5.208411693572998,-79.78279445510715,40.45904333634488,267.88407461881644,-0.0041184993460774,0.0125681804493069,-0.7902314066886902,0.6126657724380493,-0.0024517901740982,-0.0008338920894788,0.0178193073349326,0.0197401344776153,0.0246531665325164,0.0160309504717588,-0.2679468300193548,-0.0195942777511663,-9.804346911907194,14932.0
9.59,0.699999988079071,336.0,22.714704513549805,7.62575101852417,-79.78279439048596,40.45904330186313,267.9004749560356,-0.0040925093926489,0.0127781527116894,-0.790289580821991,0.6125866770744324,-0.0034931274363619,0.0014779334375694,0.0215061546982859,0.0156142972409725,0.0210374742746353,-0.0115045923739671,-0.2435952233523131,-0.037501576684881,-9.815809793472289,14932.0
9.79,0.6000000238418579,338.0,22.53190422058105,9.987427711486816,-79.78279437937657,40.45904329797505,267.9046662354469,-0.0037962866481393,0.0131243970245122,-0.790322482585907,0.6125388145446777,-0.0027642109537925,0.0028727952701844,0.02120466548459,-0.045409832149744,-0.0252729505300521,-0.005541015882045,-0.2169440346769988,0.0104132035723887,-9.860426387786868,14932.0
9.89,0.699999988079071,335.0,22.461790084838867,11.11658000946045,-79.7827943139866,40.45904332672518,267.9164764785767,-0.003574117552489,0.0134507529437541,-0.790425717830658,0.6123998165130615,-0.0045370774986526,0.0007405483016234,0.0153621010374141,0.0376526340842247,0.0626017153263092,0.0205671656876802,-0.2361857595853508,-0.0992980740219354,-9.832305958271029,14932.0
9.99,0.699999988079071,329.0,22.362876892089844,12.357056617736816,-79.78279425113486,40.4590433069254,267.9328970813752,-0.0027523045428097,0.0142699182033538,-0.7903583645820618,0.6124724745750427,0.0095701334231252,0.0052704961289957,0.0233663608138474,0.0905202403664588,-0.0286748930811882,-0.0825711861252784,-0.3893846186622977,-0.0607978408690542,-9.725691336393355,14932.0
10.19,0.8000000119209291,322.0,22.15629005432129,15.959210395812988,-79.78279425113169,40.459043305819385,267.9351376199723,-0.0017098666867241,0.0146431159228086,-0.7902090549468994,0.6126599907875061,0.0008575016997324,-0.0011826378060893,0.0229314441215848,0.037918746471405,0.0711703151464462,-0.0752362310886383,-0.2936364806257188,-0.2509138177335262,-9.820515632629396,14932.0
10.29,0.8000000119209291,319.0,22.061134338378903,17.223543167114258,-79.78279422053926,40.45904327254698,267.95255087852485,-0.0006469294894486,0.0133403940126299,-0.7899218797683716,0.6130620837211609,-0.0116951372700826,-0.0001868169991828,0.0236224305401654,-0.0622061789035797,0.0110873058438301,0.0359007343649864,-0.2210174791887402,0.0342595582734793,-9.83349879026413,14932.0
10.49,0.8000000119209291,319.0,21.85329246520996,20.420154571533203,-79.78279422807844,40.45904327469647,267.95472281217576,0.0002872549812309,0.0130544137209653,-0.7896691560745239,0.613394021987915,0.0016323618467408,-0.0074854303180954,0.0241994191548265,-0.0076305749826133,0.0076708383858203,0.0353025533258914,-0.2829125592112541,-0.1419885406829416,-9.90482780456543,14932.0
10.59,0.699999988079071,315.0,21.72683525085449,22.48761749267578,-79.78279417577531,40.45904325398606,267.9738615655899,-0.0040133069269359,0.0104845771566033,-0.7864753603935242,0.617519736289978,0.0037204454977414,0.0217086305037857,0.0403730592347662,-0.0043058241717517,-0.1080425903201103,-0.0415706932544708,-0.1345899490825832,-0.0945545934140682,-9.940677083730698,14932.0
10.79,0.8000000119209291,304.0,21.5352725982666,25.127605438232425,-79.78279412092692,40.459043249199695,267.9790641570092,-0.0124816102907061,0.0121359685435891,-0.7847000360488892,0.619631290435791,-0.0233866448318139,0.0698530287814309,0.0806276065895114,-0.1631013005971908,-0.0945630371570587,-0.1413362920284271,0.1397102827392518,-0.1975625978596508,-10.25955498933792,14932.0
10.9,0.8999999761581421,296.0,21.41632652282715,27.24277687072754,-79.78279384718422,40.45904323344822,268.02331184387214,-0.0315618105232715,0.0070972009561955,-0.7803204655647278,0.6245425939559937,-0.0373243052514932,0.1481596138190004,0.3117011257100505,-0.0324531756341457,0.0974736884236335,-0.0560706928372383,0.0670174784772098,-0.1568919422104955,-10.628303797245026,14933.0
11.09,1.100000023841858,276.0,21.76189422607422,21.35846519470215,-79.78279365268888,40.45904312362537,268.06250237464906,-0.0226764362305402,0.0008465282153338,-0.7796856760978699,0.6257598400115967,-0.0332930244101296,0.1803496404748982,0.3478440230849623,0.3176074028015137,0.3913778960704804,-0.0334857031702995,-0.0697168273106217,0.4275684352219105,-10.472274355888366,14933.0
11.19,1.0,276.0,21.832008361816406,19.6885929107666,-79.78279271629293,40.45904331253731,268.1524585390091,0.0093201072886586,-0.0085067702457308,-0.7805831432342529,0.6249247193336487,-0.0915062326674583,0.233794360068093,0.2797431691224265,0.13410684466362,0.2560964822769165,-0.0244098734110593,0.0724121287744492,0.1178585069440305,-9.975938133001328,14933.0
11.39,1.100000023841858,251.0,21.791942596435547,20.809791564941406,-79.78279241534317,40.45904335509622,268.1763417625428,0.0157475993037223,-0.0143606476485729,-0.7814427614212036,0.6236128211021423,-0.1031800227296425,0.2373617765738776,0.1905628120333742,0.0460958331823349,0.1672304272651672,-0.0027973824180662,0.2586108366027475,-0.0527925640996545,-9.181838884949684,14933.0
11.49,1.100000023841858,246.0,21.70304679870605,21.4379825592041,-79.78279173953385,40.45904346619189,268.2140697145462,0.0154441762715578,-0.0150404926389455,-0.7830422520637512,0.6215948462486267,-0.1152347572805852,0.2019319802939695,0.0561141430142013,0.008639289997518,-0.016997518017888,-0.0422489196062088,0.1285403101332485,-0.0808061448857188,-9.07897174358368,14933.0
11.69,1.100000023841858,233.0,21.60538673400879,22.765928268432607,-79.78279148733634,40.45904352484929,268.21860503196723,0.0134498104453086,-0.0119301211088895,-0.7839906811714172,0.6205123066902161,-0.1133494320439445,0.186502208067252,0.0234940599728335,-0.0244311541318893,-0.1249249354004859,-0.001087864395231,0.1749144678376615,-0.0786600431520491,-9.400315420031546,14933.0
11.79,1.2999999523162842,213.0,21.534019470214844,24.141586303710927,-79.78279074594099,40.4590436475044,268.26807688713075,0.007629360537976,-0.0016369005898013,-0.7851024270057678,0.619316816329956,-0.1338396581285014,0.1651887528374227,0.091200093835684,0.0444778650999069,-0.0467969961464405,0.0269368886947631,0.1947334591113031,-0.0847608635108917,-9.740478360056876,14933.0
11.99,1.600000023841858,193.0,21.606639862060547,22.6227970123291,-79.78279052697816,40.45904372771319,268.27871512413026,0.0098347663879394,0.0005037453956902,-0.7851942777633667,0.6191713213920593,-0.1239404233622195,0.1559270998810839,0.1144229673957159,0.0275327414274215,0.0388796254992485,0.0193670745939016,-0.0255891561554744,-0.0999668036308139,-10.062839452028276,14933.0
12.09,1.600000023841858,188.0,21.550296783447266,23.799659729003903,-79.78278994556379,40.45904391849269,268.3174933099747,0.0153040792793035,-0.0044501353986561,-0.7839859127998352,0.6205739378929138,-0.1218379128117709,0.1492508798013203,0.1168523594621659,-0.0489964112639427,0.0998448729515075,-0.0303904898464679,-0.0182578029669821,-0.2275440682098269,-9.860924570560456,14933.0
12.29,1.7999999523162842,176.0,21.51523971557617,24.30857276916504,-79.78278961954503,40.45904393596921,268.3384843969345,0.0164053216576576,-0.0073890830390155,-0.7831855416297913,0.6215277910232544,-0.1042479174041452,0.1499517474371339,0.1230605445350971,-0.0019857482984662,0.0733016729354858,-0.0104027977213263,0.127396850567311,-0.061336684632115,-9.81801068544388,14933.0
12.39,1.8999999761581416,174.0,21.41632652282715,25.708086013793945,-79.78278925419824,40.45904406725488,268.365745177269,0.0118244104087352,-0.0085353096947073,-0.7820710539817809,0.623018741607666,-0.1087229545140126,0.1247959589048826,0.1451539847692732,0.0128949508070945,-0.0517837330698967,-0.0827125906944274,0.0650202888809144,-0.109459913559258,-9.885936620235444,14933.0
12.59,1.7999999523162842,167.0,21.40255546569824,25.39796638488769,-79.78278900413844,40.45904411608512,268.39583896636964,0.0081113381311297,-0.0047476370818912,-0.7812983989715576,0.6240870356559753,-0.1124310908739613,0.1220649233212054,0.1581895736356315,0.0420713126659393,-0.0835558772087097,0.0240839160978794,0.1043279676977545,-0.0469255684129893,-9.87914566397667,14933.0
12.79,1.7999999523162842,165.0,22.018564224243164,11.426698684692385,-79.78278871111611,40.45904425460014,268.4319807195664,0.0143740251660346,0.0012458498822525,-0.7801324725151062,0.6254479885101318,-0.0966005187634942,0.0945176966688373,0.2020113642929096,0.1675570011138916,0.0738637596368789,-0.0552523732185363,0.0207542168721556,-0.029713935109321,-10.06832530975342,14933.0
12.9,2.0,166.0,21.497711181640625,24.626644134521484,-79.78278855555456,40.45904444920989,268.4479335451126,0.018386997282505,0.0003724377020262,-0.7802544832229614,0.6251917481422424,-0.0980783135445708,0.0795346117392114,0.1100350857304298,0.0917455181479454,0.0517077185213565,-0.0523545667529106,0.1219535496085882,-0.0612618722487241,-9.218316739797592,14933.0
13.0,2.0,167.0,21.199722290039062,28.06976127624512,-79.78278842637542,40.459044547197855,268.4823626184464,0.0228186845779418,-0.0007259345147758,-0.7809668183326721,0.6241551637649536,-0.0584279790303133,0.0567176613979928,0.0501468437261041,-0.0577897727489471,0.0487727411091327,0.0180715229362249,0.0896883304137736,-0.0274519739951938,-9.06893148958683,14933.0
13.19,1.8999999761581416,174.0,20.96558952331543,31.68781852722168,-79.78278835726381,40.45904458025267,268.49115084648133,0.0195196866989135,-0.0019528339616954,-0.7813196182250977,0.6238228678703308,-0.0361267712987496,0.0468982140434315,0.1306729460666056,-0.0018289249856024,-0.0595421865582466,-0.0648772716522216,0.1895264039374888,-0.0748434421559795,-10.434727045297622,14933.0
13.29,2.0,177.0,20.940547943115234,31.2584228515625,-79.7827881929969,40.45904452421564,268.5589300298691,0.0103845288977026,-0.0018380450783297,-0.7803652286529541,0.6252350807189941,-0.0152082360631528,0.0454065166807507,0.4388718857530218,-0.1509978920221328,-0.0741661787033081,-0.011824763379991,0.2109639045037328,-0.1219346557930112,-11.23012846827507,14933.0
13.49,1.8999999761581416,173.0,20.83662796020508,33.59624481201172,-79.7827881574383,40.459044524532935,268.60999440193183,0.0051411525346338,-0.0033363422844558,-0.7796316146850586,0.626208484172821,-0.0102764661799238,0.0347571234561553,0.5871522525884445,-0.0470006167888641,-0.0533468089997768,-0.069702111184597,0.1508322259504348,-0.0378273282665759,-11.305542347431183,14933.0
13.69,1.7999999523162842,173.0,20.48730659484864,38.566104888916016,-79.78278813112125,40.45904451678415,268.76525234222413,0.0031406339257955,-0.0056397635489702,-0.7796574831008911,0.6261730194091797,-0.0156189008410444,0.0219741731592776,0.9807829421511154,0.0618342012166976,-0.0014017156790941,0.0289883445948362,0.1109657177701592,-0.0650347196264192,-11.556821762323382,14933.0
13.79,1.7999999523162842,174.0,20.456005096435547,38.69333267211914,-79.78278808440338,40.45904450452336,268.88018726348884,0.0054057482630014,-0.0061024073511362,-0.7800937294960022,0.6256096363067627,-0.0216338104990497,0.0214473870327352,1.2285548755490292,-0.0164053011685609,-0.0162022728472948,0.1162209436297416,0.1223610731307417,-0.1870100181363523,-12.40019608139992,14933.0
13.99,1.7000000476837158,175.0,20.57870483398437,36.983699798583984,-79.78278805429231,40.4590445504278,269.17948793411256,-0.0002916683733928,0.0022789221256971,-0.7826014161109924,0.6225190162658691,-0.0310323542746152,0.0429248370668114,1.7546726802448032,-0.0112191848456859,-0.211870789527893,0.0685092657804489,0.2464330963790417,-0.0238807550584897,-12.433697118759156,14934.0
14.09,1.7999999523162842,176.0,20.532379150390625,37.595985412597656,-79.78278802719805,40.4590445334537,269.3680088424683,-0.0055847112089395,0.0108543941751122,-0.7854847311973572,0.6187607049942017,-0.0320019147746833,0.037540280240426,1.9801105090473785,0.0439712665975093,-0.174062967300415,0.1418693363666534,0.1245522532425821,-0.0891331829689443,-12.281646122932436,14934.0
14.19,1.7999999523162842,179.0,20.48855781555176,38.90007781982422,-79.78278784532365,40.459044544230665,269.8014366531372,-0.0169297382235527,0.0199998524039983,-0.7922878861427307,0.6095845103263855,-0.0647022172534679,0.057852103320664,2.3919121213277914,-0.0863755568861961,-0.0913461446762085,0.0701270401477813,0.0694733547326177,-0.201939549408853,-12.081532183885574,14934.0
14.39,1.8999999761581416,185.0,20.58371353149414,36.02948760986328,-79.78278761058745,40.45904455328441,270.0494642162323,-0.0183707438409328,0.0195508953183889,-0.7960304021835327,0.6046619415283203,-0.0593664681685473,0.0782252555934249,2.5798275916349054,0.0514594167470932,0.1213131099939346,0.0598672069609165,-0.0433209061436355,0.0437754175253212,-11.708876266479493,14935.0
14.59,2.0,186.0,20.5411434173584,29.89071846008301,-79.7827869432263,40.45904454028911,270.5949866676331,0.0136256031692028,0.0065510394051671,-0.7998120784759521,0.6000601053237915,-0.0812649947853709,0.2025129793671864,2.8818089550710138,0.300904631614685,0.3698368072509765,-0.0696586519479751,-0.0532489940989762,-0.0029006575047969,-11.486119569540026,14935.0
14.7,2.200000047683716,182.0,19.935152053833008,35.94997024536133,-79.78278659539986,40.45904451124067,270.888915052414,0.0383872054517269,0.0014054058119654,-0.7959907054901123,0.6040889024734497,-0.1164360895336915,0.2946819771028923,2.9876497372905884,0.3324694037437439,0.4416237771511078,-0.1852231323719024,0.1082583107426762,-0.0675062920013442,-11.01173145532608,14935.0
14.79,2.299999952316284,194.0,19.965200424194336,35.798885345458984,-79.78278577675042,40.45904431553853,271.5230228805542,0.0601377561688423,-0.0023510095197707,-0.7817550301551819,0.6206747889518738,-0.1893183928739343,0.4808570354127884,3.103788185255183,-0.225658118724823,-0.1119986400008201,-0.1645962297916412,0.3210966315865517,-0.2727087659016252,-10.744023703336715,14936.0
15.0,2.400000095367432,192.0,20.25567626953125,30.526859283447266,-79.78278555742429,40.45904415933606,271.83967947006226,0.0384705625474453,-0.0013251736527308,-0.776012122631073,0.6295424103736877,-0.1349281811498289,0.4516719245997425,3.1728793325104383,-0.3804809749126434,-0.3035442531108856,-0.1009900271892547,0.2949673617258668,-0.2551242332719267,-10.363069417476655,14936.0
15.09,2.5,197.0,20.18931770324707,32.34781646728516,-79.78278524749862,40.45904366603136,272.4675619506836,-0.0042743617668747,0.0038214419037103,-0.7683398127555847,0.6400165557861328,0.1438227875525003,0.2267725675838063,3.2186419417168506,-0.1881651580333709,-0.1440573781728744,-0.1528355479240417,0.209944332819432,-0.0308598249242641,-10.113422545194627,14937.0
15.29,2.5999999046325684,211.0,20.32829475402832,29.78734588623047,-79.78278506080565,40.45904343102831,272.79373525619513,-0.0116944164037704,0.0024396744556725,-0.7668298482894897,0.6417393088340759,0.21820647572674,0.1654329162850115,3.2435495252657054,-0.0648782551288604,0.0269363932311534,-0.0482036843895912,0.0579354552179575,0.051504596080631,-10.172168351411822,14937.0
15.39,2.5999999046325684,201.0,20.82285499572754,30.74155807495117,-79.78278461065821,40.45904300194691,273.44698738098145,-0.0025740938726812,-0.004935395438224,-0.7696585655212402,0.6384316086769104,0.2314323044490535,0.2212378281087748,3.2877491990246943,0.0135818934068083,0.1618345826864242,0.0714762136340141,0.0316065577603876,0.0072795619326643,-10.052342530488966,14938.0
15.59,2.799999952316284,211.0,21.03445243835449,27.71988296508789,-79.78278426636929,40.45904273827061,273.7626078033448,0.005211747251451,-0.0094032641500234,-0.7732976078987122,0.6339521408081055,0.1984633692403966,0.2820660217198752,3.265645299056977,0.0734858140349388,0.1408951133489608,0.1343910843133926,0.227431070767343,-0.1478480903059244,-9.89356840610504,14938.0
15.79,2.799999952316284,213.0,21.0382080078125,27.97434043884277,-79.7827836177231,40.459042316210535,274.37368225097663,0.0174140147864818,-0.0142177138477563,-0.7802072167396545,0.6251171231269836,0.1239114331621328,0.386717423879075,3.1678474218864574,0.0422400534152984,0.0537830591201782,0.1307748258113861,0.3857368697226048,-0.1237305001728236,-9.73677414894104,14939.0
15.89,2.799999952316284,218.0,20.914255142211918,29.58059883117676,-79.78278334212416,40.459042151962855,274.69001745224,0.0195725578814744,-0.0130847999826073,-0.7822684049606323,0.6224966049194336,0.0923583658741701,0.4010797636780337,3.1335274422334285,0.0177997183054685,-0.0508488453924655,0.1025965362787246,0.2897938549518585,-0.2631476181373,-9.468283454775811,14939.0
15.99,2.900000095367432,225.0,20.9555721282959,28.403736114501957,-79.78278318885278,40.4590419881875,275.16939949035645,0.0144319888204336,-0.0096452878788113,-0.7821984291076659,0.622787594795227,0.0671446205604789,0.3336404594387008,2.998008867565484,0.0044733346439898,-0.0307596139609813,-0.0728981122374534,0.315604451559484,-0.2071941680274904,-9.565668246746064,14940.0
16.19,3.0,233.0,20.91926383972168,29.47722625732422,-79.78278297611118,40.45904184939069,275.46817516326905,0.014529344625771,-0.0086163310334086,-0.7806795239448547,0.6247032880783081,0.0841882869242176,0.3041945536958592,2.9573819291671573,0.0895717367529869,-0.0305818282067775,-0.0454743169248104,0.2121380254067481,-0.098309821486473,-9.463747184872627,14940.0
16.29,2.900000095367432,240.0,20.92677497863769,29.087589263916016,-79.78278231487077,40.45904144535531,276.20228694915767,0.016030641272664,-0.011059246957302,-0.7775979042053223,0.6284602284431458,0.0763202781836978,0.2908949698153805,2.942673069287333,-0.0474833771586418,0.0265461336821317,-0.0685373395681381,0.2917250989191234,-0.0568315100390464,-9.442344621419908,14941.0
16.49,2.900000095367432,249.0,21.000646591186523,28.20494270324707,-79.78278213339763,40.45904130369376,276.49496768951417,0.0132023748010396,-0.0152451563626527,-0.7768411636352539,0.6293736100196838,0.0899872173834576,0.2888469732927157,2.8977354242106608,-0.132004514336586,0.0351617969572544,0.023370686918497,0.2838476934470236,-0.1021050390321761,-9.419042882323264,14941.0
16.59,2.799999952316284,250.0,20.91550636291504,28.729759216308597,-79.78278153254941,40.45904107916212,277.20483612060553,0.0105613656342029,-0.021850761026144,-0.7768410444259644,0.6292290091514587,0.1147215004451486,0.2766950673530749,2.897899684030348,-0.014280779287219,0.0481212921440601,-0.0426126569509506,0.2661460337787866,-0.0444058889849111,-9.433037023544312,14942.0
16.79,2.900000095367432,250.0,20.850400924682614,30.05770492553711,-79.78278120590448,40.45904078229314,277.5987760925293,0.0111248027533292,-0.022760571911931,-0.776877224445343,0.6291422843933105,0.1144830797289405,0.2753181861904167,2.9403735781121103,-0.0606427453458309,0.0213773921132087,0.090680792927742,0.2464726016297936,-0.0917764259409159,-9.59488269031048,14942.0
16.89,3.0,247.0,20.881702423095703,29.52493667602539,-79.7827809746489,40.459040617392986,278.186047782898,0.013407033868134,-0.022738141939044,-0.7763202786445618,0.6297858357429504,0.0898955931465343,0.2436709063170552,2.915426734641437,0.0657463371753692,-0.0028560641221702,0.0461618937551975,0.2867667879536748,-0.072747964519076,-9.666313446164132,14943.0
17.09,2.799999952316284,245.0,20.91300392150879,29.23867225646973,-79.78278076154189,40.459040365104784,278.5545809173584,0.0166316460818052,-0.019959270954132,-0.7759394645690918,0.6302722096443176,0.0777028968271558,0.2293542882720117,2.944373257590545,0.0533391796052455,0.0099230865016579,-0.0576795451343059,0.3536737357825041,-0.0518532271776348,-9.673168137073516,14943.0
17.19,2.799999952316284,248.0,20.99438667297364,28.38783264160156,-79.78278039530827,40.45904014140378,279.19535469055177,0.011470234952867,-0.0254105441272258,-0.775283694267273,0.6309975981712341,0.0368913284675814,0.2144140781630868,2.946920946411256,-0.1240727305412292,-0.0161564089357852,0.0222966410219669,0.264105593059212,-0.2243621413595974,-9.678002614974975,14944.0
17.39,2.799999952316284,253.0,20.970598220825195,28.17313575744629,-79.78278034785745,40.45904011140808,279.491127243042,0.0078659746795892,-0.0267597995698452,-0.7755629420280457,0.6306538581848145,0.0538323451247069,0.1981578369874762,2.9595950357145067,0.021800572052598,-0.0029668789356946,-0.069791704416275,0.3465946214273572,0.0265176163427531,-9.900354684591294,14944.0
17.59,2.900000095367432,253.0,20.90048217773437,29.07963752746582,-79.78278015685537,40.45904001335496,280.13097023010255,0.0135191287845373,-0.018109742552042,-0.7777239680290222,0.6281996965408325,0.0212548858313288,0.1655352790706502,3.0225837812574494,0.1291982233524322,0.0162641387432813,-0.0107524115592241,0.4117802951484919,-0.0968503016419708,-9.935995802879336,14945.0
17.69,3.0,250.0,20.881702423095703,28.03000259399414,-79.78278013299926,40.459040047015705,280.4347870254517,0.0204242914915084,-0.0141601720824837,-0.7786843180656433,0.6269236207008362,-0.0412167022125995,0.1436635412864332,3.0420925560627787,0.1324091106653213,0.0802283734083175,0.0987909212708473,0.2738661126047373,-0.2854656180180609,-9.923308514356613,14945.0
17.79,3.0,255.0,20.79656219482422,30.47914886474609,-79.78278006607593,40.45904002216761,281.0745546722412,0.0286096651107072,-0.0131896408274769,-0.7801958322525024,0.6247416138648987,-0.1123546985285739,0.1524269389308184,3.0378349469536485,0.0487119406461715,0.0527263842523098,-0.0008814333123154,0.3767002537474036,-0.3506509811058641,-9.835771018266678,14946.0
17.99,3.0999999046325684,259.0,20.771520614624023,31.083484649658203,-79.78278006514412,40.45904005429053,281.37888549804694,0.0286674741655588,-0.0149052385240793,-0.7805081009864807,0.6243101954460144,-0.1239685669812613,0.161049177139286,3.0373115866004463,-0.0674464851617813,0.0250347796827554,0.0566302947700023,0.5008928849548102,-0.319076345488429,-9.691202119588851,14946.0
18.09,3.2000000476837163,260.0,20.884206771850582,28.98421669006348,-79.78278008210931,40.45904009744351,282.00647377014167,0.0252941455692052,-0.0219552908092737,-0.7790653705596924,0.6260474324226379,-0.091145547176518,0.1496392347214436,3.0286506441825773,0.0114687094464898,-0.0040332092903554,-0.1048637479543686,0.5236203178390861,-0.1997264148294925,-9.828173146247863,14947.0
18.29,3.299999952316284,268.0,20.68012237548828,31.679866790771484,-79.78278014339818,40.45904003107636,282.3227369689941,0.0244697518646717,-0.022947110235691,-0.7777404189109802,0.6276898980140686,-0.048107094021276,0.1398439518481244,3.024541227334533,0.0114512760192155,-0.0445782430469989,-0.0344003140926361,0.5926441039144993,-0.1260121111292392,-9.73404466867447,14947.0
18.39,3.299999952316284,269.0,20.79280662536621,30.01794624328613,-79.78278030012977,40.45904008972048,282.9318630599976,0.0225569810718298,-0.0191644076257944,-0.7757337689399719,0.6303658485412598,-0.0539250023806468,0.1098890285318286,3.0637495573599622,-0.0271793529391288,-0.0178627371788024,0.0355727896094322,0.4648332156613469,-0.1360971054621041,-9.891275128126145,14947.0
18.59,3.5,274.0,20.791553497314453,29.97023582458496,-79.78278036136102,40.45904016266894,283.2502519989014,0.0221016518771648,-0.0184102226048708,-0.7754665017127991,0.6307331919670105,-0.0664607289860169,0.0939841702374934,3.0662505700750464,-0.0029055690392851,-0.0173084549605846,-0.0412671752274036,0.5977345071360469,-0.0790908184926957,-9.886796160936356,14948.0
18.79,3.5999999046325684,276.0,20.97936248779297,27.10759735107422,-79.78278054793033,40.459040252748906,283.8743097686768,0.0227217338979244,-0.0175311993807554,-0.7755008935928345,0.6306939125061035,-0.0700620089165267,0.0738400624180477,3.066272748455208,0.0904512628912925,-0.0324775502085685,0.0761082619428634,0.5533722667023541,-0.1322006945405155,-9.823025257587434,14948.0
18.89,3.700000047683716,278.0,20.72769927978516,30.45529365539551,-79.78278065061252,40.459040293836935,284.1801645660401,0.0253603234887123,-0.0150791369378566,-0.7755309343338013,0.6306198239326477,-0.0584031322854645,0.0758459652425425,3.0475994030872733,0.0854240953922271,-0.0220856461673975,0.0837251767516136,0.5212324976921082,-0.1382643028534949,-9.743107268214226,14949.0
18.99,3.799999952316284,282.0,20.95056533813477,27.95048522949219,-79.7827808398592,40.45904039647245,284.80101989746095,0.0262130293995142,-0.0112507520243525,-0.7758062481880188,0.6303261518478394,-0.0892039061296158,0.0614962068480555,3.050115506971581,-0.0044364589266479,-0.0614486746490001,-0.0128673752769827,0.5699436413124204,-0.1454153379611671,-9.80940475344658,14949.0
19.19,3.799999952316284,287.0,20.807830810546875,28.91264915466309,-79.78278095512158,40.45904041632753,285.1052248382568,0.0219510272145271,-0.0142028359696269,-0.7764290571212769,0.6296622157096863,-0.0784330937266679,0.0530350446854576,3.0307668459392145,-0.1348405629396438,0.0510070100426673,-0.0576723515987396,0.469340176396072,-0.0722585388645529,-9.59627140402794,14950.0
19.29,3.799999952316284,288.0,20.83287239074707,29.381805419921875,-79.78278121651142,40.45904049775425,285.7261927032472,0.015122196637094,-0.0239937659353017,-0.7782485485076904,0.6273157000541687,-0.0120503448259258,0.0519638063591262,3.0053218445628453,0.024955116212368,0.0499720387160778,-0.1141743883490562,0.4875441301614046,-0.0125909921899437,-9.584028503894809,14950.0
19.49,3.900000095367432,286.0,20.74272346496582,30.542762756347656,-79.7827813325988,40.4590405255551,286.0266096496582,0.0157007928937673,-0.0222546234726905,-0.779714047908783,0.6255432367324829,0.0081695433933354,0.0694630054703498,3.0053168567507584,0.1077351123094558,-0.0387080088257789,-0.0928963050246238,0.6414562947303057,0.0889612748287618,-9.802521411180496,14951.0
19.59,3.900000095367432,286.0,20.697650909423828,31.512880325317383,-79.78278151655817,40.45904059156207,286.6534044647217,0.0206655971705913,-0.0173375401645898,-0.7817649245262146,0.6229895949363708,-0.0509313252178498,0.0659095180853566,3.053396070875652,0.1014722734689712,-0.0332505032420158,-0.0605429783463478,0.6092572495713829,-0.1607575364783406,-9.881464669704435,14951.0
19.79,4.0,286.0,20.901735305786133,28.284460067749023,-79.78278161418777,40.45904064677784,286.9595873260498,0.0224932581186294,-0.0143233351409435,-0.7816328406333923,0.6231685876846313,-0.0791062806251314,0.0777670786506763,3.0688816932063085,0.0969686582684516,-0.0892324820160865,0.0133638912811875,0.6992350445687772,-0.3439599756896496,-9.976854976415632,14951.0
19.89,4.099999904632568,288.0,20.91175079345703,28.212894439697266,-79.78278182200889,40.45904072309077,287.5836164855957,0.023894989863038,-0.0115313250571489,-0.7796587944030762,0.6256423592567444,-0.1042140632454571,0.0687663080936465,3.067594919393518,-0.0140748703852295,-0.0087996767833828,-0.0316188931465148,0.7274219130724668,-0.2319703373685479,-9.867845335006717,14952.0
20.09,4.099999904632568,290.0,21.099557876586918,24.58688545227051,-79.78278190829509,40.45904081571073,287.89373420715333,0.0256267134100198,-0.0120791643857955,-0.7788702845573425,0.6265448927879333,-0.1099113306041499,0.0717837241634772,3.032863870455107,-0.0263748783618211,0.032634649425745,0.0331302173435688,0.5598779519274831,-0.2410791299119592,-9.602624988555908,14952.0
20.19,4.099999904632568,291.0,21.25731658935547,22.082077026367188,-79.78278206691844,40.45904089834304,288.50531219482417,0.0273055639117956,-0.0149294072762131,-0.7774269580841064,0.6282028555870056,-0.10462645385439,0.0878331282817683,2.8840787766856555,0.0267951376736164,0.0325001589953899,-0.0952014848589897,0.5691712241247296,-0.1557315622642636,-9.188678957819937,14953.0
20.39,4.099999904632568,290.0,21.236032485961918,22.583038330078125,-79.7827821347581,40.459040932912,288.7876016998292,0.0282369088381528,-0.0153573444113135,-0.7765160202980042,0.6292772889137268,-0.0903752891441616,0.0956817870710656,2.753720167419856,-0.0040280274115502,-0.0021908981725573,-0.0254663284868002,0.5255185067653656,-0.1401724320463836,-8.504043679833412,14953.0
20.49,4.099999904632568,290.0,21.31365966796875,21.175573348999023,-79.7827822027355,40.45904095610416,289.05632423400886,0.0298357363790273,-0.0155049571767449,-0.7755934000015259,0.6303367614746094,-0.0726925782996596,0.0917320022489002,2.61613578894351,-0.0371762923896312,0.0160194188356399,0.0663462728261947,0.4145594036579132,-0.2159151439927518,-8.43160544872284,14954.0
20.69,4.099999904632568,288.0,21.31616401672364,21.06424903869629,-79.78278231497897,40.45904097497158,289.57173561096187,0.0307349525392055,-0.0199629291892051,-0.773781418800354,0.6323917508125305,-0.0507365394115137,0.1005235945550096,2.332779641233899,-0.0290305167436599,-0.0067165470682084,0.0095461839810013,0.601324259005487,-0.1127618819195777,-8.243130392432214,14954.0
20.89,4.099999904632568,289.0,21.331188201904297,21.072200775146484,-79.78278240526791,40.459041031352136,290.0276853942871,0.0282555595040321,-0.0197943188250064,-0.7732767462730408,0.6331294775009155,-0.0290943226853941,0.0775350646706735,2.064217042360735,-0.0254885870963335,-0.0128893330693244,0.0933484733104705,0.5340330029278993,-0.1156979424878955,-8.237881346940995,14955.0
20.99,4.0,289.0,21.218503952026367,22.821590423583984,-79.7827824786057,40.45904102630168,290.22741149902345,0.0262588206678628,-0.0220443662256002,-0.7732405066490173,0.6331853866577148,-0.0158333736009417,0.0677933824821754,1.9286623137755607,-0.0552061572670936,0.0478687994182109,-0.0068724225275218,0.5262133752554655,-0.0639703253796324,-8.371049929261208,14955.0
21.09,4.0,289.0,21.244796752929688,22.344484329223643,-79.78278251462599,40.45904103566723,290.4309065246582,0.0253475289791822,-0.0256567019969224,-0.7733631730079651,0.6329365372657776,0.003960748944261,0.0602296668698351,1.8291288051218448,-0.0809694752097129,0.0868237614631652,0.0168930925428867,0.5413963650539517,-0.0557844701455906,-8.482155797481537,14955.0
21.29,4.0,290.0,21.27985382080078,21.597017288208008,-79.78278264707,40.45904102939884,290.8049967193604,0.0268315430730581,-0.0326099134981632,-0.7739413976669312,0.631847620010376,0.0237885005558646,0.0560135524772391,1.637509530859366,0.0197142027318477,0.0458089299499988,0.0796367079019546,0.645830889120698,-0.1122743337694555,-8.614188850522043,14955.0
21.39,3.900000095367432,292.0,21.271089553833008,22.257015228271484,-79.78278274434544,40.459041026085366,290.9629595184326,0.0283835884183645,-0.0332567170262336,-0.7739036679267883,0.6317923665046692,0.0177712451717103,0.0377553794753753,1.5242613912670195,0.0006701937527395,0.0031020308379083,0.0834405496716499,0.4960084864497185,-0.0760160738462582,-8.596923192143441,14955.0
21.59,3.799999952316284,293.0,21.25356101989746,22.56713485717773,-79.78278288976877,40.45904101968709,291.3012506866455,0.0311719868332147,-0.035064160823822,-0.7733743190765381,0.6322113275527954,0.0050409856877238,0.0080894903954643,1.3886672718380504,-0.0651235058903694,0.0014470568858087,0.0705074518918991,0.5997508098185063,-0.0984517352376133,-8.80057001888752,14956.0
21.79,3.900000095367432,295.0,21.185949325561523,23.40207099914551,-79.78278305408416,40.45904103439293,291.62536071777345,0.02643883228302,-0.0359434075653553,-0.7738945484161377,0.6317407488822937,0.0113009987040919,-0.0241231615949454,1.2898711633721194,-0.0171490162611007,-0.0677838400006294,0.1416334062814712,0.5950993497669698,-0.0504586571082472,-8.855600504279137,14956.0
21.89,3.799999952316284,296.0,21.16967391967773,23.72809410095215,-79.78278323662825,40.45904105633496,291.7501776123047,0.0256291981786489,-0.0336365513503551,-0.7744452357292175,0.631226122379303,0.0070863364496137,-0.0585257195201184,1.2296241917563593,0.0282665304839611,-0.0143855437636375,-0.0376226492226123,0.5942473373562098,0.0795304834283888,-9.108200805187224,14956.0
21.99,3.799999952316284,294.0,21.33369255065918,20.937021255493164,-79.78278344147965,40.45904108701236,291.86976264953614,0.0257660429924726,-0.0306572411209344,-0.7747721076011658,0.6309710741043091,-0.0006845263527568,-0.0852810819636204,1.184075610845248,-0.0165879968553781,-0.0658185854554176,0.0399108156561851,0.4799501319229603,-0.0926586154662072,-9.263652541637422,14956.0
22.19,3.700000047683716,294.0,21.74060821533203,15.927403450012209,-79.78278369568764,40.45904109352658,292.1571504974365,0.0245920717716217,-0.024323534220457,-0.7753651142120361,0.630565345287323,-0.0079620197467641,-0.0924906690610059,1.052387298441278,0.016375221312046,-0.2212338596582412,0.054640993475914,0.6595382975041867,-0.0121771829109638,-8.3593046271801,14957.0
22.29,3.700000047683716,294.0,21.31365966796875,20.52352905273437,-79.78278397243766,40.459041057689774,292.3565542602538,0.015487166121602,-0.0030824521090835,-0.747020959854126,0.6646129488945007,-0.0336308482777482,-0.1150364668628628,0.6692238025341187,0.0731358453631401,-0.1659027338027954,-0.7513822317123413,0.5985565891116857,-0.2239168941602111,-7.693105620145798,14957.0
22.49,3.700000047683716,292.0,21.322423934936523,20.467866897583008,-79.78278413111438,40.459041111601465,292.41656135559083,0.0113087007775902,-0.003144187387079,-0.7183049917221069,0.6956294178962708,-0.0569792751431581,-0.1214773566836526,0.5451889335652848,-0.0977106019854545,-0.0178916882723569,-0.8769038915634155,0.3323174384236336,-0.2871375014260412,-8.43216268837452,14957.0
22.59,3.5999999046325684,280.0,21.39253807067871,19.76015853881836,-79.78278439980414,40.45904126141652,292.4367144012451,0.0116889774799346,-0.0075248936191201,-0.6858150959014893,0.7276430726051331,-0.0594130038728824,-0.1111743915542974,0.4583073720583765,0.009036598727107,0.1306120455265045,-1.0407859086990356,0.4036839479953051,0.0750555818807333,-8.699261745214464,14957.0
22.79,3.5,280.0,21.103315353393555,24.491464614868164,-79.78278478702255,40.45904139778017,292.462110748291,0.0187305845320224,-0.0086947120726108,-0.6220693588256836,0.7826898694038391,-0.0394737941326771,-0.0579693978002366,0.2817501512359874,0.0808266848325729,-0.0094285411760211,-0.7291365265846252,0.4792453231662512,0.0523272353690117,-8.950283297896386,14957.0
22.89,3.5,282.0,21.17718505859375,22.98857879638672,-79.78278485949177,40.45904141604748,292.4885542297364,0.0198552031069994,-0.0057789366692304,-0.5955771207809448,0.8030319809913635,-0.0176985078684372,-0.0355330998004099,0.2549256822856251,0.089880533516407,-0.0146487522870302,-0.5898483991622925,0.534525777027011,0.1503189135063439,-9.406422836780546,14957.0
23.09,3.400000095367432,261.0,21.019428253173828,25.75579643249512,-79.78278509001372,40.4590415038282,292.5248453521729,0.0286628529429435,-0.0170658677816391,-0.561776876449585,0.826616108417511,0.0140224501768252,-0.0290572820641287,0.3378693674657838,-0.1266473084688186,0.0939338281750679,-0.1178382262587547,0.6215509839355946,0.0026987549755722,-10.04494931101799,14957.0
23.19,3.400000095367432,258.0,21.1208438873291,23.68833541870117,-79.78278510695219,40.459041507151866,292.529852142334,-0.0124391373246908,0.0004116771160624,-0.5513851046562195,0.8341580629348755,0.066310917061443,0.0985472392155195,0.380575672323177,0.0307365395128726,-0.7205224633216858,0.0161440875381231,0.8566266679018736,0.1530211585387587,-10.077038830518722,14957.0
23.39,3.299999952316284,260.0,21.079524993896484,23.96664619445801,-79.78278493420409,40.45904149643045,292.5682852172852,-0.040917444974184,0.0223572198301553,-0.5524780750274658,0.8322222828865051,0.079348971814381,0.1701044663520584,0.3889380740609107,0.1038893461227417,-0.6433478593826294,0.1181180253624916,0.4199962909519673,0.2326199630275369,-9.877476868629456,14957.0
23.49,3.2000000476837163,261.0,20.940547943115234,26.646394729614247,-79.78278462370501,40.45904151988643,292.60782455444337,-0.0624318048357963,0.0416595973074436,-0.5558944344520569,0.8278575539588928,0.08808555984754,0.2928153849152745,0.4355998660965015,0.0878508538007736,-0.4122985601425171,0.1277900040149688,0.3197201604768634,0.2626512991636992,-10.043116793632509,14957.0
23.69,3.0999999046325684,229.0,21.09705352783203,23.89508056640625,-79.78278422825909,40.459042101091406,292.5167906188965,-0.0818226560950279,0.0631092861294746,-0.5674952864646912,0.8168668746948242,0.078699948727347,0.6278976107674338,0.5518656941039348,0.0686260610818862,-0.0841808468103408,0.0793597698211669,0.3088115584105253,0.1536506113037467,-10.482205266952516,14957.0
23.79,2.900000095367432,225.0,21.05198097229004,25.437725067138672,-79.78278229323105,40.45904282038333,292.49060272216803,-0.0905340388417244,0.0640236958861351,-0.579663097858429,0.8072764873504639,0.0515410736017443,1.0766591525255949,0.6441047818482603,-0.0399451702833175,-0.0828397274017334,0.1253383904695511,0.3203215831518173,-0.0629863440524786,-10.276320126056673,14957.0
23.99,2.700000047683716,228.0,21.00189781188965,25.92278289794922,-79.78278080699556,40.459043168524985,292.5306837463379,-0.0932829231023788,0.0641203373670578,-0.5845547318458557,0.8034194111824036,0.0416366287356707,1.3220663340862877,0.7140103736519352,-0.0176811050623655,-0.0126264421269297,0.1551402509212494,0.2722225881926715,0.0410816783644259,-10.173704999685288,14957.0
24.09,2.5,230.0,20.941801071166992,26.455551147460927,-79.78277920689331,40.45904378838804,292.4920046234132,-0.0939626470208168,0.0654822587966919,-0.5879666805267334,0.8007360696792603,0.0057445830071809,1.549894245396791,0.7423548781176988,0.0725243985652923,-0.0475268550217151,0.0199174992740154,0.2620805195532739,0.0595496795978397,-10.176918629407885,14957.0
24.29,2.200000047683716,242.0,20.887962341308597,27.34615135192871,-79.78277514262223,40.45904516106376,292.485943069458,-0.0977113172411918,0.0696191042661666,-0.5897709727287292,0.7986088395118713,-0.0601572824995841,2.022051790670095,0.8505765935955452,-0.0335866138339042,-0.1108050644397735,0.0244257431477308,0.3089323034137488,-0.0661671243002638,-10.243404979705812,14957.0
24.39,2.0999999046325684,240.0,20.96183204650879,26.566877365112305,-79.78277257203975,40.45904582553394,292.5223371887207,-0.1031225621700286,0.0726795122027397,-0.5881952047348022,0.7988178133964539,-0.0604560361323559,2.280214577574037,0.9429087496313464,-0.0639422163367271,-0.1629324853420257,-0.0002127465122612,0.162808228097856,-0.0493828562228009,-10.294098000526429,14957.0
24.59,1.8999999761581416,245.0,20.84038352966309,27.91072654724121,-79.78276691636475,40.45904780671256,292.51538299560553,-0.1162486150860786,0.0838448852300643,-0.581230878829956,0.8010162711143494,-0.0815361825479534,2.7690811909693966,1.15303225037156,0.0720766112208366,-0.1236806809902191,-0.1817898005247116,0.0677594444621354,0.1254362974315881,-10.419082235097886,14957.0
24.69,1.7999999523162842,251.0,20.851652145385746,27.27458381652832,-79.78276343265564,40.45904872893735,292.55369781494136,-0.1194676756858825,0.0878968015313148,-0.5779411792755127,0.8024872541427612,-0.0556612544760826,3.0276622944309928,1.3108834623573078,-0.0181778538972139,-0.0635038092732429,-0.0650254637002945,0.0260325623955577,0.0174069291644264,-10.482081305980683,14957.0
24.89,1.7999999523162842,262.0,20.97936248779297,25.49338722229004,-79.7827561163541,40.4590514673997,292.53770278930665,-0.1155267730355262,0.0889455080032348,-0.5718968510627747,0.8072646856307983,-0.0537150141552386,3.5452111631339784,1.4812170334975878,0.0175329372286796,0.1061071455478668,-0.021107705309987,-0.1312207742873579,0.0755763221159577,-10.336359336376187,14957.0
24.99,1.7999999523162842,298.0,21.02193069458008,25.64447021484375,-79.78275170842093,40.45905266461696,292.5756914520264,-0.1126577630639076,0.0887142121791839,-0.5699390769004822,0.8090782165527344,-0.0166077475530945,3.8276285621363217,1.5471704790505676,-0.0035236512776464,0.0518383085727691,-0.0021347242873162,-0.1120176227297634,0.0100602076202631,-10.205243711471557,14957.0
25.19,1.8999999761581416,10.0,21.040712356567383,25.20712280273437,-79.78274277049125,40.45905597619088,292.5726168060304,-0.1135171204805374,0.0915142148733139,-0.5672380328178406,0.8105431199073792,-0.0132999695389739,4.318594493712559,1.6226613800243006,-0.0219478942453861,0.0070782527327537,0.0147684719413518,-0.2551631172560155,-0.00228405947797,-10.084461286067963,14957.0
25.29,2.0999999046325684,21.0,20.87168502807617,27.163259506225582,-79.78273751858242,40.45905742199533,292.60481666564937,-0.1145525351166725,0.0918449088931083,-0.5680568814277649,0.8097861409187317,0.0068266186904803,4.567285649905225,1.7025479720825751,-0.0005672367988154,-0.003284859471023,-0.0806571915745735,-0.2954785545542836,0.0955722190719097,-10.016295615434649,14957.0
25.49,2.400000095367432,31.0,21.046972274780277,25.294591903686523,-79.78272679347383,40.45906157938504,292.579282989502,-0.110930897295475,0.0884769931435585,-0.5714285969734192,0.8082918524742126,-0.0594845239653128,5.048214871675155,1.7832054575064524,-0.0335205234587192,0.041113257408142,0.0524133257567882,-0.4081335694715381,-0.0237296182382851,-9.984182707071303,14957.0
25.59,2.700000047683716,33.0,21.06575393676757,23.96664619445801,-79.78271524422047,40.45906642246013,292.5420668029785,-0.1108484715223312,0.0832789689302444,-0.5744032263755798,0.8067455291748047,-0.1826588669048132,5.514391338301063,1.775606666943627,0.0031452134717255,0.0129041634500026,0.0365023724734783,-0.2718364526890218,0.0099016178841702,-9.91822494506836,14957.0
25.79,3.2000000476837163,37.0,21.08077812194824,23.99845314025879,-79.78270930219624,40.45906964515002,292.4949800872804,-0.1097322925925254,0.0838040560483932,-0.5746150016784668,0.806692898273468,-0.3107115289121509,5.7300898964208695,1.7831569068115023,0.0608703568577766,0.0728619173169136,0.096783347427845,-0.5781918698921801,-0.0107467164192348,-9.8628553211689,14957.0
25.89,3.5,40.0,21.06450080871582,24.01435661315918,-79.78270261860027,40.45907170091144,292.50892280578614,-0.1060726791620254,0.0811557471752166,-0.5770835876464844,0.805690348148346,-0.3040354017855704,5.926125660091095,1.8232598395773536,0.0261873826384544,0.200046181678772,0.0499406568706035,-0.6211319578438997,0.0797681727446615,-9.832275552749632,14957.0
26.09,4.0,41.0,21.089542388916016,23.93483924865723,-79.78268872339753,40.45907702356028,292.50201629638667,-0.0771840363740921,0.0620627701282501,-0.5830538272857666,0.8063741326332092,-0.4196344725706533,6.326977177832704,1.6444065742579932,0.0567032396793365,0.4192517399787903,0.0167464837431907,-0.6022845179960132,0.1648528715036809,-9.682138350605968,14957.0
26.19,4.099999904632568,42.0,21.05949211120605,23.37026405334473,-79.782673912291,40.45908255005449,292.49859260559083,-0.050235342234373,0.0388395972549915,-0.5866625905036926,0.8073382377624512,-0.5214537976237297,6.677361061805732,1.116606135857472,-0.0463888123631477,0.1844484806060791,0.0421126261353492,-0.5109639464691281,0.0903332143463194,-9.583797538876532,14957.0
26.39,4.5,42.0,21.202226638793945,22.082077026367188,-79.78266646277527,40.45908486774825,292.50269721984864,-0.0443454682826995,0.0310103688389062,-0.5855572819709778,0.8088229298591614,-0.4899818972707623,6.768437976701213,0.8862731759955077,-0.0061568105593323,0.2110088914632796,-0.081692449748516,-0.5283516289293766,0.1707713135518133,-9.478644136190416,14957.0
26.49,4.599999904632568,40.0,21.2134952545166,21.565210342407227,-79.78265896709328,40.45908718485372,292.50310920715333,-0.0383300855755806,0.0214019529521465,-0.5825253129005432,0.8116261959075928,-0.4529843325579021,6.813102409657635,0.7283191155716604,-0.0916692465543747,0.289503276348114,-0.1492696851491928,-0.6973230050504208,0.2897259176149964,-9.424771984219552,14957.0
26.69,4.800000190734863,58.0,21.209739685058597,22.026412963867188,-79.78264377623412,40.45909308912353,292.4833471679688,-0.0204694923013448,0.0054881540127098,-0.5715171694755554,0.8203164339065552,-0.3665524148770109,6.889380141934527,0.3425940659511857,0.0182077530771493,0.2206792533397674,-0.1655414700508117,-0.6048364256322384,0.1262286134250462,-9.251217852830887,14957.0
26.79,4.900000095367432,63.0,21.334943771362305,20.094133377075195,-79.78263559101579,40.45909636008823,292.46036743164063,-0.0134510407224297,-0.0011544283479452,-0.5651513934135437,0.8248767256736755,-0.3396462039769457,6.929935335124909,0.1660653474902271,-0.1117535606026649,0.180246040225029,-0.0786308795213699,-0.4938784919679165,0.0127610273938626,-9.345868486762049,14957.0
26.99,5.0,63.0,21.3599853515625,20.07027816772461,-79.78262065367734,40.459101263370506,292.4253771209717,-0.0065018772147595,-0.0135779296979308,-0.5570803284645081,0.8303221464157104,-0.1936326675177915,6.847924250127425,-0.1855530922344293,0.0181955322623252,0.1144279390573501,-0.1312177032232284,-0.5200167884677649,0.2193890844471752,-9.20603173971176,14957.0
27.09,5.0,63.0,21.312406539916992,20.61894989013672,-79.78261233270376,40.45910443544097,292.3965017700196,-0.0016296944813802,-0.0143838105723261,-0.5568028688430786,0.8305185437202454,-0.1839398582367886,6.845795745895777,-0.2830072768588727,0.1079905852675438,0.0604695864021778,0.1742130368947982,-0.6262554343789816,0.0248116089496761,-9.175849581956864,14957.0
27.29,5.0,75.0,21.24354362487793,21.85147476196289,-79.78259773413505,40.45910939433677,292.334331741333,0.0158235002309083,-0.008296076208353,-0.5632496476173401,0.8260936737060547,-0.26505621314154,6.679817194915563,-0.5018895048762154,0.0754952207207679,0.153620645403862,0.0157207660377025,-0.5824689254164696,-0.1579530291259288,-9.384609798789024,14957.0
27.39,5.0,80.0,21.153396606445312,22.877254486083984,-79.78258986757162,40.45911212478839,292.2766592407227,0.0256937444210052,-0.010914959013462,-0.5670396685600281,0.8232173323631287,-0.3349149556569918,6.603327863316075,-0.6091932395518289,0.0257264450192451,0.2779237031936645,-0.0196275450289249,-0.6260249079018831,-0.048928842768073,-9.417289887070655,14957.0
27.6,5.0,81.0,21.11708641052246,24.141586303710927,-79.78257519777469,40.45911725176146,292.16983627319337,0.0468453355133533,-0.0256146024912595,-0.5746140480041504,0.8166811466217041,-0.4657574148778633,6.362777710022542,-0.8855753178442083,-0.0733013749122619,0.1879532188177108,-0.0048116305842995,-0.2899973015114665,-0.1916219181194901,-9.89311583161354,14957.0
27.69,4.900000095367432,82.0,20.93929672241211,25.5649528503418,-79.78256837812549,40.45911963634517,292.1345827484132,0.0516074374318122,-0.0314517617225647,-0.5770101547241211,0.8144978284835815,-0.5393043562505837,6.197264097384244,-1.0113708841267492,-0.0890725255012512,0.0652119889855384,-0.0361742600798606,-0.3197452304139733,-0.188104598633945,-9.97342967748642,14957.0
27.89,4.900000095367432,104.0,20.98562240600586,25.98639678955078,-79.78255419034177,40.45912447917442,292.0392935180664,0.0481563694775104,-0.0328325927257537,-0.5785726308822632,0.813545823097229,-0.5840926546178242,5.9653402466347005,-1.023426108213706,0.0890330821275711,-0.1160600259900093,0.0499609895050525,-0.2958152079954743,-0.0964573961589485,-10.15365021944046,14957.0
27.99,4.800000190734863,106.0,20.841636657714844,27.640365600585927,-79.78254095306963,40.45912920829461,291.91190551757813,0.0419966578483581,-0.017372602596879,-0.5768705010414124,0.8155702948570251,-0.5560859258041073,5.789132070612783,-0.8022215134553555,0.0911919847130775,-0.01019087433815,-0.1447086334228515,-0.249563878364861,-0.028242613482289,-10.24304479122162,14956.0
28.19,4.699999809265137,108.0,20.92927932739257,26.20109558105469,-79.78253473636985,40.45913141429328,291.89357398986823,0.0359263531863689,-0.016982277855277,-0.5752692818641663,0.8169982433319092,-0.5490410542522682,5.698085609488,-0.6775324716647011,-0.1523760557174682,-0.1171544790267944,0.0116436779499053,-0.2299626958742738,-0.3664461378380656,-10.419165265560151,14956.0
28.29,4.599999904632568,109.0,21.041963577270508,24.865196228027344,-79.7825287582143,40.45913351184749,291.77898429870606,0.028181442990899,-0.0179122667759656,-0.5731167197227478,0.8187931776046753,-0.5257845494312307,5.600962817344893,-0.6154582743854506,-0.081580102443695,-0.1077883094549179,-0.0693428665399551,-0.2969498601928353,-0.0787655397132039,-10.2414601957798,14956.0
28.49,4.5,100.0,21.142127990722656,23.50544357299805,-79.78251688524078,40.4591377899876,291.75443672180177,0.0200610719621181,-0.0121849328279495,-0.5689187049865723,0.8220587372779846,-0.4819557203959879,5.450066554938109,-0.3933924323217667,0.0198267493396997,-0.0444854982197284,-0.0548047162592411,-0.2665081591531634,-0.0345574510702863,-10.221998323202136,14956.0
28.59,4.400000095367432,96.0,20.92927932739257,26.07386589050293,-79.78251119395449,40.45913982565455,291.6639578247071,0.0170305669307708,-0.0067658922635018,-0.5671554207801819,0.8234069943428041,-0.4446159948942999,5.3804024309589815,-0.3704709937205513,0.020888727158308,-0.073607288300991,-0.0641197338700294,-0.1116839933954179,-0.1802177279815077,-10.038671740293504,14956.0
28.79,4.199999809265137,97.0,20.93553924560547,26.360130310058597,-79.78249977969743,40.45914396900135,291.64790939331056,0.0089844642207026,-0.0002429252781439,-0.5656408667564392,0.8246027231216431,-0.4084576377458755,5.291583177616731,-0.1584699418768536,0.048549547791481,-0.0498900115489959,0.018558932468295,-0.3268605975061655,-0.1588465384952724,-10.294992624521257,14956.0
28.89,4.099999904632568,97.0,20.87919807434082,26.10567283630371,-79.78248888255611,40.45914794854352,291.56316780090333,0.0083771320059895,-0.0001195067961816,-0.5663858652114868,0.8240976929664612,-0.3920545879965955,5.187337654124822,-0.0330225342440788,0.0118157332763075,0.0663836449384689,-0.129583865404129,-0.2424661625549197,0.029627896528691,-10.363657647371292,14956.0
29.09,4.0,92.0,20.9167594909668,25.98639678955078,-79.78248346453431,40.45914981831892,291.48982833862306,0.007215591147542,-0.002967853564769,-0.5667747855186462,0.8238357901573181,-0.3881169865440044,5.124380666890948,-0.0358702710294597,-0.023822795599699,0.0482041761279106,0.0844384953379631,-0.3370552910864353,-0.215332377590239,-10.373104408979415,14956.0
29.19,3.900000095367432,91.0,20.844141006469727,27.234825134277344,-79.78247800781205,40.45915179746629,291.49697135925294,0.0058270613662898,-0.0058098696172237,-0.5666460990905762,0.8239201903343201,-0.401906236228653,5.091912114432789,0.0216441386919796,-0.0734598785638809,0.0109875807538628,-0.0277625285089016,-0.2657852971181274,-0.0591100329346954,-10.345454095602037,14956.0
29.39,3.799999952316284,91.0,21.10456657409668,23.664478302001957,-79.78246735085655,40.459155645118,291.4712316894532,-0.0009790254989638,-0.0066532865166664,-0.5664474368095398,0.8240705132484436,-0.407952600593695,5.013586396192759,0.1194345113852218,-0.0289553273469209,-0.121799424290657,0.0860350504517555,-0.2112681424431503,-0.1124870536476373,-10.37961119055748,14956.0
29.49,3.700000047683716,90.0,21.05072784423828,24.07001876831055,-79.78246201857843,40.45915760373074,291.49089073181165,-0.0039498107507824,-0.0013197434600442,-0.5676052570343018,0.8232902884483337,-0.4065765362737596,4.994916132791134,0.1853314183852904,0.1027788966894149,-0.1432893723249435,0.0076002534478902,-0.1144352545402944,0.1217548356391489,-10.155241831541062,14956.0
29.69,3.5999999046325684,90.0,20.946807861328125,24.09387588500977,-79.78245157471169,40.45916134904429,291.4745542907715,-0.0073766419664025,0.0090813282877206,-0.5716610550880432,0.8204065561294556,-0.4243810122029528,4.948743881511838,0.2916930296787738,0.038358885794878,-0.0632682293653488,0.1030740961432457,-0.2647552735358477,-0.074953611921519,-10.099175219535828,14956.0
29.79,3.5999999046325684,85.0,20.928028106689453,25.61266326904297,-79.78244134265188,40.45916515416674,291.4629461669922,-0.0149637190625071,0.0057731508277356,-0.5724970102310181,0.8197499513626099,-0.4708202168950062,4.9143987023702325,0.3454605217595371,-0.0772542431950569,-0.0775455310940742,-0.0420781895518302,-0.1466912917792797,-0.0009732393524609,-10.100524756908415,14956.0
29.99,3.5,83.0,20.98562240600586,25.827362060546875,-79.78243607623881,40.45916707697489,291.48498939514167,-0.0197549108415842,0.0042271860875189,-0.5719844102859497,0.8200156688690186,-0.4648829232590573,4.9268907840674245,0.3805810282300228,-0.0483246780931949,-0.0757346004247665,-0.0448412522673606,-0.2356678059138357,0.0842471033893525,-9.951866315603256,14956.0
30.09,3.5,81.0,20.960580825805664,25.5570011138916,-79.78243113310178,40.4591686648566,291.4535219573975,-0.023823719471693,0.0047292248345911,-0.5708600282669067,0.8206880688667297,-0.4400189373108861,4.8948173317048616,0.3773287792879738,-0.0544569790363311,-0.0429610572755336,0.0297754798084497,-0.3015976657345891,0.0867992851138114,-9.909450613260269,14956.0
30.29,3.5,75.0,20.90298652648925,26.19314384460449,-79.7824203762806,40.4591723598685,291.4924242401123,-0.0305401049554348,0.0062312702648341,-0.5693390965461731,0.8215118050575256,-0.4122658306088144,4.9530546731637,0.4685701156883764,-0.0053418655879795,-0.096494548022747,0.0811814442276954,-0.2818442363664508,0.0146825595013797,-9.829689913988114,14956.0
30.49,3.400000095367432,71.0,20.954320907592773,25.27868843078613,-79.78240967039295,40.459176245102576,291.5350439453125,-0.0361013561487197,0.0100836278870701,-0.5674729347229004,0.8225385546684265,-0.4244115783478413,5.024759022433355,0.5572491608315,-0.0138959381729364,-0.0044605801813304,-0.1272207647562027,-0.2110382555052638,0.2379700191691518,-9.90174398303032,14956.0
30.59,3.400000095367432,69.0,20.980613708496094,25.06399154663086,-79.78240421306351,40.459178010701926,291.56383918762214,-0.0382471345365047,0.0096701392903924,-0.566498875617981,0.8231177330017091,-0.4059600177323728,5.046271914952249,0.6141860585289685,0.0023469252046197,-0.0140318479388952,-0.0987605080008506,-0.3197031670063734,0.1444080637022853,-9.906287269592283,14956.0
30.69,3.299999952316284,68.0,21.046972274780277,23.871225357055664,-79.7823987695862,40.459179996642646,291.5884535217285,-0.0370278805494308,0.0099714109674096,-0.5659334063529968,0.8235587477684021,-0.4057502120192983,5.089609409112758,0.6363238844400108,0.0155916158109903,0.0165019687265157,0.042719617486,-0.3463382941111923,0.057773304618895,-9.88377081155777,14956.0
30.89,3.299999952316284,63.0,21.148387908935547,22.153642654418945,-79.78238772225285,40.45918387271302,291.65203880310065,-0.0341334789991378,0.0093007879331707,-0.5660474300384521,0.8236132264137268,-0.4066862852119646,5.1704381379944735,0.593408280352116,0.072739154100418,0.0333064496517181,-0.0589737296104431,-0.1985803057439625,0.1685994566604495,-9.62039993941784,14956.0
30.99,3.400000095367432,64.0,21.12835502624512,22.55918312072754,-79.78238216247172,40.45918592092747,291.6734716796875,-0.0337190330028533,0.0104544274508953,-0.5666582584381104,0.8231963515281677,-0.4322744732602671,5.215135022334578,0.5548163710088105,0.0039101284928619,-0.0182252097874879,-0.0343373268842697,-0.1304120952263474,0.1556308439746499,-9.536781247258189,14956.0
31.19,3.400000095367432,64.0,21.15715217590332,21.31870651245117,-79.78237099546148,40.459189961944695,291.7419912719727,-0.0331172384321689,0.0125456443056464,-0.5672653317451477,0.8227733969688416,-0.4674580401875736,5.273687598390891,0.5246878241252536,-0.0204528588801622,-0.0327423065900802,-0.0249612480401992,-0.1968054017052054,0.1177642388641834,-9.42285585165024,14956.0
31.29,3.400000095367432,65.0,21.16716957092285,22.439905166625977,-79.78235941689044,40.45919410141816,291.7921068572998,-0.0344407223165035,0.0144261075183749,-0.5675748586654663,0.8224745988845825,-0.4857229984337012,5.358023797253206,0.4845337338614884,-0.021957017481327,-0.0214537195861339,-0.049655258655548,-0.1525126152299344,0.003875068584457,-9.354545754790308,14956.0
31.49,3.400000095367432,65.0,21.089542388916016,22.972675323486328,-79.7823536732989,40.459196241913865,291.7991468811035,-0.0351804345846176,0.0154878664761781,-0.5676151514053345,0.8223962783813477,-0.4937954243323154,5.399833703497668,0.4498029829484434,0.0100340163335204,-0.0124517083168029,0.0738940611481666,-0.2011225654743612,-0.0433465790748596,-9.314785273075104,14956.0
31.59,3.400000095367432,63.0,21.03319931030273,24.30857276916504,-79.78234764371513,40.45919833096568,291.8246061706543,-0.0351457297801971,0.0146665070205926,-0.567632257938385,0.8224009275436401,-0.4952502460470512,5.444641958428013,0.4535003211669904,-0.0511656627058982,0.0288306921720504,-0.0151211079210042,-0.3507863076031208,0.0426604402950033,-9.326762709617617,14956.0
31.79,3.5,65.0,21.010662078857425,24.61869239807129,-79.78233573701081,40.45920263906177,291.8527281188965,-0.0307532716542482,0.0090556293725967,-0.5667075514793396,0.8232951760292053,-0.5002765854873445,5.5154327043584,0.4115852665358468,0.0078903958201408,0.1166503205895424,-0.0408678725361824,-0.4822260144352914,0.0809502056613564,-9.503107132315638,14956.0
31.89,3.5,66.0,21.03319931030273,23.91098403930664,-79.78232392119978,40.45920707074345,291.8544351959229,-0.0261543225497007,0.0085182143375277,-0.5645489692687988,0.8249412178993225,-0.5103381791751087,5.572714362593803,0.314872303953981,0.0286966264247894,-0.0042416546493768,0.0607642009854316,-0.3683149445056915,0.1783494694903493,-9.67337337434292,14956.0
32.09,3.5999999046325684,68.0,20.96558952331543,24.68230628967285,-79.78231765302677,40.45920914668952,291.8930838012696,-0.0262387879192829,0.0097369765862822,-0.5632707476615906,0.8257982730865479,-0.4880833732461385,5.602316704266032,0.3340820804757022,0.0169339142739772,-0.0201870687305927,-0.1117408126592636,-0.2960636050254107,0.0061100434279069,-9.702960285544396,14956.0
32.19,3.700000047683716,72.0,21.016923904418945,24.626644134521484,-79.78231169621158,40.45921139740744,291.8955919647217,-0.0251981113106012,0.0111537091434001,-0.5623741745948792,0.8264236450195312,-0.4878175534328293,5.61296366914726,0.3320539418145761,0.0163391660898923,0.0270137898623943,0.0794681757688522,-0.4251267110556364,-0.1160334813036024,-9.702086126804351,14956.0
32.39,3.799999952316284,73.0,21.077022552490234,23.65652656555176,-79.78229949317091,40.45921569248368,291.93336128234864,-0.0176794305443763,0.0200338270515203,-0.5648150444030762,0.8247848749160767,-0.451554477055785,5.6357829552319005,0.3325199594045184,0.2076950371265411,-0.031964436173439,0.0669517144560813,-0.4557210609689355,0.0038478835998103,-9.718025636672976,14956.0
32.49,3.900000095367432,73.0,20.963085174560547,24.28471755981445,-79.78229348652405,40.45921792478829,291.93707107543946,-0.014531715773046,0.0256478823721408,-0.5671043395996094,0.8231183290481567,-0.4629376266998752,5.64170066441555,0.3157809084664773,0.054333422333002,0.0152181005105376,0.0964200124144554,-0.3799215213954449,-0.0788947997242212,-9.6994858700037,14956.0
32.69,4.099999904632568,72.0,20.877944946289062,26.28061294555664,-79.78228094846902,40.45922218405131,292.010751953125,-0.0202268492430448,0.0218643005937337,-0.5714792013168335,0.8200759291648865,-0.4770811946779479,5.675443706970338,0.3915650835020613,-0.1141679733991622,-0.0148240942507982,-0.0576416850090026,-0.4047006691619754,0.1616925245337188,-9.826332442760462,14957.0
32.79,4.199999809265137,70.0,20.910499572753903,26.566877365112305,-79.78227471730995,40.459224534771366,292.03712867736823,-0.0231745988130569,0.0179940294474363,-0.5730981826782227,0.8189613223075867,-0.504044342783057,5.6929213777957095,0.4513833691079266,-0.0280380081385374,0.0284274090081453,-0.1074256002902984,-0.4383045444265008,0.2174884287267924,-9.800840336680412,14957.0
32.99,4.400000095367432,69.0,20.83662796020508,27.266632080078125,-79.78226245224957,40.459228934040816,292.0630571746826,-0.0294318478554487,0.0105959828943014,-0.5740154981613159,0.8182467818260193,-0.5292250365053363,5.716179349872135,0.4706143144930843,-0.0913303270936012,-0.0325588583946228,-0.0142709631472826,-0.4681761053949594,0.0891901385039091,-9.823676637411118,14957.0
33.09,4.5,70.0,20.851652145385746,26.69410514831543,-79.78225608000578,40.4592310945301,292.0678636932373,-0.0316293686628341,0.0075496453791856,-0.5736464262008667,0.8184573650360107,-0.514594078929158,5.733584517553733,0.5011128141446171,-0.0015578370075672,-0.0518892630934715,-0.0159865822643041,-0.5091099405661226,0.1335371487680822,-9.923457033634186,14957.0
33.29,4.699999809265137,71.0,20.86041641235352,25.914831161499023,-79.78224349382812,40.45923554780276,292.08325790405274,-0.0306616220623254,0.011063857935369,-0.5726765990257263,0.8191331028938293,-0.5264355737659808,5.7716495360254205,0.5153964659806749,0.0176213160157203,-0.0775845795869827,0.0688789337873458,-0.5369777338206768,-0.0035604975186288,-9.844837710857393,14957.0
33.39,4.800000190734863,71.0,20.870433807373047,26.312419891357425,-79.78223729491572,40.459237787407424,292.09863876342774,-0.0285778511315584,0.0131932301446795,-0.5725083351135254,0.8192945718765259,-0.5257374746992171,5.771549278621986,0.5280329045840426,0.1201254203915596,0.0170096047222614,-0.1911135613918304,-0.5136095557361842,0.2214505751430988,-9.824920924901964,14957.0
33.59,5.0,70.0,20.90048217773437,25.517242431640625,-79.78222463700388,40.459242256997854,292.110512008667,-0.022859526798129,0.0160463768988847,-0.5724001526832581,0.8194987177848816,-0.5183568359857815,5.795745906120348,0.4889406169092702,0.0490709654986858,0.0634259432554245,-0.0717503651976585,-0.4819499527662993,0.1436155649833381,-9.911418786048891,14957.0
33.69,5.0,69.0,20.95932960510254,24.865196228027344,-79.78221199168487,40.45924675228447,292.1192953491212,-0.021682746708393,0.0174536202102899,-0.5707424879074097,0.8206572532653809,-0.491732937808796,5.800492406653063,0.4730402937006244,-0.0030656608287245,-0.0084019964560866,-0.0513654500246048,-0.6527159855514765,0.1887696097791195,-9.8664373254776,14957.0
33.89,5.099999904632568,69.0,21.055736541748047,23.36231231689453,-79.78220575189073,40.45924897351018,292.1338064575196,-0.0218842476606369,0.0189214590936899,-0.5690860748291016,0.8217689394950867,-0.4730747492108581,5.802575567165812,0.4573387192876202,-0.0027243765071034,-0.1059845760464668,0.0496582090854644,-0.569742606729269,-0.0949775298312306,-9.65556743323803,14957.0
33.99,5.099999904632568,66.0,21.053232192993164,23.07604789733887,-79.78219951011768,40.45925118801984,292.1459467315674,-0.0248063988983631,0.0199571587145328,-0.5671166181564331,0.8230220079421997,-0.4393051724766279,5.807139717549712,0.4381188489986248,-0.0589316040277481,-0.1017728075385093,-0.087734505534172,-0.5412708691880107,0.0306697196094319,-9.578143866062163,14957.0
34.19,5.199999809265137,67.0,21.09705352783203,22.90110969543457,-79.78218700349977,40.459255587529775,292.13899635314937,-0.0325411483645439,0.0173843093216419,-0.5639484524726868,0.8249854445457458,-0.3772274611820274,5.7905482727693975,0.4270731520268724,-0.0501295030117034,-0.0324075669050216,-0.0144279478117823,-0.8051933164894581,0.1050078618340194,-9.281954911351203,14957.0
34.29,5.300000190734863,67.0,21.082029342651367,23.17942047119141,-79.78218067096839,40.45925785870501,292.1369631195068,-0.0337019227445125,0.0147806061431765,-0.5631486773490906,0.825535774230957,-0.3672999036105309,5.796135965953994,0.4208340307902772,-0.0811281651258468,-0.0137014640495181,-0.0250100139528512,-0.8172631390392778,0.1505625688098371,-9.162010976672171,14957.0
34.49,5.400000095367432,67.0,21.17968940734864,21.51749992370605,-79.78216822137802,40.45926228461536,292.12492774963386,-0.0364941917359828,0.0167473219335079,-0.5641900897026062,0.8246679306030273,-0.3553819640645048,5.805549202251649,0.3240958327367738,0.0716177970170974,-0.0506340451538562,0.032604593783617,-0.8741038493067027,0.1672028857469558,-9.26505236506462,14957.0
34.69,5.400000095367432,65.0,21.18720245361328,21.85942649841309,-79.78215555397658,40.459266683764575,292.1000025177002,-0.038201306015253,0.0196480471640825,-0.5674425959587097,0.8222916722297668,-0.3966182119069749,5.8241733775984885,0.2902438238703481,-0.0256727337837219,-0.0039585372433066,0.0270550623536109,-0.6577353816479445,-0.0400561589654535,-9.316762801408768,14957.0
34.79,5.400000095367432,64.0,21.08077812194824,23.441829681396484,-79.78214916967966,40.45926878815509,292.08492683410645,-0.0386047549545764,0.0156264156103134,-0.568570077419281,0.8215799331665039,-0.3965917544448781,5.8381312111302055,0.2828953603300275,-0.1117100119590759,0.0209109131246805,0.0526876002550125,-0.6720291926711798,0.0946839813329279,-9.0802955532074,14957.0
34.89,5.400000095367432,63.0,21.20347785949707,21.533403396606445,-79.78214289440069,40.45927098895783,292.06056617736823,-0.0379252582788467,0.0098669184371829,-0.5689646601676941,0.8214278221130371,-0.4100374046310305,5.84926299039528,0.2182071753170059,-0.0722715333104133,0.1232528910040855,-0.1051111817359924,-0.6311406368762255,0.2241424870491028,-9.260400320291518,14957.0
35.09,5.5,66.0,21.149641036987305,22.209304809570312,-79.782130269635,40.45927534927076,292.0083143615724,-0.0306473188102245,0.0036421816330403,-0.5684746503829956,0.8221216797828674,-0.4133651889054618,5.847529938993581,0.1044047796382268,0.0520434342324733,0.062644325196743,-0.0259932465851306,-0.5835042480379343,0.2104779460653662,-9.411356132626532,14957.0
35.19,5.5,68.0,21.23728370666504,21.501596450805664,-79.78212399930322,40.45927754615722,291.9781496429444,-0.026862446218729,0.0018745233537629,-0.5671451091766357,0.8231775760650635,-0.4115520064178009,5.835715416645807,0.0133094169775715,0.0346369557082653,0.0534997731447219,-0.0085266372188925,-0.6291628892719746,0.1054405923373997,-9.423009633421898,14956.0
35.39,5.5,69.0,21.05949211120605,23.250986099243164,-79.7821114157341,40.45928198987972,291.8958837890625,-0.028897313401103,-0.0011552007636055,-0.5619065761566162,0.8266950845718384,-0.3887744232745529,5.8120664462660745,-0.112511080035452,-0.0266517456620931,-0.0651136562228202,0.0163237154483795,-0.6904434634745121,0.0377712954953312,-9.318417563438416,14956.0
35.49,5.599999904632568,69.0,21.039459228515625,22.352436065673828,-79.7820989422623,40.45928637078739,291.796827545166,-0.0351873002946376,0.0014947785530239,-0.5587117075920105,0.8286138772964478,-0.3404423016892577,5.787553071961076,-0.0910722735650775,0.0118987830355763,-0.0269282143563032,0.0369694977998733,-0.6823190496861935,0.0698364988015964,-9.465412471890447,14956.0
35.69,5.599999904632568,69.0,21.015670776367188,23.96664619445801,-79.78209277833997,40.45928859359334,291.7552378082276,-0.0367037057876586,0.0069006453268229,-0.5593794584274292,0.8280700445175171,-0.349021936325759,5.784187051023662,-0.06465455686974,0.1025101318955421,-0.0860500708222389,0.0248103532940149,-0.6427934067696334,0.060494187651202,-9.619535720944404,14956.0
35.79,5.599999904632568,65.0,21.06074523925781,23.441829681396484,-79.78208662696551,40.45929082734079,291.7123243713379,-0.0366360135376453,0.0129243992269039,-0.5607489347457886,0.8270741105079651,-0.3743710283568292,5.777511979342933,-0.0262036701102071,0.0758893340826034,-0.0159215107560157,0.1433041840791702,-0.8375389440357686,0.031443603169173,-9.633233408331874,14956.0
35.99,5.599999904632568,65.0,20.95056533813477,25.18326759338379,-79.78207402666588,40.459295200811,291.6085169219972,-0.038489144295454,0.021288564428687,-0.5658243894577026,0.8233518004417419,-0.4111917597453354,5.82620152653292,0.0605487701142319,0.0185288488864898,-0.0691786035895347,-0.0454546436667442,-0.5986312142014504,0.1213640132267028,-9.887011338472368,14956.0
36.19,5.599999904632568,65.0,20.77277374267578,27.58470344543457,-79.7820615688002,40.459299645426654,291.48971961975104,-0.0426744148135185,0.0231327675282955,-0.5709978342056274,0.8195153474807739,-0.4785184951319829,5.855353693445983,0.1725142085371205,-0.013427386060357,0.0808884277939796,0.0361735336482524,-0.6839000637084246,-0.132668115478009,-9.897882481813433,14956.0
36.29,5.5,61.0,20.90298652648925,25.5649528503418,-79.78205536116275,40.459301944067285,291.4062330627441,-0.0414054654538631,0.0248978640884161,-0.5726169943809509,0.818398118019104,-0.5112615851894541,5.8645931055825296,0.216137699278433,0.0355659686028957,-0.047678355127573,0.0844154059886932,-0.7812325961887837,-0.002146969679743,-10.265389341115952,14956.0
36.39,5.599999904632568,62.0,20.71017074584961,28.22084617614746,-79.78204908066677,40.45930421087967,291.3735525512696,-0.0395793728530406,0.0235093645751476,-0.5719015598297119,0.8190295100212097,-0.557593730299804,5.874761155097723,0.2738645898532924,-0.1454022675752639,0.1078206375241279,0.0429710261523723,-0.9682489183545112,-0.1199908129032701,-10.231255635023118,14956.0
36.59,5.5,63.0,20.82911491394043,26.495309829711918,-79.78203647348606,40.45930885551678,291.2736971282958,-0.0416349805891513,0.0104188146069645,-0.5689349174499512,0.8212619423866272,-0.5630543221626341,5.9084943407552935,0.3555520391326213,0.1520546078681945,0.1208650395274162,-0.0602696500718593,-0.7086389753222466,0.0781837874371558,-10.691893436908725,14956.0
36.69,5.5,64.0,20.993133544921875,24.04616355895996,-79.78203016078841,40.45931120381493,291.2616903686524,-0.0318283438682556,0.0152026275172829,-0.5689378380775452,0.8216238021850586,-0.5586263698952393,5.923567295022438,0.4175749892099149,0.3110230267047882,0.0846701562404632,0.0158590357750654,-0.7100876960903406,0.0471454008808359,-10.683736571073531,14956.0
36.89,5.5,70.0,20.930532455444336,25.15146064758301,-79.78201762893983,40.45931612087285,291.19334434509284,-0.0168237350881099,0.0302594602108001,-0.5706629753112793,0.8204541802406311,-0.5849285685089911,5.930355038588459,0.3159548314400313,0.1121345534920692,0.0229208823293447,-0.1023969054222107,-0.6846601286530495,-0.0079098027013242,-10.017186731100082,14956.0
36.99,5.400000095367432,69.0,21.067005157470703,23.592912673950195,-79.78200508494817,40.459320950811055,291.1154291534424,-0.018035976216197,0.0267267897725105,-0.5730637907981873,0.8188762664794922,-0.5994497662746339,5.92690796102936,0.3097447226003829,-0.1292273104190826,-0.0346726663410663,0.1042661070823669,-0.6100911356136203,-0.1425909957569092,-10.132581532001495,14956.0
37.19,5.300000190734863,70.0,21.035703659057614,23.51339530944824,-79.7819987595677,40.45932329076139,291.1122095489502,-0.0187502782791852,0.0216887108981609,-0.5737190246582031,0.8185502886772156,-0.5985731654616754,5.923668963178033,0.3225855945270906,-0.0292509663850069,0.0372930578887462,-0.0746838077902793,-0.512548615001142,0.0245314542297273,-9.988590338230132,14956.0
37.29,5.300000190734863,70.0,21.055736541748047,23.163516998291016,-79.78199255480862,40.45932573988616,291.046058883667,-0.0214541740715503,0.0198527704924345,-0.5744994878768921,0.8179828524589539,-0.6168934539952509,5.9168946902770765,0.2603151369035288,-0.0312005467712879,0.0032715706620365,-0.060558047145605,-0.5458605314791203,0.1011573789641261,-9.908867061138151,14956.0
37.49,5.300000190734863,73.0,20.975605010986328,23.91098403930664,-79.78197990692608,40.45933039556781,291.03826927185065,-0.0180385410785675,0.0226641613990068,-0.5766196846961975,0.8164991140365601,-0.6178541689994917,5.917893949343788,0.3334796624070065,0.0894508212804794,0.0125691220164299,-0.0677430033683776,-0.3435212517902255,-0.0396644960157573,-10.04148425102234,14956.0
37.59,5.300000190734863,77.0,21.087038040161133,22.57508659362793,-79.78196747519054,40.45933522346201,290.9305117034912,-0.017560614272952,0.0278466083109378,-0.5788636803627014,0.8147594928741455,-0.6422765741424884,5.917795013035557,0.2617574102005419,0.0776462629437446,-0.0969089195132255,-0.0437188260257244,-0.4328029357641936,0.0884885639883577,-10.091274461746217,14955.0
37.79,5.199999809265137,76.0,20.960580825805664,23.96664619445801,-79.78196140598429,40.459337724511634,290.84872840881354,-0.017302768304944,0.0280547570437192,-0.5783700346946716,0.8151084184646606,-0.664883398532508,5.911508546599503,0.262640841782634,-0.0815847739577293,0.0506563037633895,-0.0836498215794563,-0.4523579252511264,-0.0157977925473824,-10.11528079032898,14955.0
37.89,5.199999809265137,76.0,21.119590759277344,22.304725646972656,-79.78195506873061,40.45934004015707,290.84349082946784,-0.0198737643659114,0.0213870033621788,-0.5766732692718506,0.8164530396461487,-0.6484027237606821,5.9222188307024375,0.3197009007156621,-0.1013165116310119,0.0130208972841501,-0.1271238029003143,-0.3003839482180774,-0.1922146978788078,-10.33320183992386,14955.0
38.09,5.099999904632568,74.0,21.108322143554688,22.46376037597656,-79.78194245529848,40.4593446798645,290.783025970459,-0.0239980202168226,0.012595790438354,-0.5712920427322388,0.8202993273735046,-0.56831479438347,5.934088813415723,0.3177077899549798,-0.0041368282400071,-0.0130249382928013,-0.0921860188245773,-0.5200569149851799,0.1526166134420782,-9.96351747751236,14955.0
38.19,5.199999809265137,73.0,20.96934509277344,24.761823654174805,-79.78193609061039,40.45934697867689,290.7822153472901,-0.0215989407151937,0.013360658660531,-0.5687216520309448,0.8221378922462463,-0.515398251363136,5.939469688506162,0.3218264197651674,0.0398892126977443,0.0233858879655599,-0.0871428102254867,-0.6448457063734532,0.2127054428681731,-9.881267033815382,14955.0
38.39,5.199999809265137,72.0,21.07576942443848,22.56713485717773,-79.78192331985777,40.459351651466434,290.7552664184571,-0.0235113780945539,0.0047145099379122,-0.5629032254219055,0.8261749148368835,-0.4698310456757652,5.952007792273796,0.2742183485055938,-0.1257013827562332,-0.0952071398496627,-0.0263155698776245,-0.4971019523218274,-0.0567872539255768,-9.81991103053093,14955.0
38.49,5.300000190734863,72.0,21.013166427612305,23.871225357055664,-79.78191697756695,40.45935397834538,290.7550699615478,-0.0238107442855834,0.0043139699846506,-0.5615246891975403,0.8271061778068542,-0.4359185834754221,5.9373012627794015,0.2695874865880784,0.057605180889368,0.130343958735466,-0.1106124445796012,-0.5290480688586832,0.159905450977385,-9.8145292532444,14955.0
38.69,5.400000095367432,72.0,21.1846981048584,20.53943252563477,-79.78190414897725,40.459358603074826,290.7485735321045,-0.0236258096992969,0.0090786218643188,-0.5625707507133484,0.8263616561889648,-0.444432721129417,5.929835752478838,0.3421207948214096,0.0917991325259208,-0.0297922026365995,0.0759464502334594,-0.6050976134464146,-0.0477584677375853,-10.0254558634758,14955.0
38.79,5.400000095367432,71.0,21.32743263244629,19.267148971557614,-79.78189768201736,40.45936082706596,290.73931526184083,-0.0242958217859268,0.0138852000236511,-0.5647706985473633,0.8247732520103455,-0.4419172310698145,5.926492322601867,0.3542875429687567,0.0912252739071846,-0.019341729581356,0.0367899127304554,-0.5632395162060857,-0.0653327586036175,-9.831227731704711,14955.0
38.99,5.5,70.0,21.274845123291016,19.577266693115234,-79.78188505887074,40.45936548223232,290.74235939025886,-0.0243711415678262,0.0204276014119386,-0.5681555271148682,0.8223066329956055,-0.5046861706222686,5.90652161174516,0.3301336646075175,-0.0392836853861808,0.0134084010496735,-0.0219150092452764,-0.6569823333621025,0.0075632421125192,-9.340876718759535,14955.0
39.09,5.5,70.0,21.278602600097656,19.712448120117188,-79.78187863580587,40.45936774775647,290.74499153137214,-0.0252575762569904,0.018446184694767,-0.5681161880493164,0.8223538994789124,-0.5104196926277824,5.902846794669242,0.3111471257522822,-0.1097809299826622,-0.0421709269285202,0.1103721261024475,-0.7463018415123225,-0.0227946210466325,-9.148308611512183,14955.0
39.29,5.5,68.0,21.165916442871094,21.33460998535156,-79.78186581980901,40.45937231281441,290.7386743927002,-0.0290820952504873,0.0149323400110006,-0.5681060552597046,0.8223057389259338,-0.4865814598472068,5.915308838394099,0.232057998327834,0.0029287633951753,0.1007843092083931,-0.1018090024590492,-0.6185117474198342,0.1016977530531585,-9.16428729772568,14955.0
39.39,5.599999904632568,70.0,21.148387908935547,21.445934295654297,-79.78185950450283,40.45937461145503,290.72137092590333,-0.0281817857176065,0.0133202690631151,-0.5676730871200562,0.8226638436317444,-0.4949454931493049,5.914089247677584,0.1925601789536686,-0.0224629528820514,0.0503225289285182,-0.1690441370010376,-0.6408524235337973,0.1410657495539635,-9.258398233652118,14955.0
39.59,5.599999904632568,70.0,21.249805450439453,20.030517578125,-79.78184675974542,40.45937913508303,290.6916887664795,-0.0279628559947013,0.0077021196484565,-0.5656795501708984,0.8241149187088013,-0.4798246270230153,5.911397137488617,0.0818280840698164,-0.083554595708847,0.0052471775561571,0.0296025592833757,-0.6263760332018137,0.0419320005644112,-9.25248319029808,14955.0
39.69,5.699999809265138,71.0,21.13586807250977,21.55725860595703,-79.78184045361401,40.45938143849874,290.6627104187012,-0.0301793124526739,0.0078982636332511,-0.5651278495788574,0.8244133591651917,-0.4750060601723632,5.917488357694049,0.0137709554517843,-0.0486036799848079,-0.0895221307873725,0.1067866459488868,-0.6366397239267826,0.0191089931130409,-9.243308908939364,14955.0
39.89,5.599999904632568,71.0,20.8917179107666,26.04205894470215,-79.78182762637356,40.45938594148048,290.6185648345948,-0.0311782266944646,0.0059018568135797,-0.5655608773231506,0.8240959048271179,-0.4962318923656002,5.926182438677976,0.0490107237547784,-0.0984368845820427,0.1156718581914901,0.0947435274720192,-0.6436237113922835,-0.1331767501495778,-9.720950413942338,14955.0
39.99,5.599999904632568,70.0,20.72394371032715,27.19506645202637,-79.78182132743805,40.45938829086076,290.5890657806397,-0.0273924190551042,0.0006136043812148,-0.5664544105529785,0.8236374855041504,-0.5236412601342129,5.932199794468143,0.1003485042934437,0.0324860885739326,0.1519851237535476,2.285326991113834e-05,-0.4547591574490071,0.0101787050999701,-10.3544728410244,14955.0
40.19,5.599999904632568,70.0,21.020679473876957,23.91098403930664,-79.7818084035026,40.45939283142489,290.59613250732417,-0.0172519888728857,0.0024293584283441,-0.5695092678070068,0.8218003511428833,-0.5886274079546865,5.928226612343045,0.1223620304610232,0.0483421385288238,-0.0281338188797235,0.0558055751025676,-0.4608165439590812,-0.0286338150501251,-10.1649154651165,14955.0
40.29,5.599999904632568,70.0,20.97936248779297,25.191219329833984,-79.7817955963207,40.45939737470291,290.5982000732422,-0.0211721565574407,0.0144184892997145,-0.5704680681228638,0.8209202885627747,-0.611518580322302,5.90712420815794,0.2784994977552095,-0.0029161165002733,-0.0187526177614927,0.0050192503258585,-0.5534687823057175,-0.0173655406991019,-10.210581049919131,14955.0
40.49,5.599999904632568,76.0,21.16716957092285,21.946895599365234,-79.7817893132162,40.45939975084432,290.6030065917969,-0.023184509947896,0.0177006050944328,-0.5701197981834412,0.8210436701774597,-0.618656492688765,5.900821410352857,0.3685738253180045,0.0732645019888877,-0.0155722266063094,-0.2358992993831634,-0.5803175885975361,0.0604127743095159,-10.291380214691165,14955.0
40.59,5.699999809265138,72.0,21.13211250305176,21.278947830200195,-79.78178299359247,40.45940206597447,290.58736824035645,-0.0254197195172309,0.0187031738460064,-0.569439709186554,0.8214271664619446,-0.6269533713897086,5.896146353722365,0.4158102015030736,-0.0390601605176925,0.001759162871167,0.003716445993632,-0.6420009628683329,-0.1036312993615865,-10.109026608467104,14955.0
40.79,5.699999809265138,73.0,21.20347785949707,20.491722106933597,-79.78177044546317,40.4594068424763,290.6071855926514,-0.0251251906156539,0.019282117486,-0.5692456364631653,0.8215572834014893,-0.6205199325623726,5.894130005489516,0.5102888169653303,0.0317773073911666,0.0699459314346313,-0.0635677427053451,-0.6678785466402769,-0.2308642999827861,-10.150525467395784,14955.0
40.89,5.699999809265138,73.0,21.185949325561523,20.61894989013672,-79.7817641932111,40.459409126310696,290.59407638549806,-0.0219808500260114,0.0199295002967119,-0.5689564347267151,0.8218322396278381,-0.6255041560952906,5.883319934494188,0.496284144495945,0.0451508238911628,-0.0060394858010113,0.0307776071131229,-0.7335982538759709,-0.1190115321893245,-9.92600174188614,14955.0
41.09,5.800000190734862,73.0,21.21725082397461,20.4281063079834,-79.7817515916522,40.45941384633589,290.6054441833496,-0.0158352572470903,0.0239178072661161,-0.5683282017707825,0.8223017454147339,-0.6036549650917883,5.888572966806753,0.4104337295662032,0.0324360840022563,-0.0090790782123804,0.1861053109169006,-0.564701137393713,-0.2420176262967288,-9.646453962922095,14955.0
41.19,5.9000000953674325,73.0,21.069509506225582,22.86134910583496,-79.7817453420986,40.45941622711498,290.6132433319092,-0.0140979094430804,0.0219758786261081,-0.5689820051193237,0.8219354152679443,-0.593889102201254,5.881376046690344,0.3647720981061036,-0.023586792871356,-0.0523076131939888,0.0922759845852852,-0.4557539881020785,-0.0339785356074571,-9.65050666809082,14955.0
41.39,6.0,73.0,21.256065368652344,19.561363220214844,-79.78173281735599,40.4594209130618,290.62840293884284,-0.0143313603475689,0.0254738517105579,-0.5707245469093323,0.8206213116645813,-0.5869619392373231,5.867490472079687,0.3580362158240646,0.0987906754016876,-0.1254494339227676,0.0005934790824539,-0.3036815220303833,0.0122606245055794,-10.04492241382599,14955.0
41.49,6.0,73.0,21.281105041503903,19.195581436157227,-79.78172658075502,40.45942325704864,290.63723014831544,-0.0181727297604084,0.0279794838279485,-0.5715160369873047,0.8199123740196228,-0.6020913235402301,5.850723251886879,0.3752413355420817,-0.095228686928749,-0.1928136646747589,0.08603186160326,-0.6303983328491449,-0.2383892462588847,-9.67951879799366,14955.0
41.69,6.099999904632568,74.0,21.015670776367188,24.35628318786621,-79.78171406680627,40.45942783316831,290.6493017578125,-0.0302796903997659,0.0292301829904317,-0.5706102252006531,0.8201419115066528,-0.5832670975953368,5.839686802886527,0.4350240219033401,-0.0759548172354698,0.0217426102608442,0.0278427973389625,-0.7548327829688788,-0.1413935773540288,-9.433259802460672,14955.0
41.79,6.099999904632568,71.0,21.06324958801269,23.48158836364746,-79.78170775051062,40.459430066950105,290.6652166748047,-0.0324567183852195,0.0252521131187677,-0.5691432952880859,0.8212093710899353,-0.5525086272788735,5.835987216944408,0.5244289087135976,-0.0522825568914413,0.1351913958787918,-0.1066155284643173,-0.8629587639123202,0.0225818646233528,-9.887673243284226,14955.0
41.99,6.099999904632568,72.0,21.34996795654297,18.18570709228516,-79.78169520265119,40.4594346928819,290.68473838806165,-0.0305890552699565,0.0144388731569051,-0.5647154450416565,0.8245921730995178,-0.5016558421240939,5.878185720397807,0.5670655862718448,-0.0612090192735195,-0.0627228543162345,0.0267337225377559,-0.4779421980679036,0.0325419112667441,-10.09891911149025,14955.0
42.09,6.199999809265138,71.0,21.451385498046875,17.326915740966793,-79.78168252256697,40.459439216097664,290.7051336669922,-0.0325544290244579,0.0218147877603769,-0.5630646347999573,0.8254833221435547,-0.4565158481289157,5.898116904501031,0.4838083031606856,-0.024038415402174,-0.0855337381362915,0.0634665787220001,-0.546066792011261,0.0496261689160019,-9.725965570807457,14955.0
42.29,6.199999809265138,74.0,21.28736686706543,19.593170166015625,-79.78167612162952,40.45944146454827,290.71866439819337,-0.0310686975717544,0.0199561472982168,-0.5621572732925415,0.8262056708335876,-0.4422081842642645,5.901064998707671,0.4795205252335824,-0.0360719077289104,0.0405433028936386,0.063807263970375,-0.6169245207309724,-0.1491053604427725,-9.321366314291955,14955.0
42.4,6.199999809265138,73.0,21.148387908935547,21.68448829650879,-79.78166981630766,40.45944377936925,290.7177374267578,-0.0279870443046093,0.0134294275194406,-0.5611760020256042,0.8271142244338989,-0.4237651005851823,5.8995236178853805,0.4074455007325757,-0.0476548261940479,0.1039394438266754,0.1081374809145927,-0.6848264819383622,-0.0449030713364481,-9.434246227741244,14955.0
42.59,6.300000190734862,73.0,21.147136688232425,21.72424697875977,-79.78165710672022,40.45944829368753,290.73748802185065,-0.0192750189453363,0.0015838327817618,-0.5589834451675415,0.8289533257484436,-0.3973293362495378,5.893036701511942,0.2435316408575053,-0.0290136449038982,-0.0711507275700569,0.1733506470918655,-0.629173194989562,-0.1829189954325557,-9.48824701845646,14955.0
42.69,6.300000190734862,73.0,21.32117080688477,18.464019775390625,-79.78164425132577,40.459452723050376,290.7544500732422,-0.0327047295868396,0.013402628712356,-0.5588274002075195,0.828530490398407,-0.3673275278684805,5.888534209534543,0.2075563178250339,0.0059015471488237,-0.3636349439620972,-0.031023733317852,-0.4313755573332311,-0.166620137616992,-9.588818542957307,14955.0
42.89,6.5,77.0,21.25731658935547,20.571239471435547,-79.78163799133813,40.45945504254338,290.74812911987306,-0.0451437011361122,0.0211446974426508,-0.560836672782898,0.8264244794845581,-0.4059073922240816,5.8719572663319735,0.331211836085747,-0.0138568058609962,-0.205733448266983,0.242401584982872,-1.0431750666350126,-0.1441638602223247,-9.359310066103935,14955.0
42.99,6.5,71.0,21.15089225769043,21.430030822753903,-79.7816317421443,40.45945737481578,290.73902725219733,-0.046309296041727,0.0276791639626026,-0.5638335943222046,0.8241243958473206,-0.4540135431055725,5.869768819074872,0.4837042736047492,0.1267589777708053,0.0135541874915361,-0.0058005698956549,-0.9401993863284588,-0.0811779638472944,-9.46169364273548,14955.0
43.19,6.599999904632568,73.0,21.21725082397461,20.388347625732425,-79.78161889286638,40.459461784253776,290.7536909484864,-0.0269985441118478,0.0368041284382343,-0.5702955722808838,0.8201704621315002,-0.5283731264717543,5.921465023756353,0.4785167913565985,0.1685084402561187,0.2108025401830672,-0.0617284663021564,-0.5686266656219959,-0.029710725992918,-9.556441925168038,14955.0
43.29,6.599999904632568,73.0,21.095802307128903,22.59894180297852,-79.7816126256828,40.45946392816764,290.76317047119136,-0.0173337366431951,0.0354319885373115,-0.5742186307907104,0.8177512288093567,-0.5847183168363512,5.913637514705763,0.4175664945539703,0.0931340456008911,0.2031570672988892,0.1361577212810516,-0.606336857713759,-0.3460264182463288,-9.663210328817367,14955.0
43.49,6.599999904632568,82.0,21.06450080871582,23.29869842529297,-79.78160001440943,40.45946861535116,290.75178932189937,-0.0076521672308444,0.0278182849287986,-0.5783062577247621,0.8153094649314879,-0.6603781992706059,5.8876036954970665,0.244914877156857,0.0269074942916631,0.0840940624475479,-0.0859579145908355,-0.7815388441085815,-0.2380768039450049,-9.957694820165637,14955.0
43.59,6.699999809265138,87.0,21.14463233947754,20.36449241638184,-79.7815871717877,40.459473144922256,290.7417070770264,-0.0174679048359394,0.0452607348561286,-0.5782899260520935,0.8143875598907471,-0.6195847478480982,5.884758201781319,0.2817912149826549,0.0518458485603332,-0.2773432433605194,0.1418458074331283,-0.5613610981777309,-0.1411790119484067,-9.871334953308104,14955.0
43.79,6.699999809265138,87.0,21.122095108032227,21.42207908630371,-79.78158072371708,40.45947527667509,290.72601150512696,-0.0255994573235511,0.0496899485588073,-0.5758932828903198,0.8156117796897888,-0.5842274502327862,5.882959300485313,0.3823033662250541,-0.2001527994871139,-0.2010959237813949,0.0129624353721737,-0.9493857275694608,-0.467095284126699,-9.57882331252098,14955.0
43.89,6.699999809265138,87.0,21.13211250305176,22.137739181518555,-79.78157438169609,40.45947749925775,290.7183267974854,-0.0319708548486232,0.0432737991213798,-0.5721358060836792,0.8183923363685608,-0.5253571177025024,5.873547393684637,0.4674633704725591,-0.1856200248003006,0.0448102466762065,-0.2423666566610337,-0.9861982624232768,-0.1473164230864495,-9.56142726123333,14955.0
44.09,6.599999904632568,75.0,21.07576942443848,22.439905166625977,-79.78156186585842,40.459481935800405,290.6991083526612,-0.0345558300614357,0.0211709924042224,-0.5639914870262146,0.8247856497764587,-0.3985078685860102,5.881423418247619,0.3994554762476101,-0.1067183688282966,0.1524705439805984,-0.0904673933982849,-0.9251221945881845,0.0855619046464562,-9.35340496301651,14955.0
44.19,6.599999904632568,79.0,21.01817512512207,23.79170799255371,-79.78154908988877,40.45948625018313,290.6699869537354,-0.0287107434123754,0.0168135780841112,-0.5578966736793518,0.8292433023452759,-0.2834528914982658,5.890585373076049,0.2959816933554137,0.023036764934659,0.1071374863386154,-0.0609067864716053,-0.8658279195427895,0.019707371124532,-9.518794627189637,14955.0
44.39,6.5,78.0,21.18219375610352,20.610998153686523,-79.78154276711683,40.4594884652768,290.6562883758545,-0.0272402167320251,0.0167146455496549,-0.5564863681793213,0.8302419185638428,-0.2578634500404901,5.88713763341838,0.2587089192625394,0.0302887149155139,0.064431294798851,-0.0738803744316101,-0.7571566857397557,0.0937535248696804,-9.741515656113624,14955.0
44.49,6.4000000953674325,78.0,21.19596672058105,21.263044357299805,-79.78153645513876,40.45949068662274,290.64296936035163,-0.027678333222866,0.0183171648532152,-0.5564695000648499,0.830204963684082,-0.243345225662368,5.886026059901326,0.2419867033581177,0.0955231636762619,0.0034439917653799,-0.1704647243022918,-0.6378656657785178,0.0595378800993785,-9.778453686833382,14955.0
44.69,6.300000190734862,79.0,21.02443504333496,23.903032302856445,-79.78152387291884,40.45949510633235,290.60191558837886,-0.0312379244714975,0.024086769670248,-0.5593718886375427,0.82797771692276,-0.292147415652349,5.872152843006967,0.2737340129969019,-0.023594956845045,0.010151470080018,-0.1195772513747215,-0.7229468196630479,0.0249596988223493,-9.707663201093672,14955.0
44.79,6.199999809265138,79.0,21.05949211120605,23.38616752624512,-79.78151758630635,40.45949735337447,290.5866682434082,-0.0346635244786739,0.0242904685437679,-0.5609235167503357,0.8267849683761597,-0.3259992174643288,5.870361625407687,0.3148618277166567,-0.0015399670228362,0.0400737859308719,-0.0751313492655754,-0.7996304947882891,-0.0068978506699204,-9.808767991662029,14955.0
44.99,6.099999904632568,78.0,21.05448532104492,22.74207305908203,-79.78150475789653,40.45950170850008,290.5496027374268,-0.0354093126952648,0.0233615655452013,-0.5630451440811157,0.8253366947174072,-0.3622066592659065,5.889345293011543,0.3867396430332495,-0.0313816554844379,0.0404761768877506,0.1143493875861168,-0.7533961951732636,-0.0922384199313819,-9.8595341026783,14955.0
45.09,6.0,78.0,21.0920467376709,22.686410903930664,-79.78149832700612,40.459503822526656,290.5223143005371,-0.0325814969837665,0.0230271518230438,-0.5635629892349243,0.8251091241836548,-0.3710480576810285,5.898009528856889,0.3668396231486332,0.0497763119637966,-0.0027289481367915,0.0379972085356712,-0.7282435930520297,-0.1279503626190126,-9.870618084669111,14955.0
45.29,6.0,77.0,21.009410858154297,23.37026405334473,-79.78148568092257,40.45950828854436,290.47680877685553,-0.030243681743741,0.0214527156203985,-0.5630090236663818,0.8256185054779053,-0.3943722758796878,5.897305152420371,0.3282310183818592,-0.0229241997003555,-0.0502218753099441,0.0746285691857338,-0.7986185610294343,-0.2033593447320164,-9.95825030565262,14955.0
45.39,5.9000000953674325,80.0,20.975605010986328,24.28471755981445,-79.78147936597617,40.45951055784735,290.46578620910645,-0.0305240452289581,0.0193106699734926,-0.5616351962089539,0.8265962600708008,-0.3913239532722078,5.8986297486695,0.3423568480953786,-0.0224008243530988,0.1446395814418792,-0.1454048901796341,-0.687572772949934,0.0553913590963929,-10.118994941711426,14955.0
45.6,5.9000000953674325,81.0,21.00690650939941,23.855321884155277,-79.78146671836349,40.45951509133472,290.42779373168946,-0.0300596468150615,0.0183481536805629,-0.5593240857124329,0.82820063829422,-0.3762378538502701,5.901311012023362,0.3789169594538215,0.147278219461441,-0.0186238046735525,-0.1020405292510986,-0.5646947054564954,-0.0270084444154054,-10.3201602101326,14955.0
45.69,5.800000190734862,81.0,20.949312210083008,24.45965576171875,-79.78146041169236,40.459517391349465,290.4256765747071,-0.0293944496661424,0.023120529949665,-0.5591111779212952,0.8282489180564879,-0.3759045595914085,5.895984961482919,0.4097054010649329,0.0729560479521751,0.0467160455882549,0.0036450715269893,-0.8689069171249867,0.0279291570419445,-10.056180642843248,14955.0
45.89,5.800000190734862,77.0,20.988126754760746,23.545202255249023,-79.78144789702405,40.45952197258777,290.3913500213623,-0.0289662387222051,0.0272570140659809,-0.5597953796386719,0.8276757001876831,-0.3809130593738461,5.877229377732514,0.4507745246793002,0.0515201091766357,-0.0235998891294002,-0.0129420766606926,-0.63274767100811,-0.1170944220386445,-9.955697411298752,14955.0
45.99,5.800000190734862,81.0,21.12835502624512,21.97075080871582,-79.78143527639598,40.459526487455705,290.3562986755371,-0.0292096268385648,0.0223808605223894,-0.5593381524085999,0.8281224370002747,-0.3866500869675057,5.872588531766477,0.4153502317385857,-0.0219129752367734,0.0354690477252006,-0.0430366359651088,-0.8155077318102122,-0.0184017723798751,-9.90395072221756,14955.0
46.19,5.699999809265138,81.0,21.082029342651367,21.73219871520996,-79.78142900966216,40.459528786645976,290.3537752532958,-0.0284080915153026,0.0204585567116737,-0.5595979690551758,0.8280245065689087,-0.3871431784208357,5.871370276018072,0.4174634554206205,-0.0442949272692203,0.0665666237473487,0.0157934464514255,-0.6889219448715449,-0.0145438069012016,-10.0142151761055,14955.0
46.29,5.699999809265138,81.0,21.020679473876957,22.996530532836918,-79.7814227445474,40.45953109174499,290.3539526367188,-0.0284954216331243,0.0195707958191633,-0.5602176785469055,0.8276237845420837,-0.3942914664367225,5.87134312452308,0.4201372520708795,-0.0152150942012667,0.0273625925183296,-0.0297582224011421,-0.7651773845404387,0.1429245794098824,-9.89970798254013,14955.0
46.49,5.699999809265138,80.0,21.10456657409668,22.074125289916992,-79.78141015980894,40.45953556057966,290.3364794158936,-0.0272168181836605,0.0282224733382463,-0.5613378882408142,0.8266574144363403,-0.4093899422255064,5.880261298167349,0.4134769370831943,0.0713961496949195,0.0137590169906616,-0.0288356523960828,-0.5332904065400362,0.0407029341068118,-9.70544827580452,14955.0
46.59,5.699999809265138,77.0,20.97936248779297,24.96857070922852,-79.7814038344285,40.45953778072325,290.3295881652832,-0.0270517989993095,0.0316605269908905,-0.562014102935791,0.8260787129402161,-0.4191513784016251,5.880497438232138,0.434663337037742,0.0326885879039764,0.1140962317585945,-0.049946803599596,-0.5919743053615093,-0.0415772664360702,-9.830287499427795,14955.0
46.79,5.699999809265138,76.0,21.039459228515625,22.765928268432607,-79.78139107159137,40.45954233650583,290.3281042480469,-0.0230388790369033,0.0286423675715923,-0.5627840161323547,0.825786292552948,-0.4358240920570972,5.907298547755111,0.5256324093631503,-0.0603676624596118,0.0896849036216735,0.0539009980857372,-0.7050491503626108,-0.2126750373467803,-10.295557465553284,14955.0
46.89,5.599999904632568,76.0,21.08453369140625,22.43195343017578,-79.78138475475606,40.45954464016201,290.33829902648927,-0.0148179437965154,0.0184946972876787,-0.5619959235191345,0.8268004059791565,-0.4213778682273084,5.883473957104421,0.5386877041531747,-0.0440974235534668,0.3504873514175415,0.0105773909017443,-0.8635204620659351,-0.067018282469362,-10.315070793628694,14955.0
47.09,5.599999904632568,77.0,21.13586807250977,21.06424903869629,-79.78137214690075,40.45954916667568,290.3620531463623,0.0365579985082149,-0.0192981883883476,-0.559148907661438,0.8280359506607056,-0.3803779519209753,5.7187256813228,0.1253118455971077,-0.0156636331230402,0.7747217416763306,-0.0354778803884983,-0.7508097524195909,-0.0020702535251621,-10.1438070166111,14955.0
47.19,5.5,95.0,21.155900955200195,21.445934295654297,-79.78136614236772,40.45955136448968,290.37985252380366,0.0677531138062477,-0.0396164581179618,-0.5569362640380859,0.8268386125564575,-0.3572588127645356,5.541979063986193,-0.2928620719489394,-0.0101456344127655,0.7054960131645203,-0.0800135284662246,-0.5886155550554395,0.0966425610333681,-9.827710046768187,14955.0
