time,wind_speed,wind_angle,battery_voltage,battery_current,position_x,position_y,position_z,orientation_x,orientation_y,orientation_z,orientation_w,velocity_x,velocity_y,velocity_z,angular_x,angular_y,angular_z,linear_acceleration_x,linear_acceleration_y,linear_acceleration_z,node_ids
0.0,1.8999999761581416,67.0,23.29189872741699,0.0159035474061965,-79.78276771473178,40.45899835805648,273.06302244400985,0.0080591551959514,-0.0063916384242475,0.9900082945823668,0.1406338810920715,-0.0207318822165309,-0.0315145816975071,0.0214715546605639,-0.000503115938045,1.2789329048246144e-05,-0.0044593745842576,-0.1371142651699483,0.1478507398255169,-9.806744855046274,14938.0
0.19,1.8999999761581416,71.0,23.29189872741699,0.0238553211092948,-79.78276776214861,40.45899850190617,273.0687763783932,0.0080663487315177,-0.0064367032609879,0.990011751651764,0.1406069695949554,-0.0230758453775441,-0.0228671749384721,0.0218641173091407,-0.0036800792440772,-0.0002873305929824,-0.0115168029442429,-0.1383696258254349,0.1470550434105098,-9.806232054233552,14938.0
0.3,1.7000000476837158,74.0,23.2856388092041,-0.0238553211092948,-79.78276784927624,40.45899867049713,273.07406316137315,0.0080322250723838,-0.0064327009022235,0.9900141954421996,0.1405921876430511,-0.0154197775729812,-0.0193146895487222,0.0253236527351874,0.0053067756816744,0.0046785306185483,0.0079660015180706,-0.1319492642674595,0.1294392647221684,-9.808155788183214,14938.0
0.5,1.7000000476837158,77.0,23.29690742492676,-0.0238553211092948,-79.782767791469,40.45899869821076,273.0791937205792,0.0080198599025607,-0.0064221094362437,0.9900171160697936,0.1405724585056305,-0.0228313962970499,-0.0258638804422609,0.0260159645661421,0.0020574512891471,0.000192944848095,0.0009617159957997,-0.1333393666986376,0.1423395563475787,-9.807025521397591,14938.0
0.6,1.600000023841858,80.0,23.295656204223643,0.0079517737030982,-79.78276788528474,40.45899887034117,273.0866316947937,0.0079779131338,-0.0064518842846155,0.9900183081626892,0.1405650824308395,-0.016738565246782,-0.0215612705859021,0.0321457234695113,-0.0044473726302385,-0.0035959193482995,0.0008462308906018,-0.140500543070957,0.126409484250471,-9.808513053059578,14938.0
0.79,1.600000023841858,76.0,23.29064750671387,0.0,-79.78276793145398,40.45899906941416,273.0926413331032,0.0079949488863348,-0.0064363973215222,0.9900203943252563,0.1405497640371322,-0.0138782248359174,-0.0251543730465117,0.0294086976656779,0.0016284802695736,-0.0008475923095829,0.0120388492941856,-0.1358876472339034,0.1257638420071453,-9.809364407658578,14938.0
0.9,1.399999976158142,72.0,23.29189872741699,0.0079517737030982,-79.78276790675265,40.45899908736235,273.09560880994803,0.0079962415620684,-0.0064367726445198,0.9900214076042176,0.1405428349971771,-0.0185266763007307,-0.0282998119072204,0.0299390334177687,-0.0073145236819982,-0.001632748520933,-0.0086182244122028,-0.1378838044311851,0.1437375890649855,-9.80804059803486,14938.0
1.09,1.399999976158142,75.0,23.295656204223643,0.0,-79.7827679641381,40.45899929288622,273.1009111199379,0.0079860771074891,-0.0064303241670131,0.9900285601615906,0.1404934823513031,-0.0133961708789094,-0.02880220762977,0.0271233094787143,-0.0014493109192699,-0.002695940202102,0.0009285864070989,-0.1372179710213095,0.1305466816853732,-9.80907613992691,14938.0
1.29,1.2999999523162842,73.0,23.294403076171875,-0.0636141896247863,-79.78276804861574,40.45899946607138,273.1036945376396,0.0079528866335749,-0.0064282012172043,0.9900304079055786,0.1404822468757629,-0.0064193651735126,-0.0201728393762267,0.0212828847673128,0.0002505031879991,0.0030023783911019,0.0059481938369572,-0.1336318553891033,0.1458298964146524,-9.807134864330292,14938.0
1.39,1.2999999523162842,69.0,23.29315185546875,0.0238553211092948,-79.78276803403989,40.45899948208158,273.1058470401764,0.007937978953123,-0.0064084874466061,0.9900332093238832,0.1404643803834915,-0.0105923442786035,-0.02353380661113,0.0216380641162496,-0.0027742302045226,-6.256068445509301e-05,-0.0068277553655207,-0.1385453437920659,0.1463760994467884,-9.806636681556704,14938.0
1.5,1.0,64.0,23.295656204223643,0.0159035474061965,-79.78276801214076,40.45899950061888,273.10802457666404,0.0079605756327509,-0.0063973846845328,0.990034818649292,0.140452429652214,-0.0127194711711533,-0.0268198274275559,0.0217813863612227,0.0041931155137717,0.0019065353553742,0.0111097153276205,-0.1357023544516414,0.1270060829725116,-9.809204778671266,14938.0
1.7,1.0,62.0,23.29690742492676,0.0238553211092948,-79.7827680275393,40.45899966920716,273.11012492513663,0.0079818805679678,-0.0064234221354126,0.9900330305099488,0.1404621750116348,-0.0193770173576522,-0.0235692753163673,0.0180098780076397,0.001559040043503,0.001263934536837,0.0048883957788348,-0.1357694786600768,0.1416383655555546,-9.80666650235653,14938.0
1.8,1.0,60.0,23.29941177368164,0.0159035474061965,-79.7827680943608,40.45899986107671,273.1113440785408,0.0079657481983304,-0.0063996077515184,0.9900367259979248,0.1404382884502411,-0.0136634809745576,-0.0237999492969933,0.0160058958839987,-0.0006249200669117,-0.0010462960926815,0.0042534107342362,-0.1357243089191615,0.1276550965011119,-9.808086791038512,14938.0
2.0,1.0,58.0,23.29816055297852,0.0318070948123931,-79.78276804106284,40.45899989837568,273.11460594272614,0.0079605374485254,-0.0063985507003962,0.9900410771369934,0.1404077559709549,-0.019515268992165,-0.030345904061892,0.0165142054176714,0.0037508907262235,0.0028944716323167,0.0094865132123231,-0.1344738544430583,0.1255627982877195,-9.809304766058922,14938.0
2.09,1.100000023841858,60.0,23.29941177368164,0.0238553211092948,-79.7827681002295,40.45900006112929,273.11558262443543,0.0079463711008429,-0.006424079183489,0.9900434613227844,0.1403909176588058,-0.0184587518846388,-0.0233424990925711,0.015091345513759,-0.0050552049651741,-0.003516947152093,-0.0095632448792457,-0.1411345822457224,0.1424041406717151,-9.808295536637306,14938.0
2.3,1.100000023841858,58.0,23.294403076171875,-0.0238553211092948,-79.78276817593199,40.45900027554632,273.1161460671425,0.0079272538423538,-0.0064067333005368,0.990049421787262,0.1403507441282272,-0.0086939656061867,-0.024412551370946,0.010144539975051,-0.0046303705312311,0.0001629106409382,-5.400646841735579e-05,-0.1385191135481,0.1290083888825029,-9.808918265104293,14938.0
2.4,1.100000023841858,55.0,23.29816055297852,-0.0477106422185897,-79.78276815832098,40.459000294819006,273.1171816382408,0.0078963413834571,-0.006407078821212,0.9900509119033812,0.1403417736291885,-0.0118107801296992,-0.0278661769623199,0.0103973432347491,-0.0016546726692467,-0.0010664436267688,-0.0064900331199169,-0.1355316705722362,0.1477106898743659,-9.805946710109714,14938.0
2.59,1.100000023841858,55.0,23.30316734313965,-0.055662415921688,-79.7827681740693,40.45900051165312,273.1194678339958,0.0078774634748697,-0.00641362182796,0.990056335926056,0.1403046250343322,-0.0156034323170996,-0.0303728201437932,0.0108410271710981,-0.0022835335694253,-0.0011000537779182,-0.0086588915437459,-0.1377454172819852,0.1462711876071989,-9.806415072083473,14938.0
2.7,1.100000023841858,57.0,23.301916122436523,-0.055662415921688,-79.78276814455566,40.459000535078246,273.12056068515784,0.0078944209963083,-0.006393854971975,0.9900559186935424,0.1403072625398636,-0.0176842569054993,-0.0338140861851049,0.0108711666446832,0.0065490235574543,0.0024207553360611,0.0053147389553487,-0.1319771481771022,0.1314407666400075,-9.808094977140428,14938.0
2.89,1.100000023841858,56.0,23.29816055297852,-0.0795177370309829,-79.78276818182461,40.45900071594296,273.12067208623887,0.0078788306564092,-0.0064317025244235,0.9900597929954528,0.1402790248394012,-0.0171953056604498,-0.0291254283794661,0.0084331889715346,-0.0007099694339558,-0.0001520859368611,-0.0050975638441741,-0.1322346358001232,0.1463699507340788,-9.807726602554322,14938.0
3.0,1.100000023841858,55.0,23.29941177368164,-0.0636141896247863,-79.7827681503439,40.45900073765954,273.1215253863336,0.0079072471708059,-0.0064310301095247,0.9900635480880736,0.1402512192726135,-0.0199961590091118,-0.0322747869066371,0.0086310905700784,-0.0001967805146705,-7.085475772328209e-06,0.008452539332211,-0.1347583306208253,0.1245022595487535,-9.80914630651474,14938.0
3.2,1.100000023841858,56.0,23.30066299438477,-0.055662415921688,-79.78276817331162,40.45900095638683,273.1213515195846,0.0078774504363536,-0.0064101624302566,0.9900677800178528,0.1402236968278885,-0.0186683037376436,-0.0342834450403549,0.0063049020604584,0.0046628499403595,0.0022237561643123,0.0069026774726808,-0.13451067362912,0.1317244114167988,-9.808780270814896,14938.0
3.3,1.100000023841858,56.0,23.29941177368164,-0.0636141896247863,-79.78276825955112,40.45900111464876,273.12267694807053,0.0078504588454961,-0.0064490553922951,0.9900716543197632,0.1401958167552948,-0.0120995865652467,-0.0221107823458943,0.0080423598110694,-0.0018683081725612,-0.0043483991175889,-0.0002095926465699,-0.1383063753973692,0.1299763588886708,-9.809690682291984,14938.0
3.5,1.100000023841858,53.0,23.29941177368164,-0.0715659633278846,-79.78276821130144,40.45900115016405,273.1243426594734,0.0078577883541584,-0.006456306669861,0.9900745749473572,0.1401751935482025,-0.0174969559580673,-0.0284485152810104,0.0085061013907012,0.0030495200771838,0.0002503125870134,0.0110344719141721,-0.135304168201983,0.1245027346350252,-9.808506621122358,14938.0
3.6,1.100000023841858,54.0,23.294403076171875,-0.0318070948123931,-79.78276830352522,40.45900133043778,273.1232447419166,0.0078090126626193,-0.0064720688387751,0.9900785684585572,0.1401486098766327,-0.0110447440809109,-0.022648881358812,0.0056367036972525,-0.0052416864782571,-0.0020144996233284,-0.0095207681879401,-0.1374578439071774,0.1437896566931158,-9.807341271042825,14938.0
3.8,1.100000023841858,55.0,23.30316734313965,-0.055662415921688,-79.78276831612061,40.45900153083336,273.1245077047348,0.0078040780499577,-0.0064584393985569,0.990084171295166,0.1401098668575287,-0.0130475123342105,-0.0243201794595752,0.0070754230486659,-0.0019891860429197,-0.0028396600391715,-0.0001763550098985,-0.1377280492242426,0.1296397511288523,-9.80933458685875,14938.0
3.9,1.100000023841858,54.0,23.301916122436523,-0.0795177370309829,-79.78276829437101,40.459001548840334,273.12522605991364,0.0077832108363509,-0.0064704823307693,0.9900840520858764,0.1401112228631973,-0.0158026321312072,-0.0276391328637435,0.0072751201531512,0.000307936919853,0.0020052881445735,-0.0015045598847791,-0.1354320851806551,0.1459932438656687,-9.806306313872335,14938.0
4.09,1.100000023841858,54.0,23.30316734313965,-0.0636141896247863,-79.78276831472355,40.45900174440821,273.1266692075729,0.0077532087452709,-0.0064811799675226,0.9900903701782228,0.140067771077156,-0.0157785055411239,-0.0257393114692992,0.0087248657888145,-0.0047925761900842,-0.0022184876725077,-0.0092295361682772,-0.1396615133062005,0.1450135702919215,-9.807508501410483,14938.0
4.2,1.100000023841858,49.0,23.301916122436523,-0.055662415921688,-79.78276828679084,40.45900176381723,273.12754313087464,0.0077521773055195,-0.0064768563024699,0.9900895357131958,0.1400739997625351,-0.0176864941926844,-0.029083566406142,0.0087563787897637,0.0039488901384174,0.0045557622797787,0.0055892919190227,-0.1348400180507451,0.1343869958817959,-9.808745772242547,14938.0
4.39,1.100000023841858,49.0,23.29816055297852,-0.0636141896247863,-79.78276836455399,40.45900197915108,273.1288733277321,0.0077049518004059,-0.0064743631519377,0.9900954961776732,0.1400343477725982,-0.008257949274153,-0.028589645041618,0.009352918151553,0.0007905674865469,0.0004147251020185,-0.0047792801633477,-0.1378944755997508,0.14898451494053,-9.805875374078749,14938.0
4.5,1.100000023841858,51.0,23.30066299438477,-0.0874695107340812,-79.78276834375765,40.45900200262289,273.12983612155915,0.0077083143405616,-0.0064714960753917,0.99009907245636,0.140009269118309,-0.0104499514216736,-0.0315650516563084,0.0095297512274942,0.0058172214776277,0.0022315457463264,0.0067856330424547,-0.1357347425445914,0.1242331414483487,-9.809304181337357,14938.0
4.7,1.100000023841858,52.0,23.301916122436523,-0.055662415921688,-79.7827683674648,40.4590021828306,273.1308396849633,0.0076878634281456,-0.0064943013712763,0.9900987148284912,0.1400118619203567,-0.0129929681077576,-0.026269900566095,0.0100244613214227,0.0024225392844527,0.0060711628757417,0.0020390485879033,-0.134981904393062,0.135133950272575,-9.807605565190316,14938.0
4.8,1.100000023841858,48.0,23.30316734313965,-0.0397588685154914,-79.78276840012248,40.45900236413385,273.13072107172013,0.0076976167038083,-0.0065052127465605,0.9901027083396912,0.1399825662374496,-0.0123824617539496,-0.0236594051715931,0.0101109104068904,-0.00092509429669,-0.0019866877701133,-0.0020586953032761,-0.1385776496585458,0.1265039441920817,-9.808681452870369,14938.0
4.99,1.2000000476837158,50.0,23.29941177368164,-0.0636141896247863,-79.78276835105456,40.45900240186708,273.1328157577516,0.0077011277899146,-0.0065058944746851,0.9901058673858644,0.1399602591991424,-0.0173481611132279,-0.029823633815411,0.0105963170556763,0.0061275889165699,0.0006694651092402,0.0083958841860294,-0.1370122403930872,0.1244212847482413,-9.808470953106882,14938.0
5.1,1.2000000476837158,49.0,23.29690742492676,-0.0715659633278846,-79.78276839447834,40.45900259436356,273.13441721534736,0.0076586171053349,-0.0065176850184798,0.9901074767112732,0.1399505287408828,-0.0140801658882444,-0.0285293966716628,0.0140743629874549,-0.0078711071982979,-0.0017363054212182,-0.0108794281259179,-0.1385052812285721,0.1447077335044741,-9.807430733442306,14938.0
5.3,1.2000000476837158,49.0,23.30066299438477,-0.0636141896247863,-79.78276840704437,40.45900281051008,273.1346247587204,0.0076385531574487,-0.0065195215865969,0.9901074767112732,0.1399517655372619,-0.0115499255954567,-0.0288729129924211,0.0125987223775835,-0.0027760488446801,-0.0024908841587603,-0.0014248923398554,-0.1383593566529453,0.1317857889086008,-9.80826571583748,14938.0
5.4,1.2000000476837158,52.0,23.29941177368164,-0.0795177370309829,-79.78276838469944,40.45900283291802,273.13590166902543,0.0076274848543107,-0.0065199574455618,0.9901078343391418,0.1399497389793396,-0.0139995699887232,-0.0321031626773012,0.0128055092290621,0.000564839807339,0.0043340469710528,-0.0045012896880507,-0.1377085341420024,0.1480823169741779,-9.806302805542948,14938.0
5.6,1.2000000476837158,48.0,23.301916122436523,-0.055662415921688,-79.78276840454207,40.45900301269524,273.1354629192353,0.0076299435459077,-0.0065660625696182,0.9901136159896852,0.1399060189723968,-0.0147776995009042,-0.024075723844733,0.0120564039251991,-0.0020482076797634,-0.0014351360732689,-0.0145348347723484,-0.1379583198856562,0.1466932560782879,-9.807164100408556,14938.0
5.7,1.2000000476837158,55.0,23.29690742492676,-0.0477106422185897,-79.78276837836236,40.45900303070114,273.1366719994545,0.0076285251416265,-0.0065580513328313,0.9901143908500672,0.1399011313915252,-0.0163293537579489,-0.0270744991322443,0.012044792009261,0.0042797373607754,0.002686615101993,0.007387310732156,-0.1341344601195305,0.1313950395863503,-9.80772426366806,14938.0
5.89,1.100000023841858,54.0,23.29816055297852,-0.0874695107340812,-79.78276839904102,40.45900324427117,273.1378133687973,0.0076028895564377,-0.0065609770826995,0.9901137948036194,0.1399063467979431,-0.013624118337008,-0.0292360274220308,0.014620075589572,0.0022523740772157,0.0025623540859669,-0.0005964167648926,-0.1325969895813614,0.1451196333020925,-9.806435537338258,14938.0
5.99,1.100000023841858,51.0,23.30316734313965,-0.0397588685154914,-79.78276837158658,40.45900326675801,273.13929448461533,0.0076154377311468,-0.0065513649024069,0.9901194572448728,0.1398663520812988,-0.0163141785466527,-0.0319657061928138,0.0148240898945799,-2.482439595041797e-05,0.0017578677507117,0.0073413085192441,-0.1362404170632362,0.1258284811489284,-9.809252725839617,14938.0
6.2,1.100000023841858,47.0,23.29941177368164,-0.0795177370309829,-79.7827683782448,40.459003430929215,273.13782743549353,0.0076061338186264,-0.0065714241936802,0.990123689174652,0.139835774898529,-0.0178183120576257,-0.0239985276700196,0.0135498814911739,0.0065772226080298,0.0031118828337639,0.0089653860777616,-0.1347622774913907,0.125920419478789,-9.808232971429826,14938.0
6.3,1.100000023841858,45.0,23.30066299438477,-0.0795177370309829,-79.78276841740005,40.459003617087006,273.1363048348427,0.0075878705829381,-0.0065834815613925,0.9901252985000608,0.139825165271759,-0.0142952392942516,-0.0205242452044494,0.0159139658194352,-0.0058721015229821,-0.0015628389082849,-0.0074493493884801,-0.140690193856135,0.1397611900605261,-9.806771167516713,14938.0
6.5,1.100000023841858,50.0,23.30066299438477,-0.0715659633278846,-79.78276836659946,40.45900364826575,273.1394873056412,0.0075756129808723,-0.0065782479941844,0.9901293516159058,0.1397968977689743,-0.0189696613566657,-0.0262098626389462,0.0160312522261803,5.037478331360034e-05,0.0010355997364968,0.0043763131834566,-0.1376238865591585,0.1267264947015792,-9.807416115403177,14938.0
6.6,1.0,45.0,23.29941177368164,-0.0636141896247863,-79.78276843516008,40.4590038544917,273.13960407114035,0.0075405375100672,-0.0065773930400609,0.990132749080658,0.1397752165794372,-0.0095585560037459,-0.0252186687673051,0.0211460969886577,-0.0004183648561593,-0.0003943493647966,-0.0073197702877223,-0.1364034630171954,0.1505608603265136,-9.805260246992107,14938.0
6.79,1.0,47.0,23.30316734313965,-0.055662415921688,-79.78276844919304,40.45900406864413,273.14031265115744,0.0075343595817685,-0.0065621961839497,0.9901349544525146,0.1397604942321777,-0.0081525979362318,-0.0269958097197553,0.0235516469154037,-0.0056244553998112,-0.0033693150617182,-0.0079270955175161,-0.1409135300852358,0.1427798334136605,-9.806345490217211,14938.0
6.89,1.0,47.0,23.301916122436523,-0.0715659633278846,-79.78276843180905,40.45900408990661,273.14269075727464,0.0075138653628528,-0.0065763471648097,0.9901357889175416,0.1397552788257599,-0.0092911708509396,-0.0298878587411521,0.0236567690921256,0.00375466956757,0.0070998785085976,0.0024226468522101,-0.1337991588469594,0.1356245590746402,-9.80797160089016,14938.0
7.09,0.8999999761581421,46.0,23.29941177368164,-0.0715659633278846,-79.78276843176859,40.45900428751581,273.14302269554145,0.0075193224474787,-0.0065853781998157,0.9901383519172668,0.1397360861301422,-0.0109007398121701,-0.0271216314869475,0.0259025215291854,-0.0004231977509334,-0.0009330793982371,-0.0099185965955257,-0.1333123233262449,0.1483162786904722,-9.806085289120675,14938.0
7.2,0.8999999761581421,47.0,23.29690742492676,-0.0238553211092948,-79.78276840849846,40.459004308802974,273.145632127285,0.0075457980856299,-0.0065867179073393,0.9901413321495056,0.1397136896848678,-0.012740487519765,-0.0299863735320719,0.0260797605267545,0.001807096065022,0.0024558254517614,0.009782126173377,-0.1364065419416874,0.1254621987696737,-9.80948076725006,14938.0
7.39,1.0,49.0,23.294403076171875,-0.1192766055464744,-79.7827684440273,40.459004498209296,273.14337919092185,0.0075240852311253,-0.0066138473339378,0.9901441931724548,0.1396934390068054,-0.0083921017579182,-0.0249655830543521,0.0235742022245291,0.0071275294758379,0.0053841369226574,0.0048048910684883,-0.1366639382019639,0.1365122486371547,-9.806833148002625,14938.0
7.5,1.0,55.0,23.29941177368164,-0.1113248318433761,-79.78276844615284,40.4590047130316,273.1404955778122,0.0074995369650423,-0.0066125895828008,0.9901492595672609,0.1396583616733551,-0.0089614922682695,-0.0269569435991618,0.0220052287419787,-0.0058803013525903,-0.0003679458459373,-0.0071163633838295,-0.138843478700146,0.1280967348720878,-9.809090173244476,14938.0
7.69,1.100000023841858,55.0,23.29816055297852,-0.0715659633278846,-79.78276842526516,40.4590047346784,273.14271865224845,0.0075272070243954,-0.0066160433925688,0.9901497960090636,0.1396532207727432,-0.0107145342632315,-0.0296053949023606,0.0221285089286545,0.0040746503509581,-8.691348921274765e-05,0.0097261480987072,-0.1357572543248534,0.123797843651846,-9.809809965491295,14938.0
7.8,1.100000023841858,63.0,23.29941177368164,-0.0795177370309829,-79.78276842915103,40.45900490956942,273.1375972423553,0.007526746019721,-0.0066234287805855,0.9901530146598816,0.1396302580833435,-0.0114110850899296,-0.0261180462989724,0.0214905609617715,-0.0053294552490115,-0.0024903279263526,-0.0096354745328426,-0.1408193990495056,0.1433990718238055,-9.806944245100023,14938.0
7.99,1.100000023841858,64.0,23.29816055297852,-0.0874695107340812,-79.78276838153252,40.459004951429854,273.14193616247184,0.0075273346155881,-0.0066148936748504,0.9901559352874756,0.1396098136901855,-0.0159246959662123,-0.0316005117781356,0.0218511102810565,-0.0022528411354869,-0.0002653759147506,0.0034518979955464,-0.1362161967996508,0.1286050497740507,-9.80940709233284,14938.0
8.09,1.100000023841858,66.0,23.30066299438477,-0.0636141896247863,-79.78276841907447,40.45900508675353,273.13621799087525,0.0074757044203579,-0.0066645662300288,0.990156888961792,0.1396033316850662,-0.0120359824050123,-0.0184437230339668,0.0210844626960529,-0.0031004366464912,0.0036247204989194,-0.0078660203143954,-0.1353262323047966,0.1497555160056799,-9.805736795067787,14938.0
8.29,1.100000023841858,64.0,23.29816055297852,-0.1192766055464744,-79.78276841011001,40.459005273927936,273.1320016775132,0.0074789389036595,-0.0066597289405763,0.9901615977287292,0.1395700722932815,-0.0119058789610467,-0.0181554013057649,0.0203222844767992,-0.0091052874922752,-0.0011697561712935,-0.0039364849217236,-0.1384733042679727,0.141071477998048,-9.805985886454582,14938.0
8.4,1.100000023841858,62.0,23.29816055297852,-0.0636141896247863,-79.78276839083512,40.45900528677711,273.13403473234183,0.0074551072902977,-0.0066614099778234,0.9901608228683472,0.1395768821239471,-0.0131843216326317,-0.0208415846299027,0.0203746610531607,0.0006535829161293,0.0004634949436876,0.0022679099347442,-0.131256524529308,0.1386545679531991,-9.808089129924772,14938.0
8.6,1.100000023841858,63.0,23.29941177368164,-0.0795177370309829,-79.78276838126516,40.45900551761229,273.1291310582161,0.0074368049390614,-0.0066280118189752,0.990164041519165,0.139556422829628,-0.0111454514620828,-0.0280918501853247,0.0197680570298107,-0.0025383399333804,0.0006283721304498,-0.0077206012792885,-0.1362252873927354,0.1482512466888874,-9.806510381698606,14938.0
8.7,1.2000000476837158,65.0,23.27061462402344,0.5884312987327576,-79.78276835766806,40.45900553975829,273.1311218533516,0.0074544316157698,-0.0066335308365523,0.9901617765426636,0.13957180082798,-0.0128083915656763,-0.0308299548420226,0.0197742643944629,0.0019431163091212,0.0036450126208364,0.0125032039359211,-0.137076212586835,0.1246169837471097,-9.808171575665476,14938.0
8.89,1.2000000476837158,73.0,23.28689193725586,0.2306014448404312,-79.78276836064,40.45900572176686,273.12619117832185,0.0074277259409427,-0.006632647011429,0.9901700019836426,0.1395142376422882,-0.0096817726747604,-0.0275465380491173,0.0195861600649528,0.004309763200581,0.0019230837933719,0.0070073781535029,-0.1340980063844472,0.1462589084543288,-9.807947627305984,14938.0
9.0,1.2000000476837158,73.0,23.288143157958984,0.2226496636867523,-79.7827683441147,40.459005926908006,273.12092153167725,0.0073878304101526,-0.0066796182654798,0.990173876285553,0.1394868195056915,-0.0098092559637695,-0.0285614202445822,0.0192712708423588,-0.0029408494010567,0.0026643208693712,-0.0031913449056446,-0.1357493788562715,0.1181214215140789,-9.808020132780076,14938.0
9.2,1.2000000476837158,73.0,23.28313446044922,0.2306014448404312,-79.78276832077455,40.45900594955964,273.12287274932856,0.0074059721082448,-0.0066830832511186,0.9901717305183412,0.1395010352134704,-0.012410841988568,-0.0316157470888782,0.0193432982447762,0.0028549584094434,-0.0024375871289521,0.0006897480343468,-0.1379188968613743,0.1235486517660319,-9.80708340883255,14938.0
9.3,1.2000000476837158,73.0,23.27812767028809,0.2226496636867523,-79.78276833241036,40.4590060956498,273.1150657925606,0.0073711359873414,-0.0067190746776759,0.9901815056800842,0.1394317597150802,-0.0117536273878705,-0.0201575756534911,0.0191955149551314,-0.0057150670327246,0.0007856070878915,-0.0084596145898103,-0.1419616434909403,0.1528872847091406,-9.805598216056824,14938.0
9.49,1.2999999523162842,68.0,23.284387588500977,0.2703603208065033,-79.78276828834449,40.45900612716885,273.11892489528657,0.0073628458194434,-0.0067212488502264,0.9901843667030334,0.1394117027521133,-0.0158468250627751,-0.0252395005900181,0.0195893481158084,-0.0039815711788833,-0.004798024892807,-0.0021688875276595,-0.1391545048914849,0.1407487208303064,-9.80731378912926,14938.0
9.59,1.2000000476837158,69.0,23.280630111694336,0.3339745104312897,-79.78276827825225,40.45900629973781,273.1101240310669,0.0073282467201352,-0.0067400904372334,0.9901835918426514,0.1394183039665222,-0.0159662769004149,-0.022392758503667,0.0190339906620073,0.0016716457903385,0.0057340092025697,-0.0010559053625911,-0.1349711875431239,0.1317244479618966,-9.810265463590625,14938.0
9.79,1.2000000476837158,70.0,23.268110275268555,8.420928955078125,-79.78276824730109,40.459006501176326,273.1032948884964,0.0073384740389883,-0.006728674750775,0.9901865124702454,0.1393972784280777,-0.0153543748244476,-0.0254419872337742,0.0185851541949298,-0.0003942519833799,-0.0017740175826475,-0.0127413421869277,-0.1415577744785696,0.1441238250676542,-9.80516201376915,14938.0
9.89,1.2000000476837158,72.0,23.072790145874023,3.3317933082580566,-79.78276822328091,40.45900651873939,273.105222741127,0.007304229773581,-0.0067718345671892,0.9901770949363708,0.1394637376070022,-0.0142059079138839,-0.0268082077804926,0.0189748246793287,0.0154149578884243,-0.0100620128214359,0.000397079042159,-0.1543967160210013,0.0933316208515316,-9.800906994938847,14938.0
10.09,1.2000000476837158,75.0,23.280630111694336,0.1749390214681625,-79.78276822708011,40.45900671250318,273.09965536928183,0.0072851330041885,-0.0067411004565656,0.9901980757713318,0.1393171995878219,-0.0061967829706965,-0.0248247455974039,0.0212895204466079,0.0289258435368537,0.0122967744246125,0.0133625054731965,-0.1308642585854977,0.0920904762391001,-9.795377283096316,14938.0
10.2,1.2000000476837158,73.0,23.265605926513672,12.015130043029783,-79.78276820316634,40.459006730287406,273.1018513832093,0.0072866124100983,-0.0067766462452709,0.9902045726776124,0.1392691284418106,-0.0139546087752924,-0.0263714680756207,0.021643882529144,-0.018012385815382,0.0206250250339508,-0.0063720410689711,-0.1560208898037672,0.1325053984299302,-9.810126299858092,14938.0
10.4,1.2000000476837158,72.0,23.260597229003903,0.4612028896808624,-79.78276817991558,40.45900687653537,273.09693775510794,0.0072656031697988,-0.0068524852395057,0.990203857421875,0.1392718851566314,-0.0130984528756816,-0.0154163563215549,0.029401643422533,0.0099501488730311,0.0051841423846781,0.0064385272562503,-0.1739629979431629,0.1238889048993587,-9.79281152486801,14938.0
10.5,1.2000000476837158,71.0,23.27812767028809,0.1749390214681625,-79.78276815534383,40.459006887380255,273.0997761282921,0.0072148027829825,-0.0068263714201748,0.9902140498161316,0.1392029970884323,-0.0183916434208631,-0.019413431591642,0.0291683460953864,-0.003316291142255,0.0090821655467152,-0.0166598167270421,-0.1419255186617374,0.1325784794893116,-9.806606860756872,14938.0
10.7,1.2999999523162842,68.0,23.258094787597656,1.017827033996582,-79.78276794518473,40.45900691814031,273.1090958509445,0.0072815055027604,-0.0068870456889271,0.9902154207229614,0.1391875445842743,-0.045556810845815,-0.0033835524297297,0.0491465016609363,-0.0017358261393383,-0.0056169931776821,-0.0016473900759592,-0.1441959468182176,0.1387559257820248,-9.81559578537941,14938.0
10.79,1.100000023841858,75.0,23.151670455932607,3.649864196777344,-79.78276795077501,40.45900711936198,273.1024784836769,0.0072944611310958,-0.0068879416212439,0.9902152419090272,0.139187604188919,-0.0322668246104294,-0.0085676589018001,0.0523953127606136,-0.0052730655297636,0.0081523396074771,-0.0065222573466599,-0.1393702123314142,0.1677488512359559,-9.791734467744828,14938.0
10.99,1.100000023841858,74.0,23.06152153015137,5.439013481140137,-79.78276786581397,40.45900712051496,273.1128080282212,0.0072796731255948,-0.006893154233694,0.990209937095642,0.1392256915569305,-0.0342812555694281,-0.0139063375196168,0.053247660594068,0.0108607830479741,0.0119777834042906,0.0012279177317395,-0.1748189572244882,0.1237739888392388,-9.798524254560473,14938.0
11.1,1.100000023841858,77.0,23.000171661376957,6.647683143615723,-79.78276791795922,40.45900730371193,273.099764564991,0.0072216526605188,-0.0068907346576452,0.9902023673057556,0.1392827183008194,-0.0223948642138397,-0.0115450675321654,0.0484415615847438,0.0072936974465847,-0.0159449987113475,0.0038794158026576,-0.1472300213389098,0.1116214921418577,-9.795835120081902,14938.0
11.29,1.100000023841858,76.0,22.90251159667969,8.961648941040039,-79.78276789258281,40.4590074904301,273.092185655594,0.0069967033341526,-0.0070568607188761,0.99018532037735,0.1394071727991104,-0.0150554580568765,-0.0095968875305666,0.0434612747074061,-0.0676189512014389,-0.0601089224219322,0.0302989445626735,-0.1314881656318903,0.165301352944225,-9.812928285598757,14938.0
11.4,1.0,78.0,22.833648681640625,10.39296817779541,-79.78276786854134,40.45900749861904,273.09622071123124,0.0068579809740185,-0.0070455032400786,0.9901729226112366,0.1395026892423629,-0.019314200975885,-0.0154109758709908,0.0410390564958105,-0.0305738095194101,-0.0414714477956295,0.0316644422709941,-0.1469809025432914,0.2120491111837328,-9.793976874947546,14938.0
11.59,1.0,78.0,22.71220016479492,12.977294921875,-79.78276789322487,40.45900764105059,273.08650116062165,0.0064644450321793,-0.0071856137365102,0.9901110529899596,0.1399523466825485,-0.0133714057515869,-0.0084176359359104,0.0360789140979415,-0.0347630828619003,-0.0492007620632648,-0.0412245020270347,-0.0693853450007736,0.4047448521852493,-9.847157886028288,14938.0
11.7,1.0,76.0,22.628313064575195,14.68692684173584,-79.78276787897227,40.45900765012842,273.0903410408497,0.0061809914186596,-0.0067729586735367,0.9901370406150818,0.139802411198616,-0.0159506142330688,-0.018117513543938,0.0427281454942409,-0.0781144276261329,-0.0421992726624012,0.0427787415683269,-0.1957842037640512,0.4401938163489104,-9.824395844936369,14938.0
11.89,1.0,75.0,22.469301223754886,18.04257583618164,-79.7827679122759,40.45900794915254,273.0785826239586,0.0039976262487471,-0.003753489581868,0.9902051091194152,0.1395129263401031,-0.0095632381542487,-0.0259685795220775,0.0499596321565213,-0.061818640679121,0.006370423361659,0.0084378141909837,-0.0573249510861933,0.1203816809970885,-9.862559452056882,14938.0
12.0,0.8999999761581421,78.0,22.391674041748047,19.45003890991211,-79.78276790191974,40.45900797221749,273.08340630865104,0.0033849193714559,-0.0017590264324098,0.990347981452942,0.1385511010885238,-0.010233454276627,-0.0244574631950659,0.0395765324003845,-0.061693537980318,-0.0065015223808586,0.0209015440195798,-0.0113631991005968,0.0487341487593948,-9.691551783084869,14938.0
12.19,1.0,76.0,22.21012687683105,23.489540100097656,-79.78276786688744,40.45900811162058,273.07078776693345,0.0034183643292635,-0.0012686190893873,0.990401566028595,0.1381717026233673,-0.0020250598904916,-0.0100065138663782,0.0707833116690426,0.0339898094534874,0.0316152982413768,-0.0166927557438612,0.2354324189387262,0.0545269990107044,-10.289090445041657,14938.0
12.3,1.0,76.0,22.129995346069336,25.000377655029297,-79.78276789462866,40.45900830737794,273.06026856040955,0.0029368023388087,-0.0040698507800698,0.990581512451172,0.1368323564529419,0.0054143407710414,0.0203144718906623,0.1452256916932078,0.0468023009598255,-0.0476089380681514,-0.1730853617191314,0.1901406904868781,0.2936217346787453,-10.567210918664934,14938.0
12.49,1.100000023841858,75.0,22.406700134277344,17.454143524169922,-79.78276792810581,40.45900824709131,273.10977695322043,0.0052524548955261,-0.0069510112516582,0.9909592270851136,0.1338807195425033,0.0197906613652486,0.0475955888131443,0.3292774241831619,0.0690787732601165,-0.0025720102712512,-0.0056967814452946,-0.0092291321244556,0.4160280049592257,-10.540055279731751,14938.0
12.6,1.100000023841858,72.0,22.366634368896484,19.100160598754886,-79.7827680377242,40.45900829804997,273.1364186797142,0.0041296980343759,0.0033026449382305,0.9909884929656982,0.1338429003953933,0.0229658190327921,0.0831184249864814,0.2667610602451102,-0.0478095971047878,0.0703642591834068,0.0196972712874412,0.0638983863545581,0.0353682291903533,-9.971170313358307,14938.0
12.8,1.2000000476837158,73.0,22.30528259277344,20.165699005126957,-79.78276812399066,40.45900814142305,273.1101140770912,0.0057628988288342,0.0055401725694537,0.9909016489982604,0.1343509554862976,0.040077618404367,0.1037480842862884,0.1729562394915086,0.0157487746328115,0.0109399948269128,0.0476435124874115,0.0862513461895287,0.1297919614613056,-9.65000614643097,14938.0
12.9,1.2999999523162842,76.0,22.283998489379886,20.92906951904297,-79.78276819194973,40.4590080669099,273.1263710055352,0.0057472921907901,0.0058799344114959,0.9908316135406494,0.1348524987697601,0.0428839241285308,0.1082378867587917,0.1485015332376809,-0.0011181135196238,-0.0617765597999095,0.0700182095170021,0.19501229820773,0.1505827234312892,-9.538723107576368,14938.0
13.09,1.399999976158142,76.0,22.192598342895508,22.0105094909668,-79.78276837525188,40.459007980621145,273.1388075146675,0.0080026471987366,0.0094129629433155,0.9907721877098083,0.1349738389253616,0.0458267161098787,0.1219458215814394,0.1225474944684153,0.0547273084521293,0.0156976096332073,-0.0302030574530363,0.1985770349577069,0.0662066295510157,-9.693822256922724,14938.0
13.2,1.5,77.0,22.2526969909668,21.350513458251957,-79.7827684522455,40.45900788887558,273.1514858994484,0.0094331176951527,0.0094829145818948,0.990794599056244,0.1347116380929947,0.0335807981524234,0.1194616176016288,0.1252569695260891,-0.0673881769180297,-0.0497679226100444,-0.0230358205735683,0.1481933683902025,0.2035278724506497,-9.75481865644455,14938.0
13.4,1.5,81.0,22.230159759521484,20.952924728393555,-79.78276865246286,40.4590079073372,273.1751304063797,0.0095299407839775,0.0109321633353829,0.9909147620201112,0.1337076723575592,0.042531391516639,0.1102100851659915,0.1860643614564669,-0.0103556970134377,0.0135977678000926,-0.0276565290987491,0.1820568234845996,0.1730726497247815,-10.089017436504363,14938.0
13.49,1.5,78.0,22.22640419006348,21.088104248046875,-79.78276873079703,40.459007833566936,273.1954632792473,0.0104244239628314,0.0138318967074155,0.9909142851829528,0.1333754509687423,0.0471665667182085,0.0956934253220634,0.2080392730462556,0.0393354408442974,0.0465817749500274,0.1097155138850212,0.2832643788680434,-0.0382530603837221,-10.057644785642625,14938.0
13.7,1.600000023841858,79.0,22.23141288757324,20.984731674194336,-79.78276883633454,40.45900771682084,273.22401289081574,0.0153103116899728,0.0192594919353723,0.9906441569328308,0.1342345625162124,0.0288733117002272,0.0977470293223133,0.2301477298345557,-0.1383493840694427,-0.016001297160983,-0.0129276346415281,0.292534499745816,0.1384963733609766,-9.92227940440178,14938.0
13.8,1.600000023841858,78.0,22.18759155273437,21.71629524230957,-79.78276901645063,40.459007938685545,273.23078505134583,0.019290642812848,0.017852971330285,0.9904701709747314,0.1351964473724365,0.0470938251941908,0.0718652174048233,0.2289425978920028,-0.0935535803437233,-0.0234542973339557,0.0624349303543567,0.2075663615763187,0.1002203443832695,-9.845524173974992,14938.0
14.0,1.600000023841858,77.0,22.160045623779297,22.757976531982425,-79.78276912485774,40.45900788142952,273.28081510400773,0.016960060223937,0.0182622149586677,0.9903391003608704,0.136408731341362,0.0266058633741121,0.0327761531227811,0.2649268907425442,0.0222444273531436,-0.0320290252566337,-0.0392341949045658,0.2166400160081684,0.2850812549516559,-9.95381928563118,14938.0
14.1,1.600000023841858,76.0,22.251445770263672,20.22931289672852,-79.78276907399172,40.459007989853546,273.2960191760063,0.0147282658144831,0.0174158811569213,0.9903501868247986,0.1366981267929077,1.4003746193714845e-05,0.0265074904085647,0.2840252914597826,-0.0284762848168611,0.0022384652402251,0.0282899439334869,0.2366433590278029,0.1159483129531145,-10.03840510725975,14938.0
14.29,1.600000023841858,76.0,22.16254997253418,21.024490356445312,-79.78276921915803,40.45900813643647,273.3436853680612,0.0130811585113406,0.0146350590512156,0.9903269410133362,0.1373586207628249,0.0206858745807604,0.0044749210044439,0.2824841436812825,-1.7830439901445058e-05,-0.0131646022200584,0.0816192775964737,0.1438412126898765,0.1279615454189479,-9.867190446853636,14938.0
14.4,1.5,71.0,22.22515296936035,14.496084213256836,-79.7827692358197,40.45900814584925,273.3723448905945,0.0113278776407241,0.0145281236618757,0.9903799891471864,0.1371426433324813,0.0236285327231006,-0.0035301734209917,0.2922090604193182,0.0482555478811264,0.0359227769076824,-0.0588205344974994,0.1692437832802534,0.2555315466597676,-9.857613877058029,14938.0
14.59,1.600000023841858,71.0,22.099946975708008,24.61869239807129,-79.78276918804093,40.45900814352719,273.4174246582985,0.0107122035697102,0.0115298740565776,0.990591049194336,0.1359476894140243,0.0039357471103909,0.0279574572958324,0.0727380500380439,-0.0036252536810934,-0.1547925025224685,0.0597688481211662,0.2315861022099853,0.1034772526379674,-8.561461583375934,14938.0
14.71,1.600000023841858,73.0,22.071149826049805,23.473636627197266,-79.78276920822171,40.45900811597593,273.4220424089432,0.0073774275369942,0.0032631619833409,0.9907298088073728,0.1356078833341598,0.0144874067135169,0.0358639564463871,0.0374411680918092,0.089458554983139,-0.1753661036491394,0.1023942679166793,0.1928364944458008,0.0554193983227014,-9.371651784181596,14938.0
14.89,1.600000023841858,72.0,21.905879974365234,27.46542739868164,-79.7827693208218,40.45900808496036,273.449215868473,0.0088912826031446,0.0001503912790212,0.9907699227333068,0.1352624744176864,0.0213579553909129,0.0570398265509731,0.1902574570534408,-0.0813801735639572,0.0326943434774875,-0.0704797282814979,0.2259925460815429,0.1722647837921977,-10.487532080411912,14938.0
15.0,1.600000023841858,72.0,21.91965103149414,26.9167537689209,-79.78276936020458,40.45900803704947,273.47436074352265,0.0128130000084638,0.0038670687936246,0.9907284379005432,0.1351967751979828,0.0271044517094388,0.0730760130083851,0.3153508294800898,-0.0485232733190059,0.0456313043832778,-0.1164198219776153,0.2927104826644063,0.2158215885423124,-10.970602140426635,14938.0
15.2,1.600000023841858,72.0,21.79820251464844,29.509033203125,-79.78276946512128,40.45900823889164,273.5800156388284,0.017952773720026,0.0121286520734429,0.9905720353126526,0.1352693885564804,0.0209119564211843,0.082143137732727,0.6467729124906202,-0.0987463444471359,-0.0164898503571748,-0.0443047247827053,0.331107722595334,0.2812728172168136,-11.357191972732544,14938.0
15.29,1.7000000476837158,70.0,21.683013916015625,32.47504425048828,-79.78276953535078,40.459008364679065,273.63684968090064,0.0178321693092584,0.0125881088897585,0.9905755519866944,0.1352176070213318,0.0323679750981321,0.0795939815670477,0.8053316169096669,0.0017295350553467,-0.1075809746980667,0.0662435069680213,0.3751546153798699,-0.0307174338027834,-11.643953461647037,14938.0
15.5,1.7000000476837158,72.0,21.597875595092773,33.78708648681641,-79.78276953796984,40.45900828204247,273.84533444976813,0.0155096054077148,0.0100912302732467,0.9907267093658448,0.1346042156219482,0.0103491714755855,0.0722148477190149,1.2871009132167457,0.001519450219348,0.0252423640340566,-0.1229676604270935,0.2883323068544269,0.3754311521351338,-12.21749398112297,14938.0
15.61,1.7999999523162842,76.0,21.594118118286133,33.0634765625,-79.78276952422858,40.459008431109545,273.96807829475404,0.0149181159213185,0.011140277609229,0.9907185435295104,0.1346480548381805,0.004566655957,0.0657435174010581,1.5161647875266893,-0.0073283496312797,-0.0363696664571762,0.018787870183587,0.2878798602707684,0.2137844368815422,-12.315222004652025,14938.0
15.79,1.7999999523162842,76.0,21.516490936279297,35.80683898925781,-79.78276943046238,40.45900857383417,274.2953215036393,0.0150321526452898,0.0109959300607442,0.990729033946991,0.1345703452825546,0.0025885174414894,0.0616174617990353,1.987633443249862,0.0499082207679748,0.006243176292628,-0.0022886411752551,0.2690096345543861,0.2772706904634833,-12.292289224863053,14939.0
15.9,1.8999999761581416,74.0,21.481433868408203,34.622024536132805,-79.78276936736825,40.45900855694635,274.50678912734986,0.0136246811598539,0.010885352268815,0.9907158613204956,0.1348262280225753,-0.0011297304110041,0.057572988777606,2.2419476837121683,0.0526248179376125,0.0336452051997184,-0.0486050881445407,0.3066934410855174,0.3780477080494165,-12.353689666986464,14939.0
16.09,2.0,73.0,21.789438247680664,27.886871337890625,-79.78276919995756,40.45900871919647,274.9701539669037,0.0084995916113257,0.0095846652984619,0.9904791712760924,0.1370654553174972,-0.0111996823542553,0.0519041056994924,2.685049027576538,0.0455059148371219,0.0246729478240013,0.057391632348299,0.2940804304741323,0.1223029298800975,-12.144620132446288,14939.0
16.19,2.0999999046325684,71.0,21.672998428344727,31.4890251159668,-79.78276912435899,40.45900871250296,275.24696747398383,0.0074302358552813,0.0102871842682361,0.990355372428894,0.1379685699939727,-0.0243163990152224,0.045609877746685,2.8397922870939123,0.0063627706840634,0.0984089225530624,-0.0517690479755401,0.2128669173829257,0.2213177154399454,-11.504378085136414,14940.0
16.39,2.200000047683716,69.0,21.80070686340332,26.9724178314209,-79.78276894974607,40.45900888923725,275.7797259483337,0.0082715945318341,0.0154353082180023,0.990226149559021,0.1383672207593917,-0.0212622359470398,0.0487623062501482,3.0135329883356605,-0.0479208976030349,0.0494146980345249,0.0020856710616499,0.1581477596797049,0.1044866830576211,-10.91170430660248,14940.0
16.49,2.299999952316284,68.0,21.928415298461918,23.95869445800781,-79.78276887219594,40.459008906643575,276.0854784641266,0.011483697220683,0.0176356807351112,0.9902702569961548,0.1375573426485061,-0.0240914665446037,0.0578479984961019,3.0960308712006275,-0.0409137532114982,0.0433535985648632,0.007260990794748,0.2290544222854078,0.1492505084350705,-10.656182152032851,14941.0
16.69,2.299999952316284,65.0,21.9209041595459,26.01025199890137,-79.78276872432687,40.45900915776754,276.62952224349976,0.0173873864114284,0.0198796335607767,0.990473449230194,0.1351474523544311,0.0148635169554386,0.046095453669887,3.0859696982701785,-0.0163182877004146,0.0579746142029762,0.0040256390348076,0.2387065673433245,0.0925957122165709,-10.040264521837235,14941.0
16.8,2.400000095367432,63.0,21.89210700988769,25.52519416809082,-79.78276856705244,40.459009428773406,276.87033216094966,0.0183103065937757,0.0209274627268314,0.9905348420143129,0.1344156414270401,0.0012305151685309,0.0185688067619582,3.0518013853274684,-0.0479650124907493,-0.0443433001637458,0.0369643718004226,0.2212243061698973,0.1834392697177827,-10.01822168827057,14941.0
16.99,2.5,63.0,21.974742889404297,23.68833541870117,-79.7827683122353,40.45900958070899,277.4778427276612,0.0165967606008052,0.0196464415639638,0.9906430840492249,0.1340332478284835,-0.0152619710954964,-0.0125771555684646,3.0490213141189795,0.0478630773723125,-0.0676783844828605,-0.023849906399846,0.1705725630372762,0.3319549841433764,-9.707198347449305,14942.0
17.1,2.5999999046325684,60.0,22.004791259765625,24.006404876708984,-79.78276782251682,40.45900972952593,277.8858422431946,0.0132795050740242,0.0173363927751779,0.990662693977356,0.1345760375261306,-0.0495944398717631,-0.0369889055839786,3.0807037356840854,0.0105510139837861,-0.1372735500335693,0.0281756147742271,0.1834044970571995,0.2321295460872352,-9.588902742862702,14942.0
17.29,2.5999999046325684,56.0,21.915895462036133,25.342304229736328,-79.78276765068642,40.45900975523822,278.57210342025763,0.0077081862837076,0.0126362731680274,0.9905009269714355,0.1367070823907852,-0.0849122645443007,-0.0596656885232037,3.0413361479518564,-0.0376211591064929,-0.0921201184391975,0.0306183043867349,0.165650687534362,0.2036405409872532,-9.52862028837204,14943.0
17.39,2.799999952316284,49.0,21.959716796875,23.56905746459961,-79.78276746368516,40.45900983702672,278.87361375427247,0.0077511030249297,0.0112950392067432,0.9902774095535278,0.1384308338165283,-0.0856783885652391,-0.0757325977030421,3.0299900875342165,-0.0426942035555839,-0.0216062813997268,0.0010518055642023,0.2549703784100711,0.1487934297602624,-9.675469601154328,14943.0
17.59,2.799999952316284,50.0,21.908382415771484,24.451704025268555,-79.78276772592878,40.459009735449705,279.59614030456544,0.0065160249359905,0.0129823498427867,0.9899702072143556,0.1405277103185653,-0.0576781979411538,-0.0383492016256481,3.0181615768676533,0.0147257875651121,0.035335898399353,-0.008234747685492,0.1792167212069034,0.100076585104689,-9.475648022890091,14944.0
17.7,2.900000095367432,50.0,21.99853134155273,23.799659729003903,-79.78276759216449,40.45900980756886,279.89637509918214,0.0057332105934619,0.0153050003573298,0.9899346828460692,0.1405780017375946,-0.0580593256186395,-0.024907270116755,2.996177820767424,0.0714326351881027,0.007878316566348,-0.0176946260035038,0.2337545421347022,0.1367829107679426,-9.552372263073922,14944.0
17.89,2.900000095367432,48.0,21.97974967956543,23.68833541870117,-79.78276835372752,40.45900971888503,280.64340726470954,0.005581593606621,0.0173444300889968,0.9901177883148192,0.1390498280525207,-0.0072185210341935,0.039773884653734,2.995494827235232,-0.0460357181727886,0.0146697247400879,-0.0115493005141615,0.2917333763837814,0.0640582574531436,-9.46593287408352,14945.0
18.0,2.799999952316284,45.0,21.96096992492676,24.83338928222656,-79.78276831142442,40.45900977334773,280.9413589630127,0.0056379958987236,0.0178723633289337,0.9902630448341372,0.1379420757293701,0.0057462357943937,0.0363283805218942,2.9640630292358976,-0.0264678541570901,-0.006699739024043,0.0110954390838742,0.2393666266277432,0.090155669124797,-9.451060481071472,14945.0
18.19,2.700000047683716,48.0,21.90963554382324,24.61074066162109,-79.78276761113015,40.45901041534335,281.63522569274915,0.0039908746257424,0.0166051052510738,0.9906448125839232,0.1353928446769714,0.0006879143505373,-0.0116386102803355,2.964865097481177,0.0436463207006454,0.007107641082257,-0.0255728624761104,0.3786092600226402,0.0616015360923484,-9.652456129789352,14946.0
18.3,2.900000095367432,44.0,21.9309196472168,24.45965576171875,-79.78276782347969,40.45901031705029,281.9981216583252,0.005064922850579,0.0146839283406734,0.9908244013786316,0.1342605799436569,0.0109733134193944,0.0067734183461328,2.9874036098821346,-0.0526289939880371,0.049935657531023,-0.017983142286539,0.3280165554955602,0.0681594031490385,-9.7630872040987,14946.0
18.49,2.900000095367432,45.0,21.902122497558597,25.73194122314453,-79.78276776972196,40.4590104893777,282.5942329559326,0.0065346998162567,0.0129217347130179,0.9909735918045044,0.1332734078168869,0.051935724867804,-0.018865047893339,2.9630833331903017,0.0624571591615676,0.0424093529582023,0.0401489324867725,0.2592971535399556,0.0523643332114443,-9.620698147416118,14947.0
18.6,2.700000047683716,43.0,21.92340850830078,24.141586303710927,-79.7827679552334,40.4590102885103,282.96060124969483,0.0059093041345477,0.0122876679524779,0.9909338355064392,0.1336572021245956,0.0603701452484111,0.0273414491413217,2.9925365839673086,0.0130208088085055,-0.0253410451114177,-0.0057812687009572,0.2394922504015267,0.2181974036246538,-9.688369143605232,14947.0
18.8,2.700000047683716,43.0,21.90963554382324,24.65049934387207,-79.78276781289625,40.45901055108139,283.60149518585206,0.0065028816461563,0.0108158756047487,0.9906908869743348,0.1355450898408889,0.0677181596592427,-0.001742167958596,3.009354658176917,-0.0583062805235385,-0.0312069356441497,-0.0013491639401763,0.2535706463456154,0.1555991959199309,-9.733827152252196,14948.0
18.9,2.700000047683716,44.0,21.87457847595215,25.37411117553711,-79.7827678359333,40.4590106262408,283.90217630004884,0.0069532743655145,0.0094145815819501,0.9906216263771056,0.1361319124698639,0.0742307069177223,-0.0031742805462728,3.0064630769856944,0.0008905421127565,-0.054446592926979,-0.0328004024922847,0.2438312864117325,0.2245165626704693,-9.74944915831089,14948.0
19.09,2.700000047683716,46.0,21.90087127685547,23.68833541870117,-79.78276813746044,40.45901071901803,284.53898183441163,0.0064805746078491,0.0070900055579841,0.9906412959098816,0.1361531615257263,0.1128935128391221,0.0130066805439299,3.030661413335871,0.039285022765398,0.041653785854578,0.0081992195919156,0.254496845304966,0.0744700243463739,-9.905639398097993,14949.0
19.19,2.700000047683716,45.0,21.91339111328125,24.865196228027344,-79.78276820836166,40.45901076894825,284.8420318756104,0.005854248534888,0.0070194895379245,0.9906688928604126,0.1359843462705612,0.1100464725920369,0.0150389999288601,3.0247995901509395,0.0397155471146106,-0.0021709045395255,0.0505814179778099,0.249571315292269,0.0652073723729699,-9.773004081845285,14949.0
19.39,2.5999999046325684,43.0,21.859554290771484,24.61074066162109,-79.78276855588355,40.45901078804003,285.4664005432129,0.0095187043771147,0.0071070566773414,0.9906479716300964,0.1359250992536544,0.1213303098957179,0.043512600357403,2.994682693770948,-0.0486451387405395,0.0273240189999342,-0.0091266939416527,0.1850190594792366,0.1426293407008052,-9.60896863281727,14950.0
19.5,2.5999999046325684,48.0,21.915895462036133,24.12568283081055,-79.78276865233497,40.45901080905667,285.7652687225342,0.0115720080211758,0.0074187321588397,0.9906316995620728,0.1358676105737686,0.1310012119898782,0.0549340669992815,2.9821006020192544,-0.0396694242954254,-0.0319371186196804,-0.0023936717770993,0.2121247412636877,0.1786870182864368,-9.656561459898947,14950.0
19.7,2.5,44.0,21.81447982788086,25.03218460083008,-79.78276886715967,40.45901094675929,286.3987363967896,0.0094517013058066,0.0068022408522665,0.9907339811325072,0.1353167742490768,0.1444637314350019,0.0602569161762787,2.9815246687509704,0.0317289792001247,-0.025565531104803,-0.0192618761211633,0.1742555231787264,0.2023119987733662,-9.664028939008713,14951.0
19.8,2.5,44.0,21.845781326293945,24.761823654174805,-79.78276890585222,40.45901108121123,286.72682897186286,0.0084975427016615,0.0058973408304154,0.9907689690589904,0.1351659595966339,0.1210896655921958,0.0454926118786559,3.012722979901969,-0.0544574074447155,-0.0899361297488212,-0.0232254937291145,0.1737197537720203,0.1510368054080754,-9.775409041643146,14951.0
19.99,2.5,45.0,21.858301162719727,25.437725067138672,-79.78276907976425,40.45901111637494,287.32934896087653,0.0083404434844851,0.0069699576124548,0.9908146858215332,0.1347895562648773,0.1156115608960922,0.0512860833670481,3.0037753752533165,-0.022352997213602,-0.0158022884279489,-0.0850907787680625,0.2411926024407149,0.2678069719299674,-9.732609177231788,14952.0
20.09,2.400000095367432,42.0,21.85329246520996,25.93073463439941,-79.78276910689803,40.4590112062504,287.6389555130005,0.0086929090321064,0.0080874459818005,0.9907872080802916,0.1349066495895385,0.1201447427215314,0.0504788040953433,3.0043055179576807,-0.0212291274219751,0.0645957514643669,-0.0433777570724487,0.2658519919216633,0.1234021972864866,-9.800334552526476,14952.0
20.29,2.5,40.0,21.89461135864257,24.61074066162109,-79.78276925419544,40.45901124446832,288.2482036743164,0.0111748417839407,0.0103519717231392,0.9906109571456908,0.1358597725629806,0.1200301997262386,0.0672221283014987,3.0209291508637968,-0.003919587470591,0.0971752405166626,-0.0270995199680328,0.2487172380834818,0.1055633838661015,-9.881605002880097,14953.0
20.4,2.5,39.0,21.89210700988769,24.12568283081055,-79.7827693283615,40.45901125331319,288.5504917297364,0.0114615214988589,0.0112369833514094,0.9905524253845216,0.1361923217773437,0.1168217040145526,0.0817792073266269,3.0189878674549684,0.0080208890140056,0.0187149681150913,-0.0475989244878292,0.2711034311167896,0.2349646234139801,-9.780342337489133,14953.0
20.49,2.5,39.0,21.94719696044922,23.56110572814941,-79.78276939580645,40.45901125695893,288.85223237609864,0.0103894397616386,0.0106933303177356,0.9905074834823608,0.1366484910249709,0.1072173198019894,0.0906130324619619,3.009262050159007,-0.0027359467931091,-0.0494053214788436,-0.0414115786552429,0.3145833815261721,0.1947182198055088,-9.72094632089138,14953.0
20.7,2.299999952316284,43.0,21.858301162719727,24.435800552368164,-79.78276902378636,40.45901141765136,289.4521392974854,0.00888925883919,0.0079499948769807,0.9903680086135864,0.1379454880952835,0.0523203239560581,0.0414318857150369,2.9753633381289104,0.0239863544702529,0.025133965536952,0.0148812029510736,0.2424011670984328,0.0426399521995335,-9.714185185432434,14954.0
20.9,2.299999952316284,42.0,21.89711570739746,23.680383682250977,-79.7827689818625,40.4590115412874,290.06067315673835,0.0077214483171701,0.008973479270935,0.9903581738471984,0.1380238980054855,0.0430613738940559,0.0317081251514438,2.983169464911636,0.0281875114887952,0.0665573701262474,0.005056154448539,0.2354146580211818,0.0511126681789755,-9.797521457076073,14955.0
21.01,2.299999952316284,39.0,21.809471130371094,25.85121726989746,-79.7827689704738,40.45901155652089,290.3585476074219,0.0076626478694379,0.0098172584548592,0.99042546749115,0.1374859809875488,0.0370846921652495,0.0388030287281322,2.9756187452358787,0.0287388265132904,0.0685375109314918,0.0570690482854843,0.2140876698307692,-0.0154796857433393,-9.77800988316536,14955.0
21.09,2.299999952316284,37.0,21.83952140808105,23.720142364501957,-79.78276912623848,40.45901146870985,290.6588691864014,0.0088142473250627,0.011431067250669,0.9905147552490234,0.1366469115018844,0.0440868659220126,0.0703361093735085,2.9989521144624267,0.0284687932580709,0.0517751835286617,0.0950342118740081,0.242441037800163,-0.0618535099737346,-9.983209730386736,14955.0
21.3,2.299999952316284,32.0,21.79820251464844,25.191219329833984,-79.782769204096,40.45901137633948,291.2582611236573,0.009435380809009,0.0132968155667185,0.9906840920448304,0.1352010369300842,0.0502699839886346,0.104708354364494,3.015660671245152,0.020912867039442,-0.0769475996494293,0.04797388240695,0.2789306784421205,0.0748607416916638,-9.923019661903382,14956.0
21.41,2.400000095367432,31.0,21.83075523376465,24.75387191772461,-79.78276921654027,40.45901136264865,291.5604995880127,0.0085905008018016,0.0119675230234861,0.9907599687576294,0.1348251849412918,0.0497443217093214,0.1040335909754223,3.0250142925372834,0.0235236026346683,-0.0797783806920051,-0.0064099803566932,0.2823942400887608,0.0856933664996177,-9.925215876102447,14956.0
21.6,2.700000047683716,26.0,21.855796813964844,23.56905746459961,-79.78276933897281,40.45901122836848,292.15931741333014,0.0086529348045587,0.0124233672395348,0.9907282590866088,0.1350123584270477,0.0303095371431921,0.1171597795468729,3.0306328529277424,-0.0153622152283787,-0.0343698970973491,0.027095828205347,0.2413124703615904,0.0948932568356394,-9.899243713617324,14957.0
21.8,2.799999952316284,24.0,22.11246681213379,19.45003890991211,-79.78276927312305,40.45901113561703,292.75534669494635,0.003372453385964,0.0134585630148649,0.9905483722686768,0.1364607214927673,0.0176350136558581,0.1177712925019528,2.9472126102032514,0.0731931403279304,0.0387699045240879,0.1104911714792251,0.2797260276786983,-0.1229395089391619,-9.2895732486248,14957.0
21.91,2.799999952316284,19.0,22.160045623779297,17.811973571777344,-79.78276926372946,40.45901110070022,293.04504815673835,0.0020213155075907,0.0146800763905048,0.9904139637947084,0.1373339742422104,-0.0122873929994552,0.110896105649864,2.838050276496584,0.0097561841830611,0.0165174063295125,0.066510684788227,0.2556616472080349,-0.0012385590467602,-8.880533616542818,14958.0
22.0,2.700000047683716,15.0,22.145021438598643,17.788118362426758,-79.7827692491431,40.45901106868411,293.3228878173828,0.0030378291849046,0.0161713678389787,0.9902999401092528,0.1379686146974563,-0.022086831837159,0.1105515674520246,2.709223371723368,-0.0184612311422824,0.0291585102677345,-0.023274578154087,0.1878141564689577,0.0400274527911096,-8.564828994870187,14958.0
22.2,2.799999952316284,7.0,22.07740974426269,19.903289794921875,-79.78276927695019,40.45901104480114,293.861751953125,0.0030555515550076,0.0180600471794605,0.9902881383895874,0.1378187239170074,0.006119151571835,0.1075035797937608,2.470329341330688,0.0824716910719871,0.0464278422296047,0.0028730991762131,0.3095726100727916,-0.0866411544755101,-8.492904149293903,14958.0
22.39,2.799999952316284,3.0,22.15754127502441,17.907394409179688,-79.78276924290027,40.45901097189723,294.34682313537604,0.0040333606302738,0.0189241301268339,0.9904606342315674,0.1364311873912811,-0.0089055785864624,0.0928809731367945,2.2778288241856988,-0.0589635521173477,-0.0131380623206496,0.0367659702897071,0.2701052748598158,-0.0917377703636884,-8.739531519412996,14959.0
22.5,2.700000047683716,2.0,22.113719940185547,19.163774490356445,-79.78276923336456,40.45901096578666,294.56889001464845,0.005320293828845,0.0182485338300466,0.9905887246131896,0.135545939207077,-0.0010214912093328,0.0877484437519534,2.1554803418062205,0.0049753310158848,-0.0110195046290755,-0.0110564613714814,0.2860768165066838,-0.027736395355314,-8.60746279835701,14959.0
22.7,2.700000047683716,0.0,22.14877700805664,18.84570503234864,-79.78276914991909,40.45901093579096,294.9964412841797,0.0063701462931931,0.0151663590222597,0.9907172918319702,0.1349393427371978,-0.0005364941305114,0.0559049996709938,1.952008964709568,0.0293435994535684,0.0042856354266405,0.0563376098871231,0.2780857192352414,-0.0906465885601937,-8.717631942629815,14959.0
22.79,2.5999999046325684,354.0,22.018564224243164,19.131967544555664,-79.78276908957648,40.45901088715113,295.2107185516357,0.0085239810869097,0.0150066642090678,0.9905869364738464,0.1357926279306411,-0.0122901632063697,0.0488638815102546,1.884599937584552,-0.042403545230627,0.0059171486645936,0.0857664495706558,0.2323140074685216,-0.1603915373235941,-8.755669249892236,14960.0
22.89,2.5999999046325684,351.0,22.19510269165039,16.865713119506836,-79.78276904667172,40.4590108901828,295.3950428161621,0.0098410379141569,0.0156061248853802,0.9904491901397704,0.1366387009620666,-0.0184828819231394,0.042666560536292,1.7989761041482943,-0.0238774698227644,0.0287415571510791,-0.0017400110373273,0.2848526105470955,0.0431665305141359,-8.871695550084112,14960.0
23.1,2.200000047683716,343.0,22.061134338378903,20.53943252563477,-79.78276894780734,40.45901090487738,295.76007691955573,0.0042397254146635,0.0195075701922178,0.990304708480835,0.1374707221984863,-0.0368817702700188,0.030669812466123,1.6250993008227974,0.0477257594466209,0.0002905792207457,0.0143841598182916,0.286219269298017,0.1015542678628116,-8.734454966783524,14960.0
23.2,2.0999999046325684,341.0,21.96472549438477,21.41412734985352,-79.782768875634,40.459010917763045,295.917810836792,0.0008807220146991,0.0201677773147821,0.9902836084365844,0.1375897079706192,-0.0492096727709156,0.0283306653929777,1.5369748053728536,0.0799126103520393,0.009316461160779,-0.0196141209453344,0.2856099163368345,-0.0433558478252962,-8.929653736352922,14960.0
23.39,1.7999999523162842,336.0,22.001035690307614,21.14376640319824,-79.78276877521245,40.45901096781135,296.25816766357417,-0.0008347900002263,0.0178071036934852,0.9902951717376708,0.1378325521945953,-0.0716836245108589,0.007188657291711,1.4936285886900638,-0.0893439352512359,-0.0550031810998916,0.0596305541694164,0.2730044157430529,-0.0646752940211445,-9.292561760544777,14961.0
23.49,1.7999999523162842,331.0,22.02357292175293,20.420154571533203,-79.78276869671458,40.45901099881081,296.405302444458,-0.0002152662927983,0.0156138883903622,0.9903358817100524,0.1378084272146225,-0.0569973658487184,-0.0060009826769068,1.450679221758482,0.0703057944774627,-0.0378170013427734,0.0832062736153602,0.2827532043121755,-0.211273514572531,-9.39098969578743,14961.0
23.7,1.7000000476837158,326.0,22.07615852355957,18.93317413330078,-79.78276856324909,40.45901105160093,296.75411645507813,-0.0012498444411903,0.0133762136101722,0.9904272556304932,0.1373805552721023,-0.0545350162932149,-0.0202799617347594,1.4266692369520104,-0.0062618162482976,0.0205738823860883,-0.0358494147658348,0.263474660217762,0.049353368896991,-9.29208287358284,14961.0
23.8,1.600000023841858,326.0,22.88498306274414,4.8505821228027335,-79.78276838909946,40.459011304715226,296.94069520568854,-0.0016354277031496,0.0128098502755165,0.9904548525810242,0.1372316777706146,-0.0578231265615588,-0.0479704776612643,1.390035410783104,0.0204832702875137,-0.0273647215217351,-0.0034764478914439,0.2459700699895621,-0.1032344013266265,-8.745146600604057,14961.0
23.99,1.399999976158142,322.0,22.111215591430664,19.35461807250977,-79.78276815387404,40.45901141656277,297.1592487487793,0.0016874157590791,0.0094860354438424,0.9950948357582092,0.0984551683068275,-0.1073564866262717,-0.0684174084454704,0.8275981130365371,0.0310074090957641,-0.0751348510384559,-0.8623447418212891,0.1780407730489969,-0.1934290914796292,-7.388645778894425,14962.0
24.19,1.399999976158142,320.0,22.04861259460449,20.610998153686523,-79.78276785247259,40.459011424984666,297.2832492980957,0.0025847826618701,-0.0033255079761147,-0.9999444484710692,0.009670496918261,-0.1401132264350829,-0.0540288879290115,0.5343602396432345,0.0120109561830759,-0.0439158305525779,-1.313968062400818,0.1140310109406709,0.0394464588258415,-8.309590430259705,14962.0
24.3,1.2999999523162842,308.0,22.02231979370117,20.181602478027344,-79.78276777430429,40.45901137533036,297.29056016540534,0.0046640108339488,-0.0034989698324352,-0.9970356225967408,0.076720118522644,-0.1457242436455651,-0.0343183933433527,0.4387970286777214,0.0932200253009796,-0.0010340433800593,-1.3957409858703609,0.1541115180775523,-0.1855491278506816,-8.7725519156456,14962.0
24.39,1.2000000476837158,298.0,22.028579711914062,20.603046417236328,-79.78276760642727,40.45901140752253,297.3315567169189,0.0070734703913331,-0.0041991756297647,-0.9887937307357788,0.1490614563226699,-0.1443411395369713,-0.0051897498714699,0.3856926128879365,0.079933151602745,0.008222222328186,-1.5417194366455078,0.1326194191351533,-0.0615733780944719,-9.12152719438076,14962.0
24.6,1.100000023841858,303.0,22.057376861572266,19.561363220214844,-79.78276740141888,40.45901134073885,297.34550897216803,0.0112785603851079,-0.0057234070263803,-0.9540842175483704,0.2992713749408722,-0.1097550063497279,0.0494869422298108,0.3325880172522556,0.0394460596144199,-0.0021130577661097,-1.6994396448135376,0.1666935932636261,0.118330468609929,-9.57145172774792,14962.0
24.79,1.100000023841858,306.0,22.028579711914062,20.141843795776367,-79.7827671777658,40.45901111212589,297.3574165496826,0.0146878901869058,-0.0059460820630192,-0.8935497999191284,0.4486845135688782,-0.0283213028791169,0.0732411060338258,0.2907669297752247,0.0640931725502014,0.0010352468816563,-1.6165391206741333,0.1445328926201909,0.1396284582652151,-9.519959392547609,14962.0
24.9,0.8999999761581421,291.0,21.95345687866211,21.978702545166016,-79.78276716624067,40.45901105942809,297.3852485809326,0.0161816515028476,-0.0049888445064425,-0.8547254800796509,0.518804132938385,0.0217681255479751,0.0678891572552364,0.2677971880773022,0.0871057882905006,-0.0359007641673088,-1.564474105834961,0.1198673818353563,0.1125850676000118,-9.572569130659105,14962.0
25.1,1.0,284.0,21.93467712402344,21.65267944335937,-79.78276707073267,40.45901065874644,297.43349687194825,0.0192124228924512,-0.0036220254842191,-0.761333703994751,0.6480653882026672,0.1185687385925457,0.0283470592222013,0.3018576379665012,0.1146427690982818,0.0314599238336086,-1.5671180486679075,0.1572235889732837,0.0943553495407104,-9.821707295179367,14962.0
25.2,0.8000000119209291,302.0,21.9497013092041,21.52545166015625,-79.78276710068577,40.45901052848236,297.464462677002,0.0195053573697805,-0.0026123316492885,-0.7100872993469238,0.7038386464118958,0.1699569891217774,0.0028025296409633,0.324683768525169,0.1144760623574256,-0.0304555017501115,-1.3858544826507568,0.0877857469394803,0.1680887206457555,-9.960164684057236,14962.0
25.29,0.8000000119209291,311.0,21.99602699279785,21.119911193847656,-79.78276723998644,40.45901019541101,297.4784759674073,0.0200342703610658,-0.0014584655873477,-0.6627996563911438,0.7485273480415344,0.21421288002786,-0.0427463601966999,0.3835834844830303,0.0176070127636194,0.0128210671246051,-1.2103819847106934,0.1083576585911214,0.2750934797152877,-9.985826944112778,14962.0
25.5,0.8000000119209291,305.0,21.950952529907227,21.24713897705078,-79.78276738716576,40.45900969869931,297.5556759033203,0.0192562788724899,-0.0015014677774161,-0.5949991941452026,0.8034942150115967,0.2998944851502691,-0.1231086861872478,0.4077021397915677,0.0226878989487886,-0.040955550968647,-0.4811813235282898,0.1337007337622344,0.0063288434967398,-9.914826543331149,14962.0
25.6,0.8000000119209291,309.0,21.706802368164062,25.668325424194336,-79.78276717587994,40.45900925830537,297.4712051544189,0.0162810329347848,-0.0017782734939828,-0.5773074626922607,0.8163626194000244,0.310695934768808,-0.1151725627379274,0.36973092055657,-0.1695076823234558,-0.1991964131593704,-0.4207473695278168,0.4169965962320567,0.2182342410832644,-9.85488673567772,14962.0
25.79,0.8000000119209291,328.0,21.82699966430664,23.219179153442383,-79.7827675155431,40.45900826653629,297.37329904174806,-0.0415916815400123,0.0048710508272051,-0.5642810463905334,0.8245201110839844,0.3558960575586322,-0.0628953174189058,0.3634400253459029,-0.2187133580446244,-0.7500942349433899,-0.017077712342143,0.2923217524588108,0.1912620950862765,-10.21312575817108,14962.0
25.89,0.8000000119209291,338.0,21.858301162719727,22.272918701171875,-79.78276737991251,40.45900796412087,297.412870803833,-0.0680028721690177,0.0216661635786294,-0.565010130405426,0.8219913244247437,0.3694859169364624,0.0122829657313097,0.4067781601667954,0.0949024111032486,-0.4730497598648071,0.107323944568634,0.1008951130695641,0.2114316269382834,-10.307374688386918,14962.0
26.1,0.8999999761581421,336.0,21.82699966430664,24.714113235473643,-79.7827669138762,40.459007512276585,297.40634767150885,-0.0909983068704605,0.0510016791522502,-0.5736866593360901,0.8124050498008728,0.33382187595627,0.2767990578849647,0.5066650075406021,0.0960009470582008,-0.217135801911354,0.1835595965385437,0.0010250237560831,-0.08430359297432,-10.40396718263626,14962.0
26.19,1.0,339.0,21.858301162719727,23.84737014770508,-79.78276625891046,40.459007400798335,297.45476190185553,-0.0967669337987899,0.056731428951025,-0.5786501169204712,0.8078254461288452,0.3047566648466278,0.4824710125385862,0.6159205409205882,-0.0256116446107626,-0.1390026807785034,0.1016739457845688,-0.0210684498958289,0.0847104769572615,-10.519365491867068,14962.0
26.4,1.100000023841858,355.0,21.86080551147461,24.51531982421875,-79.7827645820018,40.45900739561853,297.48852960205085,-0.1056962981820106,0.0549606308341026,-0.5863913893699646,0.8012195229530334,0.2538849369245645,0.8936461462593225,0.7687081262106946,-0.0887274742126464,-0.0895758941769599,0.0772405043244361,-0.0452476093824952,0.1271692476980388,-10.367310987710953,14962.0
26.59,1.100000023841858,0.0,21.87708282470703,23.131710052490234,-79.78276195234636,40.45900767207689,297.5212997589112,-0.108376570045948,0.0522875264286994,-0.5906389951705933,0.797913670539856,0.2106652841675056,1.3187294572652348,0.8814502291462882,0.0501518100500106,0.0113895628601312,-0.0125318653881549,-0.0085807250160723,0.22049322148785,-10.26310775756836,14962.0
26.69,1.2999999523162842,6.0,21.90462684631348,23.17942047119141,-79.78276008637017,40.459007957568005,297.5768188629151,-0.1087585538625717,0.0531066134572029,-0.5911059975624084,0.7974616885185242,0.1772994206844965,1.5435665262806149,0.939006958027254,-0.0036000940017402,-0.0403685867786407,0.042078461498022,-0.0691067708563059,0.0925887503754347,-10.158489375114444,14962.0
26.8,1.5,12.0,21.711811065673828,26.38398551940918,-79.78275854030585,40.459008329652775,297.5313667449951,-0.11060182005167,0.0535969696938991,-0.5904417634010315,0.7976672649383545,0.1424381410494778,1.7289640728565452,0.9358897301872932,-0.0707725808024406,-0.0088403858244419,-0.0424342676997184,-0.1430022377427667,0.2434761228784919,-10.130621545314789,14962.0
27.0,1.8999999761581416,20.0,21.83576393127441,24.006404876708984,-79.78275366431788,40.45900931851685,297.64128724670417,-0.1153751239180564,0.0521877706050872,-0.586303174495697,0.8001335859298706,0.0942521225452782,2.1579509760034536,1.1567903871295675,-0.0671866908669471,-0.0505061000585556,-0.029282683506608,-0.1636195658147335,0.1503805011324584,-10.533956633806229,14962.0
27.1,2.0999999046325684,23.0,21.829504013061523,24.18929672241211,-79.78275132610584,40.45901004924141,297.6235756072998,-0.1204070746898651,0.0524924732744693,-0.5832129120826721,0.8016293048858643,0.070652679230375,2.352830536078064,1.1912573508819189,-0.089949682354927,-0.1830459386110305,-0.008884584531188,-0.2462288823723793,0.1981375801563263,-10.31304765701294,14962.0
27.3,2.5,28.0,21.778169631958008,24.809534072875977,-79.78274566852372,40.459011773219736,297.6584076080323,-0.1336491405963897,0.0571909956634044,-0.5768268704414368,0.8038270473480225,0.0173782126138834,2.740490468253653,1.3399575638073409,-0.0833693817257881,-0.0268686488270759,-0.1741604506969452,-0.3159889790788293,0.4519359755516053,-10.156557455062869,14962.0
27.49,2.700000047683716,27.0,21.87958526611328,22.69436264038086,-79.78273844921914,40.45901373374125,297.7701877746582,-0.1350917816162109,0.0614362582564353,-0.5721932053565979,0.8065796494483948,0.0028975815117511,3.1918445102582664,1.5339335375439245,0.0194422397762537,-0.0268832966685295,-0.0806812793016433,-0.3416673555225134,0.1721386483870446,-10.122896203994747,14962.0
27.6,3.0999999046325684,32.0,21.838268280029297,23.44978141784668,-79.78273510065222,40.459015308837145,297.7526382598877,-0.1337399333715438,0.0631482154130935,-0.570320725440979,0.8079977631568909,-0.0530785248949874,3.3841238440567265,1.5316942500995707,0.1458491832017898,0.0138209452852606,0.088950477540493,-0.4525025707483292,0.1330328081455081,-9.882420104742051,14962.0
27.69,3.400000095367432,35.0,21.85078811645508,23.091951370239247,-79.78273092053725,40.45901655592022,297.8000587615967,-0.1336552798748016,0.0632270872592926,-0.568928599357605,0.8089863061904907,-0.0805706695017284,3.6233587226929975,1.5812179639265127,0.0199982710182666,0.0407528765499591,-0.101158358156681,-0.463345610909164,0.3963779982179403,-9.810964790582656,14962.0
27.9,3.900000095367432,37.0,21.8282527923584,24.05411529541016,-79.7827225755199,40.45901991854785,297.83576432800294,-0.1376150846481323,0.0624346993863582,-0.5655157566070557,0.8107749223709106,-0.1549797600266899,4.029949950983843,1.6218408010999334,-0.0840775966644287,-0.1151455417275428,-0.0145591301843523,-0.6864232103526593,0.1840801428258419,-9.606854864358905,14962.0
28.09,4.099999904632568,35.0,21.83325958251953,22.78183174133301,-79.782712704137,40.459023669471726,297.89643899536134,-0.140560895204544,0.0670343041419982,-0.5638076066970825,0.811091959476471,-0.2232464121174944,4.4469420808185935,1.7222892353201065,0.1789123713970184,0.0178817622363567,-0.0608672983944416,-0.6265496955066919,0.2643800467438996,-9.60296295762062,14962.0
28.19,4.599999904632568,40.0,21.888351440429688,21.779909133911133,-79.78270744022397,40.459025443498376,297.9251445922852,-0.1419040113687515,0.0687761530280113,-0.5632162094116211,0.8111231327056885,-0.2639388472658322,4.664939261347893,1.7839501039010957,-0.086641825735569,-0.1271129846572876,-0.0503289811313152,-0.8306810371577741,0.2531497747264802,-9.617677475810051,14962.0
28.29,4.699999809265137,43.0,21.859554290771484,23.5849609375,-79.7827019190744,40.45902776246752,297.9595131072998,-0.1423676013946533,0.070457823574543,-0.5625365376472473,0.8113691210746765,-0.3099145143148567,4.854166791708645,1.8459391235972624,-0.0340563505887985,0.067188948392868,-0.0349570028483867,-0.5264522340148687,0.2637035604380071,-9.705054173469543,14962.0
28.5,5.099999904632568,45.0,21.950952529907227,21.47774124145508,-79.78268388673459,40.459034461567136,298.030546585083,-0.1392045766115188,0.0778021290898323,-0.5650865435600281,0.8094727993011475,-0.4327721432315884,5.487328422331744,2.006243001754948,0.0927050709724426,-0.0417238697409629,0.1175756007432937,-0.7949204894900322,0.0951308913342654,-9.740278970003128,14963.0
28.69,5.300000190734863,45.0,21.7744140625,23.78375625610352,-79.78267749791695,40.45903671975689,298.0458778533936,-0.1387945115566253,0.0780659765005111,-0.5653173923492432,0.8093566298484802,-0.4694788418944299,5.711926129273852,2.0480056943003606,-0.1375356316566467,-0.016778115183115,-0.1046701073646545,-0.8978540698438884,0.2872340718470514,-9.692472134828568,14963.0
28.79,5.599999904632568,47.0,21.83075523376465,21.39027214050293,-79.78267077995434,40.45903962902548,298.0794605407715,-0.1384890973567962,0.0760837942361831,-0.564408004283905,0.8102318644523621,-0.5072132560080143,5.891732724243716,2.119009101208245,0.03956875577569,0.0868724212050437,-0.0688755586743354,-0.8791791594028473,-0.0160953198932111,-9.7768264067173,14963.0
28.99,5.800000190734862,48.0,21.72683525085449,24.523271560668945,-79.78265692619475,40.45904460075652,298.103622833252,-0.1407486647367477,0.0772776454687118,-0.5627425312995911,0.8108876943588257,-0.5171170435812883,6.319760420082334,2.1621564028589164,-0.0186661817133426,-0.1040731221437454,0.0046047531068325,-0.961612913310528,0.2635515145584941,-9.562687920928004,14963.0
29.1,6.199999809265138,48.0,21.84703254699707,22.93291664123535,-79.78264948354321,40.45904766207233,298.13363496398927,-0.1423105299472808,0.0779497548937797,-0.5616745352745056,0.8112910985946655,-0.5549093859996613,6.457829079062731,2.274051376236506,0.007900740019977,-0.0586497895419597,-0.0970981270074844,-1.2075576210021974,0.1583431297726929,-9.651831647157673,14963.0
29.19,6.4000000953674325,48.0,21.816984176635746,21.98665428161621,-79.78264207075465,40.45905035595072,298.1431907806397,-0.1388892382383346,0.0748616009950637,-0.5613877177238464,0.8123726844787598,-0.5523460933945465,6.626778491990036,2.3444132721064674,0.0166781619191169,0.2601889371871948,-0.0463840141892433,-1.3044934929907324,0.1181280909944325,-9.773740831017497,14963.0
29.39,6.599999904632568,49.0,21.88709831237793,22.400146484375,-79.7826265689429,40.45905650029354,298.1817897949219,-0.111951820552349,0.0567681342363357,-0.5631591081619263,0.8167594075202942,-0.5976052155621475,7.009080661691444,2.15701546942689,0.0558540672063827,0.3346968293190002,-0.0312268733978271,-1.3101249463856222,-0.041863981001079,-9.603195092082023,14963.0
29.49,6.800000190734862,50.0,21.84703254699707,23.60086441040039,-79.78261869725834,40.45905941771243,298.1878761444092,-0.0999975949525833,0.0490353517234325,-0.5648444294929504,0.8176472187042236,-0.6348042958054683,7.197556814799928,1.8982451818862065,-0.0266932100057602,0.2058229744434356,0.1365204751491546,-1.277260816991329,0.1234328860323876,-9.463302211761476,14963.0
29.69,7.300000190734862,56.0,21.928415298461918,20.905214309692383,-79.78260217489934,40.45906600362687,298.20413629150386,-0.0878989845514297,0.0421979427337646,-0.5668854713439941,0.8180060982704163,-0.7368325301618258,7.459630978882346,1.6116548829948176,0.0339170545339584,0.0361958108842372,0.0300351940095424,-1.2764506852626798,0.0935863675922155,-9.795991240739824,14963.0
29.89,7.599999904632567,58.0,21.93342399597168,20.507625579833984,-79.78258543448213,40.45907271625735,298.21578828430177,-0.0860753953456878,0.0475827753543853,-0.5675879120826721,0.8174172043800354,-0.8217988044568083,7.601997470903842,1.5310350498631735,0.0143954949453473,-0.1377011388540268,0.1972808390855788,-1.4591767591238023,-0.2167366047017276,-9.486475896835328,14963.0
30.0,8.0,59.0,21.88960266113281,21.660633087158203,-79.782577191298,40.459075885356285,298.2161468658448,-0.0872624218463897,0.0503189601004123,-0.5671080946922302,0.8174605369567871,-0.8423114640697766,7.655628982700477,1.5252513558687648,0.0739902406930923,0.0881273746490478,0.068968079984188,-1.3484623619914056,-0.2017166243121028,-9.40794662117958,14963.0
30.09,8.199999809265138,59.0,21.915895462036133,21.620872497558597,-79.78256822956958,40.4590795396425,298.2190307769776,-0.0867345556616783,0.0497464872896671,-0.5664018392562866,0.8180412054061891,-0.8775465650422346,7.722957272714884,1.5619205787673835,-0.01147813629359,0.0103409010916948,0.1027218997478485,-1.6448531918227671,-0.0565246317163109,-9.411449688076974,14963.0
30.3,8.5,60.0,21.970985412597656,19.58521842956543,-79.78255099559233,40.459086512257926,298.20039025878907,-0.0851876437664032,0.0474202632904052,-0.5653061866760254,0.8190991282463074,-0.8997849626334892,7.859746641496621,1.5209236222761628,-0.0123724462464451,-0.0143617140129208,-0.1205760613083839,-1.3183689357340336,-0.0605230719828978,-9.545887700915335,14963.0
30.49,8.699999809265138,60.0,22.008546829223643,19.76015853881836,-79.78253406168409,40.45909318479821,298.18503419494635,-0.0899458155035972,0.0412226393818855,-0.563671350479126,0.820051908493042,-0.9124760630114406,7.923323654467237,1.4841649488593456,-0.1228251382708549,0.069158636033535,-0.0182334128767252,-1.5619026902318,-0.0594703584630042,-9.324879321455956,14963.0
30.6,8.899999618530273,61.0,21.89961814880371,21.501596450805664,-79.78252494070142,40.459096880668966,298.1583522949219,-0.0892276018857956,0.0380277298390865,-0.5630289316177368,0.8207258582115173,-0.9057673656579344,7.990190771027057,1.4401208040571007,0.021065043285489,0.0570307821035385,-0.0298554375767707,-1.5400189009308816,0.1338051339704543,-9.208716781139373,14963.0
30.69,9.0,62.0,21.94344139099121,21.50954818725586,-79.78251638565375,40.45910028902071,298.13992349243165,-0.0849558189511299,0.0395325608551502,-0.5627050995826721,0.8213298320770264,-0.9107358447904098,8.032865934623487,1.3821752767732849,-0.0180947817862033,0.0630359575152397,-0.0575004629790782,-1.4495135043561458,0.2885557618550956,-9.367403197288514,14963.0
30.9,9.300000190734863,63.0,22.04610824584961,19.17172622680664,-79.78249864479284,40.45910765397532,298.10425225830085,-0.0770187154412269,0.0447364673018455,-0.5627537369728088,0.8218121528625488,-0.9498928168748606,8.123611228229215,1.2891510349097524,0.0040828729979693,-0.0585515983402729,0.0957279801368713,-1.5982182848453523,-0.0509774695895612,-9.38660194516182,14963.0
30.99,9.399999618530272,62.0,22.01605987548828,19.704496383666992,-79.78249001668429,40.4591111398622,298.08127633667,-0.0757024586200714,0.0459678843617439,-0.5628559589385986,0.8217964768409729,-0.9466498105501016,8.143361618336206,1.2205585936948569,0.1950271129608154,0.0662308931350708,-0.1513937264680862,-1.414680763632059,0.1613521069474518,-9.33747890174389,14963.0
31.2,9.600000381469728,63.0,21.981002807617188,19.418231964111328,-79.78247221108279,40.45911845289196,298.02136842346187,-0.0734661146998405,0.0453057140111923,-0.5635369420051575,0.8215693831443787,-0.9691658492800104,8.179910898485623,1.2007182020284932,0.0723036453127861,0.1185878440737724,0.0500698424875736,-1.8402048660814765,-0.1254146444611251,-9.610078434348107,14963.0
31.4,9.5,64.0,21.87332534790039,21.55725860595703,-79.782454343664,40.45912574024271,297.9558109436035,-0.0702511593699455,0.0455428771674633,-0.5646936893463135,0.8210430741310121,-0.9864253897549884,8.219678261808781,1.1511825321239957,0.065617986023426,0.0198856852948665,0.0992681011557579,-1.840279418081045,0.1218644435238093,-9.573495329618458,14962.0
31.5,9.600000381469728,64.0,22.00979995727539,19.418231964111328,-79.78244563750245,40.45912926090361,297.9291233215332,-0.0676510706543922,0.0450563542544841,-0.5654588341712952,0.8207615613937378,-1.00626809853409,8.220477448383381,1.1255485237247589,0.0315741524100303,-0.0095684975385665,-0.2206289917230606,-1.5858821216225625,0.3800140535831452,-9.645735924839975,14962.0
31.7,9.600000381469728,66.0,21.968481063842773,19.74425506591797,-79.78242773815185,40.45913658128496,297.8485092315674,-0.0662546679377555,0.0440393798053264,-0.5665591955184937,0.8201716542243958,-1.0331880026050488,8.228148858963092,1.0489452395276404,-0.0404575392603874,-0.0413038656115531,-0.0854944288730621,-1.9483147671818728,0.1277203295007348,-9.443111776113511,14962.0
31.89,9.600000381469728,66.0,21.970985412597656,20.2531681060791,-79.78240991417829,40.45914386713276,297.75580827331544,-0.0642837062478065,0.0405018925666809,-0.567007303237915,0.8202012777328491,-1.0396543462515355,8.241405959884222,0.992550557111184,0.0043361112475395,-0.0122223040089011,0.1978189498186111,-1.7578906877338891,-0.1700102984346449,-9.595035302639008,14962.0
32.0,9.600000381469728,66.0,22.018564224243164,18.766185760498047,-79.78240121217685,40.45914738189349,297.72457162475587,-0.0629195943474769,0.0381413958966732,-0.5670338869094849,0.8204017281532288,-1.0387168980712829,8.226702116486328,0.9416095682273788,0.0074982936494052,-0.0199830960482358,-0.0849553421139717,-1.5397753643989565,0.1569626204296946,-9.50584362924099,14962.0
32.1,9.600000381469728,66.0,21.954710006713867,20.571239471435547,-79.78239196151057,40.45915117208093,297.6539787445068,-0.0606334693729877,0.0370599403977394,-0.5671278834342957,0.8205584883689879,-1.035203319853154,8.241500642975268,0.8778439420248307,0.0265193544328212,0.202058345079422,-0.0040035559795796,-1.5446298690140248,-0.0763052415009588,-9.630064802169802,14962.0
32.31,9.699999809265137,68.0,22.03984832763672,17.637035369873047,-79.78237409110099,40.45915843961848,297.5512432250977,-0.0522639937698841,0.0338901095092296,-0.566661536693573,0.8215928673744202,-1.0317013890481908,8.236522601406351,0.7866111884035303,-0.05951589345932,0.0890489891171455,0.0130895702168345,-1.4521671169996262,-0.2464763840474188,-9.895368179082867,14962.0
32.4,9.600000381469728,68.0,21.992271423339844,19.092208862304688,-79.78236544374342,40.45916193993371,297.5188640747071,-0.0498817898333072,0.0313911363482475,-0.5665348768234253,0.8219274878501892,-1.025108386547843,8.191546873481888,0.7029472911430207,0.0653538778424263,-0.033267181366682,-0.0622639395296573,-1.6839386124908926,0.1113213381171226,-9.736966522336006,14962.0
32.6,9.600000381469728,68.0,22.004791259765625,20.68256378173828,-79.78234785332178,40.459169228804576,297.41106072998053,-0.0479549914598465,0.0297610647976398,-0.5665509700775146,0.8220916390419006,-1.026340210061422,8.138318110782201,0.5986584748590635,0.1135721579194068,0.117525890469551,0.1190196126699447,-1.6555766929686069,-0.0639778399653732,-9.696756974458696,14962.0
32.79,9.600000381469728,68.0,21.945945739746094,19.56931495666504,-79.7823302284048,40.45917638778607,297.29751817321784,-0.0435423105955123,0.030391352251172,-0.5661261677742004,0.82260662317276,-1.0181847211721988,8.091190925849974,0.5231448842795227,0.0256421267986297,0.0601814724504947,0.0381304919719696,-1.4190996506810192,-0.1652101729251444,-9.811462973356248,14962.0
32.91,9.5,71.0,21.948448181152344,19.8635311126709,-79.78232176283365,40.45917983080015,297.2612785491944,-0.0415474027395248,0.0298286136239767,-0.5656761527061462,0.8230398893356323,-1.0067019578263476,8.037802236907332,0.4924643716626682,0.0635261908173561,0.0004336365964263,-0.0211648978292942,-1.5572282798588275,-0.0300744913285598,-9.759160214066505,14962.0
32.99,9.5,71.0,21.970985412597656,19.22739028930664,-79.7823133513217,40.459183253356926,297.2257770690918,-0.039577055722475,0.0283774230629205,-0.5650168657302856,0.8236410021781921,-0.9990124246963844,7.9851916790977695,0.4629440511121152,-0.1071614250540733,-0.0230681803077459,0.0856402441859245,-1.604001765847206,-0.0442951710429042,-9.751299802064898,14962.0
33.2,9.399999618530272,71.0,21.92340850830078,21.056297302246094,-79.78229603605328,40.459190254038894,297.10759584045417,-0.0379598587751388,0.0244784150272607,-0.5631575584411621,0.8251142501831055,-0.9190561222155464,7.913199193728911,0.3917719125832271,0.0162336938083171,0.0694238394498825,-0.2034923732280731,-1.3302880463004112,0.1136985875945538,-9.80570814371109,14962.0
33.3,9.399999618530272,71.0,21.96472549438477,20.507625579833984,-79.78228734430601,40.45919379191936,297.0256542358398,-0.0358164943754673,0.0226005353033542,-0.5622050166130066,0.8259128332138062,-0.8787109727769649,7.856012550794635,0.3707019294877893,0.07505464553833,0.1406127959489822,0.223342016339302,-1.5864161185920242,-0.1553729817643761,-9.963333874940874,14962.0
33.5,9.399999618530272,72.0,21.978498458862305,19.720399856567383,-79.7822709861822,40.45920038307693,296.9614662322998,-0.0355618968605995,0.0197166260331869,-0.5602712035179138,0.8273106217384338,-0.834455366529147,7.734734177817995,0.312082116399155,0.0555197335779666,0.0353883653879165,0.0249333046376705,-1.3368306420743463,0.0108954549673944,-9.81827497959137,14961.0
33.7,9.300000190734863,73.0,21.90713119506836,20.897262573242188,-79.782254335635,40.459207066163664,296.84548989868165,-0.0435788743197917,0.0215932708233594,-0.5586004853248596,0.8280097842216492,-0.7866954963634759,7.629925859638977,0.348360111147927,0.036696009337902,0.0229859035462141,0.171468436717987,-1.4740216702222826,-0.0342592019587755,-9.814804072380069,14961.0
33.8,9.300000190734863,73.0,21.96973419189453,18.6787166595459,-79.78224576716248,40.45921056704572,296.7701324615478,-0.0502563491463661,0.0247433949261903,-0.5583209395408629,0.8277317881584167,-0.7774942668729926,7.622495399347999,0.4184576506238293,-0.1186164692044258,-0.1955040246248244,0.0217385496944189,-1.4689262603223323,-0.1125517384707927,-9.839575216770172,14961.0
33.89,9.199999809265137,73.0,21.908382415771484,21.883281707763672,-79.78223779842322,40.45921377565081,296.73698274230964,-0.0548157356679439,0.0272602476179599,-0.5587825775146484,0.8270514607429504,-0.7779791573368101,7.576210744992774,0.5245141406695397,-0.0058335303328931,-0.029584601521492,0.1957653909921646,-1.4925222605466844,-0.1091023563221097,-9.70711882531643,14961.0
34.1,9.100000381469728,70.0,21.994773864746094,20.91316604614257,-79.78222153708424,40.45922045746649,296.625761428833,-0.0535321049392223,0.025156607851386,-0.5601345896720886,0.8262873888015747,-0.8077734254775595,7.506062765422247,0.6187150504424035,0.014358639717102,0.0103518553078174,0.2198533117771148,-1.4599520999193192,-0.0222926786961034,-9.95021272301674,14961.0
34.29,9.100000381469728,71.0,21.823244094848643,23.0203857421875,-79.78220535768858,40.459227088508136,296.5128063354492,-0.0588674359023571,0.0260806456208229,-0.5606313347816467,0.8255586028099059,-0.8492634776542716,7.474286659008926,0.6324417395920165,0.0146779622882604,-0.0742400214076042,-0.0727900192141532,-1.204292462691665,-0.022638847567141,-10.032175483703616,14961.0
34.4,9.0,70.0,21.8670654296875,21.12786293029785,-79.78219752819,40.45923029735372,296.4870456848145,-0.059920635074377,0.0316243469715118,-0.5618664026260376,0.8244487643241882,-0.8488567497626569,7.450473026857037,0.7325609690869435,0.28095543384552,0.0821972861886024,-0.015862513333559,-1.4516895456612111,-0.005109424944967,-10.15824963927269,14961.0
34.5,9.0,71.0,21.96722984313965,19.87943458557129,-79.78218970917042,40.4592335169862,296.4652256164552,-0.0582452453672885,0.0386723987758159,-0.5635694265365601,0.8231047987937927,-0.90907559175032,7.4437140490969504,0.8195393224915188,-0.0120678935199975,0.1024360507726669,-0.0921449363231659,-1.1610715256631374,0.1661428951844573,-10.152525215148929,14961.0
34.7,8.899999618530273,69.0,21.975994110107425,19.24329376220703,-79.7821736725684,40.45924013962849,296.3739418182373,-0.0540066584944725,0.042608119547367,-0.5658817291259766,0.8216117620468141,-0.9374472674208854,7.421114184511308,0.8465208276615677,0.0478917844593524,-0.0494888946413993,-0.1073274761438369,-1.4056129015982153,-0.0766537264175713,-9.795134623646735,14961.0
34.79,8.899999618530273,69.0,21.981002807617188,18.63895797729492,-79.78216556045084,40.459243540199225,296.30795899963385,-0.0561268180608749,0.0431459136307239,-0.5663251876831055,0.8211357593536377,-0.9340019227348204,7.422377059611473,0.7923342108024597,-0.0827580168843269,-0.0095640933141112,0.0208468418568372,-1.2018019873648882,0.0146497922530397,-9.718732565045356,14961.0
35.0,8.899999618530273,69.0,21.96347427368164,19.10811233520508,-79.7821499192635,40.45924989110779,296.2653831634522,-0.0583127476274967,0.0374799966812133,-0.5646255612373352,0.8224310278892517,-0.924625064867082,7.406512333950525,0.8753495829049387,-0.0115213068202137,-0.0473535992205143,-0.0874205082654953,-1.4266247248649595,0.2164271773584187,-9.821018493175506,14961.0
35.19,8.899999618530273,69.0,21.91965103149414,19.648834228515625,-79.7821339959969,40.459256399319614,296.1942657623292,-0.0655114501714706,0.0390639714896678,-0.5597594380378723,0.8251373767852783,-0.8425851940357862,7.416851349696113,0.8663737145098447,0.0051087490282952,-0.1807336509227752,0.0664367079734802,-1.4917356638610364,0.0346294905943796,-9.770711973309515,14961.0
35.3,8.800000190734863,68.0,21.954710006713867,19.21943664550781,-79.78212592557057,40.459259719057286,296.1495651397705,-0.0696907490491867,0.0412094928324222,-0.5576087832450867,0.8261461853981018,-0.7914982460476585,7.4091540964043965,0.9570683948565526,-0.0302813705056905,-0.1873649805784224,0.1125262379646301,-1.6318533696234228,-0.2919218029081821,-9.679110662341117,14961.0
35.39,8.800000190734863,65.0,21.86831855773925,22.583038330078125,-79.78211807650813,40.459262871082686,296.1305393371582,-0.0717139020562172,0.0418273657560348,-0.5563130378723145,0.8268153071403503,-0.7463980088406337,7.424829427435587,1.0295163516945012,0.0563044138252735,0.0954321920871734,-0.0063155251555144,-1.3577863320708277,-0.0112830522749573,-9.77663227915764,14961.0
35.59,8.800000190734863,65.0,21.76690101623535,22.93291664123535,-79.7821021043094,40.45926931314745,296.0814136657715,-0.0674195289611816,0.0434390269219875,-0.5558984279632568,0.827372133731842,-0.6912851345955733,7.442803256149117,1.121405556651628,-0.0029611305799335,0.0028004359919577,0.1035608649253845,-1.4207643529772758,-0.0575984728708863,-10.13043326497078,14961.0
35.8,8.800000190734863,64.0,21.849536895751957,22.185449600219727,-79.78208601540217,40.459275714246026,296.03886262512214,-0.0642471611499786,0.039956871420145,-0.5562532544136047,0.8275614976882935,-0.656897858814454,7.46595312778084,1.125635093661958,-0.085144355893135,-0.0035374739672988,0.0540927797555923,-1.5473739673197269,0.0387283202446997,-10.239400806427003,14961.0
35.9,8.899999618530273,64.0,21.83952140808105,21.45388603210449,-79.78207806069493,40.4592788267996,296.03564111328126,-0.0645569860935211,0.0381449721753597,-0.5564180016517639,0.8275122642517091,-0.6380390911482022,7.4669174667597185,1.1285659759150946,0.0771583542227745,-0.073300115764141,0.2580023407936096,-1.5588992679119111,0.0079702117480337,-10.031726417541504,14961.0
36.09,8.899999618530273,65.0,21.898366928100582,21.445934295654297,-79.78206188296332,40.45928522448004,296.00734178161616,-0.0647841989994049,0.0340144596993923,-0.5555751323699951,0.8282405138015747,-0.6258297264877531,7.482452571615754,1.1056331863422932,-0.0936618149280548,-0.1565283834934234,-0.1386844366788864,-1.4064474454522131,0.2413634690456093,-9.621304503679276,14961.0
36.19,8.899999618530273,64.0,21.89335823059082,19.521604537963867,-79.7820539051842,40.45928832598908,296.00728265380866,-0.0695407390594482,0.0334235504269599,-0.554857075214386,0.8283603191375732,-0.6098461857339362,7.491712908232187,1.1050513624140534,-0.0330707058310508,-0.1068684160709381,0.0744869112968444,-1.37218568533659,0.1039009290933609,-9.682272836565971,14961.0
36.3,8.899999618530273,64.0,21.932172775268555,19.82377243041992,-79.78204571746474,40.45929155663176,295.9920639190674,-0.0713652819395065,0.0331532955169677,-0.5543884038925171,0.8285297155380249,-0.5997351845225352,7.484214744500606,1.1552615537978783,-0.0113595500588417,0.0241161081939935,0.1197649613022804,-1.2938574077188971,0.0289536212012171,-9.718343140482904,14960.0
36.5,8.800000190734863,64.0,21.83952140808105,22.33653259277344,-79.78202972871544,40.459297794964925,295.9880642089844,-0.0741209238767623,0.0320403315126895,-0.5540893077850342,0.8285315632820129,-0.6066403891078882,7.519122521150843,1.1646771722062197,-0.0016479607438668,0.1272408366203308,-0.1741231232881546,-1.1998072097450496,0.1887702675908804,-9.568514671325683,14960.0
36.59,8.800000190734863,63.0,21.95721244812012,19.50570106506348,-79.78202151000862,40.45930110492912,295.98150483703614,-0.0758387148380279,0.0338696576654911,-0.5544121265411377,0.8280873298645021,-0.6215945080564672,7.539370093216911,1.1934054392379856,-0.0504764094948768,0.0883555114269256,-0.1554135382175445,-1.2844575700163845,0.4279453248158097,-9.771244069933893,14960.0
36.81,8.899999618530273,63.0,21.929668426513672,19.712448120117188,-79.78200519357605,40.45930747322039,295.9790615234375,-0.0747736319899559,0.0360405370593071,-0.556189239025116,0.8269000053405762,-0.6518114395308362,7.557816141472671,1.2702118476825954,-0.0260483920574188,0.093165323138237,-0.17686627805233,-1.2608856895565987,0.3771495391800999,-9.865734490156177,14960.0
36.9,8.899999618530273,63.0,22.054872512817383,17.144023895263672,-79.78199712436404,40.45931065357,295.9797042999268,-0.0725991949439048,0.0345601290464401,-0.5570389628410339,0.8265848755836487,-0.6785773814945836,7.565614984449607,1.290306296591528,0.0111531987786293,0.1022229492664337,0.0991540700197219,-1.4422844454646109,-0.058619099794887,-9.961902476549149,14960.0
37.1,8.899999618530273,62.0,21.902122497558597,19.784013748168945,-79.7819807020618,40.45931713694446,295.99187127685553,-0.0728478878736496,0.0317073017358779,-0.5558520555496216,0.8274758458137512,-0.6912336311874909,7.639052481724043,1.2304324521591137,-0.0711217895150184,-0.2105216979980468,-0.2087749689817429,-1.5331605555117132,0.1235203110426664,-9.641445237994192,14960.0
37.19,8.899999618530273,63.0,21.98350715637207,18.86956024169922,-79.78197255495418,40.45932035209385,295.9958137664795,-0.0785939022898674,0.0321855619549751,-0.5536745190620422,0.8283910155296326,-0.6726690774196645,7.644320417238067,1.2695364220192258,0.0139606790617108,-0.1799812167882919,0.056802861392498,-1.5237428838014604,0.0395095813460648,-9.72175089776516,14960.0
37.4,8.899999618530273,64.0,22.018564224243164,18.583295822143555,-79.78195615172105,40.45932694464275,296.0109714660645,-0.0816634148359298,0.0383712202310562,-0.551960825920105,0.8289741277694702,-0.6392536441569036,7.681101529504846,1.419261962981177,0.124900683760643,-0.1495168507099151,0.103798434138298,-1.657049021869898,0.1235595604777336,-9.475377881526947,14961.0
37.59,8.899999618530273,64.0,22.01981544494629,17.446191787719727,-79.78193957317784,40.45933365162213,296.03558961486823,-0.0774382650852203,0.0397460609674453,-0.5528668761253357,0.8287109136581421,-0.6622080819686883,7.742345262265713,1.4510632254172218,-0.0288521815091371,0.0409348458051681,-0.1162822023034095,-1.5081489443778993,0.2998536605760455,-9.692237661480904,14961.0
37.7,8.899999618530273,62.0,21.968481063842773,18.2811279296875,-79.78193130320021,40.45933695416604,296.0387615356445,-0.0717712640762329,0.0395572707056999,-0.55414217710495,0.8283783197402954,-0.6833143327774756,7.775295735348423,1.4000506976320757,0.0584683418273925,0.044250126928091,-0.0343167185783386,-1.3893574959039692,0.152489034505561,-9.644546016454695,14961.0
37.79,9.0,64.0,22.00979995727539,18.41630744934082,-79.78192304590542,40.45934043946893,296.0613254699707,-0.0685732886195182,0.0387067385017871,-0.555463433265686,0.8278043866157532,-0.7084949050518758,7.794410926824755,1.3425004846693158,0.0709672346711158,0.0077429255470633,0.2858765721321106,-1.3998390685021878,-0.1550549663230777,-9.599869195818902,14961.0
38.0,9.0,64.0,21.997278213500977,18.02667236328125,-79.78190643453088,40.45934707976875,296.07041398620606,-0.0607373677194118,0.0381152741611003,-0.556494951248169,0.8277508616447449,-0.7363451863766438,7.824566889628475,1.254606238708892,0.0903763100504875,0.135208711028099,-0.0129549391567707,-1.3530752304196358,0.0775955209974199,-9.857229130268095,14961.0
38.19,9.0,64.0,22.014806747436523,16.11824607849121,-79.78188959558604,40.45935385634769,296.11208192443854,-0.0527733527123928,0.0401808023452758,-0.5570974946022034,0.8277939558029175,-0.7244346824035002,7.862073454166339,1.1886291818543275,0.0877726674079895,-0.0587375350296497,0.2049646377563476,-1.358687972724438,-0.2966181403398514,-9.882006121873856,14961.0
38.3,9.0,64.0,22.02231979370117,19.43413543701172,-79.78188106727566,40.459357326225984,296.1313079986573,-0.0552932620048522,0.0421249084174633,-0.5572186708450317,0.8274512887001038,-0.7097074233919793,7.887770471567477,1.1531165384535598,-0.006598949432373,0.0012039341963827,0.0462842658162117,-1.0333380764722824,0.0860822428856045,-9.738327169418335,14961.0
38.4,9.0,65.0,21.959716796875,18.750282287597656,-79.78187267631698,40.459360606577725,296.13918153381354,-0.0618134252727031,0.044847659766674,-0.556729257106781,0.8271762132644653,-0.6952618776680111,7.8714782604881375,1.1480004951814031,-0.1131939738988876,-0.2171617597341536,-0.0704350620508194,-1.4935655499994756,0.1438976291846484,-9.25404673576355,14961.0
38.6,9.0,64.0,21.93342399597168,19.6965446472168,-79.7818558135357,40.45936734770417,296.1672729644776,-0.0684035569429397,0.0410726815462112,-0.5549518465995789,0.8280473947525024,-0.6400958792066971,7.8615734444992675,1.2857777307416285,-0.1519572883844375,0.0899116918444633,0.0407661944627761,-1.3667566917836669,0.1039674228988588,-9.417604467272758,14961.0
38.69,9.100000381469728,64.0,21.984758377075195,18.38450050354004,-79.78184740026977,40.45937058748481,296.16817514038087,-0.0675412937998771,0.0340851657092571,-0.5543223023414612,0.8288566470146179,-0.6065145552955442,7.8648853395871425,1.2731444583766076,-0.1482467055320739,0.1362824440002441,-0.1321627497673034,-1.4231406614184383,0.425221947580576,-9.491557711958883,14961.0
38.9,9.100000381469728,63.0,21.937179565429688,18.654861450195312,-79.78183047236561,40.45937726158817,296.19731561279303,-0.063399039208889,0.0204832404851913,-0.5530505180358887,0.8304795026779175,-0.5757444997959068,7.896087713657335,1.1274639262270625,-0.1246396899223327,0.1562580466270446,-0.013574618846178,-1.1315302227437496,0.3913883132860065,-9.684266737103464,14961.0
39.0,9.100000381469728,66.0,22.00604248046875,18.225465774536133,-79.78182206728498,40.45938050257117,296.1988987121582,-0.0639752522110939,0.0193153508007526,-0.5521818995475769,0.831041157245636,-0.5630026923682345,7.893842243826598,1.0523132707087983,0.0171059276908636,-0.1612672209739685,0.0585858821868896,-1.5638584376871587,0.1176472580060362,-9.640088683962825,14961.0
39.2,9.100000381469728,65.0,21.942188262939453,19.47389411926269,-79.78180509215774,40.4593871229118,296.2286285552978,-0.0713680908083915,0.0247401129454374,-0.5512043237686157,0.830944299697876,-0.548281678482653,7.884115672370111,1.0802816971329967,-0.0292269233614206,-0.1289081871509552,0.0937228724360466,-1.403661101013422,0.3064184026792645,-9.456582591533662,14961.0
39.39,9.100000381469728,65.0,21.849536895751957,20.61894989013672,-79.78178816911084,40.45939374840541,296.24698106384284,-0.0732558816671371,0.030362831428647,-0.5526620745658875,0.8296241760253906,-0.5897692628611172,7.868065506353692,1.2072119755719917,-0.0357108674943447,-0.0688450708985328,0.0227434821426868,-1.5120759344100954,-0.0764155802875757,-9.577760873436928,14961.0
39.5,9.100000381469728,63.0,21.9309196472168,19.060401916503903,-79.78177980117907,40.45939702913504,296.2440590057373,-0.0718018859624862,0.0304151251912117,-0.5541329979896545,0.8287678360939026,-0.6204187650118183,7.8627898252602355,1.221157947807769,0.0318497531116008,0.0208896119147539,0.002968052169308,-1.3792491218447689,0.241258822157979,-9.65645445585251,14961.0
39.59,9.199999809265137,64.0,21.902122497558597,19.680641174316406,-79.78177131487472,40.45940035682548,296.26636163330085,-0.0706640556454658,0.0310929436236619,-0.5554124116897583,0.8279837369918823,-0.6255851696309177,7.883536357983544,1.2048719417667528,0.0024696302134543,0.0785340070724487,0.0439942069351673,-1.1486321590840818,0.1555164212733507,-9.584403310418132,14961.0
39.8,9.199999809265137,64.0,21.85204124450684,21.98665428161621,-79.7817544420192,40.45940702388645,296.27410928344733,-0.0704204365611076,0.0316515155136585,-0.5555340647697449,0.8279016017913818,-0.6723990481901001,7.872266466543069,1.1886223944524743,-0.0656963139772415,0.0347035601735115,0.1930612176656723,-1.4970472745597363,0.1126942643523216,-9.59804778814316,14961.0
39.89,9.199999809265137,64.0,21.90087127685547,21.19942855834961,-79.78174605519817,40.45941031708629,296.26835481262214,-0.070165030658245,0.0336211323738098,-0.5559594035148621,0.8275601267814636,-0.6719874290648412,7.878756944024161,1.1584465785011622,0.05435661226511,0.025702953338623,0.0186468753963708,-1.5476598961651329,0.167772404551506,-9.437251696586609,14961.0
40.1,9.100000381469728,63.0,21.7844295501709,22.96472358703613,-79.78172933822385,40.45941700785096,296.2705482635498,-0.0697246491909027,0.0352858714759349,-0.5572207570075989,0.8266792893409729,-0.6995519928087357,7.872831571109026,1.1890905376534056,0.2163475304841995,0.0427483730018138,0.1049835532903671,-1.5687205436825753,-0.1015989533811807,-9.786115878224372,14961.0
40.3,9.0,63.0,21.872074127197266,21.55725860595703,-79.78171248398772,40.459423685149176,296.2736419830323,-0.0614634826779365,0.0371658243238925,-0.5585134029388428,0.8263799548149109,-0.7253243984675761,7.89338566948329,1.2314670464492097,0.1205533742904663,0.059674322605133,-0.1880674064159393,-1.2448482388257982,0.2891293919831514,-10.128669744729995,14961.0
40.4,9.0,63.0,21.83952140808105,21.398223876953125,-79.78170407243078,40.45942698992605,296.27716294860835,-0.0589573122560977,0.0373030379414558,-0.558879554271698,0.8263088464736938,-0.7360549169642608,7.897285675661099,1.1857401609631508,0.0647583827376365,0.0342591255903244,0.090632677078247,-1.2778974325954915,0.1524323439225554,-9.877783262729643,14961.0
40.5,9.0,63.0,21.88960266113281,21.6129207611084,-79.7816956574558,40.45943029161112,296.28126565551764,-0.0589465163648128,0.0370095632970333,-0.5586837530136108,0.8264551758766174,-0.7366561432149875,7.907573202265331,1.1601553890229996,0.0195966511964798,-0.0013769017532467,0.0551897473633289,-1.272439202964306,0.0272320090513676,-9.893136881589893,14961.0
40.69,8.899999618530273,64.0,21.733097076416016,23.13966178894043,-79.78167875212878,40.45943697588304,296.28248445129395,-0.0578335635364055,0.0368846803903579,-0.5578717589378357,0.8270875811576843,-0.7160831826092183,7.915420489701368,1.1627193058734764,-0.1301419287919998,0.0283869206905365,-0.0268515814095735,-1.187202147692442,-0.0509754961542785,-9.946306782960892,14961.0
40.89,8.899999618530273,65.0,21.849536895751957,21.779909133911133,-79.78166187801398,40.45944364308141,296.2931598815918,-0.058427520096302,0.0334571301937103,-0.557122528553009,0.8276963829994202,-0.6701483851493734,7.893319390087233,1.1795106942746771,-0.0060701421461999,0.088399700820446,-0.0337687395513057,-1.2682990819215776,0.1633287764713168,-9.99351369380951,14961.0
41.0,8.899999618530273,65.0,21.932172775268555,18.750282287597656,-79.78165346519778,40.45944690563822,296.3043598327637,-0.059796318411827,0.0336320810019969,-0.5567209124565125,0.8278618454933167,-0.6631147073337212,7.8796708924320065,1.1921804950890111,-0.0227254778146743,2.950156886072364e-05,-0.0354623720049858,-1.2448061388731004,0.3460969868302345,-9.873186181783677,14961.0
41.1,8.800000190734863,66.0,21.83952140808105,23.489540100097656,-79.781645060387,40.45945025150149,296.2998050842285,-0.0620082244277,0.0341569334268569,-0.5561427474021912,0.8280662298202515,-0.65150084837273,7.866150316566019,1.165941018331991,0.0055891033262014,-0.0492057800292968,0.225172147154808,-1.5685410341620447,-0.0324718725867569,-9.53765540599823,14961.0
41.3,8.800000190734863,66.0,21.83952140808105,21.98665428161621,-79.78162829951769,40.459456854012814,296.30680505371095,-0.069170206785202,0.0290792509913444,-0.5537164211273193,0.8293178677558899,-0.6292626004239545,7.85839489742254,1.2303856510444329,0.0866767168045044,0.1108038499951362,0.0349043905735015,-1.4782416057586671,-0.0178408782184124,-9.706032412648204,14961.0
41.4,8.800000190734863,66.0,21.85329246520996,21.366416931152344,-79.78161992376035,40.45946012690992,296.31198922729493,-0.0670490935444831,0.0282982792705297,-0.5528126955032349,0.8301215171813965,-0.6197674299452607,7.85816902351084,1.2388075430812542,0.0498467534780502,0.1273941397666931,0.0592013001441955,-1.2578379745781425,0.2291865510866046,-9.774602125883105,14961.0
41.6,8.800000190734863,67.0,21.944692611694336,19.593170166015625,-79.78160299090901,40.45946668878143,296.3325599822998,-0.0609058886766433,0.0314478017389774,-0.5522568821907043,0.8308512568473816,-0.5974550077704825,7.87706617337679,1.173635662792991,-0.0450930185616016,0.0276533775031566,0.117394283413887,-1.3631195774674416,-0.0515618805214762,-9.881690372228624,14961.0
41.8,8.800000190734863,67.0,21.89210700988769,19.61702537536621,-79.78158619594913,40.459473309259465,296.35047189331056,-0.0652655363082885,0.0307053532451391,-0.5517709255218506,0.8308708667755127,-0.5885076034007559,7.86040844360933,1.1540366748129107,0.0158051792532205,-0.0480538085103035,0.178267166018486,-1.4637770560383798,0.0533398360759019,-9.70325381577015,14961.0
41.91,8.800000190734863,67.0,21.85078811645508,20.714370727539062,-79.78157783125549,40.4594765776563,296.35486451721187,-0.0635908916592598,0.0327931009232997,-0.551659345626831,0.8309951424598694,-0.5820579747525142,7.8553547102174655,1.1843364590614311,0.051681600511074,-0.0087691219523549,-0.0050213751383125,-1.4780768604576588,0.2282642989978194,-9.65020787537098,14961.0
42.0,8.800000190734863,69.0,21.843276977539062,21.175573348999023,-79.78156947357785,40.45947984959152,296.3584427032472,-0.0633915439248085,0.0341549180448055,-0.5516512989997864,0.8309608697891235,-0.5869832391236782,7.858671221967834,1.1680679438584771,-0.0180522985756397,-0.1626387387514114,0.1622133255004882,-1.4664300839602948,-0.3524530564248562,-9.635112703442577,14961.0
42.2,8.800000190734863,69.0,21.80070686340332,21.41412734985352,-79.78155268347518,40.45948637068578,296.37539140319825,-0.0672512501478195,0.0348621793091297,-0.5514000654220581,0.8307947516441345,-0.5789340349464633,7.856856145966121,1.195621152199008,-0.0867139026522636,0.0891283676028251,-0.0491173267364502,-1.2098150847852231,0.0708612644579261,-9.697320061326026,14961.0
42.4,8.800000190734863,69.0,21.937179565429688,19.267148971557614,-79.78153589795991,40.45949303905217,296.394409576416,-0.0656551495194435,0.0352273397147655,-0.5509373545646667,0.8312138915061951,-0.5658218340951431,7.848944257109113,1.2419062364308209,0.0548574067652225,0.0529922433197498,0.1058889925479888,-1.2848784233629704,0.0622956234309822,-9.646974949836732,14961.0
42.51,8.899999618530273,68.0,21.845781326293945,20.491722106933597,-79.7815275338959,40.45949631012854,296.395838180542,-0.0660482347011566,0.0358734913170337,-0.5507282614707947,0.8312937021255493,-0.5662594212673416,7.859038558741782,1.1851698409838145,0.1455999463796615,0.0043406495824456,0.0611490905284881,-1.4212185354530813,0.1429565472342074,-9.471738574504853,14961.0
42.69,8.899999618530273,67.0,21.844528198242188,19.79196548461914,-79.78151076673015,40.459502942630216,296.4117035064698,-0.0658428817987442,0.0377906858921051,-0.5501294732093811,0.8316214084625244,-0.5681740124179182,7.855768503803332,1.222647829381866,-0.1161451116204261,-0.056973073631525,-0.014329551719129,-1.572615958750248,0.048745587375015,-9.637169753909111,14961.0
42.8,8.800000190734863,66.0,21.86080551147461,20.698467254638672,-79.78150233259609,40.45950632813707,296.42741052246095,-0.0655849501490593,0.0355421639978885,-0.549990713596344,0.8318327069282532,-0.5605956563918957,7.862967405791973,1.2136098349537026,-0.0878329426050186,-0.0032453720923513,-0.0873337313532829,-1.404331338107586,0.1406659918650984,-9.700982757210731,14961.0
42.89,8.899999618530273,66.0,21.83451271057129,20.2531681060791,-79.78149396124626,40.45950959423224,296.4280532989502,-0.0653245225548744,0.0326185561716556,-0.549874484539032,0.8320497870445251,-0.5511758705361542,7.862529803628704,1.1915561077380468,-0.0337607748806476,0.0305323638021945,0.1816748976707458,-1.4561785992980003,-0.1486090962868184,-9.731744374036786,14961.0
43.1,8.899999618530273,67.0,21.842023849487305,21.41412734985352,-79.78147720811252,40.45951618760562,296.45362893676764,-0.0636155381798744,0.0305681210011243,-0.5498424768447876,0.832281231880188,-0.5527461311401486,7.860720131002601,1.1411527139938469,-0.072703368961811,-0.0564986057579517,0.1079065799713134,-1.455861680209637,-0.2147988922521472,-9.558191996812823,14961.0
43.19,8.899999618530273,68.0,21.89085388183593,19.752206802368164,-79.7814688613187,40.459519459197296,296.4540886077881,-0.0653800368309021,0.029182318598032,-0.5496166944503784,0.8323432803153992,-0.5515923136029552,7.862816335482808,1.119706980133607,0.0551856905221939,0.0214954018592834,-0.017665347084403,-1.289365722835064,-0.0226000366732478,-9.601893501877788,14961.0
43.39,8.800000190734863,69.0,21.823244094848643,20.475818634033203,-79.78145216368335,40.45952612618957,296.46631661987306,-0.0619774125516414,0.0289832297712564,-0.5489855408668518,0.8330268263816833,-0.5558151734747679,7.813031166763178,1.1386868027854542,0.1042031422257423,0.3642392158508301,-0.0925841033458709,-1.6347834093868734,0.1701780221611261,-9.63586231648922,14961.0
43.5,8.800000190734863,69.0,21.944692611694336,18.527633666992188,-79.78144391367435,40.45952938616987,296.4658645782472,-0.0386727526783943,0.0197568256407976,-0.5492677688598633,0.8345173001289368,-0.5485647440546226,7.738667494940258,1.0753363166514358,0.1657102406024933,0.7309930324554443,-0.078143797814846,-1.8781927643716336,0.1584581554681062,-9.811992731094358,14961.0
43.69,8.699999809265138,69.0,21.96597671508789,18.31293487548828,-79.7814276219777,40.459535896649,296.4889473114014,0.0284711197018623,-0.0184155199676752,-0.5487821698188782,0.8352774977684021,-0.544845739534473,7.549843122105411,0.1115710864000017,0.0094395540654659,0.7002536654472351,0.0856248140335083,-1.4541664262115956,0.0359410530421882,-9.901925246715546,14961.0
43.8,8.699999809265138,81.0,21.940937042236328,19.116064071655277,-79.7814195290192,40.459539061264856,296.4852527770996,0.0556577071547508,-0.0355808474123477,-0.5471634268760681,0.8344150185585022,-0.503160788814,7.346993572738802,-0.465637866897809,0.0595530830323696,0.6664415597915649,-0.2522454559803009,-1.1942113512754442,0.2730151234567165,-9.865852603912352,14961.0
44.0,8.600000381469728,81.0,21.821990966796875,21.58906555175781,-79.78140462055434,40.45954497860181,296.49113313293464,0.0868314877152443,-0.0573876351118087,-0.5435675978660583,0.8328873515129089,-0.4568001994877275,6.720499039728744,-1.1804402734571111,0.0885123685002327,0.4071338474750519,-0.0572980418801307,-0.7317620088905097,-0.2187992282956838,-10.29789518237114,14961.0
44.19,8.5,81.0,21.83576393127441,21.77195739746093,-79.78139042214487,40.45955059253138,296.51130715942384,0.094658114016056,-0.0669628828763961,-0.5412575006484985,0.8328242301940918,-0.4219533565822131,6.089439888042303,-1.3428671926772644,0.0101991621777415,-0.0103735858574509,-0.0387699268758297,-1.0197256122529508,0.2773543239198625,-10.162334504127504,14961.0
44.3,8.300000190734862,98.0,21.870820999145508,19.37052154541016,-79.78138389420462,40.459553243979286,296.5311550292969,0.0963427796959877,-0.0678303390741348,-0.5409520268440247,0.8327593207359314,-0.4073223450323269,5.793126845851576,-1.30995299554095,0.050834197551012,0.0730666443705558,-0.157540962100029,-1.116132895946503,0.246986864246428,-10.206353513002396,14961.0
44.39,8.100000381469728,99.0,21.98976707458496,18.54353713989257,-79.78137785558555,40.45955569422056,296.5358318481445,0.0956280827522277,-0.0681772455573082,-0.5408227443695068,0.8328973650932312,-0.4059051619494368,5.481982729427132,-1.2823237083303272,0.0430299192667007,-0.109205238521099,0.1745563298463821,-0.9209021128714086,-0.0259564480930566,-10.099635980129245,14961.0
44.59,7.800000190734862,100.0,22.05362129211425,14.80620288848877,-79.78136642193067,40.45956029902518,296.55215875244136,0.0958670005202293,-0.0644023418426513,-0.5414054989814758,0.8327917456626892,-0.3985167272026012,4.920411151165991,-1.2372795126964629,0.0877197161316871,0.0006361779524013,0.1123989075422287,-0.8957704876363278,-0.2128814075142145,-9.521343428492548,14961.0
44.69,7.599999904632567,100.0,22.01605987548828,17.740407943725586,-79.78136129494212,40.45956242473185,296.5389808807373,0.1030157953500747,-0.0648606866598129,-0.5413973331451416,0.8319073319435121,-0.4036919371578608,4.623768073962964,-1.2731989537854214,-0.0510800741612911,0.2215994894504547,0.0112812640145421,-0.5882381538301706,-0.1003157453611493,-9.415493622422217,14961.0
44.91,7.099999904632568,99.0,21.882089614868164,19.736303329467773,-79.78135157795906,40.45956624813884,296.51408044433595,0.1238835304975509,-0.0798482894897461,-0.5401494503021239,0.8285625576972961,-0.3536161861294333,3.9672055119735377,-1.4336304096253218,0.0090561108663678,0.4407730400562286,0.0363193415105342,-0.6103819980472327,0.1553446593135595,-9.46799694120884,14961.0
45.1,6.9000000953674325,102.0,21.56532096862793,26.638442993164062,-79.78134331517735,40.459569474281246,296.4696926269532,0.1385529786348343,-0.0921269208192825,-0.5391705632209778,0.8255972862243652,-0.3406477551095564,3.2524807567347183,-1.467835197264158,-0.0503271855413913,0.155134230852127,-0.0942993089556694,-0.2992549605108798,0.1102929225191474,-10.16436933517456,14961.0
45.2,6.300000190734862,102.0,21.690526962280277,23.74399757385254,-79.78133985035167,40.45957097314528,296.4341091308594,0.1408791542053222,-0.092887669801712,-0.5394366383552551,0.8249443769454956,-0.3427709098889136,2.8810259147764308,-1.3527697244431374,0.0425019711256027,0.1248948648571968,-0.0548590384423732,-0.1300178467109799,-0.0823272706288844,-10.791566244363787,14961.0
45.3,6.0,102.0,21.54904556274414,26.185192108154297,-79.78133653205249,40.45957213644734,296.43037072753907,0.1385562568902969,-0.0919425636529922,-0.5398795604705809,0.8251538872718811,-0.3306679865664585,2.574248776710049,-1.1992631037520938,-0.1187340319156646,-0.0242522731423378,-0.1279109418392181,-0.1494221059419214,0.1615730951540172,-10.82435158252716,14961.0
45.5,5.300000190734863,106.0,21.640443801879886,25.517242431640625,-79.78133153620924,40.45957445728014,296.38464776611335,0.1279097497463226,-0.0900275707244873,-0.5411596894264221,0.8262447714805603,-0.3564574404209203,1.931808883977079,-0.8409751238146546,-0.1569356620311737,-0.1253936141729354,-0.0358424186706543,-0.2211218519881368,0.0108203639276325,-10.873046025037766,14961.0
45.59,5.0,106.0,21.63543701171875,25.79555511474609,-79.78132933984077,40.45957508931013,296.38363305664063,0.1272481828927993,-0.0909086838364601,-0.5403870940208435,0.826755940914154,-0.3138675719762332,1.6435490540804354,-0.6517711420773538,0.0243684500455856,0.000507972901687,0.097343698143959,-0.2467212179303169,-0.1408140269201249,-11.062585859298704,14961.0
45.81,4.199999809265137,106.0,21.48518943786621,26.28856468200684,-79.78132641938491,40.45957604865731,296.3584350738525,0.1359577775001526,-0.0972029492259025,-0.5372734665870667,0.8266827464103699,-0.2832979938408925,1.0133267894984908,-0.3051625079697794,-0.110902301967144,0.0810915455222129,-0.0944225639104843,-0.0146299619693309,0.1788061370328068,-11.206228559017182,14961.0
45.99,3.900000095367432,105.0,21.56156539916992,28.37988090515137,-79.78132506601608,40.45957706008392,296.38047067260743,0.0983993783593177,-0.0751859694719314,-0.5433775186538696,0.8303045034408569,-0.2937544907527808,0.5633776909467735,-0.0205878858933987,-0.161391019821167,-1.5779681205749512,0.2107936143875122,0.9807097003608942,0.0651017387676984,-10.562275868654252,14961.0
46.09,3.299999952316284,109.0,21.76815414428711,22.12978744506836,-79.781325167928,40.459576838299725,296.3605808410645,0.0155372368171811,-0.0290789045393466,-0.5711261630058289,0.8201999068260193,-0.2480755601244362,0.3980258546655462,0.1088268639329168,-0.2285391688346863,-1.4668464660644531,0.7145634293556213,-0.1731967020593583,0.3391992457956076,-10.64695056796074,14961.0
46.19,2.900000095367432,86.0,21.646705627441406,24.332427978515625,-79.78132496896139,40.45957714761585,296.38497201538087,-0.0239981617778539,-0.0047352155670523,-0.6085714101791382,0.7931219935417175,-0.2472846959737625,0.2499849276535717,0.2778261746957856,0.0739480331540107,-0.4414766728878021,1.0402064323425293,-0.82630848929286,0.3765015580505133,-10.61555569767952,14961.0
46.4,2.400000095367432,91.0,21.695533752441406,23.227130889892567,-79.78132501942262,40.45957707093953,296.4271797332764,-0.0006353114731609,-0.0049115647561848,-0.7000380754470825,0.7140883803367615,-0.2670824807015401,0.1584253184492538,0.3587003134829079,0.1413821578025818,0.3870220184326172,1.353169322013855,-0.1071782477851957,-0.0044268538802862,-10.140702145099642,14961.0
46.59,2.200000047683716,91.0,21.70555114746093,22.654603958129893,-79.78132534287832,40.45957682277209,296.46818963623053,0.0172061175107955,-0.0236314143985509,-0.7956480979919434,0.6050535440444946,-0.2646773604153918,0.0607995938869991,0.3316912060043154,-0.0312721841037273,0.1470635533332824,1.5392289161682131,0.2196666627377272,-0.0694732359610498,-9.854397908449174,14961.0
46.69,1.7999999523162842,113.0,21.69803810119629,22.757976531982425,-79.78132527595645,40.45957706448113,296.50189057922364,0.0191129688173532,-0.0282013155519962,-0.8399266004562378,0.5416296720504761,-0.2732332265447549,-0.0187630677925995,0.3401871014723142,-0.0771419778466224,0.0370204783976078,1.5606114864349363,0.173144314661622,-0.0086167584825307,-9.819872438907623,14961.0
46.79,1.7000000476837158,138.0,21.751876831054688,23.42592620849609,-79.78132586044342,40.4595760291447,296.467558303833,0.0205759331583976,-0.0291517451405525,-0.8794542551040649,0.4746441543102264,-0.1793307772150146,-0.0879953832834969,0.2949652995706402,-0.1160070598125457,-0.0539287701249122,1.5625373125076294,0.0717709450330585,0.1737336043640971,-9.8227095079422,14961.0
47.0,1.399999976158142,199.0,21.69428253173828,23.82351493835449,-79.78132607784951,40.45957643774154,296.526604095459,0.0234320722520351,-0.0278366226702928,-0.9433634877204896,0.3297598659992218,-0.0969089518243466,-0.2607768914742531,0.3267637544060963,-0.0537279769778251,0.0014142909785732,1.6187075376510618,0.0935487078689038,0.0200458038551732,-9.95064424753189,14961.0
47.1,1.2999999523162842,230.0,21.68802261352539,23.354360580444336,-79.78132661241494,40.45957529137559,296.5216144714356,0.0228357445448637,-0.0263680517673492,-0.9661629796028136,0.2555631399154663,0.0272364325222301,-0.2605736658740961,0.3128667419902236,-0.0778801962733268,-0.0015539601445198,1.617837905883789,0.0603621502127498,-0.1177761525660753,-9.990029922723776,14961.0
47.29,1.2999999523162842,277.0,21.716819763183597,21.65267944335937,-79.78132735134386,40.45957451760434,296.574980178833,0.0174234043806791,-0.0235435161739587,-0.9941477179527284,0.1039831489324569,0.1903193463865428,-0.2540496443855337,0.3306524357613385,-0.1355330199003219,-0.017233021557331,1.5627325773239136,0.0788810861762613,-0.1108474943786859,-10.020325516462329,14961.0
47.49,1.2999999523162842,291.0,21.75438117980957,22.16159439086914,-79.78132809135218,40.459574910261296,296.63948098754884,-0.0108907977119088,0.0238164030015468,0.9984742999076844,0.0486151874065399,0.3111722981132409,-0.2591961583608699,0.3467875582300453,-0.0322755500674247,0.0674109011888504,1.5003759860992432,0.1128703020885586,-0.1317757664155215,-9.890421434640883,14961.0
