time,wind_speed,wind_angle,battery_voltage,battery_current,position_x,position_y,position_z,orientation_x,orientation_y,orientation_z,orientation_w,velocity_x,velocity_y,velocity_z,angular_x,angular_y,angular_z,linear_acceleration_x,linear_acceleration_y,linear_acceleration_z,node_ids
0.0,1.7000000476837158,113.0,24.690439224243164,-0.0874695107340812,-79.78277685506039,40.45900608565053,277.4882498102188,0.0029001869261264,-0.0037884407211095,-0.995059847831726,0.0991628766059875,-0.0203477340466915,-0.0175262433125117,-0.0017913965673691,0.006087168585509,0.0060386713594198,0.0044332207180559,0.0560140738589689,-0.0808252945169806,-9.810232719182968,14942.0
0.1,1.8999999761581416,111.0,24.699203491210927,-0.0874695107340812,-79.78277695255642,40.45900591956495,277.46465757656097,0.0029234322719275,-0.003780850674957,-0.9950574636459352,0.0991857573390007,-0.0148869252220308,-0.0109117983083771,-0.0021647677526017,-0.0068797906860709,-0.0041764504276216,-0.0072456742636859,0.0520678930822759,-0.0774227175023406,-9.808537026643751,14942.0
0.3,2.0,110.0,24.68167495727539,-0.1192766055464744,-79.78277700263679,40.4590057946093,277.44021752643584,0.0029439111240208,-0.0037872120738029,-0.9950583577156068,0.0991760864853859,-0.0159128864888588,-0.0113756470284921,-0.0024204606320142,-0.0092010358348488,-0.0052435789257287,-0.012333633378148,0.0518946601822972,-0.0639924260275438,-9.8067612272501,14942.0
0.4,1.7999999523162842,110.0,24.694196701049805,-0.1192766055464744,-79.78277698870316,40.459005806926825,277.4399652795792,0.0029529039748013,-0.0037747025489807,-0.9950571656227112,0.0991887971758842,-0.0163457646170191,-0.0136733888275379,-0.0025531495561676,0.0081097604706883,0.0042038518004119,0.0085508441552519,0.0566111568035557,-0.0943244415242225,-9.810344985723496,14942.0
0.5,1.8999999761581416,110.0,24.69795227050781,-0.0874695107340812,-79.78277704986833,40.45900567528345,277.4151170568465,0.0029685779009014,-0.0037889224477112,-0.9950562715530396,0.0991961285471916,-0.0152606111259217,-0.012323084918543,-0.0025390278950988,0.0077164089307188,0.0035125550348311,0.0106696365401148,0.0535594310006126,-0.0610077193658799,-9.807026690840722,14942.0
0.7,1.8999999761581416,111.0,24.69795227050781,-0.0874695107340812,-79.782777034414,40.45900568907005,277.4148707704544,0.0029930390883237,-0.0037936731241643,-0.9950574040412904,0.0991838574409484,-0.0195444552412157,-0.014620067195123,-0.0023236416110688,-0.0058448985219001,-0.0006623830995522,-0.0087038911879062,0.0536530686775222,-0.0596745130838826,-9.807130771279336,14942.0
0.8,1.8999999761581416,111.0,24.69294357299805,-0.055662415921688,-79.78277713023473,40.45900557392285,277.38924041557306,0.0030271941795945,-0.0038068108260631,-0.9950591921806335,0.0991647094488144,-0.0138906052577041,-0.0172703598966294,-0.0024877641660762,-0.0050293235108256,0.0008066375739872,-0.008876409381628,0.0544070214545354,-0.0975807102397084,-9.810077183246614,14942.0
1.0,2.0999999046325684,116.0,24.69169235229492,-0.0715659633278846,-79.78277711727789,40.45900559269845,277.388992937088,0.0030084692407399,-0.0038160006515681,-0.9950568079948424,0.0991886705160141,-0.0160509845437084,-0.0194353206027199,-0.002342600394973,-0.0003177710168529,0.0013784865150228,0.0057952948845922,0.0537233311962336,-0.0951399362459778,-9.810720376968382,14942.0
1.1,2.0999999046325684,111.0,24.69294357299805,-0.0636141896247863,-79.78277719940252,40.45900542052824,277.3624558763504,0.0030198839958757,-0.0037918970920145,-0.995055615901947,0.0992013663053512,-0.012704039976743,-0.0124799140657278,-0.0027777705544084,-0.0042735785245895,-0.003366476856172,-0.0004137356881983,0.0556505506346002,-0.0659172700345516,-9.807807294130326,14942.0
1.3,2.0999999046325684,113.0,24.69169235229492,-0.0795177370309829,-79.78277724302345,40.45900530130047,277.3375728445053,0.0030116587877273,-0.0038032515440136,-0.9950567483901978,0.0991894230246544,-0.0136405468841439,-0.0130995754194934,-0.0012947904598262,0.0068738181143999,0.0026050107553601,0.0079552521929144,0.0562440430233255,-0.0781975923478603,-9.809964916706086,14942.0
1.4,2.0999999046325684,111.0,24.70045661926269,-0.0715659633278846,-79.78277722938496,40.45900531510877,277.33745160865783,0.0029989613685756,-0.0037836357951164,-0.9950575232505798,0.0991832464933395,-0.0178008920619027,-0.0151294156540413,-0.0010488366210137,-0.0067045176401734,-0.0053852829150855,-0.0095218289643526,0.0514302724879235,-0.0773713716398924,-9.807620183229448,14942.0
1.6,2.0999999046325684,114.0,24.69169235229492,-0.0795177370309829,-79.78277732076448,40.45900518287107,277.31042733955377,0.0030220120679587,-0.0037753055803477,-0.9950578808784484,0.0991792380809784,-0.0122934276695188,-0.012801787249251,-0.0019083118779606,-0.0112542174756526,-0.003530464367941,-0.0163183733820915,0.051703264368698,-0.0643180017359554,-9.806488747000692,14942.0
1.7,2.0,115.0,24.69294357299805,-0.0795177370309829,-79.78277733393072,40.45900507000628,277.2825337963104,0.0030226071830838,-0.0037619629874825,-0.9950585365295408,0.0991728603839874,-0.0190935373084862,-0.0133223208385771,-0.002700815302741,-0.0091090286150574,-0.0020377999171614,-0.0129748312756419,0.0558769520837813,-0.0952099566534161,-9.810295869112016,14942.0
1.9,1.8999999761581416,115.0,24.69169235229492,-0.0795177370309829,-79.78277731605341,40.45900508492542,277.28225377368926,0.00300626270473,-0.0037644575349986,-0.9950587153434752,0.0991713479161262,-0.0196457684852162,-0.0155142416084603,-0.0028385996412603,0.0110130673274397,0.0050781834870576,0.0093450183048844,0.0560033067595213,-0.0947733523696661,-9.809812304377555,14942.0
2.0,1.7999999523162842,116.0,24.699203491210927,-0.0795177370309829,-79.78277740537253,40.45900494862525,277.256137640953,0.0030048200860619,-0.0037497146986424,-0.9950581789016724,0.0991772785782814,-0.0131062810154432,-0.0134988381780932,0.0004355899120322,0.0039732959121465,-0.0012598192552104,0.0097361458465456,0.0530784563999623,-0.0596260405797511,-9.8067477786541,14942.0
2.2,1.8999999761581416,116.0,24.69795227050781,-0.0874695107340812,-79.78277739302706,40.45900496284185,277.2561855630874,0.0030311895534396,-0.0037634905893355,-0.9950596690177916,0.0991614907979965,-0.016882413502159,-0.0158173175192509,0.0005902569505902,-0.0044206446036696,-0.0010699193226173,-0.0106836250051856,0.0533132358128205,-0.0594644792703911,-9.806829639673234,14942.0
2.3,1.7999999523162842,117.0,24.694196701049805,-0.0954212844371795,-79.78277743790869,40.459004880324336,277.2292222099304,0.0030614996794611,-0.0037874756380915,-0.99505877494812,0.0991681665182113,-0.0182192844412671,-0.0202157754292355,0.0017126602354289,-0.0015911500668153,-0.0011154357343912,-0.0078815780580043,0.0545680894050747,-0.0993345277570188,-9.810666582584382,14942.0
2.5,1.7999999523162842,116.0,24.69670104980469,-0.0795177370309829,-79.78277742049656,40.45900490263257,277.22939136791234,0.0030272549483925,-0.0037874970585107,-0.9950572848320008,0.0991843342781066,-0.0204566824941171,-0.0225495253598887,0.0017784019600904,0.0024131957907229,-0.0010598107473924,0.0064083826728165,0.0518866111245006,-0.096310439184308,-9.810418660640716,14942.0
2.6,1.7999999523162842,117.0,24.690439224243164,-0.0715659633278846,-79.78277747308991,40.45900475366346,277.20200720596307,0.0030438345856964,-0.0037608537822961,-0.9950597882270812,0.0991599112749099,-0.018181922501038,-0.0159136257203132,0.0030841164896543,-0.0010743744205683,-0.0013723198790103,0.0010378062725067,0.0547944314684718,-0.0658721002936363,-9.807965168952943,14942.0
2.8,1.7999999523162842,117.0,24.69544792175293,-0.0874695107340812,-79.7827775234598,40.45900463448445,277.1728372888565,0.0030498602427542,-0.0037631888408213,-0.995059847831726,0.0991588532924652,-0.0181597611863281,-0.0151985775516978,0.0030598732506929,0.0046405522152781,0.0046977805905044,0.0010493554873391,0.055140129821375,-0.0698140464071184,-9.80765877485275,14942.0
2.9,1.7999999523162842,113.0,24.690439224243164,-0.0874695107340812,-79.78277748373898,40.45900467139427,277.17347422409057,0.0030236148741096,-0.0037829088978469,-0.995059609413147,0.0991614758968353,-0.0231875054757985,-0.0198221772789964,0.0032581457392697,0.004294657614082,0.0049105891957879,0.0006261365488171,0.0531974655110389,-0.0878887127526104,-9.809683080911636,14942.0
3.1,1.7000000476837158,109.0,24.687936782836918,-0.0874695107340812,-79.78277760785984,40.45900449987364,277.1442500667572,0.0030331106390804,-0.0037534420844167,-0.995055079460144,0.099207766354084,-0.0140369811951141,-0.0109589997774376,0.0042624919877599,-0.0051792827434837,-0.002252654870972,-0.0011720983311533,0.0521898714825511,-0.0880316954478621,-9.809576661586762,14942.0
3.2,1.7000000476837158,112.0,24.687936782836918,-0.0715659633278846,-79.78277768227838,40.45900437606085,277.11297086048125,0.0030386291909962,-0.0037390447687357,-0.9950531125068665,0.0992273837327957,-0.0117997693397048,-0.0095693424688099,0.0020209528894666,-0.0047625270672142,-0.0032875267788767,-0.0034467198420315,0.0568237533420324,-0.0731011135037988,-9.8086691737175,14942.0
3.4,1.8999999761581416,112.0,24.690439224243164,-0.0954212844371795,-79.78277767226315,40.45900438634036,277.11316278743743,0.0030617460142821,-0.0037442694883793,-0.9950538873672484,0.0992194935679435,-0.0132172751323553,-0.0119481683692489,0.0018930839084201,0.0040531833656132,0.0013202081900089,0.0025546299293637,0.056056420491077,-0.0716925466619432,-9.808506621122358,14942.0
3.5,1.8999999761581416,113.0,24.699203491210927,-0.0636141896247863,-79.78277773339458,40.4590042770355,277.0805678682326,0.0030571434181183,-0.0037351658102124,-0.9950525164604188,0.0992335677146911,-0.0137994299786119,-0.0121065444831515,-0.0001697227167884,-0.0004250776546541,0.0043302439153194,0.0006225946708582,0.0524583272030577,-0.0897981758415699,-9.809551518559458,14942.0
3.7,1.8999999761581416,113.0,24.69670104980469,-0.0715659633278846,-79.78277771998238,40.45900429024255,277.0805614309311,0.0030538574792444,-0.003730178810656,-0.9950501322746276,0.0992577299475669,-0.0164900374843807,-0.0139740348970848,3.749728355820751e-05,-0.0004887921968474,-0.0010259847622364,0.0035393370781093,0.0539326021308079,-0.0925214708503335,-9.810744935274125,14942.0
3.8,1.7999999523162842,112.0,24.69169235229492,-0.0477106422185897,-79.78277780036986,40.45900416992117,277.0468387918472,0.0030715991742908,-0.003720486536622,-0.9950475096702576,0.0992839261889457,-0.0147565738948866,-0.0120645270698661,-0.0013396068948971,-0.0021247284021228,0.0005156983970664,0.0028986893594264,0.0547173761297017,-0.066733344909735,-9.80815988123417,14942.0
4.0,1.7999999523162842,111.0,24.69795227050781,-0.0795177370309829,-79.78277778508419,40.45900418447982,277.04669264125823,0.0030749402940273,-0.003737591439858,-0.9950472712516784,0.0992847979068756,-0.0170707774732566,-0.0145479151185565,-0.0015171904404313,0.0048273764550685,0.0019742443691939,-0.0010716668330132,0.0551792102353647,-0.0669048190768808,-9.807648834586145,14942.0
4.1,1.7999999523162842,110.0,24.70045661926269,-0.0079517737030982,-79.78277788853089,40.45900405332013,277.0124481039046,0.0030794090125709,-0.0036979916039854,-0.9950477480888368,0.0992815345525741,-0.0131661258703839,-0.0117415985437604,-0.0030140125199362,0.0031913241837173,0.004890470765531,0.0040067317895591,0.0521797850355506,-0.0907014062069356,-9.809428142309187,14942.0
4.3,1.7999999523162842,108.0,24.69294357299805,-0.0874695107340812,-79.78277796916574,40.45900393937141,276.9792896823883,0.0030789906159043,-0.0036962002050131,-0.9950461983680724,0.0992969796061515,-0.0124498802747813,-0.0100232683604813,-0.0033721279485025,-0.0073421443812549,-0.0019308109767735,-0.004692330956459,0.0514861819194629,-0.0856249358039349,-9.8091772967577,14941.0
4.4,1.7999999523162842,112.0,24.694196701049805,-0.0954212844371795,-79.78277795842389,40.45900395018287,276.9789406375885,0.0030961516313254,-0.0036929983180016,-0.995046317577362,0.0992959290742874,-0.0135388921363269,-0.0123436425633304,-0.0035608090966612,0.0061060995794832,0.0029013180173933,0.0057206936180591,0.0559929051110521,-0.079258304676041,-9.809148060679435,14941.0
4.6,1.7999999523162842,116.0,24.690439224243164,-0.055662415921688,-79.78277806225287,40.45900388068758,276.9432462768554,0.0031057749874889,-0.0037075788713991,-0.9950465559959412,0.0992926657199859,-0.0101599683623981,-0.0190812665169731,-0.0070354472277747,0.0091847265139222,0.0065458221361041,0.0058610797859728,0.0549235133221372,-0.0815077285375446,-9.809919893145562,14941.0
4.8,1.7999999523162842,112.0,24.687936782836918,-0.0715659633278846,-79.78277814309712,40.45900374348979,276.9097653942108,0.0031118146143853,-0.0036641834303736,-0.9950457811355592,0.0993012711405754,-0.008541867960911,-0.0089322950910153,-0.0063544000713992,0.0093028331175446,0.0055352956987917,0.0058055440895259,0.0561603319086134,-0.0825568195246159,-9.80951292693615,14941.0
4.9,1.600000023841858,108.0,24.69544792175293,0.0079517737030982,-79.78277813371997,40.45900375317511,276.9091388301849,0.003098014742136,-0.0036597517319023,-0.9950434565544128,0.0993257015943527,-0.0128421324627177,-0.0107652449417147,-0.0062308864405639,-0.0068519064225256,-0.0042851436883211,-0.0096099469810724,0.0514464619662612,-0.0764845774322748,-9.806885188221932,14941.0
5.0,1.600000023841858,104.0,24.694196701049805,-0.0238553211092948,-79.78277823210986,40.45900363322679,276.87530782985687,0.0031163918320089,-0.0036579992156475,-0.9950442314147948,0.0993177741765976,-0.0100975866973491,-0.0084554139927913,-0.0063038978145868,-0.0099568292498588,-0.0059610842727124,-0.0111819701269269,0.0572719561262056,-0.0846872525475919,-9.809370254874231,14941.0
5.2,1.600000023841858,103.0,24.68292808532715,0.0159035474061965,-79.78277822322602,40.459003642315885,276.87466004657745,0.0031313302461057,-0.0036454254295676,-0.995045244693756,0.0993075743317604,-0.0104242163140034,-0.0107157830567318,-0.0066052618069333,0.0087659042328596,0.0049934340640902,0.0132643841207027,0.0552314834296703,-0.0888447051029652,-9.810417491197589,14941.0
5.3,1.600000023841858,103.0,24.68543243408203,0.0,-79.78277831566382,40.4590035586962,276.83954373168945,0.0031636001076549,-0.0036650991532951,-0.9950434565544128,0.0993238985538482,-0.0090011189158597,-0.0145575154907632,-0.0086939352966345,0.0084592914208769,0.0071704210713505,0.0101546440273523,0.0514534603524953,-0.0671922279987484,-9.80725063920021,14941.0
5.5,1.600000023841858,103.0,24.68543243408203,0.0159035474061965,-79.78277830608428,40.45900357446807,276.8386807756424,0.0031842752359807,-0.0036905989982187,-0.9950421452522278,0.0993347242474556,-0.0136656548645098,-0.0166995456914014,-0.0085160027854034,-0.0099592665210366,-0.0046614897437393,-0.0119812069460749,0.0523722863383591,-0.0643635049508884,-9.807075222730637,14941.0
5.6,1.600000023841858,102.0,24.684179306030277,0.0159035474061965,-79.78277838077548,40.45900351336744,276.80349573659896,0.0032002003863453,-0.0036896921228617,-0.995041847229004,0.0993374586105346,-0.0150410950736334,-0.0216466940659856,-0.0103522594326225,-0.0101218419149518,-0.0023845615796744,-0.0110139157623052,0.0560726921958848,-0.0943332214839756,-9.809423464536668,14941.0
5.8,1.600000023841858,101.0,24.680423736572266,-0.0397588685154914,-79.78277850058444,40.45900335771313,276.77111247348785,0.0032094346825033,-0.003663107054308,-0.9950416684150696,0.0993396863341331,-0.0036691581874978,-0.009862436008671,-0.0094292233547134,0.008796933107078,0.0018288422143086,0.0099093718454241,0.0560888999467715,-0.0960073158703744,-9.810160213708876,14941.0
5.9,1.5,100.0,24.67416381835937,-0.0477106422185897,-79.78277849773276,40.4590033673001,276.7701644616127,0.0032413795124739,-0.0036585999187082,-0.9950414299964904,0.0993413478136062,-0.0071862711134869,-0.0121091413165518,-0.0094438135475282,-0.005441858433187,-0.0024366725701838,-0.0072469008155167,0.0523745292937383,-0.0594059111829847,-9.805421045422555,14941.0
6.1,1.5,103.0,24.69294357299805,-0.0238553211092948,-79.78277863035376,40.45900328624454,276.73445877599715,0.0032506815623492,-0.0036932753864675,-0.9950411319732666,0.0993424952030182,-0.0014722278153475,-0.0160455407150549,-0.0114822019538619,-0.0005845376872457,-0.0001492965384386,-0.0087078129872679,0.0543811932066455,-0.0601981997676193,-9.806776430010796,14941.0
6.2,1.5,103.0,24.687936782836918,-0.0159035474061965,-79.78277866603955,40.4590031669029,276.70196530389785,0.0032400642521679,-0.0036707180552184,-0.995039165019989,0.0993641465902328,-0.0086907886185371,-0.0080943795451937,-0.009637953145557,-9.120191680267452e-05,0.0015319234225898,-0.0017196830594912,0.0526575345313176,-0.0957211951632052,-9.810315749645234,14941.0
6.4,1.5,105.0,24.68292808532715,-0.0159035474061965,-79.78277865770805,40.459003175329634,276.70099601316446,0.0032204482704401,-0.0036523998714983,-0.9950371384620668,0.0993860438466072,-0.0103673823082176,-0.0099324378519086,-0.0097178234535191,-0.0004913874436169,0.0001139908999903,0.0071939602494239,0.0533490317361429,-0.0953401851095259,-9.810108758211138,14941.0
6.5,1.600000023841858,106.0,24.690439224243164,-0.0079517737030982,-79.78277874347137,40.45900308622471,276.6695204691887,0.0032338092569261,-0.0036596949212253,-0.9950366020202636,0.0993903130292892,-0.008117480785527,-0.0107527207195992,-0.0080381723689162,0.0034550353884696,-0.0026599443517625,0.004470766056329,0.0545405069924891,-0.0652108258847147,-9.806875247955324,14941.0
6.7,1.600000023841858,110.0,24.68292808532715,-0.0318070948123931,-79.78277873649472,40.45900309734037,276.66870996522897,0.0032430253922939,-0.0036536331754177,-0.9950389862060548,0.0993659347295761,-0.0105663513671181,-0.0130810334745854,-0.0081222846477294,-0.0019985933322459,0.0027104783803224,-0.0033389688469469,0.0540912535367533,-0.0627159148966893,-9.806467697024344,14941.0
6.8,1.600000023841858,111.0,24.68668365478516,-0.0159035474061965,-79.78277883068232,40.45900302057093,276.6353784518242,0.0032750600948929,-0.0036441956181079,-0.9950394630432128,0.0993609204888343,-0.0082500218543271,-0.0162481873582976,-0.0101975962052166,-0.0026255422271788,0.0016638693632557,-0.0046643665991723,0.0540458142757415,-0.0969254200905561,-9.809864929318428,14941.0
7.0,1.600000023841858,114.0,24.684179306030277,0.0079517737030982,-79.7827788242313,40.4590030373997,276.634346874237,0.0032599351834505,-0.0036425252910703,-0.9950385689735411,0.0993701666593551,-0.0096179071516002,-0.0183123997421247,-0.0102648280430195,0.0005948133184574,-0.001489749061875,0.010474344715476,0.0532595236552879,-0.0957534096669405,-9.810097063779832,14941.0
7.1,1.600000023841858,114.0,24.69670104980469,0.0079517737030982,-79.78277885983695,40.45900291140696,276.6043871359825,0.0032478049397468,-0.0036158508155494,-0.9950379729270936,0.0993780568242073,-0.0127395642043223,-0.0116751851859434,-0.0083691266344832,0.0038322545588016,0.0007556588971056,0.0060628713108599,0.0550081700412556,-0.0618770450167357,-9.807340101599694,14941.0
7.3,1.600000023841858,115.0,24.690439224243164,-0.0079517737030982,-79.78277892625428,40.4590027927615,276.5767776684761,0.0032670921646058,-0.0036055508535355,-0.9950380921363832,0.0993758514523506,-0.0115832700905065,-0.0064253053061026,-0.0055064336019138,-0.0018558111041784,0.0032668374478816,-0.0083122448995709,0.0535550821339711,-0.0612344771297648,-9.806994531154633,14941.0
7.4,1.600000023841858,116.0,24.68167495727539,0.0,-79.78277891452159,40.4590028001826,276.57621821928024,0.003265673527494,-0.0035990665201097,-0.995036780834198,0.0993896797299385,-0.0126334157671566,-0.0082115973725332,-0.0056877891125012,0.005716832820326,0.0011924643767997,0.0106255803257226,0.0543825133983045,-0.0966234844923019,-9.81011694431305,14941.0
7.6,1.600000023841858,118.0,24.68543243408203,0.0079517737030982,-79.78277894917997,40.45900274169468,276.54668542909616,0.003262031590566,-0.0036305580288171,-0.9950364232063292,0.0993916019797325,-0.0163208027380692,-0.0139043474531347,-0.0058681507117146,0.0036405599676072,-0.0003200862847734,0.0112129813060164,0.0548094240948557,-0.0965694434288889,-9.809719918370249,14941.0
7.7,1.600000023841858,116.0,24.68668365478516,-0.0397588685154914,-79.78277901053346,40.45900265001085,276.5196322517395,0.003283922560513,-0.003611484542489,-0.9950361847877502,0.0993951335549354,-0.0131627558317641,-0.0118842878282792,-0.0019821685633379,0.0060219643637537,0.00044941806118,0.0091726556420326,0.0543297788221389,-0.0600514711998403,-9.806862384080889,14941.0
7.9,1.600000023841858,116.0,24.684179306030277,-0.0874695107340812,-79.7827789974684,40.459002663032045,276.51943317222594,0.0033207447268068,-0.0036168552469462,-0.9950344562530518,0.0994100794196128,-0.0165304590303502,-0.0138780667374395,-0.002016475828084,-0.0037506716325879,-0.0016114934114739,-0.0109123392030596,0.0536151257297024,-0.0607374820718541,-9.806512135863304,14941.0
8.0,1.600000023841858,118.0,24.690439224243164,-0.0715659633278846,-79.78277907889311,40.45900255375295,276.4925657229424,0.0033304556272923,-0.0036188934464007,-0.9950333237648008,0.0994210019707679,-0.0112775134957347,-0.0103740412405525,-0.0001387547435951,-0.0071592763997614,-0.0020103310234844,-0.0108198970556259,0.0558142269914969,-0.0939864267781376,-9.808815938830376,14941.0
8.2,1.5,119.0,24.69294357299805,-0.0715659633278846,-79.78277906892144,40.45900256469953,276.4925453977585,0.0033334803301841,-0.0036062370054423,-0.9950324892997742,0.0994297638535499,-0.0113792551863892,-0.0123175129411996,-0.0003253849108993,0.0062013985589146,0.0031740136910229,0.0120617253705859,0.0563988663302734,-0.0943844485748559,-9.80960531294346,14941.0
8.3,1.5,118.0,24.684179306030277,-0.0795177370309829,-79.78277907953118,40.4590025296982,276.46472212839126,0.0033441090490669,-0.0036144510377198,-0.9950299263000488,0.0994553491473198,-0.0174962853291371,-0.0184871048834707,-0.0018121213894391,0.0075113805942237,0.0025554795283824,0.0102254329249262,0.0522994154132902,-0.0610679319826886,-9.805730363130571,14941.0
8.5,1.5,114.0,24.68668365478516,-0.1033730581402778,-79.78277906155127,40.45900255044618,276.46454575824737,0.0033456915989518,-0.0036252150312066,-0.9950295090675354,0.0994589403271675,-0.0215523445580663,-0.0205935017139687,-0.0016237972093891,-0.0088810110464692,-0.0035804614890366,-0.0116961589083075,0.0529261547047644,-0.0618133103661239,-9.807007979750631,14941.0
8.6,1.5,113.0,24.67917060852051,-0.1669872552156448,-79.78277913417506,40.459002431108296,276.4390794353485,0.0033973706886172,-0.0035990630276501,-0.995028793811798,0.0994645878672599,-0.0152309602750415,-0.0133547354133982,0.0002583047324272,-0.0090968292206525,-0.0068784854374825,-0.0120770242065191,0.055361131732352,-0.0916044812556356,-9.809817566871644,14941.0
8.8,1.5,110.0,24.687936782836918,-0.0874695107340812,-79.78277919345972,40.459002355922046,276.4140395240784,0.0034274756908416,-0.0035930953454226,-0.995027244091034,0.0994801223278045,-0.0106458662528868,-0.0137914154788913,0.0017031688181784,0.0102795166894793,0.0038459571078419,0.0084313750267028,0.056465634224005,-0.0886259461473673,-9.809980704188348,14941.0
8.9,1.5,112.0,24.69169235229492,-0.0874695107340812,-79.78277917032462,40.4590023875796,276.41437891292566,0.0034222619142383,-0.0035892615560442,-0.995025873184204,0.0994940921664238,-0.0143018746882077,-0.0177848683037771,0.0015546320423183,0.0087643153965473,0.0056096822954714,0.0091460505500435,0.0514892288669943,-0.0720107950782403,-9.807213217020037,14941.0
9.1,1.5,112.0,24.690439224243164,-0.0795177370309829,-79.78277923408564,40.459002287796174,276.3919940607548,0.0034416175913065,-0.0035808482207357,-0.995024025440216,0.099511444568634,-0.0125440310556752,-0.0130303764846416,0.0065249114466436,-0.0064681931398808,-0.0018564938800409,-0.0089281983673572,0.0518194914842024,-0.0777359455358237,-9.80749914586544,14941.0
9.3,1.399999976158142,111.0,24.694196701049805,-0.0874695107340812,-79.78277927019725,40.45900221884129,276.36800301241874,0.0034485873766243,-0.0035409533884376,-0.9950239062309264,0.0995145291090011,-0.0119264145946893,-0.0126056202545798,0.0062137989067518,-0.004230813588947,-0.0033835533540695,-0.0027657859027385,0.0516341849975288,-0.0847208923101425,-9.808659818172456,14941.0
9.4,1.5,115.0,24.69169235229492,-0.0874695107340812,-79.78277926070204,40.45900223194139,276.3686064796448,0.003461888525635,-0.0035357719752937,-0.9950249195098876,0.0995035320520401,-0.012561780471431,-0.0146518234541439,0.0059398581914589,0.0047057121992111,0.0013020997866988,0.0022819684818387,0.0554023591708392,-0.0730310382787138,-9.807221403121948,14941.0
9.51,1.5,116.0,24.69294357299805,-0.0715659633278846,-79.78277930208691,40.45900216216496,276.34491574931144,0.0034444495104253,-0.0035467357374727,-0.99502432346344,0.0995096936821937,-0.0117324557860989,-0.0133748106504885,0.0059659009941021,-0.0009440874564461,0.0007131829042918,-0.0045887832529842,0.0522367908200249,-0.0922489723283797,-9.809840371012688,14941.0
9.7,1.600000023841858,115.0,24.687936782836918,-0.0715659633278846,-79.78277929163598,40.45900217616845,276.3455123620033,0.0034317765384912,-0.0035457357298582,-0.995023250579834,0.0995215699076652,-0.0127361418717586,-0.0150880090983311,0.0059572796126779,0.0033775868359953,0.0044019427150487,0.0097823301330208,0.0535453565698117,-0.0954297571443021,-9.81052391052246,14941.0
9.8,1.5,113.0,24.69544792175293,-0.0636141896247863,-79.78277931105791,40.45900212736088,276.3215553479194,0.0034124399535357,-0.0035639372654259,-0.9950240850448608,0.0995130911469459,-0.0151980652831884,-0.0167337387051295,0.0053365154796081,0.0081437863409519,0.0036509225610643,0.0050556818023324,0.0523360518738627,-0.0628214068897068,-9.807870444059374,14941.0
10.0,1.7000000476837158,115.0,24.68918800354004,-0.0795177370309829,-79.78277929549814,40.459002146020296,276.3220901207924,0.0034043351188302,-0.0035727689974009,-0.9950233101844788,0.099520668387413,-0.0187811038718962,-0.0185701407386865,0.0054037942289582,-0.0060821403749287,-0.0030462574213743,-0.0066389697603881,0.0521096641290932,-0.0764488454628735,-9.808381490707395,14941.0
10.1,1.600000023841858,117.0,24.68543243408203,-0.0636141896247863,-79.78277935205907,40.45900206443443,276.3013279156685,0.0034358466509729,-0.003557379823178,-0.995022475719452,0.0995287671685218,-0.0148508325851446,-0.0154374122022903,0.0088243887786896,-0.0040218038484454,-0.0041347313672304,0.0033536925911903,0.0566571076959371,-0.0761845147702843,-9.8075704818964,14941.0
10.3,1.7000000476837158,121.0,24.69544792175293,-0.0874695107340812,-79.78277944348636,40.45900196407589,276.2778298573494,0.003471222706139,-0.0035400660708546,-0.9950225949287416,0.0995268747210502,-0.0068832390940443,-0.0094313488045844,0.0079929182262277,-0.001125385868363,0.0001284827594645,-0.0015587045345455,0.0539768810849636,-0.0651185677852481,-9.806933720111848,14941.0
10.4,1.7000000476837158,121.0,24.690439224243164,-0.0795177370309829,-79.78277943753147,40.45900197348597,276.27862021493905,0.0034554472658783,-0.0035325810313224,-0.9950204491615297,0.099549151957035,-0.0078566512339681,-0.0110062128087264,0.0078873234269452,0.0028055519796907,0.0017937024822458,0.0097339320927858,0.0546952206641435,-0.0954686502646654,-9.809951468110086,14941.0
10.6,1.7999999523162842,122.0,24.694196701049805,-0.0636141896247863,-79.78277948516777,40.45900194226724,276.25545641946786,0.0034666049759835,-0.0035334283020347,-0.9950178861618042,0.0995741337537765,-0.009146735957911,-0.0166009379184823,0.0070974255810579,0.0043129073455929,0.0017546833259984,0.0090530421584844,0.0568985748616978,-0.0924821574613452,-9.808989016413689,14941.0
10.7,1.7999999523162842,125.0,24.69294357299805,-0.0795177370309829,-79.78277952041222,40.459001883068375,276.231933237791,0.0034911232069134,-0.0035222752485424,-0.9950180053710938,0.0995726138353347,-0.0114574486825415,-0.0146043210709932,0.0061651848703955,0.0062834327109158,0.0049463165923953,0.0085330121219158,0.0522398560401052,-0.0654542025318369,-9.805603478550912,14941.0
10.9,1.7999999523162842,125.0,24.687936782836918,-0.0874695107340812,-79.78277950975892,40.45900189817385,276.23254662919044,0.0035133676137775,-0.0035220035351812,-0.99501633644104,0.0995886623859405,-0.0148742602111215,-0.0164274068103482,0.0061587442760435,-0.0091719785705208,-0.0053921793587505,-0.0113095333799719,0.052287095147185,-0.0719623682554811,-9.806450740098953,14941.0
11.1,1.7999999523162842,127.0,24.69169235229492,-0.0636141896247863,-79.78277963334709,40.45900182382281,276.209194691658,0.0035539655946195,-0.0034982117358595,-0.995014488697052,0.0996060892939567,-0.0049318996421559,-0.0147230422516678,0.006004245825478,-0.0110511193051934,-0.0002797300985548,-0.0059203836135566,0.0548519808612763,-0.0839725857507437,-9.808076850771904,14941.0
11.2,1.7999999523162842,127.0,24.694196701049805,-0.0318070948123931,-79.78277963167744,40.45900183764245,276.2097753601074,0.0035573216155171,-0.0034905734937638,-0.9950150847434998,0.0996002480387687,-0.0048801868008117,-0.0167351067117943,0.0057335829965577,0.008020075969398,0.0031365510076284,0.0036668246611952,0.055610442389734,-0.076744047626853,-9.808666250109672,14941.0
11.3,1.7000000476837158,129.0,24.69169235229492,-0.0874695107340812,-79.78277971235725,40.45900177314756,276.1865534799099,0.0035872212611138,-0.0034835881087929,-0.99501234292984,0.0996269583702087,-0.0033562248803958,-0.0159922288663275,0.0057076164446455,0.0041467994451522,0.0024812931660562,0.005388586781919,0.050659280559048,-0.0835424316767603,-9.807921314835546,14941.0
11.5,1.7999999523162842,129.0,24.69169235229492,-0.0795177370309829,-79.78277971094478,40.45900178885503,276.187113227129,0.0035853085573762,-0.0034863271284848,-0.9950095415115356,0.0996547862887382,-0.0057142342723654,-0.0176602043447965,0.0056915165819219,-0.0026434294413775,-0.0037309364415705,-0.0003359841066412,0.0511957214819267,-0.088858975963667,-9.80892235815525,14941.0
11.6,1.7000000476837158,132.0,24.68668365478516,-0.0715659633278846,-79.78277974422159,40.45900172011322,276.1640727983713,0.0035770209506154,-0.0034925618674606,-0.9950104355812072,0.0996462553739547,-0.0093084054683523,-0.0150152243420521,0.0056832206925399,-0.0037170057184994,-0.0036326914560049,0.0041108503937721,0.0543580144783482,-0.0698976159095764,-9.807625445723534,14941.0
11.8,1.7000000476837158,135.0,24.69544792175293,-0.0795177370309829,-79.78277979525488,40.45900165528553,276.13976591992383,0.0035932352766394,-0.0034860342275351,-0.9950124025344848,0.099625676870346,-0.0107517658473174,-0.0147380166362208,0.0051745891764518,0.0014261089963838,0.0034482912160456,-0.0013763267779722,0.0542914019012823,-0.0658959002885967,-9.80652499973774,14941.0
11.9,1.7000000476837158,134.0,24.69544792175293,-0.0795177370309829,-79.78277978587491,40.45900167026271,276.14027202296256,0.003587557002902,-0.0034745535813272,-0.9950108528137208,0.0996419414877891,-0.0120136092393447,-0.0163364244034981,0.0050088414121665,-0.0010069845011457,-0.0028691417537629,0.0050584622658789,0.0531915543414652,-0.0947355190571397,-9.808998371958731,14941.0
12.1,1.600000023841858,134.0,24.68543243408203,-0.0715659633278846,-79.78277990922979,40.459001578409534,276.11667120623594,0.0036246858071535,-0.0034646557178348,-0.9950110912322998,0.0996385291218757,-0.0030119283169272,-0.0119769472409656,0.0050266684105949,0.0021464203018695,-0.0010095742763951,0.0071303150616586,0.0534690138604492,-0.0962533831503242,-9.81050169110298,14941.0
12.2,1.600000023841858,132.0,24.68543243408203,-0.0874695107340812,-79.78277999543022,40.45900151066396,276.0933789776564,0.0036410170141607,-0.0034485019277781,-0.995009183883667,0.0996576100587844,-0.0007761357888857,-0.0120251003168212,0.0051510254505798,0.0077538541518151,0.0023554256185889,0.0120484204962849,0.0533151909755542,-0.0620642244396731,-9.806778768897056,14941.0
12.4,1.600000023841858,130.0,24.68543243408203,-0.0795177370309829,-79.78277999652366,40.459001521570286,276.093892277956,0.0036381934769451,-0.0034310678020119,-0.9950100779533386,0.0996493399143219,-0.0040079505452525,-0.0137235750206768,0.0052964988845,-0.0085713174194097,-0.0041612591594457,-0.0129376417025923,0.0518524780031293,-0.0680547379888594,-9.80732080578804,14941.0
12.5,1.600000023841858,130.0,24.68543243408203,-0.0874695107340812,-79.78278004217546,40.45900142944443,276.07030862736696,0.0036561931483447,-0.0034255336504429,-0.9950094819068908,0.0996545329689979,-0.0073210905867057,-0.0082344400454412,0.0053579930836067,-0.0063623343594372,-0.0020295521244406,-0.0085612023249268,0.0574074379401281,-0.0846493461448699,-9.809998245835304,14941.0
12.7,1.7000000476837158,131.0,24.687936782836918,-0.0874695107340812,-79.78278003669422,40.45900143784164,276.07082405853265,0.0036671198904514,-0.0034274542704224,-0.9950105547904968,0.0996437966823578,-0.0075301277412093,-0.0102057333724544,0.0050127118195575,0.0046428255736827,0.0037512031849473,0.0022391276434063,0.0552436026977375,-0.0742089370312169,-9.807496222257615,14941.0
12.8,1.7000000476837158,135.0,24.68918800354004,-0.0874695107340812,-79.78278008310356,40.45900137965646,276.0503948645592,0.0036799702793359,-0.0034047302324324,-0.9950098395347596,0.0996513441205024,-0.0111826658990631,-0.0124581483483981,0.0096677758053211,-0.0016738421982154,0.0002720896154642,-0.0059800958260893,0.0534773552790284,-0.0933278841152787,-9.809229336977005,14941.0
13.0,1.7000000476837158,134.0,24.680423736572266,-0.0874695107340812,-79.78278007297729,40.459001393398815,276.0513537915349,0.0036764096003025,-0.0034095724113285,-0.9950085878372192,0.0996635407209396,-0.0114376035807221,-0.0140141863467377,0.009473417438042,0.0056777708232402,0.0003205940301995,0.0098599344491958,0.0547440449148416,-0.0964040585886687,-9.809640396237372,14941.0
13.1,1.7000000476837158,133.0,24.68918800354004,-0.1113248318433761,-79.78278021890371,40.45900128129416,276.0294820384979,0.0037238337099552,-0.0033900989219546,-0.9950073361396792,0.0996755585074424,-0.0007686351897505,-0.0099123290607793,0.0113562078631704,0.010080843232572,0.0052199433557689,0.0088091129437088,0.0531240966590121,-0.0614345798129215,-9.8068840187788,14941.0
13.3,1.7000000476837158,131.0,24.68918800354004,-0.0954212844371795,-79.78278027315686,40.45900119820829,276.00640632379054,0.0037344540469348,-0.0033734091557562,-0.9950059056282043,0.0996899381279945,-0.0054019991400597,-0.0080253795366433,0.0123920554885086,-0.0093062203377485,-0.0028835262637585,-0.0108313206583261,0.0528031347692012,-0.0746593325212598,-9.806817360520364,14941.0
13.4,1.600000023841858,130.0,24.680423736572266,-0.0795177370309829,-79.78278027036282,40.45900120611917,276.00762529838084,0.00374630629085,-0.0033571687527,-0.995007574558258,0.0996735990047454,-0.0047351992693655,-0.009826611071264,0.0120738254119219,0.0062389485538005,0.0041253035888075,0.0039917244575917,0.0555368222901597,-0.0821377568878233,-9.808903062343598,14941.0
13.6,1.600000023841858,132.0,24.69294357299805,-0.0715659633278846,-79.7827803047078,40.459001145563626,275.9856548102498,0.0037521822378039,-0.0033793533220887,-0.9950073361396792,0.0996746942400932,-0.0107512101827507,-0.0115540636204343,0.0124315487907086,0.0041500413790345,-0.0001011141575872,0.0020123368594795,0.0544667818257585,-0.0722899676486849,-9.807785659432412,14940.0
13.7,1.7000000476837158,132.0,24.68167495727539,-0.1033730581402778,-79.78278039818846,40.45900107979069,275.9640998950153,0.0037741432897746,-0.0033947271294891,-0.9950064420700072,0.0996821150183677,-0.0069606219762897,-0.0137811125820672,0.013317590557155,-0.0050293528474867,0.0007236874662339,-0.0045768287964165,0.0535398428281769,-0.0961156720854342,-9.810293530225756,14940.0
13.9,1.600000023841858,133.0,24.694196701049805,-0.0874695107340812,-79.7827803937964,40.45900109318629,275.9654144214392,0.0037733591161668,-0.0033998216968029,-0.9950048327445984,0.0996978506445884,-0.0071182797893688,-0.015386096298205,0.0130695865695916,0.0095652854070067,0.0013623461127281,0.0111809941008687,0.0530141004826873,-0.0986202720925212,-9.80999883055687,14940.0
14.0,1.5,135.0,24.68668365478516,-0.0795177370309829,-79.78278046741104,40.45900099924428,275.9415500208661,0.0037770164199173,-0.0034012827090919,-0.9950053095817566,0.0996930822730064,-0.0053772352725688,-0.0123599073734504,0.010539134846686,0.0067057721316814,0.0017682743491604,0.014441474340856,0.05273623439949,-0.0617412799783051,-9.806295204162598,14940.0
14.2,1.5,134.0,24.637853622436523,0.3180709481239319,-79.78278046374143,40.459001011214745,275.9425946174115,0.0037964941002428,-0.0033975723199546,-0.9950091242790222,0.0996541157364845,-0.008171032707253,-0.0141025975297025,0.0104132139550943,-0.0076078851707279,-0.0035046045668423,-0.0127539802342653,0.0531528941961005,-0.0646113583724945,-9.806485238671304,14940.0
14.3,1.5,134.0,24.676668167114247,0.2146978974342346,-79.7827805518125,40.45900094809076,275.9216055663228,0.0038181340787559,-0.0033836041111499,-0.995010256767273,0.099642738699913,-0.0059633102092155,-0.0165180609102206,0.0114563866857742,-0.0082958946004509,-0.0031002841424196,-0.0132902581244707,0.0548457088088616,-0.0761513455258682,-9.809147475957872,14940.0
14.5,1.399999976158142,128.0,24.67416381835937,0.2226496636867523,-79.78278054953849,40.4590009643586,275.9227261215374,0.0037867631763219,-0.0033783954568207,-0.9950101375579834,0.0996454358100891,-0.0050312977322061,-0.0183154293677952,0.0110961353849616,0.0101013788953423,0.0033639713656157,0.0086085135117173,0.0587927620997652,-0.0819041971676051,-9.808917680382724,14940.0
14.6,1.2999999523162842,128.0,24.680423736572266,0.2306014448404312,-79.78278076982156,40.45900081170753,275.89455099943285,0.0038428409025073,-0.003364655887708,-0.9950106143951416,0.0996384173631668,0.0136570346405912,-0.0086432362233698,0.0029832878432557,0.0096022980287671,0.0066266078501939,0.0054103517904877,0.0495679434388876,-0.0754150211904198,-9.809317045211792,14940.0
14.8,1.2999999523162842,128.0,24.672910690307607,0.2146978974342346,-79.78278084609812,40.45900069890668,275.86954430657624,0.0038342410698533,-0.0033233894500881,-0.9950093626976012,0.0996525511145591,0.0113784409835261,-0.003500732405177,0.0009800220617506,-0.0075332727283239,-0.0036097080446779,-0.0044924998655915,0.0497535879677161,-0.082434283811599,-9.80636010825634,14940.0
14.9,1.2999999523162842,129.0,24.66915512084961,0.2703603208065033,-79.78278087541581,40.45900070379879,275.8696351515054,0.0038570256438106,-0.0033409968018531,-0.9950131177902222,0.0996142923831939,0.0101457614122186,-0.0067219884833076,0.0005269923426582,-0.0031724774744361,-0.0020238959696143,0.0026716731954365,0.057146350624971,-0.0741174463788047,-9.808745772242547,14940.0
15.1,1.2999999523162842,127.0,24.67416381835937,0.3419262766838074,-79.78278095568524,40.45900061275693,275.84468703883886,0.0038663127925246,-0.0033548045903444,-0.9950146079063416,0.0995981469750404,0.0105780505931896,-0.0070874172316714,-0.0011944864414247,0.0048846919089555,0.0028657694347202,0.0004857392632402,0.0535643097711727,-0.0728731177747249,-9.808849267959593,14940.0
15.2,1.2999999523162842,125.0,24.66039085388184,0.3737333714962005,-79.78278102721137,40.4590005159228,275.8219971151948,0.0038591616321355,-0.0033490436617285,-0.9950236082077026,0.099508948624134,0.0072336139710836,-0.0056081154959549,0.0011403985962993,0.0081859361380338,0.0079828361049294,-0.0046339030377566,0.0502556627942249,-0.0963232847861945,-9.812896710634233,14940.0
15.4,1.2999999523162842,125.0,24.62658500671387,1.0575859546661377,-79.78278103584505,40.45900051857712,275.82212218809127,0.0040075173601508,-0.0031662443652749,-0.9950238466262816,0.0995063260197639,0.0061031010852846,-0.0080696834092583,7.536338034917832e-05,0.0098412949591875,0.0287604685872793,0.0075562135316431,0.0718775653559714,-0.0840478138346225,-9.820182341337205,14940.0
15.5,1.2999999523162842,123.0,24.66665077209473,0.2385532110929489,-79.78278111642368,40.45900045148212,275.79778412151336,0.0039603700861334,-0.0032315207645297,-0.995016872882843,0.0995758175849914,0.0029998123551869,-0.0109337476116782,-0.0013689515277803,0.002794450847432,0.0107857165858149,0.0142144309356808,0.0481899511395022,0.002927449629642,-9.794613052010538,14940.0
15.7,1.2999999523162842,123.0,24.33861351013184,5.653711318969728,-79.78278112489713,40.45900045856478,275.7976727502346,0.0039587188512086,-0.0032344397623091,-0.9950274229049684,0.0994704514741897,0.0051349913081884,-0.0102667828029303,-0.0002379711068065,0.0069208107888698,-0.0087283356115221,0.0082739340141415,0.0547949568042531,-0.0437698992155492,-9.819416356086732,14940.0
15.8,1.399999976158142,123.0,24.62658500671387,0.9065022468566896,-79.78278118825338,40.459000400701655,275.77312177586555,0.0040318984538316,-0.003223258536309,-0.9950268864631652,0.0994733422994613,0.0018378888863546,-0.015042830639231,-0.0025990448998694,0.0194596834480762,0.0022124904207885,0.0032398635521531,0.0385990419611334,-0.1006327832210809,-9.80576252281666,14940.0
16.0,1.5,120.0,24.66289520263672,0.1590354740619659,-79.78278119200031,40.45900041435008,275.7728675620556,0.003957375884056,-0.0032476021442562,-0.9950239062309264,0.0995060428977012,-0.0011301226244679,-0.0165055861416498,-0.0025120282727764,-0.0118349827826023,-0.0028251463081687,0.0046345801092684,0.0221054627280682,-0.0775589210819453,-9.800772508978843,14940.0
16.1,1.5,121.0,24.6653995513916,0.3498780429363251,-79.78278127037237,40.45900030770114,275.74830848145484,0.0038976715877652,-0.0032781304325908,-0.9950230121612548,0.0995152443647384,-0.0012186375158379,-0.009719712971369,-0.0024887127367738,-0.0260363928973674,-0.0208106841892004,-0.0108526591211557,0.0361490997159853,-0.0147869003238156,-9.799633471369743,14940.0
16.3,1.600000023841858,121.0,24.43376922607422,4.5643181800842285,-79.78278132227703,40.45900021554549,275.7246247844696,0.003915078472346,-0.0032762880437076,-0.9950228333473206,0.099516287446022,-0.0002614128456231,-0.0062771452147916,-0.0032636593506442,-0.0080123143270611,-0.0050255474634468,0.0092509416863322,0.0656651179958135,-0.0445904645696282,-9.809267343878746,14940.0
16.4,1.600000023841858,121.0,24.39620780944824,4.985762119293213,-79.78278132595791,40.459000221397865,275.72430889475345,0.0039620664902031,-0.0032051252201199,-0.9950257539749146,0.0994876250624656,-0.0005243012060135,-0.0096045964363973,-0.0028481126488277,-0.0020884333644062,0.0266116093844175,-0.0051674135029315,0.0561925646848976,-0.0545734843751415,-9.813256899118423,14940.0
16.6,1.7000000476837158,120.0,24.26975059509277,7.395149707794189,-79.78278140680919,40.45900016482139,275.702800812006,0.0041397884488105,-0.0031869469676166,-0.9950336217880248,0.0994027331471443,0.0018278816338129,-0.0141317675198011,-0.0023826719878684,0.0618114918470382,0.0133673567324876,0.0049949409440159,0.1218342390004545,-0.086028073914349,-9.871670583486557,14940.0
16.7,1.7000000476837158,121.0,24.199636459350582,8.587915420532228,-79.78278146989139,40.45900011139413,275.67898413705825,0.0051963352598249,-0.0030472639482468,-0.9950376152992249,0.0993174910545349,0.0038884925602424,-0.0142319218245137,0.0013023400535693,-0.0871308296918869,-0.1236658319830894,0.0689931511878967,0.1391830466128885,0.0089730914589017,-9.873685534000398,14940.0
16.9,1.7999999523162842,123.0,24.02810478210449,11.848143577575684,-79.78278147917297,40.45900012514936,275.6790764944553,0.0062388582155108,-0.0031349747441709,-0.995046615600586,0.0991638824343681,0.0214512136594409,-0.019910142709863,-0.0002540901889034,0.1617723703384399,-0.0243248101323843,-0.1596124768257141,0.1048553774133324,-0.1811567908152938,-9.831085059642794,14940.0
17.0,1.8999999761581416,121.0,23.95173072814941,13.335124969482422,-79.78278149082978,40.45900004205705,275.6582733707428,0.0097462749108672,-0.0037396056577563,-0.995018482208252,0.0991430357098579,0.0079007655139959,-0.0149088159952342,0.0051183830355948,0.0582528002560138,-0.0147825507447123,0.0517611019313335,0.068511707028374,0.1362458988279104,-9.904595085382462,14940.0
17.2,2.0,121.0,23.7639217376709,17.000892639160153,-79.78278150172059,40.45900005377953,275.65916404294967,0.0114041334018111,-0.0047028358094394,-0.9950127005577089,0.0989830493927002,0.0095512379256839,-0.0193886592019986,0.0102258864646818,0.0758906602859497,-0.007297403179109,-0.0040234732441604,-0.0446811969112604,-0.2764956785738468,-9.812521319389344,14940.0
17.3,2.0,119.0,23.686294555664062,18.5037784576416,-79.78278164938554,40.45900001249291,275.63516763019555,0.0111310072243213,-0.0059675769880414,-0.9952253103256226,0.0967837423086166,0.0080872664696375,-0.0209272482111559,0.0265104484908112,-0.1342045366764068,-0.0231468081474304,0.0930820927023887,-0.0183245069067925,-0.4082308159768582,-9.831845197677614,14940.0
17.5,2.0999999046325684,122.0,23.46343040466309,22.78183174133301,-79.78278168239251,40.45900003154175,275.63966742324834,0.0063897985965013,-0.0062853745184838,-0.9954798221588136,0.0945499092340469,0.0314523464745753,-0.0277027270087819,0.0688238661084622,-0.0764967650175094,-0.0335281044244766,0.0462081506848335,0.1506797323934734,-0.0997744119632989,-10.2200488615036,14940.0
17.6,2.0999999046325684,123.0,23.33446884155273,25.040136337280277,-79.78278188465917,40.45899994563622,275.65200016069406,-0.0059721707366406,-0.0030266153626143,-0.9957400560379028,0.0919625386595726,0.0437942477030343,-0.0243012739247223,0.349695080265503,-0.0660755485296249,-0.0975296571850776,0.0445179231464862,0.1631508201174438,-0.0128609873726964,-10.899576011896134,14940.0
17.8,2.0999999046325684,122.0,23.66751480102539,18.328838348388672,-79.78278199409026,40.45899991045695,275.6521043794155,-0.0050239283591508,-0.0023400408681482,-0.9956799149513244,0.0926868095993995,0.0473333589453365,-0.03143628755838,0.3450368240044655,0.0054749366827309,0.0212980341166257,-0.0528319180011749,0.0741923592612147,0.1644949488155543,-10.270565296411515,14940.0
17.9,2.200000047683716,122.0,23.74138641357422,17.215591430664062,-79.7827821154452,40.45899995233188,275.7132871614694,-0.0038339521270245,-0.0003799877013079,-0.995553195476532,0.0941221565008163,0.0402315476303057,-0.0247106402193774,0.2432233757244193,-0.0732169076800346,-0.0715221166610717,-0.0106711219996213,0.0309478689171373,0.0066972363553941,-9.680525688529016,14940.0
18.11,2.299999952316284,121.0,23.60491180419922,19.60112190246582,-79.78278215147391,40.458999947927154,275.667062641859,-0.0046585546806454,0.002300776541233,-0.995449721813202,0.0951470360159874,0.0565708942628364,-0.0213977995649686,0.1165770611290797,0.044042482972145,-0.0154059482738375,-0.010907263495028,0.0439721854683011,0.063813355048187,-9.2592145049572,14940.0
18.2,2.299999952316284,120.0,23.5886344909668,19.67268943786621,-79.7827822877238,40.45899979726534,275.68065196442603,-0.0057314354926347,-0.0003422119189053,-0.9953563809394836,0.0960876643657684,0.0685244966924813,0.0138048957955422,0.0696054798517703,0.0036768487188965,0.0400245785713195,0.0078171892091631,0.064470417634584,0.2215803833305836,-9.365160205364226,14940.0
18.4,2.400000095367432,120.0,23.56234169006348,19.839675903320312,-79.78278235988097,40.45899977476186,275.6873360888958,-0.0083445822820067,-0.0036265552043914,-0.995310127735138,0.0963071510195732,0.0675933572610333,0.0173223767345698,0.0592044848071733,0.0144758308306336,0.0319544859230518,-0.0450834669172763,0.1299731337837875,-0.0120810122019611,-9.654067622423172,14940.0
18.5,2.400000095367432,120.0,23.55107307434082,20.54738426208496,-79.78278254381775,40.45899966461104,275.70245453882217,-0.0136511772871017,-0.007860661484301,-0.9951788783073424,0.0968041568994522,0.0464278170927052,0.0059038793784014,0.0942561602927824,-0.1097202599048614,0.0228347834199666,0.0180694106966257,0.17125643145293,-0.0982932482846081,-9.81576184630394,14940.0
18.7,2.400000095367432,121.0,23.529788970947266,19.951000213623047,-79.78278259400777,40.45899965500878,275.7132167385816,-0.0133712794631719,-0.0077859512530267,-0.9952012300491332,0.0966187641024589,0.0347489476214414,0.0073799646212779,0.1238049599058492,-0.0676345452666282,-0.1042444854974746,-0.0438883006572723,0.069924038015306,0.1516245145350694,-10.076185137033464,14940.0
18.8,2.400000095367432,121.0,23.543561935424805,20.284975051879886,-79.78278273255414,40.45899958775275,275.72785593736165,-0.0111506590619683,-0.001616071909666,-0.9954196810722352,0.0949356481432914,0.0315426601716373,-0.0112533482699131,0.1395180320551918,0.0749950259923935,-0.0223333202302455,0.0981807485222816,0.0864348208531737,0.1180266783479601,-9.913095767498016,14940.0
19.0,2.400000095367432,122.0,23.5147647857666,20.34063720703125,-79.78278275315803,40.45899960022672,275.7423721717596,-0.0104230903089046,-0.0043122554197907,-0.9955351948738098,0.0937153175473213,0.0214649105887849,-0.0231106489600458,0.1523365972087598,0.0189099069684743,0.1141122430562973,0.085609532892704,0.0040577792271506,0.1379037671908736,-9.913310945034029,14940.0
19.1,2.400000095367432,122.0,23.43212890625,21.68448829650879,-79.78278273524276,40.45899957186601,275.7588782029152,-0.0083792153745889,-0.0038630517665296,-0.9958191514015198,0.0908796116709709,-0.0238024093659444,-0.0244614950098415,0.1894667433248734,-0.0672090798616409,-0.0414174273610115,0.1042336896061897,0.0945430725719779,0.1154334382060915,-9.922669998407365,14940.0
19.3,2.5,122.0,23.36076164245605,23.219179153442383,-79.78278291106167,40.45899953101525,275.7600406424999,-0.0083718355745077,-0.0017849575961008,-0.9958785772323608,0.0902919471263885,0.0039693480671538,-0.0201016073577802,0.2046837067667454,0.0333853960037231,0.0007231881609186,0.0847790315747261,0.0270379591500386,0.1126057155802846,-9.96501085639,14940.0
19.4,2.5,123.0,23.43964195251465,21.37436866760254,-79.78278291404965,40.4589995486615,275.78187114167207,-0.0079873707145452,-0.0009213359444402,-0.9958549737930298,0.0905994921922683,-0.000300504628348,-0.027478010072552,0.2373850374864793,0.0022136259358376,0.0549900345504283,0.0056190667673945,-0.0303198596835136,0.1322364082373678,-10.1199796128273,14940.0
19.6,2.5,126.0,24.33861351013184,5.534434795379639,-79.78278285596103,40.45899950570284,275.80701263415807,-0.0097106136381626,0.0004062495718244,-0.9956521391868592,0.0926416218280792,-0.0084176112844532,-0.0240337074495179,0.3062610711125475,0.0142979510128498,0.036795537918806,-0.113857977092266,-0.0350155644281767,0.1611379344016313,-10.227830336093904,14940.0
19.8,2.400000095367432,126.0,23.363265991210927,21.787860870361328,-79.78278287920433,40.45899948609737,275.83082317727803,-0.0107660107314586,0.0005390949663706,-0.9954437017440796,0.0947403609752655,-0.0041859992983841,-0.0177114133347661,0.063449901665051,0.078358419239521,0.0053815995343029,-0.0564253218472004,0.0051812731783138,0.3113510772585869,-8.786634934544564,14940.0
19.9,2.400000095367432,120.0,23.22804450988769,24.658451080322266,-79.78278287543353,40.45899949997767,275.83586257863044,-0.0064267576672136,0.0027492109220474,-0.9954053163528442,0.0954955592751503,-0.0073955500111759,-0.0182571721316271,0.0498609082820773,0.091512531042099,-0.0226319171488285,0.0672354623675346,-0.0026436746609397,0.0829417764488607,-9.549839249253273,14940.0
20.0,2.5,122.0,23.04023742675781,27.55289649963379,-79.78278296893808,40.45899941255846,275.8702182190418,-0.0044130650348961,0.0055230916477739,-0.9953317046165466,0.0962546020746231,0.0022359851522723,-0.0093305855171522,0.3019302364328748,-0.0135305877774953,0.1018376424908638,-0.0894764810800552,-0.0236658242018893,0.1800647502020001,-10.263619973659516,14940.0
20.2,2.5,120.0,22.98639869689941,29.26252746582031,-79.78278296849115,40.4589994102756,275.90978645141416,-0.0058786808513104,0.0041358727030456,-0.9952770471572876,0.0968095362186432,0.004060158408927,-0.0025993440579545,0.4905418588356993,-0.0421279557049274,-0.002458993345499,0.0249898824840784,-0.0811256404034793,0.0393123200442642,-11.55248312830925,14940.0
20.3,2.5,119.0,23.00142288208008,28.936504364013672,-79.78278302548493,40.45899934226003,276.011269764781,-0.0119002340361475,0.0034246342256665,-0.9950681924819946,0.0984182804822921,0.0087253067861558,0.0177277930593105,0.8717078298059227,-0.0846268907189369,0.0409593135118484,-0.0231828186661005,-0.0781482930108904,0.2143035051785409,-11.712179943323136,14941.0
20.5,2.5999999046325684,116.0,22.910024642944336,30.53481101989746,-79.78278300841153,40.45899931771897,276.1095853613615,-0.0141025371849536,0.0036434172652661,-0.9950073957443236,0.098732866346836,0.0110212651763482,0.0245904550919311,1.0969192721653305,-0.0893085971474647,-0.009683409705758,-0.0232363324612379,-0.032196372798644,0.2316254612803459,-12.025609413385393,14941.0
20.6,2.700000047683716,115.0,23.05025291442871,27.60060691833496,-79.7827830245784,40.45899925107485,276.2071094231605,-0.0137978689745068,0.0023351977579295,-0.9950421452522278,0.098465234041214,0.0117349570105277,0.0276887290983669,1.3153725336121032,-0.0385713502764701,0.0120967682451009,0.0103157060220837,-0.1430965789128095,0.2093508221581578,-12.084751660823825,14941.0
20.8,2.700000047683716,115.0,22.799842834472656,32.14902114868164,-79.78278293957261,40.458999135583184,276.4779552536011,-0.0114037375897169,-0.0023846193216741,-0.9952170252799988,0.096991941332817,-0.0038982545457172,0.0370781616263305,1.7091062604075802,-0.0993846654891967,-0.0020667188800871,0.0009863434825092,-0.0024616869259625,0.15659154150635,-11.994836686849595,14941.0
20.9,2.799999952316284,115.0,22.83990859985352,31.353843688964844,-79.78278288033714,40.458999108462415,276.661078186512,-0.0114574655890464,-0.0050854738801717,-0.9953567385673524,0.0954356044530868,-0.0034096383403047,0.0423768571385617,1.9581004516555736,-0.0431813113391399,-0.0400851964950561,0.0185679271817207,-0.0256034452887252,0.1225469140894711,-12.266350976228717,14941.0
21.0,2.799999952316284,114.0,22.837404251098643,31.31408500671387,-79.78278281210117,40.45899908701314,276.86970523166656,-0.0126651041209697,-0.0054617472924292,-0.995524287223816,0.0934943482279777,-0.0031293114090512,0.0490118463934333,2.2101395136531714,-0.0088964281603693,0.0051786587573587,0.1068059653043747,0.0838616805151105,0.15155771009624,-12.323327414989476,14941.0
21.2,2.900000095367432,113.0,22.97638320922852,28.24470138549805,-79.7827824001513,40.45899889409744,277.45264902877807,-0.0104362675920128,-0.0058116591535508,-0.9957599639892578,0.0912115946412086,-0.0350820773954075,0.026838858631401,2.7677772215079925,0.1039483398199081,0.0918131694197654,0.0115059642121195,-0.0457108322018757,0.0523853786196559,-12.261396045684814,14942.0
21.4,3.0,114.0,23.08531188964844,26.42374420166016,-79.78278226486978,40.45899891199385,277.7357372360229,-0.0077828224748373,-0.0083484053611755,-0.9957156181335448,0.0917621552944183,-0.0504722659833736,0.0255984087920211,2.8885661267021536,0.0913440063595771,0.0933204442262649,0.0491906255483627,0.0124932363373227,0.0051052131224423,-11.204879021644595,14942.0
21.5,3.0999999046325684,117.0,23.151670455932607,24.984474182128903,-79.7827821246003,40.45899894211944,278.02888027000427,-0.0043048621155321,-0.0092534460127353,-0.9956949949264526,0.0921270325779914,-0.0730873070482991,0.025430652626972,2.974000389837397,0.0870053842663765,0.0411160103976726,-0.0050676157698035,0.0478609767369926,0.0892905187513679,-10.82868904709816,14943.0
21.7,3.2000000476837163,121.0,23.169198989868164,24.66640281677246,-79.78278161847972,40.45899880394823,278.4418312625885,-0.0011992953950539,-0.0110702831298112,-0.9956982135772704,0.0919849947094917,-0.1223440159656242,0.0103978881595817,2.9207931888387644,0.07956113666296,0.0665171667933464,-0.0009177398169413,0.0269173603272065,0.1973109665885568,-10.110745689868928,14943.0
21.8,3.2000000476837163,124.0,23.17295455932617,24.157489776611328,-79.7827811656397,40.45899863007278,278.46361771392816,-4.880296182818711e-05,-0.0098176589235663,-0.995689570903778,0.0922283753752708,-0.1524877767002279,0.0062898579744091,2.738782822359917,-0.0907674580812454,-0.0451644137501716,-0.0034750525373965,-0.0255187794333323,0.1367607370298356,-9.819514589309694,14943.0
22.0,3.299999952316284,126.0,23.18297004699707,23.799659729003903,-79.78278085236222,40.45899880527673,279.00922051239013,0.0056903455406427,-0.00777093693614,-0.995608389377594,0.0931195616722107,-0.1601689068419225,-0.0440257818868863,2.728870326442017,-0.0178788304328918,-0.0840037316083908,-0.0594247616827488,-0.0073510686977533,0.116131897252053,-9.809150984287262,14944.0
22.1,3.299999952316284,128.0,23.21051597595215,23.322553634643555,-79.782780182147,40.458998865169896,279.15126171875,0.0059128901921212,-0.0103575466200709,-0.9954771995544434,0.0942500084638595,-0.1644228726849427,-0.0780809045815004,2.5049039026874365,-0.0713098123669624,0.0379739962518215,-0.0933502465486526,-0.0748759672930464,-0.0728875165432691,-9.760696277618411,14944.0
22.31,3.5,131.0,23.19799613952637,22.400146484375,-79.78278016003927,40.4589986123256,279.25112739372247,0.0027870796620845,-0.0121058151125907,-0.9954014420509338,0.0949827209115028,-0.1203645967831644,-0.0685071996370318,2.420266528136948,0.0133781330659985,0.0664702579379081,0.014425303786993,0.0266933891270309,-0.048123370539397,-9.89474954366684,14944.0
22.4,3.5,132.0,23.20050048828125,23.8076114654541,-79.78278007479595,40.45899874277593,279.4930874423981,0.0002968143380712,-0.0113545525819063,-0.995350420475006,0.0956484973430633,-0.1003519002361683,-0.080971486809127,2.416925835582476,-0.0763363763689994,-0.058393720537424,-0.0113107105717062,-0.0024926063627935,0.1519823184516281,-9.763098313808444,14944.0
22.6,3.5999999046325684,134.0,23.14040184020996,24.2052001953125,-79.78277969920225,40.45899885099384,280.06779661941533,0.0036865663714706,-0.0018603969365358,-0.9954578280448914,0.0951147153973579,-0.0923150241581025,-0.1021827029925211,2.3988624384372765,-0.0062673659995198,-0.1537638753652572,0.0126494979485869,0.0159721606294624,0.2154499979875982,-9.652274866104127,14945.0
22.71,3.5999999046325684,132.0,23.204256057739247,23.50544357299805,-79.78277964343263,40.458998986894,280.30699339675897,0.0045331809669733,0.0025746887549757,-0.9955713748931884,0.0938651487231254,-0.0851361959071886,-0.12820087417165,2.385271999093422,-0.0427481941878795,-0.1143631711602211,0.0578498914837837,-0.0606391209410503,-0.0342763598822057,-9.68440005362034,14945.0
22.8,3.5999999046325684,126.0,23.18046760559082,23.48158836364746,-79.7827796425261,40.45899913570933,280.7200178222656,0.0034676904324442,0.0026823813095688,-0.995716631412506,0.0923537015914917,-0.0516498841696933,-0.1499736291051422,2.441351688544497,0.1440802216529846,0.0777211487293243,0.050411619246006,0.0961034477502107,0.1076537817344069,-9.59916811466217,14945.0
23.0,3.5999999046325684,125.0,23.03898429870605,25.76374816894531,-79.78277962219626,40.45899937287301,281.20445338058465,-0.0032964639831334,-0.0021913186646997,-0.9958006739616394,0.091463066637516,-0.0422494461496934,-0.1223013544637942,2.4114671237234617,-0.2268446832895279,0.0911411717534065,-0.0335197672247886,0.0394705557497218,0.1606720392219722,-9.704123296737672,14946.0
23.2,3.5999999046325684,120.0,23.121620178222656,24.24495887756348,-79.78277965130593,40.458999845536944,281.86014834213256,-0.0057920981198549,-0.0058015757240355,-0.9955614805221558,0.0937562882900238,0.0414838573940176,-0.1002874920754097,2.4976834786351256,0.1931812465190887,-0.0042184395715594,-0.0355019606649875,0.198024655804038,0.0259353752760216,-9.950376445055008,14946.0
23.3,3.5,119.0,23.12036895751953,24.05411529541016,-79.78277996242466,40.45900003726263,282.2962040023804,-0.0033826373983174,-0.0052834441885352,-0.9954701066017152,0.0948685258626938,0.041129150729701,-0.106715784849964,2.5786369202533472,0.0806975439190864,0.0332029983401298,0.0596503801643848,0.1126101375371217,0.1082105097547173,-9.90390511393547,14947.0
23.5,3.5999999046325684,115.0,23.22929763793945,22.209304809570312,-79.7827800402753,40.45900026076877,282.81333819198613,-0.002500825561583,-0.0022643331903964,-0.9952946305274964,0.0968362987041473,0.0350816828575771,-0.1040624296307682,2.588794972057444,0.0286111980676651,-0.0613688677549362,-0.1062057167291641,0.1129268190823495,0.1919726779684424,-9.844554705619812,14947.0
23.6,3.5,114.0,23.052757263183597,25.44567680358887,-79.7827802756656,40.45900051978914,283.5229181365967,-0.0029653804376721,-0.0005059715476818,-0.9951674938201904,0.0981465652585029,0.0560460112687196,-0.1105043145081642,2.640967804049606,-0.0536403469741344,-0.0541973859071731,0.0055352924391627,0.0552978584636002,0.1633137747086584,-9.648329164981842,14948.0
23.8,3.5,108.0,23.12412452697754,24.02230834960937,-79.78278050488031,40.45900066644453,283.9814523773193,-0.004179133567959,0.0007715206593275,-0.9951410293579102,0.0983682945370674,0.0842163296590409,-0.1090332182828841,2.7264244618537945,0.0278035774827003,-0.0643626973032951,-0.0152079947292804,0.112888264004141,-0.0024869704234879,-9.832627555131912,14948.0
23.9,3.400000095367432,106.0,23.22554016113281,21.98665428161621,-79.78278059851137,40.45900075949389,284.25324478912347,-0.0057496195659041,0.0013285690220072,-0.995147705078125,0.0982162207365036,0.0856273795292191,-0.1074735641727038,2.71097462814508,0.00039026257582,-0.0776915550231933,0.029894920065999,0.1046935191750526,0.0992908837739378,-9.727432052493096,14949.0
24.1,3.299999952316284,100.0,23.22804450988769,21.68448829650879,-79.78278102659297,40.45900097163665,285.0172170715332,-0.0087437061592936,0.0014647742500528,-0.9952433705329896,0.0970160737633705,0.1267381331303159,-0.0909844777829374,2.7611823560483835,0.0392714366316795,-0.0044689928181469,0.0912830531597137,0.0570845894096419,-0.1164141533151269,-9.557873908281326,14950.0
24.2,3.0999999046325684,101.0,23.07028579711914,24.65049934387207,-79.78278141611186,40.45900117165112,285.7782911376953,-0.0081807961687445,-0.0005430337623693,-0.9954431653022766,0.0950042456388473,0.1230831042847572,-0.0616278033171521,2.7950348852599154,0.0907052308320999,-0.0003628172271419,0.0136256301775574,0.0380227714497596,-0.1018441892601549,-9.47428152859211,14950.0
24.4,2.900000095367432,107.0,23.230548858642567,21.64472770690918,-79.78278149651481,40.45900120767581,286.0578989105224,-0.007338517345488,-0.0006429813802242,-0.9954821467399596,0.09466353058815,0.11066975314012,-0.0471846493465848,2.7933382590566533,0.1495953202247619,0.0135733084753155,-9.76254596025683e-05,0.1289125950448215,0.0017700983583927,-9.732719104886057,14951.0
24.5,2.799999952316284,111.0,23.159181594848643,23.219179153442383,-79.78278188348703,40.45900134834138,286.80902615356445,-0.0059797964058816,-0.0006564235663972,-0.9954142570495604,0.0954689159989357,0.0719490168271086,-0.033046065587258,2.8167490923646654,-0.0144527852535247,-0.0362998023629188,-0.0375825688242912,0.128272535065189,0.0729134589945897,-9.544027116894725,14951.0
24.7,2.5,116.0,23.07028579711914,24.23700714111328,-79.78278195060848,40.459001378256566,287.0899652557373,-0.0061938879080116,-0.0019025290384888,-0.9953346252441406,0.0962654054164886,0.0662713395413796,-0.0238497587750206,2.8037470074107995,-0.0320934206247329,-0.0013401525793597,-0.0291186161339283,0.119741420019418,0.007886788425967,-9.645240080952645,14952.0
24.8,2.299999952316284,120.0,23.1003360748291,23.990501403808597,-79.78278201628373,40.45900147485453,287.54356041717534,-0.0061003444716334,-0.0034022917971014,-0.9952554702758788,0.097045712172985,0.0839384796956824,-0.012599841491067,2.8892691461853017,0.1287034004926681,0.0717405155301094,0.0979698076844215,0.1754897790402174,-0.3061508560180664,-9.85695080280304,14952.0
25.0,2.200000047683716,129.0,23.056514739990234,24.87314796447754,-79.78278206909489,40.459001484944686,288.12485543060296,-0.0051988647319376,-0.0023867457639426,-0.995146870613098,0.0982343032956123,0.0413244993282139,0.0074090007086501,2.9216674712799,-0.0006584448856301,0.047057457268238,0.0131283728405833,0.1500726452283561,0.063615184687078,-9.977509864568711,14953.0
25.1,2.200000047683716,131.0,23.09031867980957,23.65652656555176,-79.78278220522813,40.459001619993785,288.55279103088384,-0.0039939004927873,-0.0030846795998513,-0.9951273798942566,0.0984694436192512,0.0341835362713149,0.0005527920617149,2.9963238409955264,-0.0684678480029106,0.0351645722985267,-0.0500223711133003,0.0576222089119255,0.1766740412078798,-9.913838363885883,14953.0
25.3,2.200000047683716,142.0,23.14916610717773,22.85339736938477,-79.78278220302157,40.45900159868623,289.21692124176025,-0.0012342334957793,-0.0001513713941676,-0.995110273361206,0.0987629741430282,0.01485688811615,0.0282120100248506,3.012210066753887,-0.0729439333081245,-0.0591384433209896,-0.05498568713665,0.0597654829686507,0.1828700980916619,-9.68076016187668,14954.0
25.4,2.200000047683716,148.0,23.04399299621582,24.55507850646973,-79.7827822015613,40.459001585176296,289.5161975936889,-0.0024770188611,0.0007665730663575,-0.9951106905937196,0.0987325459718704,-0.0043569525078675,0.0202373338979957,2.9785253485977115,-0.1617012023925781,-0.0761085599660873,-0.0579140894114971,-0.0167936190543696,0.0539180708862841,-9.545190712809562,14954.0
25.6,2.0999999046325684,155.0,23.05025291442871,24.29266929626465,-79.78278202127728,40.459001577213066,290.1733049468993,-0.0042664157226681,-0.0026924414560198,-0.9951692223548888,0.0980444401502609,0.0254758192467886,0.0372395408537359,2.9718381896028925,0.1158717423677444,0.0010101026855409,0.0488040074706077,0.0887897138670087,0.0540094153583049,-9.64018867135048,14955.0
25.7,2.200000047683716,158.0,23.036481857299805,24.276765823364247,-79.78278199893064,40.45900154776756,290.47021237182616,-0.0027310063596814,-0.0025672761257737,-0.9952428936958312,0.0973532199859619,-0.0013635550855568,0.0516315342883594,2.971634153039631,-0.091913916170597,-0.0643267259001731,-0.0544811077415943,0.0746035738382488,0.1581758994050324,-9.75428246676922,14955.0
25.9,2.400000095367432,158.0,23.14165306091309,22.43195343017578,-79.78278193170519,40.459001602359606,291.11837425994867,-0.0030995672568678,-0.0029359837062656,-0.9953632950782776,0.0960924848914146,-0.0041712762887893,0.0446017358930994,3.0014494727851737,0.018518391996622,0.0659886300563812,-0.0397225804626941,0.0393465765053406,0.0448279528878629,-9.80178407728672,14956.0
26.0,2.5,158.0,23.258094787597656,20.436058044433597,-79.78278175576541,40.45900163560759,291.7567047195434,-0.0020825380925089,-0.0009919309522956,-0.9952553510665894,0.0972702056169509,-0.0269634298575784,0.0471014705742076,2.958729985219817,-0.0178439449518919,-0.070359319448471,-0.0251494739204645,-0.0016285728989169,0.1308406961336732,-9.682778035998345,14956.0
26.2,2.700000047683716,159.0,23.102840423583984,22.90110969543457,-79.78278170590569,40.45900161192536,292.0501398162842,-0.0017875522607937,0.0002778673951979,-0.9951845407485962,0.0980027392506599,-0.0416913103288144,0.0363333188600556,2.9136664522342177,-0.1255536526441574,0.0376646146178245,-0.0116773219779133,0.0109384548431262,0.1180250886362046,-9.402123963832857,14957.0
26.3,2.799999952316284,163.0,23.00518035888672,24.97652244567871,-79.78278156782031,40.4590016500998,292.39403668212884,-0.0028113785665482,-0.0002500497503206,-0.9951257109642028,0.0985741391777992,-0.0425904787402626,0.0432964268539894,2.9125909407646344,-0.1239088401198387,0.0679940357804298,-0.0136037496849894,0.0043617579247802,0.1181457696855068,-9.400045278668404,14957.0
26.5,2.900000095367432,161.0,23.036481857299805,24.29266929626465,-79.78278142187844,40.4590015837866,292.97232189941406,-0.0049368604086339,-0.0022566732950508,-0.9950542449951172,0.0991850867867469,-0.0350265954762281,0.0518993866055082,2.892382663636527,0.0291547235101461,0.0376982130110263,-0.0125548522919416,0.0074867749214172,-0.00122094773571,-9.79490775167942,14957.0
26.6,2.900000095367432,161.0,23.059017181396484,23.903032302856445,-79.78278126827124,40.45900168212717,293.305127532959,-0.0037284130230546,-0.0035621742717921,-0.9950329661369324,0.0994130223989486,-0.0508480701772212,0.0584424144523518,2.9205613402934127,-0.0738034695386886,0.0095189651474356,-0.0738146901130676,0.0488334463583305,0.2403760753199458,-9.796487669348716,14958.0
26.8,2.799999952316284,163.0,23.015195846557607,24.66640281677246,-79.78278106375727,40.459001651027336,293.91814747619634,0.0014175873948261,-0.0022473107092082,-0.995047390460968,0.099366545677185,-0.0537059634741029,0.0800995836622502,2.912441264796658,0.0944747477769851,-0.0095010362565517,-0.0307297073304653,0.0846595056820661,-0.0702585855452343,-9.781559143066406,14958.0
26.9,2.799999952316284,163.0,23.032724380493164,23.767852783203125,-79.78278096685574,40.45900161147769,294.2093195037842,0.0037619054783135,-0.0008516670204699,-0.9950824975967408,0.0989742651581764,-0.0768867552995907,0.0740282002028629,2.912900354193116,0.0588284283876419,-0.1075657829642295,0.0264527723193168,0.0708884677151218,-0.0834986323770135,-9.831064009666443,14959.0
27.0,2.900000095367432,163.0,23.06027030944824,23.51339530944824,-79.78278087542284,40.45900156916153,294.501265914917,0.0045947870239615,-0.0005955816013738,-0.9951255321502686,0.0985079258680343,-0.0777876035291794,0.0693894941291953,2.924107723444888,0.0650476589798927,0.0467643402516841,0.0779501274228096,0.0202664882806129,-0.1893054705485701,-9.88557292342186,14959.0
27.2,2.900000095367432,163.0,22.98389434814453,24.55507850646973,-79.78278071582984,40.45900162297903,295.10920849609374,0.0022191894240677,-0.0039936960674822,-0.995151937007904,0.0982440263032913,-0.0698710437568029,0.0622455319211215,2.9397124285783898,-0.0010878227185457,0.0920018926262855,0.0512832924723625,0.1085256381332874,-0.0219190210592933,-9.899458891153335,14960.0
27.41,2.900000095367432,166.0,22.98389434814453,24.411945343017567,-79.78278048272202,40.45900161621039,295.7132524566651,0.0004748538194689,-0.0064269420690834,-0.9951667785644532,0.0979879796504974,-0.0552876595931011,0.0845562323569078,2.949664468964473,-0.0410238243639469,-0.0381091013550758,-0.0095763243734836,0.0642868059268221,-0.0744838977791369,-9.835379254817962,14960.0
27.5,2.900000095367432,166.0,22.967618942260746,25.00832939147949,-79.78278041165406,40.45900158624742,296.0085233764648,0.0006118433666415,-0.005792983341962,-0.995165765285492,0.0980371311306953,-0.0467562445512578,0.0776229601527088,2.9567649222234853,0.0881004929542541,0.0127648347988724,0.020392257720232,0.0586645025108009,-0.0118067892082035,-9.91454704642296,14961.0
27.7,2.799999952316284,165.0,23.05526161193848,23.13966178894043,-79.78278013756614,40.45900160859149,296.612141998291,0.0018993839621543,-0.0044000749476254,-0.9951449036598206,0.0983048677444458,-0.0502362686152261,0.0617372497026663,2.9812247177349227,0.0811362043023109,0.022028686478734,0.1037051230669021,-0.0007388436631299,-0.164750289414078,-9.887619448900224,14961.0
27.81,2.900000095367432,165.0,22.967618942260746,24.84134101867676,-79.78278002091102,40.45900165912879,297.2142595367432,0.0009881051955744,-0.0031321651767939,-0.9951708912849426,0.0981032997369766,-0.0485300088005925,0.0479877733215748,2.986083565630044,0.0786604806780815,-0.023242762312293,0.0683792382478714,0.0262154523376375,-0.0608752251137048,-9.952703636884689,14962.0
28.0,3.0,161.0,23.11160469055176,22.12978744506836,-79.78277996727627,40.459001645790096,297.5128225402832,0.0018438335973769,-0.0037557776086032,-0.9952000975608826,0.0977717265486717,-0.048507895831423,0.040141327097641,2.9803476764834147,-0.0433697216212749,0.0753667801618576,-0.0164743661880493,0.0390604146849364,0.1275561780575663,-9.743050550222398,14962.0
28.1,3.0,161.0,23.099082946777344,22.36833953857422,-79.78277989273684,40.459001768867104,297.815553100586,0.0021011766511946,-0.0045262370258569,-0.9952196478843688,0.0975348129868507,-0.0497774669815619,0.0374857220333444,2.942629769924173,-0.1051432341337204,-0.0014937376836314,-0.018272265791893,0.0523016857774928,0.056744573819451,-9.543219031691551,14962.0
28.3,3.0,159.0,22.94758605957031,25.14350891113281,-79.78277977124421,40.459001922256775,298.41611424255365,0.0010002073831856,-0.0040810322389006,-0.9952495694160458,0.0972658321261406,-0.0406603869125202,0.0210265399337844,2.8963305252271128,-0.1024409458041191,0.005173719022423,-0.0030206204392015,0.044080043756403,0.0568493851600214,-9.585300858020783,14963.0
28.4,3.0999999046325684,158.0,22.998918533325195,23.91893577575684,-79.78277973753167,40.45900193286654,298.7059148864746,-0.0002324046363355,-0.0030275988392531,-0.9952267408370972,0.0975434631109237,-0.0352776546416919,0.0150815933989652,2.9034416109994696,-0.1043861806392669,-0.011598159559071,0.0353898666799068,-0.0321231980924494,0.022651642919518,-9.789935279488564,14963.0
28.5,3.0,159.0,23.045246124267567,23.131710052490234,-79.78277970782469,40.459001950290585,298.99706784057616,-0.0008224303019233,-0.0017794712912291,-0.9951686263084412,0.0981608629226684,-0.0320328263135737,0.0040013110958151,2.923348153861938,-0.0746671259403228,-0.0642087012529373,-0.1168545857071876,-0.0296017211023718,0.0662965533323586,-9.969438368082049,14963.0
28.7,3.0,160.0,22.990154266357425,23.942790985107425,-79.78277960378067,40.45900213978197,299.892508895874,0.0002525687159504,-0.0005916540394537,-0.9950201511383056,0.0996719077229499,-0.0419863317654526,-0.0008783019286161,2.914735263951574,-0.1002401337027549,-0.0718603730201721,-0.0698188915848732,-0.0369920215336606,0.0684102212917059,-9.698530434966088,14964.0
28.9,2.900000095367432,159.0,22.95885467529297,24.642547607421875,-79.78277957348902,40.45900215034102,300.1837991790772,0.0001797922595869,-0.000717022572644,-0.994966685771942,0.1002039313316345,-0.0284732958509413,-0.0013925953178211,2.9147072794010245,-0.0108620719984173,0.0205134339630603,-0.0061516482383012,0.0069607744761742,-0.04658830284141,-9.81144426226616,14965.0
29.0,2.799999952316284,161.0,23.079050064086918,22.630748748779297,-79.78277954077437,40.45900216202996,300.4755643920898,0.0003788060857914,-0.0015545120695605,-0.994918942451477,0.100666806101799,-0.0312872853034059,-0.002186297500684,2.9221064323786528,-0.0131089426577091,0.0031606776174157,0.0153900189325213,-0.0510088298516348,-0.009152372572571,-9.82932972550392,14965.0
29.2,2.799999952316284,162.0,22.98514747619629,24.14953804016113,-79.78277943945695,40.45900228248513,301.06279698181146,0.0025310381315648,-0.0028570580761879,-0.9947888851165771,0.1018850728869438,-0.0257105707756011,0.0029743823638715,2.904683689477775,0.1755479574203491,0.0140668684616684,0.047168843448162,0.0644897865364328,-0.2615759596601129,-9.833873012065888,14966.0
29.3,2.799999952316284,165.0,22.93756866455078,25.087846755981445,-79.78277932469075,40.45900235698968,301.6527685241698,-0.0002196315472247,-0.0040590432472527,-0.994706392288208,0.1026775166392326,-0.0442216694915004,0.0156585356208314,2.9502597364945227,-0.0441888496279716,-0.0334381535649299,0.0696318447589874,0.0421318748407065,0.0275163390487432,-9.959396359920502,14966.0
29.5,2.799999952316284,167.0,23.045246124267567,23.17942047119141,-79.78277927961658,40.459002369704656,301.94813481140136,-0.000426572310971,-0.0033389090094715,-0.9947229623794556,0.1025425568222999,-0.035286679000576,0.01549239768656,2.953265107139956,0.0407269150018692,-0.0097784949466586,0.0247212592512369,0.0589893199084326,-0.0452289165649563,-9.890179359912873,14966.0
29.6,2.700000047683716,169.0,22.925048828125,24.88109970092773,-79.78277921725116,40.45900247693438,302.2409090118408,0.0016453429125249,-0.0022634640336036,-0.9948095679283142,0.101716086268425,-0.0298776800749522,0.0083946203987097,2.935179542171263,0.1708171516656875,-0.0125710628926754,0.0458834469318389,0.0702156816003844,-0.14421794696711,-9.82823044896126,14967.0
29.8,2.700000047683716,172.0,23.0076847076416,23.84737014770508,-79.78277908872704,40.45900264062493,302.8285669403076,0.0041053798049688,-0.0032276697456836,-0.995037078857422,0.0993681922554969,-0.0780144551194318,-0.0062880640559854,2.93587727930628,-0.1247155964374542,-0.002064956119284,-0.0356020517647266,0.0813654127903282,0.1108011551946401,-9.787785843014715,14967.0
29.9,2.700000047683716,173.0,22.98138999938965,23.84737014770508,-79.78277904298528,40.459002672232,303.12120190429687,0.004366161301732,-0.0037872388493269,-0.9951196312904358,0.0985068827867508,-0.0698907583392734,-0.0114876093871241,2.9219299604656923,-0.0250352919101715,0.0475485734641552,0.0405576452612876,0.0113273746264167,-0.0664435605565086,-9.735419349074364,14968.0
30.0,2.700000047683716,178.0,23.041488647460927,22.94086837768555,-79.78277899748808,40.45900271248401,303.4134878234863,0.0042865648865699,-0.0035816675517708,-0.995177149772644,0.0979354530572891,-0.0845088301981492,-0.0139023230793741,2.923727632225325,-0.1513185054063797,-0.0372874215245246,-0.0162188801914453,0.0065640865755267,0.057011357601732,-9.750222744941713,14968.0
30.2,2.700000047683716,178.0,23.04274177551269,22.54327964782715,-79.78277897011695,40.45900304401537,304.2868856506348,0.0026211380027234,-0.0001431027776561,-0.994954526424408,0.1002932488918304,-0.0648483204390553,-0.0442788908260236,2.9136920382010083,-0.103361614048481,-0.0572073087096214,-0.116026721894741,0.0258061472419649,-0.0225491339201107,-9.839406816959382,14969.0
30.4,2.799999952316284,178.0,23.052757263183597,22.209304809570312,-79.78277893153594,40.45900310413372,304.57898083496093,0.0028180724475532,-0.0001647341705393,-0.9948421120643616,0.1013965904712677,-0.0474580827727248,-0.0601116771983848,2.930402971667444,0.0928703919053077,0.0296265538781881,0.1029153391718864,-0.0750671438360586,-0.3036391845345497,-9.953753796815873,14969.0
30.5,2.799999952316284,179.0,23.01644897460937,22.90906143188477,-79.78277889201472,40.459003168210735,304.8726991729736,0.0030334473121911,0.000743439013604,-0.9947826862335204,0.101969726383686,-0.0601673739994361,-0.0618788133211846,2.9378249655420805,0.0086526768282055,-0.0925677865743637,0.0161649379879236,-0.0979243437945842,-0.1385723506193608,-9.884822140932084,14969.0
30.7,2.799999952316284,178.0,23.03522872924805,22.83749389648437,-79.78277884249793,40.459003389475335,305.459819229126,0.0040486608631908,0.0025269109755754,-0.994760513305664,0.1021213233470916,-0.0647104478640323,-0.0756592989675215,2.928119687974279,0.0375334434211254,-0.0776594579219818,0.0004951580194756,-0.1488992369547486,-0.2065212265960872,-9.79894642353058,14970.0
30.8,2.799999952316284,177.0,22.996416091918945,23.147613525390625,-79.78277879310342,40.459003605658886,305.7520536499024,0.0046984576620161,0.0029496143106371,-0.9947407841682434,0.1022751033306121,-0.0643235722156284,-0.0772999266942739,2.914306836871786,0.0650295317173004,-0.0480468310415744,0.0728672221302986,-0.0857695721648633,-0.3168022902309895,-9.745292957425118,14970.0
31.0,2.799999952316284,177.0,23.0177001953125,22.686410903930664,-79.78277872454841,40.45900373169672,306.33476963806146,0.0057322783395648,0.0059696719981729,-0.9947731494903564,0.1017740964889526,-0.0729137640180879,-0.0808444514188971,2.9264345091634643,0.042710330337286,-0.0824578031897544,-0.0604056529700756,-0.0272515675309114,-0.077286614421755,-9.973002830743788,14971.0
31.1,2.700000047683716,178.0,23.047748565673828,22.0025577545166,-79.7827786625259,40.45900398016515,306.9238618927002,0.0045120883733034,0.0065022124908864,-0.9949929118156432,0.0996322333812713,-0.0723024103503609,-0.0890380518493766,2.9571466498943053,0.0444017834961414,-0.0103458408266305,0.0920180305838584,-0.0572250002436339,-0.2012566128931939,-9.984027171134947,14971.0
31.3,2.700000047683716,181.0,22.97763442993164,23.624719619750977,-79.78277863554972,40.4590041620889,307.21692219543456,0.0034902626648545,0.0052186753600835,-0.9951050877571106,0.098623402416706,-0.0715680039541641,-0.0767469135205526,2.941384309195469,0.0137046696618199,-0.0406322553753852,-0.0053986478596925,-0.0404105185065418,0.0133412265032529,-9.753687804937364,14972.0
31.4,2.700000047683716,181.0,22.93882179260254,23.942790985107425,-79.78277860160532,40.459004204444106,307.5109685974121,0.0038583960849791,0.0041112657636404,-0.9951180815696716,0.0985307693481445,-0.0593356049917324,-0.0624586848626613,2.939752370933713,0.1215396448969841,0.0216246973723173,-0.0111994463950395,0.031907337619923,-0.2054807693883776,-9.824951330423357,14972.0
31.6,2.700000047683716,182.0,22.94257736206055,24.22905540466309,-79.78277857041698,40.45900438382439,308.1039175109863,0.0052809966728091,0.0021253714803606,-0.994874894618988,0.1009531542658805,-0.0778537518899138,-0.0392341254743433,2.955304463967249,0.003976316191256,-0.0591820254921913,-0.0417473427951335,-0.026049820818007,-0.0843667429033667,-9.858885061740876,14973.0
31.7,2.700000047683716,184.0,22.967618942260746,23.49749183654785,-79.78277850280222,40.4590045273331,308.6997541503906,0.0069753341376781,0.0021077929995954,-0.994675636291504,0.1027974039316177,-0.0936765912997139,-0.0231636167643962,2.9956165704874733,-0.0693783834576606,-0.0303265117108821,-0.1107575669884681,-0.038130300831981,-0.2551679960265756,-9.981020532846449,14973.0
31.9,2.700000047683716,186.0,22.94883728027344,23.680383682250977,-79.78277845414415,40.45900454854888,309.000626953125,0.0072323819622397,0.0027067821938544,-0.9945659041404724,0.1038225516676902,-0.0866079300973922,-0.0219306131427254,3.021185654718263,0.0133009403944015,0.0442908108234405,0.0154229328036308,-0.0591956580989062,-0.1758361169323325,-10.018212332725524,14974.0
32.01,2.799999952316284,189.0,22.992658615112305,23.10785484313965,-79.78277840345801,40.45900456865931,309.30382672119134,0.0086048915982246,0.0027134844567626,-0.994459629058838,0.1047318279743194,-0.0914490765663235,-0.0251027362149589,3.038522916889834,-0.0083415107801556,0.0058849193155765,-0.0871018916368484,-0.0097200732585042,-0.1899157005921006,-10.019869433641434,14974.0
32.2,2.799999952316284,192.0,23.062774658203125,21.84352302551269,-79.78277823653703,40.45900472453826,309.90335980224614,0.0102240601554512,0.001462418003939,-0.9944541454315186,0.1046628579497337,-0.1243720348600254,-0.0162262769733612,3.0264657369839973,-0.0095032071694731,-0.0135944318026304,-0.0147569216787815,0.0148665697791147,-0.0394315941073,-9.88326912045479,14974.0
32.3,2.799999952316284,194.0,22.992658615112305,23.04424095153809,-79.782778119234,40.45900480184528,310.20148602294915,0.0097758406773209,0.0018978292355313,-0.9945198893547058,0.1040724515914917,-0.1314071680488218,0.0034852566067722,3.00482701044954,0.0124873248860239,-0.0112303094938397,0.0433682091534137,0.0239980259933508,-0.1795104524306953,-9.779951743483544,14975.0
32.5,2.900000095367432,196.0,22.927553176879893,23.95869445800781,-79.78277797105045,40.45900481112293,310.8003477172852,0.0097842030227184,0.0014826499391347,-0.9946190118789672,0.1031268909573555,-0.1204257557734164,-0.0031008924219294,2.980667562399667,-0.0119404029101133,-0.0120146032422781,0.0143333449959754,-0.0192997539555654,-0.0570898884488269,-9.697179143428803,14975.0
32.6,3.0,195.0,23.059017181396484,21.51749992370605,-79.78277792658766,40.459004964384896,311.40060177612304,0.0100891273468732,0.0003599289630074,-0.994613766670227,0.1031586155295372,-0.0977029775382985,0.0090283229774865,2.9848642152782427,0.0447967946529388,-0.0120635377243161,-0.0252230037003755,0.0380710475239902,-0.1133538485504686,-9.801093521118164,14976.0
32.8,2.900000095367432,194.0,22.94132423400879,23.545202255249023,-79.78277788694696,40.45900510259303,311.7075361328125,0.0107758147642016,0.0016945436364039,-0.9945327043533324,0.1038543730974197,-0.1039239189082166,0.0046647145256079,2.994285561278536,-0.0814140290021896,-0.0281633622944355,-0.1097415536642074,-0.0302386199310422,0.1022097224649042,-9.785953325629237,14976.0
32.9,2.900000095367432,193.0,23.05776596069336,21.827619552612305,-79.78277785117264,40.459005113686096,312.00712338256835,0.0107088191434741,0.001569835585542,-0.9944308400154114,0.1048339307308197,-0.1063039379716232,-0.0099702622364382,2.9970476120255887,-0.1800748407840728,-0.0536344610154628,-0.0590432807803154,-0.119606130067259,-0.0725111020356416,-9.768511666059494,14977.0
33.1,2.900000095367432,193.0,22.97513008117676,22.44785690307617,-79.78277778517976,40.45900522741636,312.6121152954101,0.007753781042993,-0.0007243531290441,-0.994343101978302,0.1059303879737854,-0.057896482176436,0.0031137178955379,2.9647968946670984,0.0107398722320795,0.0652613714337349,-0.0232196971774101,0.0393295327853411,-0.1470239252597093,-9.614214169979096,14977.0
33.21,2.900000095367432,196.0,22.89750289916992,24.141586303710927,-79.78277783570427,40.45900537698551,313.2183050231933,0.0063019511289894,0.0004486452962737,-0.994309902191162,0.1063388362526893,-0.0333468263899725,-0.0017743235091542,2.9831910613186663,0.1418883353471756,-0.0265979096293449,0.0799654126167297,0.0118036691704764,-0.2798200216703117,-9.867167057991027,14978.0
33.4,2.799999952316284,192.0,22.95134162902832,22.89315795898437,-79.78277783214989,40.45900538385072,313.51744213867187,0.0054475916549563,3.610458588809705e-05,-0.9943077564239502,0.1064074039459228,-0.0417009884449261,-0.0033956383655492,2.9955366431833337,0.0291031803935766,-0.0185363162308931,0.0095533616840839,0.0186481662816368,-0.1052596392855048,-9.872585088014604,14978.0
33.51,2.700000047683716,190.0,23.0715389251709,21.12786293029785,-79.78277783146964,40.459005390089175,313.8179220275879,0.0051633208058774,-0.0006607113173231,-0.9942948818206788,0.10653967410326,-0.038253490937683,-0.0002205223545013,3.0133718084332344,-0.0830345824360847,-0.0661776959896087,-0.0817248374223709,-0.0034664749761577,0.0918418142572045,-9.891630638837816,14978.0
33.7,2.700000047683716,186.0,22.952592849731445,23.115806579589844,-79.78277788992929,40.45900551765524,314.4285406188965,0.0060535594820976,-0.0009471612283959,-0.9944559335708618,0.1049754917621612,-0.0219132164588324,-0.0015570115290544,2.9953025265362867,-0.0575149990618228,-0.041176788508892,0.0141508020460605,-0.0418220820464193,0.0049415276292711,-9.63532495737076,14979.0
33.8,2.5999999046325684,184.0,23.00142288208008,21.8355712890625,-79.78277794647475,40.45900562298145,314.73652783203124,0.0032044241670519,-0.0001918673515319,-0.9946405291557312,0.1033443883061409,-0.0189100665472119,-0.0063302988695274,3.000286454214028,-0.1673537194728851,-0.0744912847876548,0.0234917216002941,-0.0783058389276266,-0.0185840319190174,-9.712219351530075,14979.0
34.0,2.5999999046325684,183.0,22.96010589599609,22.7977352142334,-79.78277799882353,40.45900565156538,315.335229309082,-0.0027073526289314,0.0024976250715553,-0.9949281811714172,0.1005207672715187,0.0129261927985594,-0.0285949592510463,2.9861222194233044,-0.088950976729393,0.0050010606646537,0.0309302434325218,-0.0931577849574387,0.0038701989501714,-9.673396178483962,14980.0
34.1,2.5999999046325684,183.0,22.96511459350586,22.439905166625977,-79.78277808728251,40.459005785622274,315.6434759216308,-0.0017932950286194,0.0039163446053862,-0.9950335025787354,0.0994478985667228,0.0114723679051403,-0.0392080753174909,2.991727497118428,-0.1247659102082252,-0.0463316030800342,-0.0331513881683349,-0.1084898970276117,0.2066656162776053,-9.718010433912276,14980.0
34.3,2.5999999046325684,182.0,22.79608726501465,25.191219329833984,-79.78277818766112,40.45900598177672,316.2492879943848,0.0012377134989947,0.0047321710735559,-0.995010793209076,0.0996479615569114,-0.0071785697654762,-0.0565854348079251,2.9893799721644068,0.0057542389258742,0.0200536251068115,0.0299692936241626,-0.0409245618525892,-0.1418853007815778,-9.736245560646058,14981.0
34.4,2.5999999046325684,182.0,22.93882179260254,22.956771850585927,-79.7827781914221,40.45900600281062,316.54919567871093,0.0020966643933206,0.0042357495985925,-0.9948981404304504,0.100774385035038,-0.012891202511688,-0.0495192838329619,3.011008969848436,0.061097502708435,0.0282761119306087,0.0081860106438398,-0.0428579619806259,-0.0620954567939043,-9.934650943279268,14981.0
34.6,2.5999999046325684,180.0,22.94132423400879,22.59099006652832,-79.78277816650349,40.45900616492087,317.1484922485352,0.0048169186338782,0.0026370584964752,-0.9946494698524476,0.1031620949506759,-0.0340854913396908,-0.0288729822828238,2.9933712123051297,0.0774607211351394,0.0259684454649686,-0.0694960728287696,-0.0197557043004781,-0.2191638570092618,-9.6491021668911,14982.0
34.71,2.5999999046325684,179.0,22.95134162902832,21.70039176940918,-79.78277815152701,40.45900617907528,317.447045715332,0.0035731547977775,0.0011536384699866,-0.9945615530014038,0.104082852602005,-0.0426061899024791,-0.0230848985723505,2.977358019235648,-0.0116309970617294,0.0371791720390319,-0.044308628886938,-0.0469979825243353,-0.1319143362902105,-9.646798363924027,14982.0
34.9,2.799999952316284,177.0,22.98389434814453,22.495569229125977,-79.78277817567263,40.45900631582688,318.0477727966308,0.0018454676028341,0.0061259302310645,-0.9944113492965698,0.10538150370121,-0.0240517117313699,-0.0145666797550137,2.9599144506986086,0.0036247579846531,-0.0598348602652549,0.09858900308609,-0.0833021476585418,-0.196619039978832,-9.658081151247025,14983.0
35.0,2.799999952316284,177.0,22.96010589599609,22.209304809570312,-79.78277821431266,40.45900645114648,318.64666500854486,0.0034008366055786,0.0079183364287018,-0.9943723678588868,0.1055909246206283,-0.0246676602330103,-0.038672994403426,2.929924534381553,0.0161189828068017,0.0603055469691753,0.0075075211934745,-0.0830482414551079,-0.0017777911014854,-9.568084900975226,14983.0
35.2,2.799999952316284,177.0,23.0815544128418,20.038471221923828,-79.78277819858991,40.459006445175135,318.9382795410156,0.0044368635863065,0.0054129855707287,-0.9944090843200684,0.1053648144006729,-0.0223551885080938,-0.0305808442292758,2.89531408137168,0.0695422738790512,0.0789756476879119,0.0936475321650505,-0.0446601469349116,-0.2981043746508658,-9.4681776201725,14983.0
35.3,2.799999952316284,176.0,23.15793037414551,18.527633666992188,-79.78277824354879,40.459006644146,319.24181118774413,0.0045269727706909,0.0024433827493339,-0.9944565296173096,0.1050233244895935,-0.0399046325236947,-0.0185056335183952,2.8586789938749426,0.004484630189836,0.0593149848282337,0.0060340506024658,0.0031655569304712,-0.0584488133434206,-9.187030043005944,14984.0
35.5,2.900000095367432,174.0,23.13664436340332,19.24329376220703,-79.78277821421287,40.459006635580366,319.79242840576165,0.003356795059517,-0.0008666857029311,-0.9944564700126648,0.105092741549015,-0.0256614046449555,0.0005930742370855,2.636282321686836,0.0271943360567092,0.0338994972407817,0.0656800270080566,-0.0604859421635046,-0.184737168867141,-8.726947141885757,14984.0
35.6,2.900000095367432,174.0,23.22428894042969,18.01872062683105,-79.78277822527797,40.4590068013268,320.3115057067871,0.0001622059353394,-0.0036000611726194,-0.9943684935569764,0.1059174537658691,-0.0237799053644044,-0.0082020301451842,2.4228991413239904,0.0407814159989357,-0.0185368992388248,-0.0074712908826768,-0.0754001153586432,-0.0296423181379213,-8.718680933117868,14985.0
35.8,2.799999952316284,172.0,23.16794586181641,17.947153091430664,-79.78277820692702,40.45900692975103,320.5581106262207,0.0005934388027526,-0.0032601514831185,-0.9942951798439026,0.1066121384501457,-0.0348703978064481,-0.0097718173170708,2.3156162177696067,-0.0372334718704223,-0.0777675658464431,0.0028677457012236,-0.0803099903650581,-0.0436744342837482,-8.491406677365303,14985.0
35.9,2.799999952316284,171.0,23.147912979125977,18.9013671875,-79.78277814605981,40.4590069997845,320.99576702880864,0.0011382113443687,0.0016554704634472,-0.9941979050636292,0.1075479462742805,-0.0408184761086102,-0.0334547746752148,2.064906492273156,0.0243852101266384,0.0019803536124527,-0.0546277277171611,0.0179961537709459,0.0030217405501753,-8.524236454367639,14985.0
36.1,2.799999952316284,172.0,23.177963256835927,18.766185760498047,-79.78277811693609,40.45900714038579,321.21458950805663,0.0022623920813202,0.0048553235828876,-0.9941826462745668,0.1075744852423668,-0.0522039867692842,-0.0545233868121523,1.9907335487113504,0.0170794799923896,-0.0266760382801294,-0.0290670897811651,-0.0774950037058442,0.0021959663776215,-8.810575774312019,14986.0
36.2,2.799999952316284,172.0,23.15667724609375,18.94907760620117,-79.78277807460114,40.45900719200388,321.4090398864746,0.0037465495988726,0.0077238553203642,-0.994167149066925,0.1075080335140228,-0.0560878216374619,-0.0642833769618543,1.893676710087549,0.0835612267255783,0.0104760574176907,-0.004615627694875,-0.0182472688425332,-0.1176763479039073,-8.806113764047623,14986.0
36.4,2.799999952316284,171.0,23.11661148071289,19.83172416687012,-79.78277803628157,40.459007383569606,321.8050970153808,0.0042027980089187,0.0097260093316435,-0.9941856265068054,0.1071573197841644,-0.0706154478385167,-0.0682795144056663,1.7609313022399444,-0.0333725400269031,0.0317783467471599,0.0624660290777683,-0.0228306339564733,-0.1795283960737288,-9.05642371058464,14986.0
36.5,2.799999952316284,170.0,23.08656311035156,20.49967384338379,-79.78277798394825,40.45900742078968,321.97842541503906,0.0022132499143481,0.0096800047904253,-0.9942142367362976,0.10695531219244,-0.0631995706534183,-0.0590106129367947,1.7023394881800604,0.0338088721036911,0.0258111618459224,0.0357751362025737,-0.0582805962581187,-0.2179262389987707,-9.18896664083004,14986.0
36.7,2.700000047683716,172.0,23.09407615661621,20.181602478027344,-79.78277790381516,40.459007605884274,322.3558439331054,0.0026354370638728,0.0098111853003501,-0.9942209124565125,0.1068722531199455,-0.0595924560535515,-0.0471507845342653,1.654401232658668,0.0367936007678508,0.0689185038208961,0.0647087395191192,-0.0499877552501857,-0.0949916636478156,-9.262532799839974,14987.0
36.8,2.700000047683716,174.0,23.04274177551269,20.921117782592773,-79.78277789530094,40.459007758798506,322.75411358642583,0.0030842903070151,0.0117917405441403,-0.9941845536231996,0.1069982349872589,-0.0691413866246093,-0.0310529886631641,1.6310921610669478,-0.0565161705017089,0.0313741490244865,0.0223573558032512,-0.1001865949854254,-0.0858628261182457,-9.278284614086152,14987.0
37.0,2.5999999046325684,173.0,23.0715389251709,20.213409423828125,-79.78277783124618,40.45900775825073,322.91518154907226,0.0027195445727556,0.0134059051051735,-0.994148313999176,0.1071546524763107,-0.0659437401904568,-0.0171559870581437,1.5905529344099896,0.043410237878561,-0.0180152207612991,-0.0290989391505718,-0.0705240993853658,-0.026195069309324,-9.405672639012336,14987.0
37.1,2.5999999046325684,173.0,23.16669464111328,19.131967544555664,-79.78277779810145,40.45900787303185,323.17712536621093,0.0029199640266597,0.0143747692927718,-0.9941381812095642,0.107118010520935,-0.0670382264861546,-0.0141677221756045,1.6441691908832554,-0.0332631506025791,-0.0564120039343833,0.0127713875845074,-0.1468650271743536,-0.0496159271523356,-9.35359090447426,14988.0
37.3,2.5,175.0,23.97551918029785,6.27394962310791,-79.78277766019455,40.45900793623864,323.61616650390624,0.0048794234171509,0.0115719400346279,-0.9941335320472716,0.1074282899498939,-0.0707938801207757,-0.0071210616448525,1.5846100674069667,-0.0092469863593578,0.103064939379692,-0.0121146980673074,-0.244395835082978,-0.008287902851589,-8.674747293591501,14988.0
37.4,2.400000095367432,175.0,23.03397750854492,18.957029342651367,-79.78277758436634,40.45900792047186,323.7589162902832,0.0054360465146601,0.0026994450017809,-0.9937049746513368,0.111864149570465,-0.090497433457174,-0.0056727119965284,1.2529312768987373,-0.0344067439436912,0.2106069028377533,-0.3652597367763519,-0.2173788299784064,-0.3120045401528478,-7.080422669649124,14988.0
37.51,2.400000095367432,176.0,23.234304428100582,17.947153091430664,-79.78277746723056,40.45900792573514,323.8708700256348,0.0007355957059189,-0.0075945686548948,-0.9895700812339784,0.1438506096601486,-0.1200402808085658,0.0155721949885239,1.0010728287375992,-0.1196957677602768,0.087215669453144,-0.866255521774292,-0.0899392764642834,-0.1348491177801042,-7.287143377661705,14988.0
37.7,2.5,177.0,23.135393142700195,18.42426109313965,-79.78277701225007,40.45900821272318,324.05821743774413,0.0131786735728383,0.0075532742775976,-0.9497272372245787,0.3127099275588989,-0.1413776021960723,-0.0044227937601381,0.6018247390889608,-0.0318366959691047,-0.0866551995277404,-1.3688722848892212,-0.0774698424059897,-0.1406412142887711,-8.256267331838608,14989.0
37.9,2.400000095367432,171.0,23.152921676635746,18.615102767944336,-79.78277689043976,40.45900823981376,324.11553707885736,0.014266250655055,0.0076690041460096,-0.9255369901657104,0.3783107697963714,-0.1409756464366251,-0.0013949644455574,0.5394776089160557,-0.0669683367013931,-0.0494285561144352,-1.4478715658187866,-0.2401175370253622,-0.2628636261820793,-9.08294609606266,14989.0
38.0,2.400000095367432,162.0,23.102840423583984,19.61702537536621,-79.78277678636907,40.45900830310547,324.16779461669915,0.01456612162292,0.0071476749144494,-0.8950692415237427,0.4456319808959961,-0.1301424761853554,0.0071774073174938,0.4999275212359621,-0.0304651465266942,-0.0955220907926559,-1.5015194416046145,-0.13291424671188,-0.1024273850675672,-9.294082621335985,14989.0
38.2,2.400000095367432,169.0,23.12788009643555,19.163774490356445,-79.78277657544342,40.459008588741774,324.23839703369134,0.0185707211494445,0.0100727807730436,-0.8165943622589111,0.5768252611160278,-0.1034218207089191,0.0158503110846399,0.4529224376021436,0.0765882208943367,-0.0959443002939224,-1.4438676834106443,-0.0295604068692773,-0.2967575598880649,-9.452860838770867,14989.0
38.3,2.400000095367432,173.0,23.14916610717773,18.686668395996094,-79.78277615672913,40.45900893714619,324.30643978881835,0.0239533055573701,0.0127760488539934,-0.7178047895431519,0.6957149505615234,-0.0589082804604621,0.0396077482081689,0.4253783906379635,0.0705628022551536,0.0658645927906036,-1.478487253189087,-0.1454027116298675,-0.3337149229645729,-9.468541316986084,14989.0
38.5,2.400000095367432,161.0,22.980138778686523,22.026412963867188,-79.7827761097295,40.459008950983545,324.3472112731933,0.0262434240430593,0.0134160509333014,-0.6696369051933289,0.7421036362648009,-0.0138030920934202,0.0476918471674957,0.3883788442178921,0.0728854313492775,-0.0283555388450622,-1.2781553268432615,0.1666907062008977,-0.0087118762359023,-9.490933229327204,14989.0
38.6,2.5,159.0,22.96887016296387,21.795812606811523,-79.7827755210233,40.45900928611663,324.4084562377929,0.0278599560260772,0.0149936378002166,-0.6283226609230042,0.7773092985153198,0.0317089488482004,0.0800063616051904,0.4364695393621301,0.1293033808469772,0.0070800520479679,-1.0249086618423462,0.3506380806863308,-0.1403178815357387,-9.761083363294604,14989.0
38.8,2.5,170.0,22.82238006591797,23.577009201049805,-79.78277451902079,40.459009413551136,324.48985806274413,0.0294776763767004,0.0128980660811066,-0.5778725743293762,0.8154926300048828,0.12430050205412,0.1317932822816051,0.4974900075637973,0.17034612596035,0.021821778267622,-0.272974818944931,0.3889723899587989,-0.1438484029378742,-9.960138956308365,14989.0
38.9,2.5999999046325684,175.0,23.020204544067383,20.937021255493164,-79.78277429374273,40.45900930035227,324.54306546020507,0.0226278956979513,0.0240691751241684,-0.5665009021759033,0.8233988285064697,0.181432620570469,0.191121268360516,0.5715881961443672,0.171515017747879,-0.4499379992485046,-0.2191742062568664,0.7406953118741513,0.0036664029280655,-10.366801110506056,14989.0
39.1,2.700000047683716,169.0,23.02896881103516,21.278947830200195,-79.78277382934994,40.45900940573417,324.48713055419915,-0.023712046444416,0.0579047016799449,-0.5625235438346863,0.8244102001190186,0.2258933921275107,0.2713515220496724,0.6348669699584775,-0.1114348247647285,-0.5088275074958801,0.0809006318449974,0.5334657133743167,-0.3081378495320678,-10.417678903341294,14989.0
39.2,2.700000047683716,163.0,23.045246124267567,19.99871063232422,-79.78277260904882,40.45900928304497,324.50894299316406,-0.057894729077816,0.0663918554782867,-0.569052517414093,0.8175693154335022,0.300187744086793,0.5062075388687521,0.7167488781651971,-0.108683630824089,-0.0808008387684822,0.1297803521156311,0.2130123485997319,-0.1934231529012322,-10.362091763019563,14989.0
39.4,2.700000047683716,169.0,23.0815544128418,19.48184585571289,-79.78277169220814,40.45900922557773,324.5707143859863,-0.0671587511897087,0.0654359981417656,-0.5727823376655579,0.814326822757721,0.3159267496544374,0.6857510543208233,0.7563309962543048,-0.0102844163775444,0.0020113415084779,0.0041988892480731,0.2632385240681469,-0.4151501186192036,-10.084793407917024,14989.0
39.5,2.700000047683716,171.0,22.99766731262207,21.30280303955078,-79.78277055596133,40.459009228150464,324.631486328125,-0.0738059803843498,0.0633554905652999,-0.5759882926940918,0.8116503953933716,0.3070609324081783,0.8771759943224411,0.7830859161135578,-0.0267230663448572,-0.0314115732908248,0.068014845252037,0.1596777019277215,-0.3689773244038224,-9.908627325296402,14989.0
39.7,2.700000047683716,162.0,22.967618942260746,22.121835708618164,-79.78276769244819,40.45900956099153,324.6573995666504,-0.0826515704393386,0.0637164190411567,-0.5793131589889526,0.8083967566490173,0.2678274495637556,1.2865667652124384,0.8041838254425598,0.056761797517538,-0.0517581030726432,-0.0546879060566425,0.1418446717690676,-0.321563970297575,-9.883343964815142,14989.0
39.8,2.700000047683716,161.0,23.03522872924805,20.36449241638184,-79.78276410569075,40.45901019885163,324.6640981750488,-0.0951547250151634,0.0691026002168655,-0.5787280201911926,0.8069971799850464,0.2021725797914496,1.6995511023084908,0.8657877378264762,-0.0813567712903022,-0.1169428676366806,-0.0892370119690895,0.1363204873725772,-0.3635834872350097,-9.920539273023603,14989.0
40.0,2.799999952316284,157.0,22.908771514892567,22.59099006652832,-79.78276183807125,40.45901059933119,324.71073666381835,-0.1032016277313232,0.071222610771656,-0.5768979787826538,0.807134211063385,0.1669831821554978,1.9208437209928964,0.9329112876814368,-0.1906857043504715,-0.2762694656848907,-0.0394920893013477,-0.1455591886024922,-0.1379863773845136,-9.924115430116654,14989.0
40.1,2.799999952316284,155.0,23.05150604248047,20.63485336303711,-79.7827597538348,40.45901129113304,324.6491483764648,-0.1108637377619743,0.0748290121555328,-0.5743998289108276,0.8075733780860901,0.1404160572264991,2.124791254227904,0.9693533795944264,-0.1069657132029533,-0.1477105766534805,-0.1090073138475418,0.0353680030675604,-0.219542464222759,-10.116022217273713,14989.0
40.3,2.799999952316284,144.0,22.847421646118164,23.99845314025879,-79.78275460526052,40.45901285066104,324.6185010986328,-0.125967264175415,0.084234707057476,-0.5677508115768433,0.8091328144073486,0.0735781030809288,2.5726986948470647,1.1201027952764235,-0.0041552847251296,-0.2451392263174057,-0.061878353357315,-0.1524182283785194,-0.285124122351408,-10.193587871789934,14989.0
40.4,2.900000095367432,136.0,22.813615798950195,24.44375228881836,-79.78275132931259,40.45901368459224,324.6545919494629,-0.1306562721729278,0.0881379544734954,-0.564825713634491,0.8100202083587646,0.0679173548698127,2.825987231006918,1.2827801053428385,0.110536590218544,-0.0398611463606357,-0.0240642912685871,-0.1990155578590929,-0.2438758897036314,-10.457207250595092,14989.0
40.5,3.0,125.0,23.00392723083496,21.54135513305664,-79.78274772932427,40.45901464304247,324.6950391845703,-0.1333657205104828,0.0916303172707557,-0.5626554489135742,0.8107011318206787,0.0502608361195282,3.088170657176468,1.4621709141303594,0.0895455628633499,-0.0848406106233596,-0.0013487545074895,-0.2469692129641771,-0.2780695480294525,-10.657505961656572,14989.0
40.7,3.0999999046325684,121.0,22.94883728027344,21.80376434326172,-79.78273631252164,40.45901896728567,324.6198820190429,-0.1343145221471786,0.1011184304952621,-0.5605179071426392,0.8108972907066345,-0.077982583254356,3.850145633991335,1.7482363686679965,0.1046448722481727,0.1099080890417099,-2.395065621385584e-07,-0.3836538356915116,-0.1188145815208554,-10.28347594857216,14989.0
40.9,3.299999952316284,108.0,23.00392723083496,21.088104248046875,-79.78273153961551,40.45902041965479,324.6577276306152,-0.1308847516775131,0.1010351926088333,-0.5613025426864624,0.8109257817268372,-0.0913703478011048,4.121100709781323,1.854315041474772,0.1675672233104705,0.1464425921440124,-0.018415318801999,-0.3455921528488397,-0.3475933624058962,-10.44050409436226,14989.0
41.0,3.5,102.0,23.062774658203125,19.6965446472168,-79.78272645213613,40.4590219736675,324.69702282714843,-0.1275118589401245,0.1004277691245079,-0.5625138282775879,0.8106992840766907,-0.105544482372125,4.395656096159971,1.93022560202764,0.1339484453201294,0.0532674714922905,0.0449988171458244,-0.5349602251499892,-0.3694791616871953,-10.288922045230867,14989.0
41.2,3.900000095367432,93.0,23.056514739990234,20.595094680786133,-79.78271599327653,40.45902593588604,324.6847547607422,-0.1238850206136703,0.0993419513106346,-0.565727174282074,0.8091579675674438,-0.1970256483890572,4.8894101149995794,1.9633036586290813,0.0941129103302955,0.0065099224448204,-0.0618900097906589,-0.7148586586117744,-0.3047241719439625,-9.861022803783415,14989.0
41.4,4.0,89.0,22.943828582763672,22.074125289916992,-79.78270474756205,40.459030547703,324.64550534057616,-0.1210579797625541,0.1019936129450798,-0.5693506598472595,0.8067107796669006,-0.321682318681769,5.340652827752036,1.9833299625124468,-0.0514654070138931,0.0789955183863639,-0.0820714905858039,-0.657161258161068,-0.254991848655045,-9.700783951878549,14989.0
41.5,4.5,84.0,23.03522872924805,20.6507568359375,-79.78269842820626,40.459032577836965,324.6664251403808,-0.1209251284599304,0.100025400519371,-0.5713552236557007,0.8055590391159058,-0.347455956763313,5.559690048715319,2.030745634203089,0.0546412505209446,0.1606060713529586,-0.0361582972109317,-0.8404922264814377,-0.3787241578102112,-9.886376330852508,14989.0
41.6,4.699999809265137,81.0,23.09657859802246,19.259197235107425,-79.78269264746926,40.45903583982906,324.6069120483398,-0.1204135939478874,0.0960685610771179,-0.5706888437271118,0.8065890073776245,-0.4884454389863984,5.76195075116854,2.037806741797448,-0.1397098749876022,0.0831581503152847,-0.0216256659477949,-0.8389061692357064,0.1210838493704795,-9.791014090776445,14989.0
41.8,5.099999904632568,76.0,23.03147315979004,20.094133377075195,-79.78267944826446,40.45904134759654,324.58638897705083,-0.1191468685865402,0.0923540368676185,-0.5708221793174744,0.8071163892745972,-0.5708177226334694,6.174383861859247,2.061062732695138,-0.0701866671442985,-0.0343602932989597,-0.1825139820575714,-0.995793835669756,-0.0327279258146882,-9.832183166742324,14989.0
41.9,5.400000095367432,75.0,23.12412452697754,18.527633666992188,-79.78267230844668,40.45904378264725,324.59789410400384,-0.1190425902605056,0.0915228649973869,-0.5710020065307617,0.8070992827415466,-0.5418120738198853,6.3748963401025165,2.09380511505076,0.1573090553283691,0.0287899356335401,0.0112759657204151,-0.9139268231391908,-0.3283503584191203,-9.841301314830778,14989.0
42.11,5.800000190734862,74.0,23.00893592834473,20.984731674194336,-79.782657830609,40.45905037319936,324.5548185424805,-0.1176537275314331,0.0889151245355606,-0.5678850412368774,0.8097890615463257,-0.6874617822074955,6.756158043731609,2.128014139305627,-0.0278658047318458,0.1228018328547477,-0.0396208129823207,-0.6485877051204443,-0.3365928128734231,-9.816655300855636,14989.0
42.2,6.0,74.0,23.079050064086918,19.17172622680664,-79.782650132929,40.45905310457854,324.55821362304687,-0.1164671704173088,0.0881609618663787,-0.5678575038909912,0.8100624084472656,-0.6443622692729971,6.945331869851942,2.135693780579288,0.0415555052459239,0.0729126036167144,0.1233273148536682,-0.9528305415809156,-0.2136665423959493,-9.75607931613922,14989.0
42.4,6.4000000953674325,72.0,23.01018714904785,20.53148078918457,-79.78263436845302,40.45906014166199,324.5334524230957,-0.1148039549589157,0.0932168588042259,-0.5647028684616089,0.8119368553161621,-0.7004939932813754,7.289889113384062,2.183590765681706,0.0534794367849826,0.0483769886195659,-0.0037129533011466,-1.1684643796831369,-0.0628407392464578,-9.680321035981178,14989.0
42.5,6.599999904632568,71.0,23.059017181396484,19.83172416687012,-79.78261760310593,40.45906754650064,324.51558819580083,-0.1122995689511299,0.0967478975653648,-0.5625818967819214,0.813345193862915,-0.7895633084400062,7.6292516155316035,2.267071273619339,0.1110589057207107,0.0438783466815948,-0.0344270467758178,-1.4753969353437424,-0.0880139345303177,-9.720404868721964,14989.0
42.7,7.0,68.0,23.06653022766113,19.648834228515625,-79.78260902070116,40.45907071172626,324.5127653198241,-0.1144938766956329,0.0977942645549774,-0.5617085695266724,0.813517689704895,-0.7551048818977145,7.797436614619294,2.321338078990052,-0.1332671195268631,0.0545114949345588,-0.197009265422821,-0.9836851291358472,0.0043035050388425,-9.910262206792831,14989.0
42.8,7.199999809265138,67.0,23.047748565673828,19.87943458557129,-79.78260003837296,40.45907482286266,324.4961217956543,-0.1179892867803573,0.0984594672918319,-0.5592371821403503,0.8146398067474365,-0.7697936632173695,7.94902294267714,2.399737679440947,0.1416615396738052,0.0339157469570636,-0.0719399899244308,-1.273566838502884,-0.1733515070937574,-9.848945964574815,14989.0
43.0,7.599999904632567,66.0,22.996416091918945,20.78593635559082,-79.78258204389856,40.45908146087799,324.4854826049805,-0.1038656681776046,0.0861337482929229,-0.5577249526977539,0.8189846873283386,-0.6918989581419983,8.19032667320051,2.472847745879013,0.0406551323831081,0.4010651111602783,0.02317557297647,-1.7316302575170994,-0.3633212030678988,-9.70439168393612,14989.0
43.1,7.699999809265138,66.0,23.169198989868164,17.485950469970707,-79.78256339486703,40.45908885350408,324.4672979431152,-0.0642604604363441,0.0595905520021915,-0.5588210225105286,0.8246445655822754,-0.6396558552307247,8.535294447967956,1.8407588663916643,0.1208604052662849,0.3198431730270386,-0.0132350390776991,-1.6464784254133702,-0.0605015423521399,-9.826379220485688,14989.0
43.3,8.0,69.0,23.10409164428711,18.94907760620117,-79.7825532774979,40.45909294809512,324.4192365722656,-0.0513475388288497,0.0526906251907348,-0.5601722002029419,0.825102686882019,-0.6658507893474761,8.660537490605929,1.4720651024786269,0.0285527389496564,0.1744026839733123,-0.0263036824762821,-1.323079891204834,-0.1278349806088954,-9.871317411661147,14989.0
43.4,8.199999809265138,77.0,23.1103515625,18.376548767089844,-79.7825439375784,40.45909642364169,324.4181264953613,-0.0424453653395175,0.0481703951954841,-0.5624071955680847,0.8243640661239624,-0.6781134981154787,8.685243928283096,1.2421732750759384,0.0280669890344142,0.2343008667230606,0.1215504929423332,-1.580884067863226,-0.4702837342768908,-9.920163881778716,14989.0
43.6,8.5,76.0,23.06027030944824,19.79196548461914,-79.78252442546601,40.45910397625917,324.3777593688965,-0.0296996273100376,0.040070291608572,-0.5652681589126587,0.8233980536460876,-0.7611762755507174,8.70060828180371,0.9888124850512648,0.0654449239373207,0.164026990532875,0.0328963212668895,-1.1974336787313224,-0.2674195208027959,-10.30313779592514,14989.0
43.71,8.600000381469728,76.0,23.13288879394531,18.05052757263184,-79.78251514320367,40.45910745001937,324.38804760742187,-0.0267143119126558,0.0373621396720409,-0.5662391781806946,0.8229603767395021,-0.7917531017474327,8.667433121570078,0.9213991550005564,-0.0655833631753921,-0.0180953126400709,-0.0517295710742473,-1.2829912345111372,-0.3037117996439338,-10.14777025938034,14989.0
43.9,8.800000190734863,80.0,23.195491790771484,17.366674423217773,-79.7824959988243,40.45911481624504,324.3720106201172,-0.0193129386752843,0.029163222759962,-0.5655806660652161,0.8239509463310242,-0.7911579763908496,8.570010479217432,0.8042926324849946,-0.0193806700408458,0.203937828540802,-0.2384405881166458,-1.4158570772409442,-0.1549316631630063,-9.903445522785187,14989.0
44.0,8.899999618530273,83.0,23.27812767028809,15.5457181930542,-79.78247702492033,40.45912217279168,324.34816494750976,-0.001574010355398,0.01315529178828,-0.56257164478302,0.8266423344612122,-0.7527662156665313,8.450965468996845,0.4775911175553326,-0.0794829875230789,0.2717729806900024,0.0266427844762802,-1.5426853774487974,-0.1508961341902613,-9.70211828649044,14989.0
44.2,8.899999618530273,83.0,23.2568416595459,15.919451713562012,-79.78246811697973,40.45912553752344,324.3611311035156,0.0086772376671433,0.0033272637519985,-0.5605543255805969,0.8280656337738037,-0.7013023041634757,8.328434685658468,0.2598859997321337,0.0489687286317348,0.215031236410141,-0.1253181546926498,-1.27816362708807,-0.1464672155119478,-9.809055089950563,14989.0
44.3,8.899999618530273,83.0,22.97137451171875,20.841598510742188,-79.78245817860865,40.4591293979202,324.3132833557129,0.0183262936770916,-0.0044320076704025,-0.5587714910507202,0.8291073441505432,-0.6739386588638123,8.249164871066812,0.0160214915799315,-0.0645966604351997,0.3022761642932892,-0.0250909384340047,-1.442211209088564,-0.1708657460846007,-9.885067723989486,14989.0
44.5,8.899999618530273,93.0,23.165441513061523,17.144023895263672,-79.78244109787873,40.45913595298117,324.3491376953125,0.0357580408453941,-0.0149620380252599,-0.5573908090591431,0.8293449878692627,-0.6444445091566622,7.889615755512715,-0.2066293099332804,0.0902967453002929,0.2239728569984436,0.0909391120076179,-1.3319857853651047,-0.2580301349982619,-10.636747176647187,14989.0
44.6,8.800000190734863,94.0,23.13664436340332,17.843780517578125,-79.78242366886721,40.45914269527562,324.3487218933105,0.0473660677671432,-0.0145426010712981,-0.5564694404602051,0.8293893933296204,-0.6392095236586244,7.55769004937092,-0.360016607230684,0.0469559207558631,-0.0750918015837669,0.0510425977408886,-1.166228404417634,-0.3815910476446152,-10.4635315990448,14989.0
44.8,8.699999809265138,94.0,23.159181594848643,17.39052963256836,-79.78241480630578,40.45914622799448,324.32457867431634,0.0445437058806419,-0.0151225086301565,-0.5554529428482056,0.8302164673805237,-0.618063643251851,7.405280341012553,-0.3980823336984912,0.0313443094491958,-0.1153751537203788,0.0284790378063917,-0.9094124072045088,-0.4490052048861981,-10.249205417633055,14989.0
44.9,8.699999809265138,94.0,23.30066299438477,15.03680419921875,-79.78240709621285,40.45914925180518,324.3574384765625,0.0366857275366783,-0.0146479438990354,-0.5551875829696655,0.8307866454124451,-0.6084693788983462,7.235701330787298,-0.3504238383476476,-0.0424812920391559,-0.1566104739904403,0.2737425565719604,-0.9437067655473949,-0.2903302638977766,-9.825316196680069,14989.0
45.1,8.399999618530272,96.0,23.25934600830078,15.553669929504396,-79.78239077640447,40.459155464648255,324.33434429931634,0.0225797276943922,-0.0078066564165055,-0.5552443265914917,0.8313441276550293,-0.5828141097589599,6.971985863371475,-0.2718515974226361,-0.1060192137956619,-0.0462450720369815,-0.0512691363692283,-1.0206075916439294,-0.1161964176222682,-9.183225259780883,14989.0
45.2,8.300000190734862,94.0,23.36076164245605,14.185964584350586,-79.78238351596539,40.45915833052877,324.34605541992187,0.0171602647751569,-0.0056486222892999,-0.5554965138435364,0.8313227295875549,-0.5925793767792578,6.830822952678832,-0.2600655825533637,-0.0854116827249527,-0.115471102297306,0.0362122356891632,-1.0473431812226772,-0.3245689640566707,-8.930892176628113,14989.0
45.4,8.100000381469728,94.0,23.19048309326172,17.485950469970707,-79.78236784486747,40.45916412378199,324.31812802124017,0.010583764873445,-0.0061737499199807,-0.553951621055603,0.8324587345123291,-0.5478722256342423,6.636846537233938,-0.3123050842587067,-0.0618187487125396,-0.076979212462902,-0.03512779250741,-1.1230174076557158,0.0201173271797597,-8.93177218258381,14989.0
45.5,8.0,94.0,23.25183296203613,15.609332084655762,-79.78236091917269,40.459166872878825,324.30299130249017,0.0073480615392327,-0.0060615385882556,-0.5536361336708069,0.8327042460441589,-0.5721781121812837,6.545530847440037,-0.3337413605306338,-0.1619662344455719,-0.1050605699419975,0.1241451948881149,-0.8926439083367587,-0.1640468510985374,-9.227668776512148,14989.0
45.7,7.699999809265138,91.0,23.189231872558597,17.382577896118164,-79.78234637594227,40.4591725889576,324.26936474609374,-0.0072323409840464,0.0030641159974038,-0.553913414478302,0.8325372934341431,-0.5548283440154504,6.4025762051490815,-0.2976713488999306,0.0325071141123771,-0.2645516097545624,-0.063414417207241,-0.9013707315176726,-0.0933491899073124,-9.055269470214844,14989.0
45.8,7.599999904632567,89.0,23.095327377319336,18.30498313903809,-79.78233226239709,40.45917832501276,324.2103361206054,-0.025754228234291,0.0163276325911283,-0.5543055534362793,0.8317544460296631,-0.5842529799757846,6.31872122801792,-0.0753592205986474,0.0584697984158992,-0.0181775167584419,-0.1462720483541488,-0.7346062407642603,-0.214198602475226,-9.156298246979716,14989.0
46.0,7.400000095367432,89.0,23.22679328918457,16.388605117797848,-79.78232567819279,40.45918101162115,324.17397442626947,-0.0324443690478801,0.0226075481623411,-0.5545688271522522,0.8311977386474609,-0.6112257776326024,6.29746216998817,-0.0106735257632338,0.0847492665052414,-0.1416202038526535,-0.0244168192148208,-0.988563314974308,-0.1020395958982408,-9.119447924494745,14989.0
46.1,7.300000190734862,88.0,23.10659599304199,18.45606803894043,-79.78231828467452,40.459184014519344,324.14074078369134,-0.0413848496973514,0.0297572463750839,-0.5539001822471619,0.8310213685035706,-0.6184305027541522,6.308508237030607,0.0691833568075286,0.0342667326331138,-0.3078315854072571,0.0061402628198266,-0.9458586870878936,-0.375027182623744,-9.073519214987757,14989.0
46.3,7.099999904632568,80.0,23.10158729553223,18.861608505249023,-79.78230437634744,40.459189724139726,324.04683056640624,-0.0559786967933178,0.043259359896183,-0.5521804094314575,0.8307178020477295,-0.6069254719792414,6.344214549824296,0.3132064148693974,0.1037264242768287,-0.2141944020986557,0.0022742140572518,-1.0936167302727702,-0.2377982023917139,-9.521926395893097,14989.0
46.4,7.0,75.0,23.05776596069336,19.61702537536621,-79.78229772814458,40.45919244066974,324.00025692749017,-0.0615514777600765,0.0491540618240833,-0.5511956214904785,0.8306495547294617,-0.5897337337086438,6.397024608248437,0.4272224222195675,0.1003833785653114,-0.0581608302891254,0.006085580214858,-0.7916362546384335,-0.3510800205543637,-9.736933193206788,14989.0
46.5,7.0,75.0,22.920040130615234,21.92304039001465,-79.78229101868666,40.45919518078322,323.95237866210937,-0.0676039010286331,0.0550374127924442,-0.5503451228141785,0.830374002456665,-0.5898162158160472,6.4538618289671845,0.5253070154222699,0.1154133528470993,-0.1592335402965545,-0.0405988804996013,-1.0365136262029409,-0.4178241965174675,-9.633017646074295,14988.0
46.7,7.0,75.0,23.126628875732425,20.37244415283203,-79.78226934521798,40.45920404028192,323.83516827392583,-0.0868786424398422,0.0676080882549285,-0.5482585430145264,0.8290319442749023,-0.5473592269086089,6.614822641032969,1.0113253037939347,0.112908162176609,-0.1877061426639557,-0.0789736285805702,-1.098485779836774,-0.225022456459701,-10.19064204454422,14988.0
46.9,7.0,70.0,22.992658615112305,20.6507568359375,-79.78226227798885,40.459206871362646,323.80297222900384,-0.0913400277495384,0.0729660540819168,-0.5477656126022339,0.828423798084259,-0.555489510707852,6.704914142580237,1.1780252334158132,-0.0397790484130382,-0.08827805519104,0.1661742180585861,-1.3055992014706137,-0.2773335114866495,-9.98144504070282,14988.0
47.0,7.0,67.0,23.052757263183597,19.815820693969727,-79.7822550782652,40.45920974772088,323.7735265808105,-0.0947986841201782,0.0748917907476425,-0.5468453764915466,0.828471302986145,-0.5595455836866137,6.820074004335407,1.3166777307347912,0.0443889312446117,-0.0576543919742107,-0.0093845063820481,-1.019808131083846,-0.2721631293185056,-10.075156027078627,14988.0
47.2,7.099999904632568,68.0,22.90376281738281,22.765928268432607,-79.78223993764007,40.45921568762786,323.666283996582,-0.1004120260477066,0.0722323134541511,-0.5442692637443542,0.8297414183616638,-0.4976322456071036,7.007624805709515,1.4945720741104047,0.061996042728424,-0.0177343431860208,0.2206312268972396,-1.101202176958323,-0.2694308716244996,-9.93013104557991,14988.0
