time,wind_speed,wind_angle,battery_voltage,battery_current,position_x,position_y,position_z,orientation_x,orientation_y,orientation_z,orientation_w,velocity_x,velocity_y,velocity_z,angular_x,angular_y,angular_z,linear_acceleration_x,linear_acceleration_y,linear_acceleration_z,node_ids
0.0,1.8999999761581416,139.0,23.829029083251957,-0.0636141896247863,-79.78278651670719,40.45898186578664,274.9650533790588,-0.0153944175690412,0.007234760094434,0.9987730979919434,0.0465092062950134,-0.0040721648022686,0.0102441854353462,0.003035308844223,-0.0004736927803605,-0.0010846396908164,-0.003630478400737,0.131156199099496,-0.3016415563970805,-9.801206372380255,14939.0
0.19,1.8999999761581416,137.0,23.827777862548828,-0.0636141896247863,-79.78278651278177,40.45898185616185,274.9653899068832,-0.0153860505670309,0.0072330459952354,0.9987746477127076,0.0464772842824459,-0.0047485577103849,0.0108783469134507,0.0031303255972304,-0.0026474425103515,0.002394214272499,0.0026996191591024,0.1305088940542191,-0.3276596560701728,-9.804082617759708,14939.0
0.31,1.8999999761581416,136.0,23.82652473449707,-0.0715659633278846,-79.78278647093522,40.45898169532504,274.9547576303482,-0.015410047955811,0.0072333230637013,0.9987751841545104,0.0464599952101707,-0.0016589846975649,0.0135394842786939,0.0015151405780492,-0.0030938342679291,0.0030414252541959,-0.0010658367536962,0.1311517588701099,-0.3044909959472716,-9.801536740064623,14939.0
0.5,1.8999999761581416,135.0,23.825273513793945,-0.0715659633278846,-79.78278639755884,40.45898156055748,274.9459977741241,-0.0154275661334395,0.0072571877390146,0.9987749457359314,0.0464545637369155,-0.0021686774567386,0.010681453540862,0.0037292268902449,0.0049567129462957,0.0016596282366663,5.3994604968465865e-05,0.1304053709283471,-0.308574198000133,-9.80064503967762,14939.0
0.59,1.7999999523162842,135.0,23.817760467529297,-0.0795177370309829,-79.78278639346337,40.45898154028104,274.94681531143186,-0.015470310114324,0.0072441347874701,0.9987751245498656,0.0464373230934143,-0.0027642271926826,0.0117228277549509,0.0039627725717899,0.0051540238782763,0.0046979365870356,0.0028987037949264,0.1310265645012259,-0.3200714685022831,-9.803853991627694,14939.0
0.8,1.7999999523162842,134.0,23.81650924682617,-0.1192766055464744,-79.78278632252614,40.45898142123544,274.9359403247833,-0.0154572911560535,0.0072459299117326,0.9987757205963136,0.0464302524924278,-0.0042711147079185,0.0064894416661206,0.0020101914897005,-0.0076609528623521,-0.002681644167751,-0.0066009419970214,0.1302023172285407,-0.3138473267108202,-9.804127641320228,14939.0
0.91,1.7999999523162842,134.0,23.83028030395508,-0.0795177370309829,-79.78278629391049,40.45898127813293,274.9260125751495,-0.0154996672645211,0.0072421827353537,0.998776376247406,0.0464025028049945,0.0014526419120167,0.0071938584662575,0.0011842386181935,-0.0073934919200837,-0.0055056544952094,-0.0074006156064569,0.1314036276843398,-0.3205324849113822,-9.80253076672554,14939.0
1.1,1.7000000476837158,134.0,23.822769165039062,-0.0715659633278846,-79.78278629752249,40.45898127161709,274.9261243934631,-0.0155090475454926,0.0072074774652719,0.998776376247406,0.0464035235345363,0.0032756050267955,0.0078137695356029,0.0010944003404597,0.0081036193296313,0.0047246948815882,0.0073007564060389,0.1330184185132384,-0.3270512532815337,-9.804003680348396,14939.0
1.2,1.7999999523162842,132.0,23.81400489807129,-0.0636141896247863,-79.78278618886934,40.45898114545661,274.914165555954,-0.0154941622167825,0.0071855066344141,0.998778522014618,0.0463669262826442,-0.005361552130307,0.0036452617189251,-0.0033835538972622,0.0056919478811323,0.0038580314721912,0.01099568977952,0.1299885284062475,-0.298658380061388,-9.80019714295864,14939.0
1.39,1.7999999523162842,136.0,23.81400489807129,-0.0795177370309829,-79.78278618151673,40.45898114133423,274.9138764734268,-0.0155127327889204,0.0071894810535013,0.9987790584564208,0.046348862349987,-0.0075702911237778,0.0042719740816615,-0.0029818781103177,-0.007689656689763,-0.0014994972152635,-0.0120302746072411,0.1311354780290276,-0.2949250425025821,-9.80172618985176,14939.0
1.5,1.7000000476837158,138.0,23.81525611877441,-0.0795177370309829,-79.78278613757678,40.45898103351674,274.90358442020414,-0.0155311347916722,0.0072266682982444,0.9987798929214478,0.0463170893490314,-0.0021847632575964,-0.0008529212015179,-0.0023990523747849,-0.0058739469386637,-0.0034806723706424,-0.0106781739741563,0.1317216613981872,-0.3317651689052582,-9.803413696289065,14939.0
1.7,1.7000000476837158,138.0,23.821516036987305,-0.1033730581402778,-79.7827861356745,40.45898103406103,274.90334695529936,-0.015522033907473,0.0072185043245553,0.998781442642212,0.0462877415120601,-0.0011473072797321,-0.0002348285809737,-0.0024460022684017,0.006615282036364,0.0026864022947847,0.0085019133985042,0.1307653492782265,-0.3320847557857633,-9.80342012822628,14939.0
1.81,1.7000000476837158,138.0,23.822769165039062,-0.0795177370309829,-79.78278610075259,40.45898086457044,274.89606708240507,-0.0155253550037741,0.0072118453681468,0.998781442642212,0.0462893918156623,0.0017650078281045,0.0078038554770603,0.0019269455128151,0.005209406837821,-2.323940316273365e-05,0.011212982237339,0.1337351592443883,-0.2960167542099953,-9.801391144394875,14939.0
2.0,1.7000000476837158,139.0,23.82402038574219,-0.0874695107340812,-79.78278605612397,40.45898073504818,274.8882741923332,-0.0155429663136601,0.0072228098288178,0.9987812638282776,0.0462839417159557,0.0024402222694125,0.0075114744792609,0.0039406385849822,-0.0053229131735861,-0.0003047693462576,-0.0086191287264227,0.1328135741036385,-0.2966378381475806,-9.800836828351024,14939.0
2.09,1.7000000476837158,142.0,23.821516036987305,-0.0715659633278846,-79.78278606430086,40.45898072122908,274.8890820736885,-0.0155646810308098,0.0072262566536664,0.9987818002700806,0.0462651178240776,0.0019960065836561,0.0085836221205767,0.0041066526407786,0.0002692068810574,0.0009782646084204,-0.0049013458192348,0.1313333697337657,-0.3311596166342497,-9.803715997338298,14939.0
2.29,1.7000000476837158,142.0,23.817760467529297,-0.0715659633278846,-79.78278597811733,40.45898060989092,274.8795617814064,-0.0155425649136304,0.0072437152266502,0.9987833499908448,0.0462373606860637,-0.0026752976036908,0.003994143790808,0.0022123757906176,-0.00196053693071,-0.0003844991733785,0.0069331005215644,0.131431319732219,-0.3304931802302599,-9.8052924066782,14939.0
2.4,1.7000000476837158,143.0,23.829029083251957,-0.0636141896247863,-79.78278593899174,40.45898049297735,274.8701065773964,-0.0155460089445114,0.0072436020709574,0.998784363269806,0.0462138094007968,0.0017149595502317,0.0016014917874399,0.000909039212139,0.0048189717344939,0.0030817026272416,0.0082703568041324,0.1322816053871065,-0.2986801426671445,-9.800993533730509,14939.0
2.59,1.7000000476837158,144.0,23.83028030395508,-0.0636141896247863,-79.78278594063401,40.45898049145132,274.8702061767578,-0.0155531261116266,0.0072488854639232,0.9987850189208984,0.0461959689855575,0.0004351550947351,0.0020935770093929,0.0011840458944215,-0.0059589273296296,-0.0018301417585462,-0.0093229347839951,0.1332340711355209,-0.2962741778790951,-9.801969434022904,14939.0
2.7,1.7999999523162842,145.0,23.827777862548828,-0.055662415921688,-79.78278592911073,40.45898035651843,274.86111539554594,-0.0155890546739101,0.0072698523290455,0.9987856149673462,0.0461690053343772,0.0063801105579677,0.0046310384926601,0.0003619834455612,-0.0044565903954207,-0.0010926342802122,-0.0096366638317704,0.1315971522498876,-0.3298088001832366,-9.80200451731682,14939.0
2.9,1.7000000476837158,143.0,23.83028030395508,-0.0636141896247863,-79.78278593807049,40.4589803527487,274.8611236805916,-0.0155871072784066,0.0072819646447896,0.9987872242927552,0.0461320541799068,0.0081039283126699,0.0050921424537121,0.0001622803023143,0.0073071024380624,0.0040757446549832,0.0098390653729438,0.1314701763074845,-0.3254054082557559,-9.802544800043108,14939.0
3.0,1.7000000476837158,141.0,23.827777862548828,-0.0636141896247863,-79.7827858874743,40.4589802135018,274.85438168001167,-0.0155783556401729,0.0072793797589838,0.9987896680831908,0.046083390712738,0.0047147004414691,0.0084676690509151,0.0022612158424512,0.0075000082142651,0.0026387390680611,0.0042318697087466,0.1302248290088027,-0.3080119516700506,-9.800868403315542,14939.0
3.2,1.7000000476837158,140.0,23.82652473449707,-0.0636141896247863,-79.78278589305886,40.45898020622108,274.8546153898239,-0.0155918793752789,0.0072771674022078,0.9987908601760864,0.0460522472858428,0.003185028252392,0.0089039950382118,0.0023477654199304,-0.0048304894007742,-0.0064583248458802,-0.0015910204965621,0.1291814207844436,-0.3181289503723383,-9.801778230071069,14939.0
3.3,1.7999999523162842,139.0,23.82652473449707,-0.0715659633278846,-79.78278586709038,40.458980080838366,274.84644383144376,-0.0156083554029464,0.0072729154489934,0.998791754245758,0.0460283905267715,0.0048949251621525,0.0085722071994528,0.0011926712180898,-0.0060388385318219,-0.0007987797725945,0.0011259773746132,0.131129429815337,-0.3087559733167291,-9.800762568712235,14939.0
3.49,1.7999999523162842,138.0,23.82402038574219,-0.0715659633278846,-79.7827858128035,40.45897996047768,274.8385741109848,-0.0156095679849386,0.0072733694687485,0.9987921118736268,0.0460190847516059,0.0025881211954337,0.007384060306579,0.0001646134146823,0.0036019328981637,0.0041113793849945,-0.0019507014658302,0.1299568438064307,-0.3055045376904309,-9.800625743865966,14939.0
3.59,1.7999999523162842,138.0,23.82652473449707,-0.055662415921688,-79.78278582006546,40.45897994692749,274.8386100525856,-0.0156228272244334,0.0072569022886455,0.9987930655479432,0.0459973700344562,0.0023925013036622,0.0083367934725162,0.0001975138201601,0.0023440343793481,0.0022261687554419,-0.0044678505510091,0.1306067526899278,-0.3077175809070468,-9.800478978753093,14939.0
3.8,1.7999999523162842,136.0,23.827777862548828,-0.0715659633278846,-79.78278581963048,40.45897985216422,274.83317220163343,-0.0156187368556857,0.0072659840807318,0.9987948536872864,0.0459593757987022,0.0077220558255268,0.0043218232593112,0.0036196404082931,-0.0059261322021484,-0.0016312935622408,-0.0005286085652187,0.1316205685213208,-0.3208278423920274,-9.803028364777566,14939.0
3.9,1.7999999523162842,135.0,23.829029083251957,-0.055662415921688,-79.78278578946531,40.458979752472345,274.8277535433769,-0.015631079673767,0.0072586364112794,0.998796045780182,0.0459296219050884,0.004740804121899,0.0027302027440146,0.0049888639802667,-0.0083252508193254,-0.0009831081843003,-0.0096681853756308,0.1339726201537996,-0.3155404245480895,-9.801215143203736,14939.0
4.09,1.8999999761581416,136.0,23.827777862548828,-0.0715659633278846,-79.78278579646795,40.45897975031345,274.82822936725614,-0.0156407076865434,0.0072598848491907,0.998796045780182,0.0459262914955616,0.0066067391591664,0.0032757582644116,0.0048693208456908,0.0093504693359136,0.0051488569006323,0.0060535357333719,0.1328100566379726,-0.3245707547664642,-9.802843592762947,14939.0
4.2,1.8999999761581416,134.0,23.829029083251957,-0.055662415921688,-79.78278578381259,40.4589796386044,274.8231226797104,-0.0156477354466915,0.0072486419230699,0.9987981915473938,0.0458791851997375,0.0073471190754744,0.0047184297340844,0.006435173615148,0.0091118514537811,0.0040569403208792,0.0087494375184178,0.1308442866895348,-0.299594044201076,-9.800309994220736,14939.0
4.39,1.7999999523162842,133.0,23.82026481628418,-0.0636141896247863,-79.78278579203237,40.458979634780455,274.8237628931999,-0.0156510379165411,0.0072425953112542,0.998799204826355,0.0458569452166557,0.0055159123469497,0.0051484447809395,0.0066303616899383,-0.0075968788005411,-0.0031147028785198,-0.0122856143862009,0.1315219789836556,-0.295172032546252,-9.79989367246628,14939.0
4.49,1.8999999761581416,135.0,23.827777862548828,-0.0636141896247863,-79.78278576039008,40.45897954210199,274.8165247435569,-0.0156436115503311,0.0072312937118113,0.9988008737564088,0.0458256043493747,0.0037611713369283,0.002453104115211,0.0038252498799039,-0.0019257507519796,0.0003634714230429,-0.0060791485011577,0.130647363429889,-0.3324448711797595,-9.803807213902472,14939.0
4.7,2.0,133.0,23.825273513793945,-0.0795177370309829,-79.78278576523397,40.45897954019324,274.81690067005155,-0.0156336948275566,0.0072266520000994,0.9988021850585938,0.0458000116050243,0.0038546103350838,0.0030942396893383,0.0039409030481003,-0.0018403910798951,-0.0007362121832557,0.0056233517825603,0.1306193516124039,-0.3284047375246882,-9.804237568974496,14939.0
4.8,2.0,131.0,23.825273513793945,-0.0715659633278846,-79.78278573501682,40.45897940531511,274.8095206017494,-0.0156116727739572,0.0072063212282955,0.9988048076629642,0.0457528308033943,0.0011103722713851,0.0085884916773404,0.0018657920029693,-0.0018816437805071,-0.0045654205605387,0.0002690286491997,0.1316228069085628,-0.3051561898179352,-9.801577670574186,14939.0
4.99,2.0,133.0,23.825273513793945,-0.0636141896247863,-79.78278574145658,40.45897931221153,274.8041918272972,-0.0156366415321826,0.0072103324346244,0.9988043308258056,0.0457546338438987,0.0070088317032732,0.0082184721328769,0.0037560726900043,0.0058371075429022,0.0048188329674303,0.005290170200169,0.1314518306683749,-0.3165292252600193,-9.801831439733506,14939.0
5.1,1.8999999761581416,133.0,23.82402038574219,-0.0636141896247863,-79.7827857578139,40.458979297711245,274.80493348789213,-0.0156269129365682,0.0072210589423775,0.9988051652908324,0.0457382313907146,0.006940089443623,0.0093629951870093,0.003611159215131,0.0086681954562664,0.0038940997328609,0.0079144230112433,0.130817581359297,-0.3261705895140767,-9.801554866433143,14939.0
5.29,1.8999999761581416,134.0,23.829029083251957,-0.0079517737030982,-79.78278573005841,40.45897921967261,274.7995323534012,-0.0156345758587121,0.0072246012277901,0.9988061189651488,0.0457146503031253,0.0026954586678072,0.0049395971597014,0.0054499280520439,-0.00852139480412,-0.0048499889671802,-0.0105814700946211,0.1308238945249468,-0.2990589143335819,-9.800755552053452,14939.0
5.39,2.0,137.0,23.829029083251957,-0.0715659633278846,-79.78278571378118,40.45897912494154,274.79264128160474,-0.015635197982192,0.0072311507537961,0.9988077878952026,0.0456777103245258,0.0010684926567111,0.0052716394174182,0.0032286423697374,-0.005408220924437,-0.0047926059924066,-0.0121081238612532,0.131575069874525,-0.3324085818976164,-9.804237568974496,14939.0
5.59,2.0,135.0,23.81650924682617,-0.0715659633278846,-79.78278571643891,40.45897912007091,274.7929572458267,-0.0156396683305501,0.0072161201387643,0.9988093376159668,0.0456421747803688,0.0020245792892991,0.0060154060988018,0.0030671995876235,0.0038601623382419,0.0007185977883636,0.0076759662479162,0.1311709450464696,-0.3332877107709646,-9.80293656349182,14939.0
5.7,2.0,133.0,23.827777862548828,-0.0795177370309829,-79.78278572751243,40.45897902405803,274.78831249427793,-0.0156459566205739,0.0072077773511409,0.9988107085227966,0.0456131920218467,0.0041262767488741,0.0064969839536115,0.0053855199007419,-0.0002478606184013,-0.0005666418001055,0.0054991636425256,0.1312720470596104,-0.2990870540589094,-9.80080876171589,14939.0
5.9,2.0999999046325684,133.0,23.82402038574219,0.0397588685154914,-79.78278573343219,40.4589790183758,274.78884661149976,-0.0156526900827884,0.0072232340462505,0.9988099932670592,0.0456230193376541,0.0043362079815557,0.0070399893608812,0.005420242099306,-0.0016797864809632,-0.0005778857157565,-0.0027588950470089,0.1313050472829491,-0.3038891164585948,-9.80016907632351,14939.0
5.99,2.0999999046325684,133.0,23.82402038574219,-0.0079517737030982,-79.78278574960608,40.45897892785085,274.7842355365753,-0.0156775023788213,0.0072399200871586,0.998810648918152,0.0455984026193618,0.0058266499783114,0.0074478768963523,0.0063848208767782,0.0003025282348971,0.0025441253092139,-0.0017027027206495,0.1314796140789985,-0.324383716955781,-9.803179807662962,14939.0
6.19,2.0,134.0,23.817760467529297,0.0159035474061965,-79.7827857569917,40.458978921591054,274.78486299467085,-0.0156679488718509,0.0072332867421209,0.9988113045692444,0.0455877408385276,0.0053240924819227,0.0080386113447643,0.0063294080536591,-0.0003668589924927,-0.001190673559904,0.0057423701509833,0.1313305648975074,-0.3254150927066803,-9.802781612277034,14939.0
6.29,2.0,137.0,23.817760467529297,0.0079517737030982,-79.78278575240293,40.45897885201726,274.7804846162796,-0.0156633742153644,0.0072328536771237,0.998812973499298,0.0455530472099781,0.0038332964301071,0.0045738539767175,0.0071035221810261,0.0023632415104657,-0.0020454826299101,0.0077880327589809,0.1301864566560834,-0.3041484587453306,-9.800680122971537,14939.0
6.49,2.0,138.0,23.81275177001953,0.055662415921688,-79.7827857872911,40.458978793927095,274.7754294271469,-0.0156721975654363,0.0072264359332621,0.9988128542900084,0.0455532111227512,0.009313310620102,0.0017216816398746,0.0079725243691109,0.0007667550235055,-0.0026155624072998,-0.0047340188175439,0.1324062333069741,-0.2995600024424493,-9.801052590608595,14939.0
6.6,2.0,139.0,23.81650924682617,0.1669872552156448,-79.78278581085905,40.45897879183906,274.77697330665586,-0.0157117024064064,0.0072195027023553,0.9988139867782592,0.0455156452953815,0.0090243301410897,0.0027271584785666,0.0081041728056014,-0.0017324344953522,-0.0015001005958765,-0.0052243885584175,0.1294004355557263,-0.3311593608185649,-9.803439424037936,14939.0
6.8,2.0999999046325684,136.0,23.81650924682617,0.0159035474061965,-79.78278580258167,40.45897871758678,274.77182346534727,-0.0157152004539966,0.0072134570218622,0.9988155961036682,0.0454800762236118,0.0061264386489447,0.0035122982364851,0.008203290213102,0.0035750032402575,0.0046659898944199,0.0079212514683604,0.1300151058286428,-0.3301472077891231,-9.80324178814888,14939.0
6.9,2.0999999046325684,133.0,23.79772758483887,-0.0715659633278846,-79.78278583232589,40.45897864956317,274.7691473956108,-0.015721583738923,0.0072020306251943,0.9988163709640504,0.0454621650278568,0.0076938430274409,0.0047242552329445,0.0112633936752981,0.0062826597131788,0.0010254536755383,0.0058237509801983,0.1334585585352033,-0.3284902165085077,-9.803968012332916,14939.0
7.1,2.0999999046325684,132.0,23.798980712890625,-0.1033730581402778,-79.78278584124136,40.45897864578862,274.770259499073,-0.0157245565205812,0.0071981376968324,0.998816967010498,0.0454488582909107,0.0058886045465945,0.0052595614636165,0.0113307898742151,-0.0090556852519512,-0.0022836569696664,-0.0112377684563398,0.1301833320502191,-0.300887557938695,-9.800412905216216,14939.0
7.19,2.0999999046325684,133.0,23.80023193359375,-0.0954212844371795,-79.7827858997017,40.45897858045207,274.7679098243713,-0.0157463364303112,0.0072061643004417,0.9988168478012084,0.0454442463815212,0.0099923470232541,0.0062117254737693,0.0140139774647588,-0.0097110038623213,-0.0044954125769436,-0.0096326535567641,0.1327765082381666,-0.3262610386312008,-9.803536487817762,14939.0
7.39,2.0999999046325684,132.0,23.80023193359375,-0.0954212844371795,-79.78278591385879,40.45897857576071,274.7692775125504,-0.0157378315925598,0.0072106262668967,0.9988166093826294,0.0454521737992763,0.0121356044576041,0.0067231259878403,0.0138855295476048,0.009175413288176,0.003910185303539,0.0081613799557089,0.131478024367243,-0.3254733821377158,-9.802708522081378,14939.0
7.49,2.0999999046325684,133.0,23.80649185180664,-0.0954212844371795,-79.78278595909036,40.458978512991,274.76534771871565,-0.0157685298472642,0.0072211408987641,0.9988165497779846,0.0454397946596145,0.0121194642718341,0.0068884899115066,0.0123125057651148,0.0070836953818798,0.0032157618552446,0.009660143405199,0.132237751269713,-0.3043329383991658,-9.802293954491615,14939.0
7.69,2.0999999046325684,132.0,23.80524063110352,-0.0874695107340812,-79.78278597333951,40.45897850782943,274.7665591831207,-0.0157695170491933,0.0072166840545833,0.9988175034523008,0.0454197116196155,0.010245011527072,0.0075608179695648,0.0124555037023048,-0.0063343225046992,-0.0037438685540109,-0.0060054576024413,0.1319142632000148,-0.3065274349786341,-9.801894589662552,14939.0
7.8,2.0999999046325684,132.0,23.78771209716797,-0.0874695107340812,-79.78278599312613,40.45897845317779,274.7648640270233,-0.0157655179500579,0.0072184563614428,0.998818814754486,0.0453920140862464,0.0063853165062327,0.007090579823609,0.0146454544266529,-0.0088534783571958,-0.0032203537411987,-0.0085834674537181,0.1313769588991999,-0.3221894761919976,-9.80106077671051,14939.0
7.99,2.0999999046325684,133.0,23.801483154296875,-0.0636141896247863,-79.78278603691852,40.45897838393893,274.7639299030304,-0.0157892275601625,0.0071992184966802,0.9988186955451964,0.0453891307115554,0.008519047897056,0.0122915074735659,0.0214927098484484,0.0048030172474682,0.0047469730488955,0.0070062992163002,0.1323731874022632,-0.3194791090115905,-9.80292077600956,14939.0
8.1,2.0,134.0,23.80023193359375,-0.0874695107340812,-79.78278605944084,40.458978362601314,274.7682251329422,-0.015799380838871,0.0071710254997015,0.9988197088241576,0.0453679598867893,0.0088234225602047,0.0137420560243455,0.0215428295453348,0.0073577305302023,0.0033756755292415,0.0071193790063261,0.1306865123659372,-0.3118673133105039,-9.801605152487756,14939.0
8.29,2.0,135.0,23.80524063110352,-0.1033730581402778,-79.78278608552384,40.458978279670575,274.7727434630394,-0.0157892666757106,0.0071710445918142,0.9988216757774352,0.0453289821743965,0.0032706270941127,0.0211432988700367,0.0377559160822073,-0.0071063661016523,-0.0048456587828695,-0.005976247601211,0.1302602686174214,-0.311558543778956,-9.801708063483238,14939.0
8.39,2.0,133.0,23.801483154296875,-0.0874695107340812,-79.78278612560446,40.458978240327575,274.7796638007164,-0.0157799664884805,0.0071649737656116,0.9988236427307128,0.0452883392572402,0.0015022463656394,0.0152487294860714,0.049361601651208,-0.0085684470832347,-0.0051599289290606,-0.009859686717391,0.1321177097596228,-0.3185658470168711,-9.802144850492477,14939.0
8.59,1.8999999761581416,135.0,23.801483154296875,-0.0874695107340812,-79.7827861320625,40.458978227191785,274.7846053833961,-0.0157926455140113,0.0071611776947975,0.9988228678703308,0.045301292091608,0.0035025017967464,0.0160841815569844,0.0493154999600937,0.0092837810516357,0.0038181866984814,0.0074410904198884,0.1331854935642332,-0.3216051200777292,-9.80219864487648,14939.0
8.69,1.8999999761581416,139.0,23.80649185180664,-0.0795177370309829,-79.7827861973463,40.45897821482463,274.7898891563416,-0.0157926306128501,0.0071740630082786,0.9988229274749756,0.0452980622649192,0.0064473703425093,0.0091184015730544,0.0529443056431832,0.0072417268529534,-0.0011606807820498,0.0055398661643266,0.1324278771411627,-0.308515177667141,-9.802515563964844,14939.0
8.89,1.8999999761581416,140.0,23.81024742126465,-0.1192766055464744,-79.78278620686609,40.4589782075321,274.7951815123558,-0.0157919079065322,0.007182371802628,0.9988235235214232,0.0452843941748142,0.0049590676926437,0.0098612185777325,0.0530921974255778,-0.0038934454787522,-0.0048191086389124,-0.0047484547831118,0.1303205314837396,-0.3139480815455318,-9.802845931649207,14939.0
9.0,1.7999999523162842,140.0,23.808996200561523,-0.0795177370309829,-79.78278626790123,40.45897819141615,274.7970407004356,-0.0158140268176794,0.0072002224624156,0.9988226294517516,0.04529370367527,0.0069371811137873,0.0064650711202055,0.0495697120315454,-0.0028089450206607,0.0009233683813363,0.0002573600213509,0.1309555573761463,-0.3138833601772785,-9.801607491374016,14939.0
9.19,1.7999999523162842,141.0,23.81525611877441,-0.1590354740619659,-79.78278627938937,40.45897818683215,274.80198878002165,-0.0158295854926109,0.0072105363942682,0.9988213777542114,0.0453136712312698,0.0077539604487751,0.0070285950102174,0.0497810825619976,-0.0002405785489827,0.0014759205514565,-0.0028263996355235,0.1320659801736474,-0.3035468898899853,-9.801620355248447,14939.0
9.29,1.7000000476837158,144.0,23.808996200561523,-0.1669872552156448,-79.78278637340057,40.45897818283644,274.8012514109612,-0.0158394798636436,0.0072181350551545,0.9988217949867249,0.04530044272542,0.0119203776527372,0.0038288859580734,0.0432825907275813,-0.0071675409562885,-0.0012196241877973,-0.0076063377782702,0.1305450371559709,-0.3305375825241208,-9.802309157252314,14939.0
9.49,1.7000000476837158,144.0,23.81024742126465,-0.1431319266557693,-79.78278641352475,40.458978185324895,274.79634761762617,-0.0158311780542135,0.0072169150225818,0.9988215565681458,0.0453089848160743,0.0099533567861571,2.340448502570589e-05,0.0380067801078903,0.0080574136227369,0.002751380437985,0.0091108614578843,0.1326880873739719,-0.3270224191993475,-9.80306227862835,14939.0
9.6,1.7000000476837158,146.0,23.80398750305176,-0.1272283792495727,-79.7827864379922,40.45897818715421,274.803905605793,-0.0158498361706733,0.0072344215586781,0.9988216757774352,0.0452972128987312,0.0100618491933983,0.0010035753852315,0.0380849227177658,0.0091678416356444,0.0040699294768273,0.0013336803531274,0.1313104468211531,-0.3091855609416962,-9.801280632019044,14939.0
9.79,1.7000000476837158,147.0,23.802736282348643,-0.1749390214681625,-79.78278647816697,40.45897819346446,274.7947708959579,-0.0158341955393552,0.0072089675813913,0.9988220930099488,0.0452968403697013,0.0073448733229026,-0.001755546619053,0.0279754764114153,0.0001473674346925,-0.0010720097925513,0.0046581830829381,0.1310869826842099,-0.3276802675053477,-9.80263309299946,14939.0
9.9,1.600000023841858,147.0,23.80524063110352,-0.1749390214681625,-79.7827865637883,40.45897817172855,274.78922688913343,-0.0158625226467847,0.0071961833164095,0.9988223910331726,0.0452819801867008,0.0102961341737373,0.0045586337875799,0.0202447253841147,0.0071111642755568,0.0033677697647362,0.0072624310851097,0.1321812525484711,-0.3284723825007677,-9.802593916654589,14939.0
10.1,1.600000023841858,146.0,23.81275177001953,-0.1510837078094482,-79.78278658912225,40.458978164703325,274.7932538385391,-0.0158982928842306,0.0072092390619218,0.9988222718238832,0.0452703833580017,0.0109816670237134,0.005796736538814,0.0203890088298563,0.0057549905031919,0.0014335246523842,0.0039900122210383,0.1302760012820363,-0.3039771535992622,-9.80122449874878,14939.0
10.3,1.600000023841858,147.0,23.817760467529297,-0.1192766055464744,-79.78278666037501,40.45897819237482,274.78682875585554,-0.0158936213701963,0.0072128786705434,0.998823583126068,0.0452418848872184,0.0112952259549047,0.0004487465721361,0.0176496671181311,-0.0031612524762749,-0.0051767118275165,-0.0028901265468448,0.1295892914850265,-0.3205874121934176,-9.803650508522988,14939.0
10.4,1.7000000476837158,144.0,23.82402038574219,-0.0636141896247863,-79.78278672708957,40.45897820119393,274.7825565333366,-0.0158824548125267,0.0072176745161414,0.9988238215446472,0.0452419891953468,0.0093296806861075,0.0013782735495946,0.0144281089484205,0.0050817583687603,-0.0015075447736307,0.0078933173790574,0.1314075380098074,-0.3025479844585061,-9.8005713647604,14939.0
10.59,1.7000000476837158,143.0,23.821516036987305,-0.0636141896247863,-79.7827867384716,40.458978200685074,274.7839751834869,-0.0158838927745819,0.0072233090177178,0.9988223314285278,0.0452728569507598,0.0084372653618723,0.001857798367821,0.0145458557191009,-0.0074487691745162,-0.0008955433731898,-0.0121602052822709,0.1298890617862343,-0.2981542038917542,-9.799308366179469,14939.0
10.69,1.600000023841858,142.0,23.82026481628418,-0.0636141896247863,-79.7827868080645,40.458978190093546,274.7799131865501,-0.0159003771841526,0.0072210291400551,0.9988227486610411,0.0452585145831108,0.0061832731668973,0.0060822558222673,0.0122353414850672,-0.0060090995393693,-0.0034017898142337,-0.0095225293189287,0.1317149279639125,-0.3259155047312379,-9.802457676529883,14939.0
10.89,1.600000023841858,142.0,23.827777862548828,-0.0636141896247863,-79.78278681761734,40.458978185133816,274.7811149353981,-0.015894366428256,0.0072158793918788,0.9988232254981996,0.0452499017119407,0.0078903665818916,0.0066888149128921,0.0121901904364805,0.006068711169064,0.0026671844534575,0.0018716407939791,0.1309949529916048,-0.3107310165837407,-9.800338060855866,14939.0
10.99,1.600000023841858,142.0,23.81901359558105,-0.0636141896247863,-79.78278694506135,40.45897824012253,274.7770503754616,-0.015924772247672,0.007242368068546,0.9988237023353576,0.0452241189777851,0.0138651451611824,-0.0011123579288733,0.0113521499248449,-0.0032308432273566,-0.0022775556426495,-0.0051648980006575,0.1321837284788489,-0.3268935611844063,-9.803580341935158,14939.0
11.19,1.600000023841858,142.0,23.82652473449707,-0.0636141896247863,-79.78278696192814,40.458978242280345,274.7781281466484,-0.0159314945340156,0.0072308015078306,0.9988245964050292,0.0452031306922435,0.0154448904764259,-0.000547747206526,0.0111258199365134,0.0051644640043377,0.0023595136590301,0.0094395661726593,0.1318518624454736,-0.3282379091531038,-9.801161348819733,14939.0
11.29,1.7000000476837158,140.0,23.822769165039062,-0.0795177370309829,-79.78278705972913,40.45897826170815,274.77468222332,-0.015947226434946,0.0072159892879426,0.9988245368003844,0.0452034808695316,0.0159490568774779,0.0009473978986466,0.0105559613528275,0.0101329302415251,0.0037089604884386,0.0041930698789656,0.131559894522652,-0.3034274970553816,-9.800804668664927,14939.0
11.49,1.7999999523162842,140.0,23.821516036987305,-0.0636141896247863,-79.7827871239318,40.45897829714883,274.77052527618406,-0.0159415267407894,0.0072322310879826,0.9988259077072144,0.0451706387102603,0.0113725873395149,-0.001859683080993,0.0102523897239387,-0.0039884499274194,-0.0038951057940721,-0.0029270136728882,0.1304375488869845,-0.3170843087509275,-9.802975739836691,14939.0
11.6,1.7999999523162842,141.0,23.822769165039062,-0.055662415921688,-79.78278715337736,40.45897830181335,274.77248543453214,-0.0159431882202625,0.007226116489619,0.9988275170326232,0.0451356023550033,0.0128027349743925,-0.0005964077769419,0.0102043871559989,-0.0035041628871113,-0.0002298502367921,0.0045059025287628,0.1312540394626558,-0.3266131871938705,-9.802665837407114,14939.0
11.8,1.7999999523162842,139.0,23.822769165039062,-0.0795177370309829,-79.78278724084372,40.45897834892767,274.768517970562,-0.015967970713973,0.0072403536178171,0.9988272786140442,0.0451311059296131,0.0135410507405367,-0.0030490526943411,0.0099780804433654,-0.0016164151020348,0.0006606846000067,-0.0068425294011831,0.1320117107033729,-0.2992025182954967,-9.800721638202669,14939.0
11.89,1.7000000476837158,147.0,23.81525611877441,-0.0715659633278846,-79.78278734167169,40.45897836857126,274.7658327813148,-0.0159606300294399,0.0072142169810831,0.9988293051719666,0.0450921356678009,0.0124488330685447,0.0030967700260776,0.009700461368022,-0.0071073761209845,-0.0007892249850556,-0.0092050451785326,0.1312465568538755,-0.3306762346252799,-9.802607365250587,14939.0
12.09,1.7000000476837158,148.0,23.82026481628418,-0.0795177370309829,-79.78278735828233,40.45897836673551,274.7667585606575,-0.0159651152789592,0.0072242626920342,0.9988296031951904,0.0450830943882465,0.0147532631319402,0.0037595832774156,0.0096353252469342,0.010765909217298,0.0032064612023532,0.0065609300509095,0.1318985213991254,-0.3269645683094859,-9.802844762206078,14939.0
12.19,1.7000000476837158,150.0,23.82652473449707,-0.0636141896247863,-79.78278744405162,40.45897840256588,274.76438444805143,-0.0159721653908491,0.0072406935505568,0.998830258846283,0.0450630821287632,0.0118379719226043,0.0034552340368999,0.0094121286269408,0.0029725602362304,0.0035687163472175,0.0036216014996171,0.1306115218251943,-0.3105800853297114,-9.801299927830694,14939.0
12.4,1.7999999523162842,149.0,23.82652473449707,-0.0715659633278846,-79.78278745829199,40.45897840027281,274.765299677372,-0.015961991623044,0.0072414902970194,0.9988315105438232,0.0450387150049209,0.0117513032758156,0.0040437784235522,0.0094776035057755,-1.5917865312076174e-05,-0.002303332556039,0.0055009205825626,0.1311659200955182,-0.3262160881608725,-9.803482108712195,14939.0
12.49,1.7999999523162842,148.0,23.817760467529297,-0.0636141896247863,-79.78278756291748,40.45897844176073,274.7646771068573,-0.0159479994326829,0.0072603980079293,0.9988332986831664,0.0450000464916229,0.0135394772834514,0.0039001078774408,0.0123697266951091,0.0087332092225551,0.0044027101248502,0.0075837085023522,0.132468268610537,-0.3275739943608641,-9.802388094663618,14939.0
12.7,1.7999999523162842,147.0,23.84029769897461,0.0,-79.78278757916377,40.45897843942364,274.7658823723793,-0.0159443840384483,0.0072694504633545,0.99883371591568,0.0449903234839439,0.0122855919471273,0.004493341357167,0.012499738961432,-0.0101307686418294,-0.00382797466591,-0.0055028130300343,0.131768119353801,-0.3072024412080645,-9.80092921435833,14939.0
12.8,1.8999999761581416,148.0,23.81525611877441,-0.0795177370309829,-79.78278771534335,40.45897850584983,274.76573324155805,-0.0159539226442575,0.0072694327682256,0.9988340735435486,0.044979128986597,0.0174203556274195,0.0006306727327901,0.0150694689919949,-0.0008756218594498,-0.0010028361575677,0.0051079988479614,0.1311920407041907,-0.326508814394474,-9.803723598718644,14939.0
13.0,1.7999999523162842,147.0,23.82652473449707,-0.0715659633278846,-79.78278778610031,40.45897855451327,274.76354020786283,-0.0159359276294708,0.0072681801393628,0.9988349676132202,0.0449663624167442,0.0121016424540029,0.0003696021158328,0.0164630647142489,-0.0033015569206327,-0.0021043384913355,-0.0057538296096026,0.1329564014822244,-0.2982650269009173,-9.800470207929614,14939.0
13.1,1.7000000476837158,148.0,23.825273513793945,-0.0715659633278846,-79.78278781810944,40.45897855556426,274.76673310947416,-0.0159348603338003,0.0072705000638961,0.99883770942688,0.0449047051370143,0.0125145977338056,0.0014807935569248,0.0164607845963151,-0.0077104526571929,-0.0027401610277593,-0.0114633599296212,0.1321803754661232,-0.3037252847850323,-9.800909333825114,14939.0
13.3,1.7999999523162842,150.0,23.821516036987305,-0.0874695107340812,-79.78278788926168,40.45897860373924,274.7627953882217,-0.0159351043403148,0.007272636052221,0.9988388419151306,0.0448796562850475,0.0112685185876516,0.0011749010578398,0.014155226991617,0.0077881556935608,0.0019095971947535,0.0045121004804968,0.1314704321231693,-0.3195490563288331,-9.80122215986252,14939.0
13.39,1.7999999523162842,149.0,23.81901359558105,-0.0715659633278846,-79.78278797871852,40.45897868030392,274.76029103946684,-0.0159142706543207,0.0072813122533261,0.9988400340080258,0.0448591113090515,0.0093433182918789,-0.005061476930506,0.0127686257519109,0.0009568112436681,4.180973701295443e-05,-0.0002112095826305,0.1302583499997854,-0.3184819760173559,-9.80290966629982,14939.0
13.59,1.7999999523162842,147.0,23.81650924682617,-0.0636141896247863,-79.78278798957173,40.458978685523455,274.76153439235685,-0.0159235224127769,0.007274345960468,0.9988402128219604,0.0448538772761821,0.0097258986402833,-0.0045515445387617,0.0127739565532363,0.0030037185642868,0.0012067967327311,0.0049301134422421,0.1308463606238365,-0.3298454183712602,-9.803078650832177,14939.0
13.7,1.7999999523162842,149.0,23.827777862548828,-0.0636141896247863,-79.78278807507294,40.45897873945045,274.7608746881485,-0.015936404466629,0.0072670215740799,0.9988413453102112,0.0448251105844974,0.0081696277027226,-0.0022663646742567,0.0151698950260228,0.0084217125549912,0.0089615145698189,0.0054079378023743,0.1334296330902725,-0.2970783710293472,-9.801044404506683,14939.0
13.89,1.8999999761581416,149.0,23.825273513793945,-0.0715659633278846,-79.78278808426846,40.458978742114965,274.7623710627556,-0.0159428976476192,0.0072739678435027,0.9988421201705932,0.0448046214878559,0.0068018383383286,-0.0018116708649425,0.0153329926622056,-0.0091401515528559,-0.0059487726539373,-0.0135825546458363,0.1308945270627737,-0.301734033767134,-9.800442726016048,14939.0
13.99,1.8999999761581416,150.0,23.82026481628418,-0.0715659633278846,-79.78278823003494,40.45897877318527,274.75929158878324,-0.0159619059413671,0.0072718155570328,0.998842477798462,0.0447901338338851,0.0131987419342418,0.0038583461836901,0.0131035595449162,-0.0075794951990246,-0.0050570275634527,-0.0084105134010314,0.1317703303322196,-0.322300025112927,-9.802775180339813,14939.0
14.19,1.8999999761581416,150.0,23.821516036987305,-0.0874695107340812,-79.78278824761114,40.45897877097378,274.7605523462296,-0.0159825794398784,0.0072974832728505,0.9988411664962769,0.0448078513145446,0.0150467963572687,0.0042592895989862,0.0130307778726233,0.0047332369722425,0.003074103500694,0.0008214951958507,0.1306119512300938,-0.3114011440426112,-9.800533942580223,14939.0
14.3,1.7999999523162842,147.0,23.822769165039062,-0.0954212844371795,-79.78278836218334,40.45897882233825,274.7581942076683,-0.0159965455532073,0.0073127341456711,0.998840868473053,0.04480766877532,0.0147731511106616,0.0038679901601955,0.0121806182937712,-0.0050732754170894,-0.0004758217837661,-0.0098042348399758,0.1305100817698985,-0.2975638909265399,-9.799815319776538,14939.0
14.49,1.7999999523162842,147.0,23.821516036987305,-0.0954212844371795,-79.78278845784804,40.45897889271505,274.7548344130516,-0.0160018447786569,0.0073401015251874,0.9988409876823424,0.0447965189814567,0.0163214968802904,-0.0005991593437442,0.0112644291158821,0.0077131898142397,0.0065066968090832,0.0088672554120421,0.131050857855007,-0.3283261655643582,-9.803160511851312,14939.0
14.6,1.7999999523162842,149.0,23.825273513793945,-0.0636141896247863,-79.78278849570205,40.458978896189016,274.7570077176094,-0.0160006899386644,0.0073591899126768,0.9988413453102112,0.0447871275246143,0.0174372573407229,7.6192264884964e-05,0.0113070550354455,0.0086504183709621,-0.0007554065086878,0.0067139365710318,0.1321600838005542,-0.3214549197256565,-9.801075979471207,14939.0
14.79,1.7999999523162842,147.0,23.81275177001953,-0.0954212844371795,-79.78278860997841,40.45897894858193,274.75406682443617,-0.0160230081528425,0.0073500117287039,0.9988422393798828,0.0447606109082698,0.0187314662545814,0.000573714157977,0.0108786620690369,-0.0068411431275308,-0.0042892689816653,-0.0051078642718493,0.1314915551897138,-0.3119439849257469,-9.80156889975071,14939.0
14.89,1.7999999523162842,145.0,23.817760467529297,-0.0715659633278846,-79.78278869671571,40.45897899036185,274.7522976989746,-0.0160215757787227,0.0073531921952962,0.9988442063331604,0.0447176620364189,0.0128950672752305,0.0040892498269922,0.010256994940053,-0.0065303323790431,-0.0068061770871281,-0.0012542258482426,0.1313588964845985,-0.3159154503419995,-9.801251980662348,14939.0
15.09,1.7999999523162842,144.0,23.817760467529297,-0.1192766055464744,-79.7827887139602,40.45897898789701,274.75326967191694,-0.0160428639501333,0.0073629915714263,0.9988434910774232,0.0447246953845024,0.015006850446685,0.0043063230795384,0.0101206882121971,0.0060772425495088,0.0023350841365754,0.0072685070335865,0.1305812350753694,-0.31447893563658,-9.800815778374671,14939.0
15.2,1.8999999761581416,145.0,23.821516036987305,-0.0954212844371795,-79.78278881882144,40.45897905437901,274.7533562774658,-0.0160434823483228,0.0073857475072145,0.9988431930541992,0.0447265729308128,0.0160721664245984,0.0011145475302327,0.0125793732167108,0.0031768206972628,0.003852849593386,0.0016467409441247,0.1304496087692678,-0.3187905993685127,-9.803869779109958,14939.0
15.4,2.0,140.0,23.770183563232425,0.9542128443717957,-79.78278883792115,40.45897905471504,274.75456798028944,-0.0160429552197456,0.0073772724717855,0.9988439083099364,0.0447119884192943,0.0155703521121535,0.0013924432284637,0.012700060878987,-0.0033490245696157,-0.0044868397526443,-0.0025792361702769,0.129703421825543,-0.3186136845499277,-9.80351485311985,14939.0
15.5,2.0,136.0,23.80649185180664,0.2226496636867523,-79.78278896098158,40.45897911520135,274.7553074355125,-0.0160275064408779,0.0073726410046219,0.9988440871238708,0.0447147898375988,0.0190225460156158,0.001223010730656,0.0153951581456989,-0.0076031628996133,0.0061438754200935,0.0044879326596856,0.1364132753759622,-0.3082392256334424,-9.803900769352913,14939.0
15.69,2.0,136.0,23.81150054931641,0.2306014448404312,-79.78278898462509,40.45897911579178,274.75677806091306,-0.0160611402243375,0.0073781544342637,0.9988437294960022,0.0447081141173839,0.0204850496463162,0.0014644606698064,0.0153539986101043,0.0029238010756671,0.0054249740205705,-0.0024179257452487,0.129329236568883,-0.3176528042927385,-9.802317343354224,14939.0
15.8,2.0,138.0,23.81024742126465,0.2146978974342346,-79.7827890262292,40.45897919734626,274.75531011772154,-0.016072392463684,0.0073910471983253,0.9988448023796082,0.0446795485913753,0.0124363176441498,-0.002988768201307,0.0130723857989692,0.006340523250401,0.0045344517566263,0.0008865977288223,0.1289994810149073,-0.3241231869533658,-9.80337218105793,14939.0
16.0,2.0,142.0,23.80023193359375,0.2385532110929489,-79.78278913179739,40.4589792585411,274.7547582383156,-0.0160581842064857,0.0073687797412276,0.998846709728241,0.0446458645164966,0.0158641620317646,-0.001783981939694,0.0158199635140548,-0.0038198030088096,0.0018218919867649,0.0019515089225023,0.1280606739968061,-0.3187347950041294,-9.803713658452033,14939.0
16.1,1.8999999761581416,141.0,23.80398750305176,0.2624085247516632,-79.78278917214818,40.45897926435215,274.75782167863844,-0.0160673726350069,0.0073818960227072,0.9988473057746888,0.0446260720491409,0.0175331533908109,-0.001185826106247,0.0160308798676816,0.0001237448159372,-0.0031694581266492,0.0009149687830358,0.1299073343351483,-0.3043110661581159,-9.797772302627564,14939.0
16.29,1.8999999761581416,141.0,23.802736282348643,0.326022744178772,-79.78278924919174,40.458979321322616,274.7569200391769,-0.0160633362829685,0.0073794680647552,0.9988481998443604,0.0446070432662963,0.0168726193684903,-0.000479529878972,0.0169760968014737,0.0008516954258084,-0.0052185426466166,-0.00237987190485,0.1284694035071879,-0.3040493849851191,-9.80301783978939,14939.0
16.4,1.7999999523162842,141.0,23.802736282348643,0.3737333714962005,-79.7827893415171,40.458979369099325,274.75950872850416,-0.0160460732877254,0.0073991604149341,0.9988481402397156,0.0446133464574813,0.0158731283091738,0.0029980930333242,0.0216177056247362,0.001078390632756,0.0066949869506061,7.074599125189707e-05,0.1366709274519235,-0.3255608711019158,-9.804607697725295,14939.0
16.6,1.7999999523162842,140.0,23.75766181945801,0.8826469182968141,-79.78278936155246,40.45897936827056,274.76174193573,-0.0160237401723861,0.0074888309463858,0.99884432554245,0.0446905121207237,0.0204344346419845,-0.0005781340861936,0.0268694013665631,0.0234210807830095,0.0328099839389324,0.0081669799983501,0.0801239392720162,-0.3560276786237955,-9.836583781242371,14939.0
16.7,1.7000000476837158,139.0,23.796476364135746,0.2544567584991455,-79.78278941782807,40.458979455644666,274.76267468881605,-0.0159949455410242,0.0076681924983859,0.9988425374031068,0.0447107888758182,0.0166747656434389,-0.0037160236950343,0.0202677658863098,0.023537429049611,-0.0030747132841497,0.0052935564890503,0.1089022536389529,-0.3184067662060261,-9.76362982571125,14939.0
16.89,1.7000000476837158,138.0,23.35825729370117,6.480695724487305,-79.7827894329303,40.4589794595341,274.7646012301445,-0.0160199478268623,0.0076523968018591,0.9988415241241456,0.0447261705994606,0.0097479664978283,-0.0031635708420753,0.020092361018723,-0.0316183529794216,0.0070983539335429,-0.0113646201789379,0.1386096997093409,-0.2909941969625652,-9.80244598209858,14939.0
17.0,1.5,144.0,23.74013328552246,0.7156596779823303,-79.78278946834024,40.45897953326679,274.7655425662994,-0.016103995963931,0.0076887211762368,0.9988380670547484,0.0447667464613914,0.0108116963949004,-0.0017847489400599,0.0192451800028655,0.0311440676450729,-0.014303782954812,0.0146659119054675,0.143336643660441,-0.2774106033705175,-9.819002373218538,14939.0
17.19,1.5,147.0,23.8077449798584,0.1749390214681625,-79.78278947638678,40.458979535804616,274.7674743528366,-0.016072629019618,0.007685740943998,0.9988399147987366,0.044737484306097,0.0080993432484557,-0.0014090706339046,0.0197484960656844,-0.0014612911036238,-0.0017645377665758,-0.0026685921475291,0.1151924781035632,-0.3206840739771724,-9.79809389948845,14939.0
17.29,1.399999976158142,149.0,23.783954620361328,0.4612028896808624,-79.78278956094422,40.45897961924853,274.7678529019356,-0.0160468872636556,0.0076511846855282,0.998843789100647,0.0446678884327411,0.0121327441678238,-0.0049937312604234,0.019154629185715,0.016195360571146,0.0249608512967824,-0.0192913934588432,0.1316365570016205,-0.3510084652528167,-9.797658281922342,14939.0
17.49,1.5,147.0,23.628700256347656,3.554442882537842,-79.78278959440199,40.45897969859365,274.76585876893995,-0.0160362664610147,0.0076955570839345,0.998844563961029,0.0446463637053966,0.0086329519664311,-0.0062995840607998,0.0196525712511358,0.0138112111017107,0.0047411755658686,0.0194021053612232,0.1330588465277105,-0.3124586129933596,-9.807351796030998,14939.0
17.6,1.5,147.0,23.579870223999023,5.192508220672607,-79.78278961599847,40.45897971188404,274.769851088047,-0.0161064602434635,0.0077443323098123,0.9988418817520142,0.044671282172203,0.0128744120724433,-0.0073925982496563,0.0204542504976596,0.0261397939175367,0.0030516861006617,0.0233088880777359,0.1607737807743251,-0.2949922854825854,-9.79849969625473,14939.0
17.79,1.5,144.0,23.477203369140625,7.267921447753906,-79.78278969384526,40.45897976493181,274.7685412163734,-0.016109300777316,0.0077118128538131,0.9988412261009216,0.0446904227137565,0.0148828066956238,-0.002025968003051,0.02010872161831,0.012453494593501,0.0591910406947135,0.0025589468423277,0.1521552041731775,-0.2895481805317104,-9.824639089107514,14939.0
17.9,1.5,148.0,23.41835594177246,8.309603691101074,-79.78278977555594,40.45897982171548,274.77063679647443,-0.016200553625822,0.0079902885481715,0.9988386034965516,0.0446682795882225,0.0184793605309728,-0.0004219710532281,0.0254268292961234,0.0299485903233289,0.1199556663632392,-0.0331890322268009,0.1566461764276027,-0.2899908878467977,-9.806057807207107,14939.0
18.09,1.600000023841858,146.0,23.280630111694336,10.567907333374023,-79.78278979433239,40.45897982128072,274.77315026474,-0.0161591377109289,0.0083398967981338,0.99883633852005,0.044668786227703,0.0116990106518612,0.0030971290540785,0.0255223736915049,-0.0603653341531753,0.0022339480929076,0.0357441380620002,0.1918343547731638,-0.3857708201184869,-9.83309650182724,14939.0
18.2,1.5,150.0,23.21677589416504,12.905729293823242,-79.78278986844029,40.45897989109604,274.7776952381134,-0.0162000935524702,0.0087230829522013,0.9988358616828918,0.04459248483181,0.015456773704589,0.0085870628059627,0.0338662186103836,-0.0046576657332479,0.0721055641770362,0.0028069391846656,0.1628577467054128,-0.3553164013847709,-9.823466137647632,14939.0
18.39,1.5,149.0,23.03773307800293,16.126197814941403,-79.78278988838224,40.45897988716046,274.78084868144987,-0.0159952882677316,0.0086893290281295,0.998844563961029,0.0444785505533218,0.02105621063982,0.0074316204699539,0.0320970982954436,0.0323184616863727,0.0613877288997173,-0.0823640003800392,0.2287838971987367,-0.2727365036308765,-9.825779296159745,14939.0
18.49,1.5,148.0,22.96511459350586,17.120168685913086,-79.7827899108954,40.45897995509497,274.7902104849815,-0.016405114904046,0.0101939113810658,0.9988351464271544,0.0442188084125518,0.0112173030966928,-0.0087105808461671,0.0503315406356722,-0.0031151340808719,0.0609890855848789,-0.0703077688813209,0.2488602207787335,-0.2412702059559524,-9.831637036800387,14939.0
18.69,1.5,150.0,22.78481864929199,20.78593635559082,-79.78278992853205,40.45897996822969,274.79572886180875,-0.0151013825088739,0.0120288077741861,0.9988327622413636,0.0442776978015899,0.0101157617705414,-0.0105024768041386,0.0630943524225614,-0.0868037119507789,0.0102944439277052,-0.0188351329416036,0.1416102258302271,-0.2839724766835571,-9.935832080841063,14939.0
18.79,1.5,147.0,22.674638748168945,23.38616752624512,-79.78279002310681,40.458980079769134,274.8048974866867,-0.0085749272257089,0.0105692408978939,0.9987383484840392,0.048337522894144,0.03289096443563,-0.0159664484282296,0.1020439320391506,-0.1477010399103164,-0.0232706107199192,0.146027535200119,0.2079061578959226,-0.2562001026794314,-9.82679437279701,14939.0
18.99,1.5,144.0,22.509366989135746,22.09798049926757,-79.78279010954158,40.45898023909708,274.8057020897865,-0.0005880588432773,0.0077329613268375,0.9983770847320556,0.0564192160964012,0.0364343993365418,-0.0301647018417809,0.1559436248240804,-0.1993688493967056,-0.0254778098315,0.1338804066181183,0.1494626984093338,0.0318959583900868,-10.465454163551332,14939.0
19.1,1.5,144.0,22.81236457824707,19.593170166015625,-79.78279021557198,40.45898033285285,274.85815840911863,0.0098312459886074,0.0040074083954095,0.9978124499320984,0.0652516782283783,0.0714161827574403,-0.0407578553766735,0.3392239668784382,0.0749366506934166,-0.0942384898662567,0.0527627803385257,0.1979284508340061,0.0932105926238,-10.46936595082283,14939.0
19.29,1.5,145.0,22.77605438232422,20.13389205932617,-79.7827903303733,40.45898051648352,274.8766849632263,0.0071354801766574,0.0005055116489529,0.9978464245796204,0.0652036443352699,0.0506338183666711,-0.0383056413420281,0.3083791105074341,0.0269732009619474,-0.145284965634346,-0.0105249425396323,0.1788035788759589,0.1115729602519422,-9.921919215917589,14939.0
19.4,1.600000023841858,142.0,22.75602149963379,20.841598510742188,-79.78279022484463,40.45898078067136,274.9078902597427,-0.0003898848663084,-0.0044107805006206,0.9981302618980408,0.0609631054103374,0.0552990852446094,-0.0292337699617045,0.1959286071947588,-0.0417487770318985,-0.0832689478993415,-0.082047127187252,0.1397315885312855,0.2007746744155884,-9.590143522024157,14939.0
19.59,1.600000023841858,143.0,22.6859073638916,22.455808639526367,-79.78279029839106,40.45898081375349,274.9260603780746,0.002496121218428,-0.0037565806414932,0.9982324242591858,0.0592602007091045,0.0552810594131063,-0.0226588422614728,0.1702489470072908,-0.1578447371721267,-0.0116152223199605,-0.0996869653463363,0.0459944952512159,0.2709817907586694,-9.515668120980264,14939.0
19.7,1.600000023841858,146.0,22.6571102142334,23.43387794494629,-79.78279050763994,40.45898083721939,274.94663292121885,0.0054615563713014,0.0011619650758802,0.998345911502838,0.0572227351367473,0.0741871821255392,0.0132605037608137,0.1461116159407003,-0.057777464389801,-0.0374194979667663,-0.0431470461189746,0.1108053030632436,0.2531731453165412,-9.661846758127211,14939.0
19.89,1.600000023841858,148.0,22.55819702148437,24.435800552368164,-79.78279061502731,40.458980838601576,274.9615648384094,0.0051196129061281,0.0028017403092235,0.9983876347541808,0.05646463483572,0.0744400112182187,0.0119984853481218,0.1569344169780172,-0.1351260542869568,-0.0455081686377525,-0.0878483057022094,0.0472617102228105,0.4133749404922128,-9.8584488594532,14939.0
19.99,1.7000000476837158,148.0,22.56696128845215,23.537250518798828,-79.78279094809044,40.45898097423496,275.0039189453125,0.0095771979540586,0.0041077439673244,0.998383402824402,0.0558752343058586,0.1130033883103261,-0.0026873312050395,0.2206750143366225,0.0424758791923522,0.0241109989583492,0.0894248783588409,0.0523850314412266,0.1875393007881939,-9.972423956394197,14940.0
20.2,1.7000000476837158,151.0,22.62330436706543,23.15556526184082,-79.78279105778012,40.45898098771911,275.0278802509308,0.0102859251201152,0.0024868343025445,0.998406946659088,0.0554227568209171,0.104205127114023,-0.0024229600132216,0.2516112978178366,0.0633279979228973,0.0063567077741026,-0.0235178414732217,0.0801002123672515,0.1897598722949624,-10.075724376440046,14940.0
20.3,1.7000000476837158,152.0,22.53691291809082,24.268814086914062,-79.78279114508679,40.45898113526391,275.0680076475143,0.0106701496988534,-0.0015025616157799,0.9984343647956848,0.0548890084028244,0.0513764983842508,-0.0087823569568024,0.2510879343878278,-0.1101927533745765,-0.0576274842023849,-0.0336038507521152,0.0099784425320103,0.2444755764864385,-9.849664002656937,14940.0
20.49,1.7000000476837158,153.0,22.541921615600582,24.197248458862305,-79.78279142774348,40.45898121488064,275.0922442073822,0.0117057375609874,-0.0012744460254907,0.9983851909637452,0.0555741265416145,0.07964905378709,0.0075404122435482,0.2515987415774886,-0.0317653454840183,0.0546657815575599,0.0857444703578949,0.0025612768856808,-0.0398454764764756,-9.906184358596803,14940.0
20.6,1.7999999523162842,151.0,22.488082885742188,25.588808059692383,-79.782791508372,40.458981213751294,275.1168051357269,0.0115767307579517,0.0002790379221551,0.9983175992965698,0.0568155460059642,0.0735621349940729,0.0144697859484754,0.2337454558204297,0.019166987389326,0.0089913867413997,0.0350056998431682,0.0210537222214043,0.0918232584837824,-9.682881531715394,14940.0
20.7,1.7999999523162842,153.0,22.499351501464844,25.52519416809082,-79.7827914661017,40.45898142490908,275.1686157579422,0.0083239087834954,-0.0007696368265897,0.9981600046157836,0.0600558891892433,0.0317948272532474,-0.0082596299991675,0.2801432802111705,0.0756804496049881,-0.0662179067730903,0.0520351231098175,0.0904759686347097,-0.149348303116858,-10.082051063776015,14940.0
20.9,1.7999999523162842,151.0,22.58073425292969,23.37821578979492,-79.78279151895501,40.458981561368,275.22976201725004,0.0084114074707031,-0.0030715446919202,0.9980191588401794,0.0622703321278095,0.0024508380972552,-0.0003453872782515,0.3338699656210965,-0.01894505135715,-0.0244568455964326,0.0051023731939494,0.0407685005804523,0.1226235308870673,-10.165691975355148,14940.0
20.99,1.7999999523162842,151.0,23.258094787597656,11.060917854309082,-79.78279152218738,40.45898156193161,275.26250630569456,0.0074986382387578,-0.0018522518221288,0.9980329275131226,0.0622148104012012,-0.0034424322818266,0.0005195154368187,0.2907923209503843,-0.0366127975285053,0.0254099518060684,-0.0046014855615794,-0.0352750643156468,0.1944751400873065,-9.313017659783362,14940.0
21.19,1.8999999761581416,148.0,22.463041305541992,25.040136337280277,-79.7827915221482,40.45898156018765,275.28368300151817,0.0067501133307814,0.0001976557541638,0.9980555772781372,0.0619638338685035,0.0030218517433956,0.0029110863577957,0.1439706146889507,0.0223845951259136,0.0300505422055721,0.0242204759269952,0.0070508764148689,0.1143288991693407,-8.72685592532158,14940.0
21.39,1.8999999761581416,143.0,22.21638870239257,31.011919021606445,-79.78279143277359,40.45898170386879,275.3245301837921,0.002817103639245,0.0051467255689203,0.9981043934822084,0.061264231801033,-0.0113240900337282,0.0098208758558275,0.1547900934550002,-0.0937434583902359,-0.0127489604055881,-0.0429036170244216,0.0568397418223321,0.1126948947552591,-9.892146363258362,14940.0
21.49,1.8999999761581416,139.0,22.081167221069336,32.308055877685554,-79.78279149851366,40.45898186127349,275.3710730667114,0.0036668833345174,0.0056177470833063,0.9981225728988647,0.0608796738088131,0.0149338311529717,-0.006795980327794,0.2913681213764989,0.0871034413576126,0.0490629598498344,0.0871138647198677,0.1490548459812999,-0.2052256846055389,-10.63288450598717,14940.0
21.59,1.8999999761581416,139.0,22.13625717163086,31.79119300842285,-79.78279149593851,40.45898188630785,275.4637326593399,0.0053955139592289,0.0036142892204225,0.9981072545051576,0.0611543729901313,0.0027191266535652,-0.010512453751017,0.6613905760819051,-0.0521673075854778,-0.0765537619590759,0.017476538196206,0.0593903521075844,0.1024798364192247,-11.713952819108965,14940.0
21.8,1.8999999761581416,139.0,22.151281356811523,31.04372596740723,-79.78279144410712,40.45898209604963,275.61881595802305,0.0075172949582338,-0.0005774123128503,0.9980553984642028,0.0618764795362949,0.0132411924340052,-0.0161971577146213,1.0589302498995623,-0.0153899798169732,-0.0135679710656404,0.012379596941173,0.0284768127417191,0.1337008799426257,-11.88643281698227,14940.0
21.89,2.0,137.0,22.02482414245605,33.47696685791016,-79.78279140680513,40.45898224869213,275.7305179233551,0.0071263848803937,-0.0004208778846077,0.9980225563049316,0.062451284378767,0.0178609507363404,-0.0215882391325956,1.2424871902106145,0.0113503765314817,0.0323202535510063,0.0024445813614875,-0.0031838340475223,-0.0010249712225049,-11.921796777248383,14940.0
22.1,2.0999999046325684,135.0,21.997278213500977,33.40540313720703,-79.78279139777142,40.45898226864274,275.86556583595274,0.0059777526184916,0.0015894094249233,0.9979952573776244,0.0629865676164627,0.0240363888359124,-0.023774140028772,1.462106368372743,0.0602375939488411,0.0997187346220016,-0.0234940815716981,-0.0209482804778963,0.0504479676671326,-12.001355162858966,14940.0
22.29,2.0999999046325684,135.0,21.929668426513672,35.46491241455078,-79.78279134292359,40.45898243468083,276.19338971328733,0.0031002543400973,0.0051381355151534,0.9979822635650636,0.0632099732756614,0.0139980777425218,-0.0175082505078476,1.8560988713687547,0.0911599397659301,-0.0436480678617954,0.0714946314692497,0.0602469692006707,0.1555084178969264,-11.863090732097628,14941.0
22.4,2.0999999046325684,137.0,21.69803810119629,38.77285003662109,-79.78279133795179,40.458982465146754,276.38869506073,0.0021189362742006,0.0026620167773216,0.998052179813385,0.0622929744422435,0.0083658341005091,-0.0145243988457927,2.0490933109845244,-0.019804798066616,-0.099290132522583,-0.0694050192832946,0.1209140517096966,0.2201322838291526,-11.761714046001437,14941.0
22.49,2.200000047683716,138.0,21.84703254699707,37.37333679199219,-79.78279131494708,40.45898266072053,276.82262521934507,0.0007007457897998,-0.0034256358630955,0.998134434223175,0.0609557703137397,0.0276536779208647,-0.0459596693588423,2.493581948914793,0.0359273739159107,-0.0096429679542779,0.0279583763331174,-0.0595361076621338,0.1913075571879745,-12.208782799243927,14941.0
22.7,2.400000095367432,137.0,22.206371307373047,29.40566062927246,-79.7827912368322,40.45898283588423,277.3410344715118,0.0012920926092192,0.0002053435891866,0.998150646686554,0.0607756227254867,0.0382163877995999,-0.0483413140253485,2.830425817799412,0.0178482420742511,0.0331889726221561,0.0300167892128229,-0.0185082134034018,0.0642601828230545,-12.014647053480148,14942.0
22.9,2.5,137.0,22.31279563903809,27.393861770629893,-79.78279126930688,40.45898287384611,277.62899476242063,0.0033131618984043,0.002403094433248,0.9981101751327516,0.0613132789731025,0.0499929487296825,-0.038748133531708,2.9287981548289,-0.0046886331401765,0.0777132883667945,0.0411570407450199,0.0167883382877334,-0.0560271570039913,-11.004077450037006,14942.0
22.99,2.5999999046325684,136.0,22.16254997253418,29.35795021057129,-79.78279129774016,40.45898299323365,277.91792374801634,0.0052598682232201,0.0056930659338831,0.9980323910713196,0.0622210688889026,0.0657722002492348,-0.0317887119508416,2.975361237513148,-0.0183878969401121,0.097010001540184,0.0407493561506271,0.005001804200001,-0.0163545159995555,-10.493768720626832,14942.0
23.09,2.700000047683716,136.0,22.26146125793457,27.457475662231445,-79.78279139197234,40.45898310356589,278.5196564788818,0.0044322055764496,0.0095306122675538,0.9979292750358582,0.0634570270776748,0.0716880469201801,-0.0122664585691723,3.0471940876372905,-0.0648682340979576,-0.020538305863738,-0.0795155763626098,0.0675470260810107,0.2281065520830453,-10.192902578115463,14943.0
23.29,2.900000095367432,135.0,22.290258407592773,26.10567283630371,-79.78279144130326,40.45898336565604,279.1059010620117,0.0037666417192667,0.0082059260457754,0.997972011566162,0.0630112215876579,0.088418761779579,-0.0365343691578221,3.0620702737020564,0.0815294906497001,-0.0535882823169231,0.0497870035469532,0.0921878506522625,0.2108008950948715,-10.081207895278933,14944.0
23.4,2.900000095367432,135.0,22.28775405883789,26.67820167541504,-79.78279144483358,40.458983523707545,279.4120953674316,0.0039597242139279,0.0064890105277299,0.9980069994926452,0.062644712626934,0.0620345030631489,-0.058312585011916,3.0586210768536635,-0.1547922790050506,-0.0694612115621566,-0.1402074992656707,-0.0285486878128722,0.3400881322100759,-9.868558695316317,14944.0
23.6,3.0,133.0,22.233917236328125,26.344226837158203,-79.7827914982972,40.458983635271146,279.7178214187622,0.0044533917680382,0.0058827921748161,0.9980352520942688,0.0622201599180698,0.100549323938641,-0.0829953806280466,3.0607724884032264,0.1401381343603134,0.0600030831992626,0.0969415977597236,0.007725695350673,-0.0085702639818191,-9.902566101551058,14944.0
23.79,3.0,133.0,22.111215591430664,28.37192916870117,-79.78279150586573,40.458983963825055,280.3332346076965,0.0047899852506816,0.0057027586735785,0.9980550408363342,0.0618934966623783,0.0843383621273035,-0.1068229786745536,3.0601319109649623,-0.0037397586274892,-0.0452039055526256,-0.0078853378072381,-0.0182194328983314,0.2490610543638468,-9.83314327955246,14945.0
23.89,3.0999999046325684,132.0,22.113719940185547,29.326141357421875,-79.78279155901191,40.45898410018789,280.63948565673826,0.0051167737692594,0.0057438304647803,0.9980578422546388,0.0618183203041553,0.1008508767519683,-0.1126709069152571,3.072325727678331,0.0326608382165432,0.0587765984237194,0.094477578997612,0.0353466470260173,-0.1285765994153916,-9.963903393745422,14945.0
23.99,3.0999999046325684,131.0,22.31529998779297,25.350255966186523,-79.78279166853898,40.4589843376205,281.25476580810545,0.0064377784729003,0.0037305944133549,0.998039484024048,0.0621445216238498,0.1054921350235711,-0.118358354481634,3.0824713049799257,0.0675546824932098,0.0512471310794353,0.0212235171347856,0.0523582347482442,0.0812335306685417,-9.902898223400117,14946.0
24.2,3.0999999046325684,131.0,22.26521682739257,26.717960357666016,-79.78279153181225,40.45898443695329,281.90828019332884,0.0053991787135601,0.0030242842622101,0.9980096817016602,0.0627567172050476,0.0932901433697135,-0.1125115929521188,3.0304406767251533,0.0641592666506767,0.0285844784229993,0.0564553290605545,0.0169668747950345,0.1585530265420675,-9.642319981455804,14946.0
24.4,3.0999999046325684,130.0,22.33783721923828,24.722064971923828,-79.78279156943313,40.45898456114973,282.21037417602537,0.0045835715718567,0.0022040707990527,0.9980179071426392,0.0627256035804748,0.0767594408175497,-0.1127369484613742,3.0095547693029285,0.001795120886527,-0.0360609889030456,-0.0381175950169563,0.0776995374821126,0.1955757870711386,-9.583768302798273,14947.0
24.5,3.0,130.0,22.31279563903809,24.730016708374023,-79.78279114711205,40.45898432702523,282.5561068649292,0.0043634730391204,0.0016168925212696,0.998033046722412,0.0625175684690475,0.0398264906129177,-0.0824292055206925,2.9919947031219727,-0.0111992619931697,0.042504359036684,0.025835782289505,0.0595479939552024,0.0623632090212777,-9.627827657461166,14947.0
24.59,3.0,130.0,22.371641159057614,24.730016708374023,-79.78279114111236,40.45898450381157,283.14932089996336,0.0073100882582366,0.0028595351614058,0.9980276823043824,0.0622835420072078,0.0452930218816448,-0.0818321803381527,2.9359613773201563,-2.7777896320912987e-05,-0.0388364233076572,-0.044090811163187,0.0272217672877013,0.1558813240751624,-9.487965767383576,14948.0
24.8,3.0,131.0,22.33282852172852,24.714113235473643,-79.78279019957445,40.458984163180375,283.78895693969724,0.0060374583117663,0.0031254200730472,0.9980324506759644,0.0623304992914199,-0.0180539668979746,-0.03402080330704,2.9013676382301177,-0.0825229957699775,-0.042444996535778,-0.0571704879403114,0.0832989408262074,0.2272456226684153,-9.580484506487847,14948.0
25.0,2.900000095367432,132.0,22.30904006958008,25.10375022888184,-79.78278934405357,40.45898371046599,284.18048983764646,0.0053036292083561,0.0019462682539597,0.9980319142341614,0.0624536871910095,-0.0665167737242028,0.0132671532284772,2.9077827541093586,0.1449271738529205,0.0050621284171938,0.090009830892086,0.1028477359190583,-0.1633167348615825,-9.618282077908516,14949.0
25.09,2.799999952316284,133.0,22.23892402648925,26.05796241760254,-79.78278920296545,40.45898370201135,284.4703629608154,0.0054932683706283,0.0002103670558426,0.9979994893074036,0.0629836246371269,-0.1073446514807911,0.0089658205082804,2.8900508080853267,-0.0850597620010376,-0.1197465881705284,-0.0296620242297649,0.0718797306530177,0.3308092222362757,-9.590986105799676,14949.0
25.29,2.700000047683716,134.0,22.292762756347656,24.97652244567871,-79.7827885210834,40.45898341564423,285.1525586242676,0.0077396263368427,-0.003112249309197,0.9979438185691832,0.0635495781898498,-0.1156300069632335,0.0280776091059524,2.89735466026696,0.0024275961332023,0.0116871865466237,-0.0382638797163963,0.0239297551824711,0.1216478133201599,-9.705140127539638,14950.0
25.39,2.700000047683716,137.0,22.22515296936035,26.59868431091309,-79.7827883359675,40.45898336102104,285.4415352935792,0.0064201946370303,-0.0036474105436354,0.9979646801948548,0.0633412897586822,-0.115254810093137,0.0296269754891486,2.887104446855437,0.0847883224487304,-0.0607032440602779,0.0566072165966033,0.0359020891156978,-0.0302655765088275,-9.720802479386329,14950.0
25.49,2.700000047683716,137.0,22.38416290283203,24.11773109436035,-79.78278767371816,40.45898290546876,286.10721903991697,0.0024244920350611,-0.002593353157863,0.9980702996253968,0.0619930103421211,-0.1729700252689615,0.0777832241984255,2.8910588618405937,-0.0190617647022008,0.0104713747277855,-0.0605204887688159,0.0653853241587057,0.0584867380186915,-9.690138511061669,14951.0
25.7,2.700000047683716,139.0,22.290258407592773,24.87314796447754,-79.7827875668183,40.45898234333517,286.81888228607176,0.0018578984308987,-0.0014636802952736,0.9980952739715576,0.0616469904780387,-0.1765273681079979,0.1468806802530259,2.919115502317412,-0.0867427065968513,-0.0402614027261734,-0.0335651859641075,0.0589008031133562,0.0236199463997036,-9.65817295253277,14951.0
25.79,2.700000047683716,139.0,22.276485443115234,25.73989295959473,-79.7827873822456,40.45898217929439,287.1098254318237,0.004181963391602,-0.0007437908789142,0.9980912804603576,0.061610996723175,-0.1551636101131616,0.1580693498494939,2.9035198860651072,0.0356616973876953,0.0442976839840412,0.0113326171413064,0.1094111258536577,-0.0967616066895425,-9.713207530975344,14952.0
26.0,2.5999999046325684,140.0,22.21012687683105,25.04808807373047,-79.78278766141942,40.45898216083921,287.4990428085327,0.004683265928179,-0.0007474336307495,0.9980759620666504,0.0618227683007717,-0.1113844414987144,0.1693500234759726,2.9338646955203345,0.0187046620994806,0.0512033849954605,0.0168538559228181,0.0587757960380986,0.2629731335677207,-9.69090098798275,14952.0
26.19,2.5999999046325684,141.0,22.28274726867676,24.952667236328125,-79.78278740621941,40.45898181044795,288.0824654693604,0.0051791300065815,-0.0015849990304559,0.9980743527412416,0.0617929063737392,-0.0943287329919008,0.1831885589197001,2.9061566974959545,0.0713417157530784,0.0073354877531528,0.0630019158124923,0.1121238501928746,-0.2020601116865873,-9.731411082744597,14953.0
26.3,2.5,144.0,22.177574157714844,27.266632080078125,-79.78278757589959,40.45898199919457,288.4507315750122,0.0077671203762292,-0.0023135896772146,0.998041331768036,0.0620313845574855,-0.0790242291806718,0.155577186328155,2.937084347347461,-0.0144180823117494,0.0025187979917973,0.020633976906538,0.0732440733583644,0.2638044066354632,-9.7452999740839,14953.0
26.39,2.5,144.0,22.233917236328125,25.859169006347656,-79.7827875942625,40.45898226111081,289.11621504974363,0.0084832990542054,-0.0022932782303541,0.9980146884918212,0.062365461140871,-0.0174834994480031,0.1138738554378831,2.984363192271516,0.1279565840959549,0.0560570396482944,0.0356524400413036,0.0501462787482887,-0.001963335131295,-9.864206027984617,14954.0
26.59,2.400000095367432,145.0,22.1888427734375,26.495309829711918,-79.78278750414721,40.45898213385854,289.4147751922607,0.0065575283952057,-0.0021877794060856,0.9980234503746032,0.0624621361494064,-0.0586941828230033,0.1245673702194007,2.9890964147579178,-0.035033706575632,-0.0895324572920799,-0.0492915958166122,0.0490131979901343,0.2278379456140101,-9.81132731795311,14954.0
26.79,2.400000095367432,149.0,22.25520133972168,26.15338516235352,-79.78278804295563,40.45898226848976,290.0779183502197,0.0047169821336865,-0.0010894236620515,0.9979725480079652,0.063461810350418,-0.0143832374751206,0.117043322212216,3.017255623017388,-0.0357292257249355,0.0029300602618604,-0.0049807811155915,0.0510970725584775,0.1307159951236099,-9.840680340528488,14955.0
26.89,2.400000095367432,154.0,22.21638870239257,26.92470741271973,-79.78278801137236,40.45898214720744,290.37972956848137,0.0034515133593231,-0.0008685003849677,0.9979134798049928,0.0644678846001625,-0.0102830667131003,0.1282729561618309,3.019106847288457,0.0793676152825355,-0.0488586649298667,0.0606756247580051,0.0890781186427921,-0.0177424988150596,-9.861386500597,14955.0
27.09,2.400000095367432,153.0,22.26146125793457,25.318449020385746,-79.78278785301586,40.45898243111132,291.0296166534424,0.001942058908753,0.000867280177772,0.9978280067443848,0.0658396854996681,-0.0337389436726437,0.0984032019413588,3.0507368596545343,-0.0612416192889213,-0.0067222830839455,-0.0389219932258129,0.0204427384352311,-0.0176125444471836,-9.91818518400192,14956.0
27.2,2.200000047683716,158.0,22.304031372070312,25.10375022888184,-79.7827880566795,40.45898236187784,291.6606991882324,0.0022567571140825,0.0045457724481821,0.9979156255722046,0.064333826303482,-0.0134409919984446,0.1139961176844866,3.0593176697704343,-0.0181102436035871,0.0726701691746711,-0.0188446752727031,0.0631470237113535,-0.1367310624103993,-9.925199503898623,14956.0
27.4,2.200000047683716,159.0,22.18258285522461,26.805429458618164,-79.78278805242168,40.45898226897339,291.96627932739256,0.0022086452227085,0.0048953024670481,0.998022735118866,0.0626243874430656,-0.0196007310350388,0.134063888142316,3.053594023207584,-0.1299187988042831,-0.0558397062122821,-0.0959015190601348,0.1382797979749739,0.2103533638268708,-9.776348104476927,14956.0
27.49,2.0999999046325684,167.0,22.23892402648925,24.68230628967285,-79.78278826038913,40.45898227006089,292.28801470947263,0.001464351080358,0.0035330897662788,0.9981173872947692,0.0612133666872978,0.0326000657251207,0.1369085091805375,3.0526361970590004,0.0730850026011467,0.0337581895291805,0.0334644801914691,0.1284513045474887,-0.180943111628294,-9.86117249250412,14957.0
27.69,2.0,169.0,22.26772117614746,24.276765823364247,-79.78278832554572,40.45898207642645,292.9003918762207,-0.002293603029102,0.0028754705563187,0.9982377290725708,0.0592277348041534,0.0227775841964678,0.1284528622358905,3.062888812852432,0.0599776692688465,0.0090831751003861,0.0208891257643699,0.0781450679060071,-0.1732349099591374,-9.836268031597136,14957.0
27.79,2.0999999046325684,176.0,22.266469955444336,25.98639678955078,-79.78278860900583,40.458981917877885,293.2306092376709,-0.0021506021730601,0.0037457125727087,0.9982524514198304,0.0589363351464271,0.0362062522817533,0.1549969975841974,3.071206422960865,0.0322625897824764,0.0005698164459317,0.0002386505075264,0.082636012751609,0.0549696560762822,-9.85163568377495,14958.0
27.89,2.0999999046325684,177.0,22.240177154541016,26.240854263305664,-79.78278915348277,40.45898159914309,293.86174136352537,-1.4669167285319418e-06,0.0044942726381123,0.9981679916381836,0.0603378787636756,0.0917018323842919,0.2025046899306216,3.0843383289231507,0.0097855534404516,0.0983320921659469,0.0285440254956483,0.102398331714794,0.0895937425643205,-9.921987043619156,14958.0
28.09,2.200000047683716,177.0,22.24142837524414,24.47555923461914,-79.78278944164127,40.45898130971747,294.4798844451904,-0.0011985521996393,0.0062965820543468,0.997901439666748,0.0644343197345733,0.1172627877846324,0.2053421229799468,3.0826217414086554,0.0853458195924758,0.0309796892106533,0.1024276092648506,0.1043326271977275,0.0605792006850242,-9.863041262626648,14959.0
28.2,2.299999952316284,176.0,22.276485443115234,24.865196228027344,-79.78278953848829,40.458981266069046,294.80738383483884,0.0001365889474982,0.0049711083993315,0.997812569141388,0.065919317305088,0.0934995457441165,0.201138837197329,3.0743539998950564,-0.051513634622097,-0.0085888942703604,0.0411887317895889,0.0721261907927692,0.1013450014963746,-9.715765687823296,14959.0
28.4,2.299999952316284,172.0,22.28274726867676,24.9924259185791,-79.78278968713948,40.45898113554357,295.1141617889404,0.0042202090844512,0.0038736921269446,0.9977859258651732,0.0662611126899719,0.1010862548264437,0.1893180094180036,3.0548969429725408,-0.1146748438477516,-0.0385757237672805,-0.0057911686599254,0.0449509225739166,0.117179042212665,-9.615743801593784,14960.0
28.59,2.400000095367432,172.0,22.18508720397949,25.66037368774414,-79.7827898844684,40.458980877391696,295.75004512023924,0.0143766924738883,0.0038664152380079,0.9979076981544496,0.0629186481237411,0.1402997921194021,0.188582228497524,3.0091147755503243,-0.0511261895298957,-0.0003384776937309,-0.0951677188277244,0.0673471792135387,0.0307488580187782,-9.606388256549836,14960.0
28.7,2.5,179.0,22.21263122558593,25.294591903686523,-79.7827899928359,40.458980744186654,296.0508130187988,0.0142550766468048,0.0057197683490812,0.99809330701828,0.0597824305295944,0.1549993870655736,0.1834394845872101,2.9983246354493165,0.1565613895654678,0.0913165062665939,0.0244320817291736,0.1009152950998395,0.0905695880390703,-9.676867670416833,14961.0
28.79,2.5999999046325684,182.0,22.1988582611084,26.23290252685547,-79.78279032885926,40.45898058177713,296.6904538269043,0.0057920170947909,0.0105745457112789,0.9983030557632446,0.0569722987711429,0.1199453025287435,0.1960357718063721,2.987590232987136,0.1978319585323333,0.098492294549942,0.0930418968200683,0.0885407686606049,-0.1258462603390217,-9.614968460798265,14961.0
29.0,2.700000047683716,185.0,22.20762252807617,25.18326759338379,-79.78279036214012,40.45898056114642,297.3196595306396,0.0002561397559475,0.0118861589580774,0.9980760216712952,0.0608514808118343,0.0325341766540298,0.1869769554645782,3.015355881663789,-0.0141146853566169,0.0041422266513109,0.0017906310968101,0.1795561155304312,0.1102802870515734,-9.87286224603653,14962.0
29.09,2.700000047683716,189.0,22.097442626953125,27.544944763183597,-79.78279040305537,40.45898046736276,297.6217072601318,-0.0011009378358721,0.0088876094669103,0.9979039430618286,0.0640898793935775,0.0205467532318513,0.1733496721125337,3.0195918177822314,0.0235576815903186,-0.0680271908640861,0.1134858354926109,0.095048811044544,-0.1282847959455103,-9.889596977233886,14962.0
29.31,2.5999999046325684,189.0,22.14752578735352,26.527118682861328,-79.78279025178531,40.45898054087214,297.9377587432861,-0.0003983031201642,0.0066940449178218,0.9977375268936156,0.0668954104185104,-0.0093159757821256,0.1264174197193208,3.0433696849897407,-0.0627182275056839,-0.0922344624996185,0.0051607498899102,0.0188920157309621,0.0681038408959284,-9.904119122028352,14962.0
29.5,2.5999999046325684,187.0,22.203866958618164,25.50929069519043,-79.78279016430191,40.458980466195285,298.5545533294677,-0.0002902061969507,0.0062922034412622,0.9975998997688292,0.0689554214477539,-0.0060006145988035,0.0978345816768448,3.056273110010581,0.0669853314757347,0.0139286890625953,-0.0117033263668417,0.0552212233934551,0.1261174615100026,-9.880465965270997,14963.0
29.61,2.5999999046325684,188.0,22.206371307373047,25.914831161499023,-79.78279017124026,40.458980366083104,299.1667054290771,-0.002592479577288,0.0073818629607558,0.9977235794067384,0.0669817849993705,-0.0071920680009646,0.0887882159341651,3.054996422787461,0.0353033915162086,0.1051006913185119,0.0140617648139596,0.0441327874688431,0.0481317302305251,-9.854586188793183,14964.0
29.69,2.5,191.0,22.02732849121093,28.62638664245605,-79.78279020708342,40.45898038774548,299.4786046142578,-0.0029377499595284,0.0070076696574687,0.9978306293487548,0.065394215285778,-0.0124300456327267,0.0951846835059318,3.0394758755724323,-0.0213447529822588,-0.0838214680552482,-0.068816140294075,0.0823805990628898,0.06923204745166,-9.762704796195038,14964.0
29.9,2.5,197.0,22.15503692626953,26.09772109985352,-79.78279022898244,40.4589803454916,299.78331309509275,-0.0030482802540063,0.0059161293320357,0.9979433417320251,0.0637561008334159,0.0006683543006434,0.0854002847608493,3.0536989422161263,0.0597447119653225,0.0038086588028818,0.0455909259617328,0.0456572433840483,-0.1770952782779932,-9.899933685064315,14964.0
30.09,2.5,200.0,22.11246681213379,27.22687339782715,-79.78279008159967,40.45898055860805,300.3979867095947,-0.0018468021880835,0.0065399091690778,0.998096525669098,0.0612965300679206,-0.0227551484500764,0.0416246870810226,3.053884435438184,-0.0245609115809202,0.0402635149657726,-0.01553157530725,0.0248444721288979,0.1286512153688818,-9.813379690647126,14965.0
30.2,2.299999952316284,199.0,22.153785705566406,26.29651641845703,-79.7827900823637,40.458980552342894,300.703332244873,-0.0021372456103563,0.0061734616756439,0.9981559514999392,0.060350015759468,0.0036033327226711,0.0448153412434571,3.054528550792991,0.0963580608367919,-0.0146375736221671,0.015499647706747,0.1239447458088398,-0.2970860272273421,-9.867555313110351,14965.0
30.29,2.299999952316284,195.0,22.166305541992188,26.51916694641113,-79.78279007222832,40.45898064114535,301.31846934509275,-0.0049376524984836,0.0040258090011775,0.9981823563575744,0.059929009526968,-0.0023221454468889,0.0308872749118717,3.058862733445149,0.0991018339991569,0.1063811853528022,0.0524019673466682,0.083286497220397,-0.1239121841266751,-9.855517065525056,14966.0
30.49,2.200000047683716,191.0,22.165054321289062,25.962541580200195,-79.78279001378974,40.45898082251033,301.9322522277832,-0.0050866031087934,0.0036299114581197,0.9981600046157836,0.0603125505149364,-0.0174891115415482,0.0149964975468015,3.073737136850053,-0.0438215918838977,-0.0117347110062837,-0.0520060621201992,0.0510278789838776,0.016837971098721,-9.855602434873582,14966.0
30.59,2.0999999046325684,187.0,22.167558670043945,25.20712280273437,-79.78279004044548,40.45898083271268,302.24010974121086,-0.0048119868151843,0.0035699666477739,0.9981490969657898,0.0605196468532085,0.002678132270157,0.0099934669334949,3.0819049205187574,0.1063667386770248,-0.0076361973769962,0.0838115662336349,0.043083961433731,-0.1106629050895571,-9.910175668001177,14967.0
30.8,2.200000047683716,188.0,22.09368705749512,28.30036354064941,-79.7827899167094,40.458981075620336,302.5430997009277,-0.0050582448020577,0.0030990450177341,0.9981386065483092,0.0606969073414802,-0.021320361707968,-0.0020919172221823,3.058996645092861,-0.1231070905923843,-0.0562516301870346,-0.086489550769329,0.0396845775470137,0.0909550200495869,-9.742261176109317,14967.0
30.99,2.200000047683716,189.0,22.20011138916016,25.06399154663086,-79.7827899360143,40.45898125724512,303.15306979370115,-0.0047858469188213,7.152526086429134e-05,0.9980376362800598,0.0624337419867515,0.0112031848371773,-0.0084104135412405,3.0770400126421444,0.0102216349914669,-0.0913257822394371,0.0418330803513526,0.0319716410036198,-0.1258942440524697,-10.026239390373233,14968.0
31.1,2.200000047683716,190.0,22.19510269165039,26.9724178314209,-79.78279004210567,40.45898129568365,303.7705338592529,-0.0059606758877635,-0.0033241293858736,0.9977495074272156,0.0667038112878799,0.0286136600408204,-0.0237859308673745,3.0853679792655706,0.0189447030425071,0.0752438977360725,0.0840805396437645,0.0337847323855385,0.0450272424425929,-9.930736817121506,14968.0
31.19,2.299999952316284,189.0,22.09619140625,26.39988899230957,-79.78278989372117,40.4589814913782,304.0708649749756,-0.0059595089405775,-0.0030171514954417,0.9976120591163636,0.0687435269355773,0.0224129548881014,-0.0372290659225531,3.0591849307271897,-0.0484563335776329,-0.0364838987588882,0.0088287349790334,-0.0315671758493408,-0.0383766193594783,-9.750633219480513,14969.0
31.4,2.200000047683716,182.0,22.20136260986328,25.79555511474609,-79.78278996742537,40.45898150987471,304.3759720916748,-0.0053900582715868,-0.0006534416461363,0.997536838054657,0.0699345991015434,0.0421661374302019,-0.0314854700809397,3.040046375040109,0.0640721470117569,0.0933683440089225,0.0245075430721044,0.0106197507551405,-0.0319005082547664,-9.642380207777023,14969.0
31.6,2.299999952316284,181.0,22.153785705566406,25.98639678955078,-79.78279001405713,40.45898164857088,304.9815495605468,-0.002581438049674,0.0063295108266174,0.9976421594619752,0.0682898238301277,0.0529150224497852,0.010136010077066,3.0012905766673765,-0.0655122101306915,-0.0241293963044881,-0.0405447036027908,0.053307868251577,-0.0079242380149662,-9.645185701847076,14969.0
31.7,2.299999952316284,174.0,22.101198196411133,25.1673641204834,-79.78279010554482,40.458981666241854,305.2814744110107,0.0005922538111917,0.0064936624839901,0.9977949261665344,0.0660525560379028,0.0764803076855821,0.0240714550340952,2.9981900690917263,0.0054422644898295,0.0858970656991005,0.0015260763466358,0.1110176300816238,-0.1290623294468969,-9.763087788820268,14970.0
31.9,2.299999952316284,172.0,22.14752578735352,25.75579643249512,-79.78279029129513,40.45898183424075,305.8927739257812,0.0044123516418039,0.0036824296694248,0.9980669617652892,0.0618826560676097,0.1254510863130081,-0.0001598204987715,3.0123761144222416,0.0872019827365875,0.0070647350512444,0.0744950249791145,-0.0179934414394665,-0.2196831080317497,-9.86237818837166,14970.0
32.0,2.400000095367432,167.0,22.17381858825684,26.805429458618164,-79.78279044652994,40.458982028077024,306.2055981750488,0.0030591015238314,0.0029445099644362,0.998132050037384,0.0609461888670921,0.1235087191046046,-0.0120894788112913,3.0299657130503626,-0.0081395301967859,-0.0458126962184906,-0.0744914934039115,0.034604678757023,0.172968057654798,-9.868033615350724,14971.0
32.1,2.400000095367432,167.0,22.12874412536621,26.050010681152344,-79.78279067100125,40.45898212252413,306.81256228637693,0.0009243168751709,0.0007137619541026,0.9980573058128356,0.062292568385601,0.1165019338453034,-0.037698884953447,3.0391210440793337,0.040273156017065,-0.0207671616226434,0.0880057588219642,-0.0246293768193572,-0.3177100339159369,-9.897185493707658,14971.0
32.3,2.5,166.0,22.129995346069336,25.533145904541016,-79.7827909633422,40.458982299966415,307.42272311401365,0.0033738317433744,0.0002221728209406,0.9978626370429992,0.0652593895792961,0.1193698986009653,-0.0413642361304608,3.0200355429781496,-0.0096162594854831,-0.0554617717862129,0.0289128795266151,-0.0515452707745134,0.1511797789670527,-9.755766490101816,14972.0
32.4,2.5,167.0,22.186338424682614,25.52519416809082,-79.78279119873682,40.4589824142015,307.73455935668943,0.0035068581346422,-0.0021320721134543,0.9978504180908204,0.0654037594795227,0.1313110823238346,-0.0348846867669245,3.021601307038692,0.0336797535419464,-0.1107291430234909,-0.0114519130438566,-0.1213830532226711,0.1582304977811873,-9.711607732772828,14972.0
32.6,2.5999999046325684,164.0,22.2426815032959,23.4179744720459,-79.78279132539062,40.458982461921295,308.03677874755857,0.0017511823680251,-0.0052204695530235,0.9979245662689208,0.0641583055257797,0.1300119191558768,-0.0515321465171014,3.0239035192674177,0.0331356786191463,-0.0610498450696468,-0.0137445917353034,-0.0332952884584665,0.0785699412133544,-9.842911638021471,14973.0
32.79,2.5999999046325684,164.0,22.192598342895508,24.73796844482422,-79.78279155521605,40.45898262877797,308.65213519287107,-0.0009203784866258,-0.0090133696794509,0.9980435967445374,0.0618625469505786,0.1132461418079721,-0.069445125180418,3.0437717567071982,-0.0186411589384078,-0.0445233099162578,-0.0617359764873981,-0.086391761591658,-0.210580564700067,-9.866597539186476,14973.0
32.9,2.5999999046325684,166.0,22.20887565612793,23.65652656555176,-79.78279167989967,40.458982658558966,308.9572079772949,5.208658694755286e-05,-0.0086386678740382,0.9980970621109008,0.0610551722347736,0.1123472826329411,-0.0707976104647871,3.053929306026064,0.0892306193709373,-0.0026692228857427,0.0636683255434036,-0.1004337677545845,-0.0010489722155034,-9.879591221809386,14973.0
33.0,2.5999999046325684,168.0,22.083669662475582,26.55892562866211,-79.78279181547015,40.45898284097655,309.57043963623045,0.0037761244457215,-0.0064097144640982,0.9981295466423036,0.0606814064085483,0.1110762575303058,-0.0433402712568802,3.0175894728092296,-0.0065468391403555,0.0960838571190834,0.0571262128651142,-0.0705864042090252,-0.1147002064995467,-9.645502036213877,14974.0
33.19,2.700000047683716,171.0,22.113719940185547,27.22687339782715,-79.78279191635882,40.458982846412944,309.8722394104004,0.0060779685154557,-0.005403805989772,0.998112976551056,0.0608637556433677,0.1046840837240288,-0.0273932346623308,3.018751560929804,-0.091185949742794,-0.0249593555927276,-0.0579051151871681,-0.0674009005073458,0.0805645452439785,-9.764494044184683,14974.0
33.39,2.5999999046325684,171.0,22.145021438598643,25.262784957885746,-79.78279195416532,40.45898302642689,310.48522692871086,0.0057825725525617,-0.0035127601586282,0.9981263875961304,0.0608110055327415,0.0952754146154066,-0.0145764766831457,3.02618026550852,0.0070999003946781,-0.0310907457023859,0.0261731091886758,-0.0372476042434573,-0.0873233235441148,-9.83572657942772,14975.0
33.49,2.700000047683716,171.0,22.04610824584961,27.95048522949219,-79.78279191516893,40.45898314182032,310.78799182128904,0.0030935260001569,-0.0021622315980494,0.9981110692024232,0.0613201670348644,0.0666618010712751,-0.0065991710222809,3.0344422226554326,0.0440354570746421,0.0265637524425983,-0.072717010974884,0.0187925148499198,0.1148616353329271,-9.844778069257735,14975.0
33.69,2.5999999046325684,170.0,22.103702545166016,26.78952598571777,-79.78279198964438,40.458983114423646,311.39545565795896,-0.0019038752652704,-0.0038502961397171,0.998078465461731,0.0618143863976001,0.0311692739320979,0.014359045454732,3.0404384828097863,-0.0513238310813903,-0.0864047035574913,-0.0334638766944408,0.0406834098882973,-0.1180612591467797,-9.840723609924316,14976.0
33.8,2.5999999046325684,171.0,22.165054321289062,25.00832939147949,-79.78279194838531,40.45898324524167,311.9981320495605,-0.0006882731104269,-0.0027968771755695,0.9979320764541626,0.0642133727669715,0.0137550024219383,-0.0004619115498438,3.018616220102049,-0.0796871706843376,0.0488748699426651,0.008249987848103,0.0013209088565781,-0.0028003777563571,-9.75898245871067,14976.0
33.99,2.700000047683716,171.0,22.1062068939209,25.49338722229004,-79.78279189608426,40.458983328094575,312.2999051208496,0.001729811890982,0.0011268822709098,0.9979235529899596,0.0643777400255203,0.0143527533550226,0.0161224161456985,2.999108383815829,-0.0736352205276489,0.0960615575313568,-0.0441057793796062,0.050613676845096,0.049314822955057,-9.6424445271492,14977.0
34.1,2.700000047683716,172.0,22.161296844482425,24.761823654174805,-79.78279191962059,40.45898330512733,312.5995,0.0044015264138579,0.0046325074508786,0.9979705810546876,0.0633566081523895,0.0327398016363577,0.0337945667947491,2.9913779714156807,0.0414422303438186,0.0377621352672576,0.0389758609235286,0.0371203770535066,-0.139176998399198,-9.716969044804571,14977.0
34.29,2.700000047683716,173.0,22.081167221069336,26.39988899230957,-79.78279192087227,40.45898334628836,313.19854479980467,0.0010774369584396,0.0034416534472256,0.9980527758598328,0.0622703805565834,0.0333813696513611,0.0543570411031012,2.9358427539888017,0.1486304253339767,0.0442777201533317,0.0543584488332271,0.0419590302323922,-0.0408455148059874,-9.507600132822992,14978.0
34.4,2.799999952316284,173.0,22.12749290466309,25.57290458679199,-79.78279192962573,40.45898333134472,313.4911244506836,-0.0031926478259265,0.0030858227983117,0.9980304837226868,0.0625745430588722,0.0126938876988574,0.0309160651887241,2.9162119934668524,0.107281781733036,0.0112414015457034,0.0506647750735282,-0.0413320899428799,-0.0786286783218383,-9.5860896474123,14978.0
34.49,2.700000047683716,173.0,22.08867835998535,26.60663604736328,-79.78279192153614,40.45898346150037,314.08193713378904,-0.0014090571785345,0.003504370804876,0.9979901909828186,0.0632566213607788,-0.0047075994979948,0.0155703032038213,2.9060334504720804,0.0695326924324035,0.0140770021826028,0.1053687706589698,0.0206594006158411,-0.300492541976273,-9.717121072411537,14979.0
34.69,2.799999952316284,171.0,22.140012741088867,25.5649528503418,-79.78279199225439,40.45898354494909,314.68092471313474,0.0050086015835404,0.0007598577067255,0.9980306029319764,0.0625244602560997,0.0286284361567472,0.0141547825111307,2.9528522598174654,-0.0064919958822429,-0.0233343690633773,-0.0121586006134748,-0.0138995807804167,0.2261488677375019,-9.807016750574114,14979.0
34.8,2.700000047683716,171.0,22.08867835998535,26.92470741271973,-79.7827920035066,40.45898354962704,314.97615557861326,0.0052272262983024,-0.0014484972925856,0.9980553984642028,0.0620977357029914,0.0395784549885839,0.0021060503002234,2.951358148014273,0.0573003031313419,-0.0363966561853885,0.0134278321638703,-0.010475872704992,-0.042850566166453,-9.817937010526656,14979.0
35.0,2.799999952316284,169.0,22.084922790527344,24.68230628967285,-79.78279205413044,40.45898363244023,315.27655154418943,0.0047644218429923,-0.0023738746531307,0.9980682134628296,0.0618995688855648,0.0395011594680285,-0.0087799442196691,2.9629127463743314,-0.0527378618717193,0.0243193823844194,-0.0196751020848751,-0.0077344867307692,-0.0393670828733593,-9.842242716550828,14980.0
35.2,2.700000047683716,169.0,22.06989860534668,27.393861770629893,-79.78279206272062,40.458983639204575,315.8712819213867,0.0026298719458282,-0.0001315856352448,0.9980180263519288,0.0628740787506103,0.0382336245728924,-0.0124659733020018,2.9718451248102213,0.1542232483625412,0.0990854576230049,0.0669116526842117,0.0309799418086186,-0.1681529852002859,-9.830638332366943,14980.0
35.29,2.799999952316284,174.0,22.00604248046875,27.902774810791016,-79.78279203591414,40.45898373748262,316.16719561767576,0.0015418123221024,0.0004058847553096,0.9979681968688964,0.0636941567063331,-0.0068969246163652,-0.0028868274717914,2.961723617059232,-0.1292600929737091,-0.0618737898766994,-0.0378789082169532,-0.0466088092094287,0.1870129782892764,-9.669529414772988,14981.0
35.39,2.799999952316284,174.0,22.014806747436523,27.529041290283203,-79.78279199112134,40.45898378038546,316.755448638916,0.0025247312150895,-0.0008149120840243,0.9979223608970642,0.0643734186887741,0.0143997775293969,0.0036843320159976,2.9517905044277937,0.0950758457183838,0.0251640640199184,0.0633290261030197,-0.0163006256846711,-0.1378637959901243,-9.84784317970276,14981.0
35.6,2.799999952316284,173.0,22.073654174804688,27.07579040527344,-79.78279196084198,40.45898377242196,317.34840518188474,0.0006639157654717,-0.0011090745683759,0.9979258179664612,0.0643627718091011,0.0080461302807369,-0.0075241086046583,2.9744594729589044,0.160353422164917,0.0307867042720317,0.0188586860895156,-0.0808201599307358,0.2159783304668963,-9.891373361349109,14982.0
35.69,2.799999952316284,175.0,21.988513946533203,27.78349876403809,-79.78279198088396,40.45898383455615,317.6434147949218,-0.001344945281744,-0.0009612201247364,0.9979320764541626,0.0642564222216606,0.002970402689183,0.0008606810728626,2.978646596551185,0.0863783210515976,0.0928306058049202,0.086903229355812,-0.0231314914743416,-0.04330720173195,-9.870034532546995,14982.0
35.89,2.799999952316284,175.0,21.978498458862305,27.57675170898437,-79.78279197519223,40.45898382621852,317.9417508239746,-0.0029466096311807,-0.0009742672555148,0.9979292154312134,0.0642469897866249,-0.0038575162116509,0.0013628720157652,2.98601570108424,0.0638564527034759,-0.0342330932617187,0.0158612392842769,-0.0121882663539145,-0.1838027107156813,-9.884849038124084,14982.0
36.09,2.799999952316284,174.0,22.03609275817871,26.479406356811523,-79.78279180755827,40.45898387625825,318.5248883361816,-0.0035081312526017,-0.0011538759572431,0.9979287385940552,0.0642240270972251,-0.0160689222051725,-0.0005395157301614,2.9705136895507325,0.0714867115020752,0.064747616648674,0.0677542686462402,-0.0126483131758868,-0.2270605765655637,-9.806246087551116,14983.0
36.2,2.799999952316284,175.0,21.974742889404297,28.212894439697266,-79.78279180062152,40.45898386982506,318.8219311828613,-0.0029120091348886,-0.0013721258146688,0.9979448914527892,0.0639972612261772,-0.0274100309711388,-0.0013176844043968,2.969900673678415,0.0052740187384188,-0.0251136664301157,0.0137193128466606,0.0092397130723111,-0.0702267227880656,-9.79297407746315,14983.0
36.3,2.799999952316284,177.0,22.084922790527344,26.61458778381348,-79.78279164726366,40.45898394982774,319.4059880371093,-0.001325738383457,-0.0018658015178516,0.9979718923568726,0.0636152029037475,-0.0248408147217078,-0.0043368225668811,2.973228661933889,0.0224246084690094,0.038347166031599,0.0230749770998954,0.0154716915031895,0.0804583451896906,-9.868847547769546,14984.0
36.5,2.799999952316284,178.0,22.06614112854004,24.9924259185791,-79.78279158815471,40.45898406744608,319.9921429748535,-0.000302986241877,-0.0007181676337495,0.9980013370513916,0.0631889551877975,-0.0201213267764958,-0.0065431736782857,2.9782461203690618,0.0136443534865975,-0.0750059261918068,0.027449982240796,-0.0363922616606578,-0.2153870490565896,-9.874684238433838,14984.0
36.7,2.799999952316284,178.0,21.915895462036133,28.73771095275879,-79.78279156722597,40.45898406335322,320.289513885498,-0.0010679927654564,-0.0002916292287409,0.9980111718177797,0.063028298318386,-0.0272312053212044,-0.0018154542315864,2.9689721386301366,-0.0899273008108139,0.0183366984128952,-0.0388750806450843,-0.0349983402667567,0.07873111423105,-9.769547792673114,14985.0
36.8,2.799999952316284,178.0,22.05988121032715,26.05796241760254,-79.7827914077018,40.45898413329632,320.57227069091795,-0.0018723976099863,-0.0002092929498758,0.998012363910675,0.0629907771944999,-0.0237994502832252,-0.0032971297550853,2.948172903512104,0.097237154841423,0.0056411232799291,0.0408892855048179,-0.0543783563934266,0.0089568197540938,-9.758179051280022,14985.0
36.89,2.799999952316284,178.0,22.054872512817383,27.3063907623291,-79.78279128278231,40.45898422120989,321.15240222167967,-0.0036067701876163,0.0005610205698758,0.9980177879333496,0.0628267377614975,-0.0381803369899601,-0.0105470435866018,2.9402695744115936,-0.0479744747281074,0.0128528298810124,-0.0424387939274311,-0.0746462676487863,0.0142608610494062,-9.77605398952961,14986.0
37.09,2.799999952316284,177.0,21.905879974365234,29.44541931152344,-79.78279124230995,40.45898423983307,321.74164706420896,-0.0025050437543541,0.000672614260111,0.9980329871177672,0.062637984752655,-0.02262362406968,-0.0108409396591199,2.9574765535331284,0.0705806761980056,0.0609313212335109,0.0964948311448097,-0.0857454432640224,0.1270105232018977,-9.83971204161644,14986.0
37.19,2.799999952316284,178.0,22.06363677978516,25.95458984375,-79.78279112902302,40.45898431980408,322.0340359802246,-0.0012062791502103,-0.0003476115816738,0.9980540871620178,0.0623413175344467,-0.0236889410340596,-0.0053590629436911,2.9674094916935,-0.0124145289883017,-0.0517805367708206,0.0448552034795284,-0.0706575209693983,-0.1824213425628841,-9.922287590503696,14987.0
37.39,2.799999952316284,178.0,22.0035400390625,27.099645614624023,-79.78279111181068,40.45898432650242,322.330212890625,-0.0006548528326675,-0.0014352991711348,0.9980503916740416,0.0623938515782356,-0.0204772272317713,-0.0141325587457919,2.951643849285541,-0.0058670411817729,-0.0033081171568483,-0.017339713871479,-0.042303842366673,0.0438628242630511,-9.706784949302676,14987.0
37.5,2.799999952316284,177.0,21.970985412597656,28.642290115356445,-79.78279108636907,40.45898443018088,322.9131711120605,-0.001188634079881,-0.0015932240057736,0.9980162978172302,0.0629253983497619,0.0082121663758657,-0.0194229204086336,2.951741423054409,0.175850823521614,0.0928980484604835,0.1049966886639595,-0.0088830991555005,-0.2103758207894862,-9.885553042888642,14987.0
37.7,2.900000095367432,177.0,21.869569778442383,30.01794624328613,-79.7827910784822,40.45898443511432,323.2088521118164,-0.0025100221391767,-0.000666718231514,0.9980093240737916,0.0630136430263519,-0.0177502424733076,-0.0157825401958569,2.958259109253256,-0.0508177988231182,0.0117169795557856,-0.0198941156268119,-0.0548284275457263,0.0528811083035543,-9.79640990138054,14988.0
37.79,2.900000095367432,176.0,22.05988121032715,26.46350288391113,-79.78279122063513,40.45898450286579,323.80153018188474,-0.0046029337681829,0.0011923223501071,0.997974455356598,0.0634395033121109,-0.0054041167561806,0.0032497523108097,2.9732113563359714,-0.0720977187156677,0.0331378765404224,-0.0277128219604492,-0.0356256368709728,0.1132379183638841,-9.879730385541915,14988.0
38.0,2.900000095367432,176.0,22.032337188720703,25.97049331665039,-79.78279134692666,40.45898456869885,324.3865864868164,-0.0022178930230438,0.0003532335394993,0.99800044298172,0.0631678774952888,0.0268621035529434,0.0092261347716566,2.9727131654973635,-0.0438246354460716,0.0119397435337305,0.0135513469576835,0.0179666790075134,-0.1578460981696844,-9.877151763439178,14989.0
38.19,2.900000095367432,175.0,21.96096992492676,28.24470138549805,-79.78279140736521,40.4589845726924,324.6833050842285,-0.0010825509671121,-0.0003117246378678,0.998009204864502,0.0630592480301857,0.0340752101139959,0.0032413546924131,2.959994052475864,-0.0773259177803993,-0.1098173931241035,-0.0104455389082431,-0.0501410802081227,0.012848205724731,-9.702695991396904,14989.0
38.3,2.900000095367432,175.0,21.978498458862305,26.12157821655273,-79.78279133423929,40.45898464513442,324.96931964111326,-0.0002060428960248,-0.0009249154827557,0.9980087280273438,0.0630687773227691,0.0240260085917937,-0.0056955995593432,2.935135667912608,-0.053548689931631,0.0411367639899253,-0.0304960999637842,-0.0245639291172847,0.2206058352068066,-9.634735558032991,14989.0
38.39,3.0,175.0,22.0423526763916,27.24277687072754,-79.78279136534226,40.45898470327022,325.5551655883789,0.0001800376921892,0.0002191879466408,0.998012125492096,0.0630222260951995,0.0218174938749199,-0.003449970108643,2.9397974918946064,-0.0944862812757492,-0.0539219453930854,-0.0521121732890605,0.0008921526325866,0.084981349222362,-9.769255431890487,14990.0
38.59,3.0,176.0,21.9309196472168,28.96831321716309,-79.78279140257666,40.458984710667686,325.849141418457,-0.0004541547095868,0.0007157909567467,0.9980027675628662,0.0631656199693679,0.0306437339923891,-0.0040070839958172,2.941843776723672,-0.0050097848288714,0.0438127405941486,-0.0842190459370613,-0.015071820752928,0.1596980027295649,-9.81948652267456,14990.0
38.69,3.0,174.0,22.08617401123047,25.636518478393555,-79.7827914396487,40.4589847211379,326.1436970825195,-0.0011431528255343,0.0010021731723099,0.9980040788650512,0.0631311237812042,0.0341991926060305,-0.0054104406707931,2.9497720270511847,0.0695814564824104,0.0077749113552272,0.0244422443211078,-0.0016430630302056,0.0179395317099988,-9.874920465946197,14991.0
38.89,3.0,174.0,21.997278213500977,26.566877365112305,-79.78279143283719,40.45898481539608,326.73621875,-0.0008645710186101,0.000911574519705,0.9980213046073914,0.0628646239638328,0.0113561123324624,-0.0048068161524426,2.953828440596383,-0.1171353161334991,-0.1027400195598602,-0.0829632505774498,-0.0190677462599705,0.130329156126827,-9.728326676487924,14991.0
39.09,3.0,174.0,21.954710006713867,27.91867828369141,-79.78279138008875,40.45898495539097,327.3249638671875,0.0009361556731164,0.0002194705884903,0.9980331063270568,0.062682144343853,0.02512281937452,-0.0217144391144153,2.9394815051706846,0.0147979883477091,-0.0141946580260992,0.0219363663345575,-0.0028411940624937,-0.0740562196355313,-9.762507745027545,14992.0
39.2,3.0,173.0,21.912139892578125,28.451446533203125,-79.78279140168559,40.45898498459896,327.6191266174316,0.0003553510759957,0.0008769560372456,0.998050093650818,0.0624108128249645,0.0271524526882887,-0.0302463219104017,2.943418102478036,-0.0024935426190495,-0.0118921333923935,-0.0373810268938541,0.0265586473513394,-0.1310625614225864,-9.856200020313263,14992.0
39.29,3.0,174.0,22.02983283996582,27.00422477722168,-79.78279144733159,40.458985078428256,328.21137362670896,-0.0009684474789537,0.0011167731136083,0.9980898499488832,0.0617616437375545,0.0235518159853467,-0.0193111522857619,2.982771236286524,0.0538753196597099,0.0470519885420799,-0.017603226006031,0.0384308066032826,-0.0668718279898166,-9.976688915491104,14993.0
39.5,2.900000095367432,176.0,22.058629989624023,25.366159439086918,-79.78279149320156,40.45898521038959,328.8034756774902,0.0012047345517203,-0.0012429739581421,0.9980990290641784,0.0616061761975288,0.036693863426132,-0.035599196714802,2.985285456484754,0.0624680072069168,-0.0072595919482409,0.037108052521944,-0.052939461688511,-0.2668402992747724,-9.825247199535369,14993.0
39.6,2.900000095367432,177.0,21.952205657958984,28.39578437805176,-79.78279151694085,40.45898524615128,329.10087710571287,0.0018149735406041,-0.0019755754619836,0.998083770275116,0.0618199370801448,0.0166892018765941,-0.0445124801070639,2.9595288429675923,-0.105851724743843,-0.0459170788526535,-0.0593215301632881,-0.0340866794041358,0.2167721813544631,-9.595373856425288,14994.0
39.79,2.900000095367432,178.0,21.955961227416992,27.902774810791016,-79.7827916418106,40.45898530668856,329.3961003417968,0.0021532513201236,-0.0024594347923994,0.9980570077896118,0.0622220709919929,0.0481223277983254,-0.0279418705675148,2.93431570972964,-0.0162889081984758,0.0254914779216051,0.0297944974154233,-0.0589676258247345,0.001040347572416,-9.534123103022576,14994.0
40.0,2.900000095367432,177.0,21.908382415771484,29.04783058166504,-79.78279156291765,40.45898546238903,329.98622256469724,0.00156034482643,-0.0029211128130555,0.9980124831199646,0.0629297941923141,0.0038952027162072,-0.0418614405151499,2.9279990322471865,-0.120490550994873,-0.0281419567763805,-0.1004489660263061,-0.0450693104183301,0.2640331424027681,-9.687884994149206,14994.0
40.1,2.900000095367432,178.0,21.88709831237793,28.8887939453125,-79.78279156286355,40.45898550729832,330.5721676940918,-5.722175046685152e-05,-0.0032355373259633,0.9980140924453736,0.0629084631800651,0.0096556398168063,-0.0400881723389634,2.94353824778888,0.0829037055373191,0.0333972424268722,0.0115584693849086,-0.0205577001767233,-0.0083654469810426,-9.936916154623033,14995.0
40.2,2.900000095367432,178.0,21.99853134155273,26.05796241760254,-79.78279163678049,40.458985485342325,330.8759320373535,-0.0007358369766734,-0.0033786352723836,0.9980376362800598,0.0625209361314773,0.0298761780369702,-0.0266087816971452,2.9787398185403373,0.0421574935317039,-0.0381788276135921,-0.0069905687123537,-0.1150014660134911,-0.1777705585956573,-9.915859161615373,14995.0
40.4,2.900000095367432,177.0,21.98726272583008,26.54302215576172,-79.78279166031798,40.4589854970224,331.1737874145508,-0.0011974666267633,-0.0027734944596886,0.9980481863021852,0.0623758397996425,0.0087275439457699,-0.0314394247276193,2.977966998158997,-0.0870849415659904,0.0053507145494222,-0.0635333210229873,-0.0681518200412392,0.0764500240422785,-9.816171151399612,14996.0
40.59,2.900000095367432,179.0,21.955961227416992,27.97434043884277,-79.7827917423797,40.458985542523216,331.7661374206543,-0.0021977189462631,-0.001530977897346,0.9980425834655762,0.0624811388552188,0.0228683869314965,-0.0084257746787243,2.9705889973491657,0.0499126687645912,0.0015540637541562,0.026016965508461,-0.0161958200542721,0.0168172865733504,-9.745931473374366,14996.0
40.7,2.900000095367432,180.0,21.864561080932614,29.21481704711914,-79.7827917803212,40.45898554402482,332.0630391235352,-0.0025798373389989,-0.0021401843987405,0.9980473518371582,0.0623723790049552,0.033851636143426,-0.0087465784301221,2.9677266869898737,0.0575403161346912,0.0898441523313522,0.0516000539064407,-0.0193519769003614,-0.2122169262729584,-9.792056064605712,14997.0
40.79,2.900000095367432,180.0,21.87457847595215,28.690000534057607,-79.78279178541183,40.45898568069953,332.659875213623,-0.0027951782103627,-0.0038393656723201,0.9980489611625672,0.0622560419142246,0.0145223462940997,-0.0254728528409486,2.9834761405128907,-0.0510093607008457,0.0035232258960604,-0.0432870686054229,-0.0930275839101523,0.0499529277719557,-9.881484550237657,14997.0
40.99,2.900000095367432,180.0,21.87833404541016,28.80927658081055,-79.7827916013789,40.458985810785656,332.95924502563474,-0.0021125031635165,-0.0038491240702569,0.998045027256012,0.0623452849686145,-0.0147583182548288,-0.0397937447061545,2.9872096490203344,-0.0564887076616287,-0.0318440720438957,-0.0379062443971633,-0.0993676193431019,0.1170805531740188,-9.79241332948208,14997.0
41.09,2.900000095367432,178.0,21.93342399597168,27.3620548248291,-79.78279161303429,40.45898583914744,333.55427294921867,-0.0012043030001223,-0.0030189149547368,0.9980387091636658,0.0625155344605445,-0.007795169967669,-0.0348955656285144,2.978044490430748,-0.0697004050016403,-0.0438658706843853,-0.0680404752492904,-0.1257453501876443,0.0070617737062275,-9.808120120167732,14998.0
41.29,2.900000095367432,177.0,21.93467712402344,26.98036956787109,-79.78279184047663,40.458985772944814,334.1488850708008,-0.000232593549299,-0.0021195267327129,0.9980356693267822,0.0626131221652031,0.0197451713770063,0.0077095457730208,3.013694717730701,-0.1172976791858673,-0.06021249294281,-0.0872148424386978,-0.1170489964820444,0.1407298635598272,-9.945912680625916,14999.0
41.4,2.900000095367432,178.0,21.992271423339844,25.652421951293945,-79.78279198806871,40.45898573214397,334.45003253173826,6.192098226165399e-05,-0.0021213826257735,0.9980372190475464,0.0625880733132362,0.0600387777333347,0.0246805731409124,3.014397827965893,0.0592993386089801,0.0665052086114883,0.0398722998797893,-0.046755743343383,0.1020795488264411,-9.86103566765785,14999.0
41.5,3.0,181.0,21.84077262878418,29.02397537231445,-79.78279206246975,40.45898570127118,334.7507565612793,-9.48063752730377e-05,-0.0030880272388458,0.998030126094818,0.0626611113548278,0.0638925514737389,0.0305076369415674,2.9999753661997426,0.0440359711647033,-0.0443508140742778,0.0816411077976226,-0.0870945146866142,-0.0977246065624058,-9.743087972402574,14999.0
41.8,3.0,180.0,21.845781326293945,28.63433837890625,-79.78279219271323,40.45898567032191,335.3523381347656,-0.0003360597183927,-0.0050741145387291,0.9980322122573853,0.0624977461993694,0.0498702951180924,0.0295007260370069,3.0052519013866545,-0.1007623374462127,-0.0773679837584495,-0.0222380999475717,-0.100497913537547,-0.1147169624269008,-9.811745978593828,15000.0
41.89,3.0,180.0,21.96597671508789,27.79940223693848,-79.78279226827611,40.45898562753233,335.6535962219238,-0.0009267286513932,-0.004444477148354,0.9980488419532776,0.0622734427452087,0.0471192303175725,0.0259326893755371,3.022704773315485,-0.0455228611826896,0.0292377714067697,-0.0341950468719005,-0.0497698459681123,0.1612810815498233,-9.943840427398682,15000.0
41.99,3.0,180.0,21.818235397338867,30.82902717590332,-79.78279236519377,40.45898565071965,336.25491839599607,-0.0028248953167349,-0.0020291295368224,0.9980979561805724,0.0615511573851108,0.0471074835348299,0.0318986252148612,3.010949960583415,0.0393249467015266,0.0794067084789276,0.0442690961062908,-0.0295639700163155,0.0780437923036515,-9.752373350858688,15001.0
42.2,3.0999999046325684,179.0,21.884593963623047,28.729759216308597,-79.78279229005187,40.4589857848694,336.85818988037107,-0.0017975023947656,-0.0007300341385416,0.9981262683868408,0.0611579529941082,0.028741945817075,0.0161738455192517,3.024384542886553,-0.0148253068327903,0.0310624781996011,0.0415066555142402,-0.0654043367458507,-0.230558746419847,-9.88597170352936,15001.0
42.39,3.0999999046325684,179.0,21.925912857055664,28.690000534057607,-79.78279234200122,40.45898576811256,337.1608403320312,-0.0002617098798509,-0.0012156784068793,0.998126208782196,0.0611765719950199,0.0270185478711054,0.0196543108942434,3.0245155409868048,-0.062576338648796,-0.0615230053663253,-0.0214142594486475,0.0240436045825481,0.0162375123007223,-9.80325757563114,15002.0
42.51,3.2000000476837163,177.0,21.95721244812012,26.455551147460927,-79.7827921798077,40.45898578266865,337.45590335083006,0.0005628819926641,-0.0017725671641528,0.9981149435043336,0.061344776302576,0.0158895224727111,0.0125335236517912,3.0054764164733445,-0.0666224732995033,0.0072265649214386,-0.0403729975223541,-0.0554953207634389,0.0148497533239424,-9.686571709513665,15002.0
42.59,3.2000000476837163,176.0,21.910886764526367,28.363977432250977,-79.78279223478323,40.4589857529196,338.0524418945312,-0.0004398062301333,-0.0025166762061417,0.9980561137199402,0.0622699037194252,0.0360632995593179,0.0062445369064539,2.9567691236155063,0.0960238352417946,0.1097503826022148,0.0839412808418273,0.0007737944810651,-0.1859217782132328,-9.61754006624222,15003.0
42.8,3.2000000476837163,173.0,21.869569778442383,28.06180953979492,-79.78279215154184,40.45898576698427,338.64985400390617,0.0010061034699901,-0.002975171431899,0.998058259487152,0.0622093975543975,0.0186989388695555,0.0109132127617838,2.947628167450562,-0.0026506825815886,0.0099217453971505,-0.0521851405501365,-0.0383031134633347,0.0081004767492413,-9.575160616636277,15003.0
42.89,3.2000000476837163,173.0,21.90713119506836,26.89289855957031,-79.78279199894054,40.45898583491529,338.9499486083984,0.0015552566619589,-0.0031212139874696,0.9980746507644652,0.0619270838797092,-0.0009534748216638,0.0061817771456703,2.969334355862473,-0.0640212297439575,-0.0572321824729442,-0.0792338103055954,-0.0888517217617482,0.1683735165931284,-9.803623611330986,15003.0
43.09,3.2000000476837163,170.0,21.83952140808105,28.23674964904785,-79.78279200064965,40.458985815313305,339.2466252441406,0.0018754930933937,-0.0027331411838531,0.998092770576477,0.0616430528461933,0.0175458967269932,0.0057196999332056,2.96346089599756,0.1131293624639511,0.0706083998084068,0.1089162454009056,0.0310986539907753,-0.069013845808804,-9.793831863999367,15004.0
43.3,3.299999952316284,169.0,21.8670654296875,28.523012161254893,-79.78279181943644,40.45898588335356,339.8439381713867,0.0012233572779223,-0.0019589064177125,0.9980948567390442,0.0616550669074058,-0.0051995180630176,0.0077200322791054,2.9938213383290293,0.0310641899704933,0.0648165643215179,0.0448829643428325,0.0334550179447978,-0.0337059411546215,-9.904572865962985,15004.0
43.4,3.299999952316284,169.0,21.76064109802246,30.980112075805664,-79.78279180115057,40.458985864272506,340.14370471191404,0.0001126347560784,-0.0004659597179852,0.9980905652046204,0.0617659538984298,-0.0065692358822988,0.0096224446725069,2.999128144260253,0.0360147133469581,-0.0383842773735523,0.019169233739376,-0.0216294377041049,-0.0777692929375916,-9.853896217346191,15005.0
43.49,3.299999952316284,169.0,21.79820251464844,29.055782318115234,-79.78279168123615,40.458985886519415,340.7412541503906,-0.0017400274518877,0.0010883042123168,0.9980849027633668,0.06182511895895,-0.0331168742677415,0.0211522750750567,3.032507193712038,-0.05203403159976,-0.0821020603179931,-0.0749990940093994,0.0073634009552188,0.1805814978852868,-10.033641965389252,15005.0
43.69,3.299999952316284,170.0,21.90462684631348,26.837236404418945,-79.78279157360029,40.458985945328045,341.3393300170898,-0.0036412067711353,-0.0005065845907665,0.9980388879776,0.0624895505607128,-0.0297270804642341,0.0153463435296679,3.028742332919655,-0.0391572751104831,-0.0430087372660636,-0.049380324780941,-0.0305127310054376,0.124933354659006,-9.919258732795717,15006.0
43.79,3.299999952316284,169.0,21.86205673217773,28.07771301269531,-79.78279157086159,40.45898593370728,341.6420033569336,-0.0028796864207834,-0.0012514889240264,0.9980144500732422,0.062907688319683,-0.0215317264695203,0.0063709762649737,3.0258447127914296,0.0370967537164688,-0.0017874033655971,0.0593770407140255,-0.0762712636962533,0.048619433697313,-9.806544295549395,15006.0
44.01,3.299999952316284,169.0,21.91965103149414,28.76156616210937,-79.7827914826017,40.45898600068768,341.93592578125,-0.001505545224063,-0.0006328303716145,0.99801367521286,0.0629771873354911,-0.0038589558635825,-0.0011346347315469,3.011021593089444,0.0654837861657142,0.0853837206959724,0.0672631338238716,-0.0173056889651343,-0.2491235830262304,-9.83449632525444,15006.0
44.19,3.299999952316284,170.0,21.88334274291992,27.71988296508789,-79.78279148763477,40.45898599224887,342.53528338623045,-0.0004599065869115,0.0017440604278817,0.9980262517929076,0.0627735182642936,2.625003842931885e-05,0.0041601279149929,2.9866207955594524,-0.0058055142872035,0.0295567139983177,-0.1039872244000434,0.0180385780613869,0.0808753064833581,-9.75100159406662,15007.0
44.3,3.2000000476837163,170.0,21.78067398071289,29.413612365722656,-79.7827914518473,40.45898600627649,343.1327717895508,-3.842230580630712e-05,0.0029425099492073,0.9980565309524536,0.0622466504573822,0.0212892196504971,0.0163785871509132,2.987921032469057,0.1581548303365707,0.0295119527727365,0.0841297954320907,-0.0267319807503372,0.2294549931026995,-9.725434643626214,15008.0
44.39,3.2000000476837163,170.0,21.91714859008789,26.272661209106445,-79.78279133997724,40.45898606843351,343.4308522338867,-3.3692271244945005e-05,0.0032547141890972,0.9980575442314148,0.0622141361236572,0.0041630246912136,0.0133568928819468,3.011923210584785,-0.0056622051633894,-0.0215461514890194,0.0219847839325666,-0.0384699281305074,-0.1692305904999375,-9.986345007419589,15008.0
44.59,3.2000000476837163,172.0,21.8282527923584,28.483253479003903,-79.78279134211598,40.45898607636185,343.7320378417968,1.7285066860495135e-05,0.0027611737605184,0.9980528354644777,0.0623142644762992,-0.0005106443325342,0.0079904517545019,3.0091604021172587,0.0034642957616597,-0.0199055634438991,0.032216589897871,0.0078793834755197,-0.0969136525690555,-9.82021742463112,15008.0
44.79,3.2000000476837163,172.0,21.90337562561035,27.06783866882324,-79.78279124995261,40.45898616038331,344.3283513183593,0.0004625597503036,0.0015267264097929,0.9980499148368835,0.0624011121690273,-0.0090997257038486,-0.0111383126927572,2.9997055866147138,-0.0944860130548477,0.0188688170164823,-0.0673957839608192,-0.0556281667621806,0.2668187559396029,-9.768104115128518,15009.0
44.9,3.2000000476837163,172.0,22.08867835998535,22.789783477783203,-79.78279124963463,40.45898618478751,344.627950012207,0.0006922133616171,0.0017035731580108,0.9980456829071044,0.0624615587294101,0.0158054510850996,-0.0198958185608097,2.9895332635475667,0.0899273455142974,0.0305757392197847,0.0827950164675712,-0.0244183083227835,-0.0507267976272851,-9.712481306791307,15009.0
45.09,3.2000000476837163,172.0,22.23516845703125,21.24713897705078,-79.782791205513,40.45898625179662,345.21772509765617,-0.0002405816339887,-0.0002033668715739,0.9980393052101136,0.0625903159379959,0.0034489694402109,-0.0218842551727206,2.8727841841294603,-0.0951583683490753,-0.0445618517696857,-0.0365253016352653,-0.0869918777793646,0.1213591253198683,-9.078000521063805,15010.0
45.19,3.2000000476837163,173.0,22.123735427856445,22.511472702026367,-79.7827912169776,40.45898627786504,345.4997380371093,-0.0005211803945712,-0.0007810933166183,0.9980419278144836,0.0625423938035965,0.0175804075607107,-0.0318271128582361,2.7601932996897807,0.0077807395718991,0.0124922962859272,0.0479228347539901,-0.0515553252445533,-0.1372430866397917,-8.780094823837281,15010.0
45.29,3.0999999046325684,171.0,22.141263961791992,22.04231643676757,-79.78279095385084,40.45898650119943,346.0549748535156,-0.0020999005064368,-0.0004159214440733,0.9980385303497314,0.0625673979520797,-0.0027954651481258,-0.0589845728278526,2.555407520035998,0.0783589109778404,0.0957927778363227,0.0234030373394489,-0.019728953288868,-0.1078515638038516,-8.600579456090928,15011.0
45.5,3.0999999046325684,171.0,22.21388435363769,22.948820114135746,-79.7827908509943,40.45898672004026,346.5491841430664,-0.003322051372379,0.0011367967817932,0.9980348944664,0.0625627189874649,-0.0149101512311432,-0.0580493955428433,2.321135703765485,0.0082535501569509,0.0002946487511508,0.0254483725875616,-0.0355737017188221,-0.019655799139291,-8.555325515270232,15011.0
45.59,3.0,171.0,22.18258285522461,21.51749992370605,-79.78279084577515,40.45898677262507,346.77510577392576,-0.0029051394667476,0.00092115229927,0.99804025888443,0.062501311302185,-0.0101467852444692,-0.0546689642207099,2.20160081067306,-0.0089906603097915,-0.033591154962778,-0.0633021742105484,-0.0175601456291042,0.1005539097636938,-8.568336154818535,15011.0
45.8,2.900000095367432,173.0,22.14251708984375,22.20135307312012,-79.78279074840407,40.45898692115804,347.0002263183593,-0.0012119197053834,0.0002080056437989,0.9980465173721312,0.0624634027481079,0.0003698730106008,-0.0582294211455558,2.105873863037272,-0.052328135818243,-0.0249942056834697,-0.0147197218611836,-0.0372119978978298,-0.1307547420635819,-8.639517819285393,15012.0
45.99,2.900000095367432,171.0,22.07740974426269,23.473636627197266,-79.78279061201806,40.45898712570996,347.4196599121093,0.0042413757182657,-0.0017282488988712,0.9980697035789492,0.0619346164166927,0.0074290850525613,-0.0683088177953619,1.919231334189297,-0.0638105869293212,-0.009560128673911,-0.0243884865194559,0.0285421508084982,0.0701215642690658,-8.73880880355835,15012.0
46.1,2.799999952316284,170.0,22.11622428894043,22.765928268432607,-79.78279060413806,40.45898718444708,347.60674792480467,0.0047811106778681,-0.0032460330985486,0.9980912804603576,0.0614858381450176,0.0107778275273967,-0.0698362137503833,1.8286664013233207,0.0008528234320692,-0.0616484880447387,-0.0092356326058506,-0.0271759443031624,0.0242339314520359,-8.897161343693734,15012.0
46.2,2.700000047683716,169.0,22.064889907836918,23.65652656555176,-79.78279044782367,40.45898741979045,348.00000506591795,0.0051276804879307,-0.0046534179709851,0.9981337189674376,0.0606731474399566,-0.0040123996479264,-0.0723547403823818,1.736551460819498,0.0245823822915554,-0.0163447633385658,0.0568270161747932,0.0136555394693277,-0.0007310938183218,-9.12400349020958,15013.0
46.4,2.5999999046325684,168.0,22.114971160888672,22.344484329223643,-79.7827902649303,40.45898763019528,348.3807957763672,0.0063574970699846,-0.0057221818715333,0.9981375336647034,0.0604018606245517,-0.022481916313894,-0.060590365744693,1.6707910582328591,-0.0361141301691532,-0.082440547645092,-0.0449202507734298,-0.0094544223742559,0.1677616602927446,-9.15421488404274,15013.0
46.59,2.5999999046325684,167.0,22.087427139282227,22.400146484375,-79.78279021352144,40.45898766079257,348.544453918457,0.006160719320178,-0.0062121832743287,0.9981356859207152,0.060403686016798,-0.0325898671055824,-0.0489918743673201,1.6073939468405285,-0.0594041906297206,-0.0711402595043182,-0.0610273145139217,-0.0132491248624864,0.1612491045892238,-9.18028820335865,15013.0
46.69,2.400000095367432,166.0,22.15002822875977,22.956771850585927,-79.78279015169944,40.458987679208825,348.70296221923826,0.0060245753265917,-0.0069359126500785,0.9981227517127992,0.0605532377958297,-0.0394723560289618,-0.0394746667091065,1.5671124689181473,-0.0277731958776712,-0.010719028301537,0.01454643253237,0.0029427203413797,0.0678573670517653,-9.362011479735378,15013.0
46.79,2.299999952316284,165.0,22.11622428894043,23.46568489074707,-79.78278990593347,40.45898777156214,349.0771611328125,0.0050407713279128,-0.0062665482982993,0.9981051087379456,0.0610053315758705,-0.0674660684197845,-0.0189639749338383,1.5171885354741654,-0.075479507446289,-0.0108281448483467,0.0056414599530398,-0.0376336620887741,0.2829735895246268,-9.212240898013118,15014.0
47.0,2.200000047683716,165.0,23.052757263183597,5.494675636291504,-79.7827896429037,40.45898783372304,349.4427159423828,0.0016121421940624,-0.0024707841221243,0.9981232285499572,0.0611680001020431,-0.0653733386672127,-0.0088238321910236,1.3867856112447765,0.0619658939540386,0.102180890738964,-0.0083682341501116,-0.0075201554421801,0.2093379582837224,-9.241653562188151,15014.0
47.1,2.0999999046325684,163.0,22.20512008666992,20.20545768737793,-79.78278953471151,40.45898782557877,349.56575518798826,0.0008631426026113,0.0045485887676477,0.9988285303115844,0.0481697358191013,-0.1128232291790383,-0.012961156824257,1.083525441332158,-0.0286779813468456,0.1148648113012313,-0.5574179887771606,-0.1066223420295864,-0.416015616171062,-7.283223404288293,15014.0
47.3,2.0,164.0,22.20887565612793,22.48761749267578,-79.78278925278828,40.45898791617177,349.68950396728513,0.0023232155945152,0.0082100676372647,0.9999226331710817,0.0090588331222534,-0.1293508915369145,-0.0028620667826252,0.875145939997077,0.052530188113451,0.0572749488055706,-0.9257307648658752,0.0339186564646661,-0.1547509659267962,-7.4070680165290845,15014.0
47.49,2.0,166.0,22.17381858825684,21.056297302246094,-79.78278877250698,40.45898794090042,349.80168658447263,0.0035923954565078,-0.0018582578049972,-0.994779884815216,0.1019648909568786,-0.1506498911931711,-0.0091540440832393,0.5951620717839148,0.06200847402215,-0.0807600989937782,-1.322598576545715,-0.1149955731164664,-0.1389022340811789,-8.564928982257843,15014.0
