time,wind_speed,wind_angle,battery_voltage,battery_current,position_x,position_y,position_z,orientation_x,orientation_y,orientation_z,orientation_w,velocity_x,velocity_y,velocity_z,angular_x,angular_y,angular_z,linear_acceleration_x,linear_acceleration_y,linear_acceleration_z,node_ids
0.0,1.2999999523162842,194.0,25.55435562133789,0.0,-79.78275245654748,40.45900259337871,268.39369819259645,0.0034421149175614,-0.009226675145328,0.9934040904045104,0.114242598414421,-0.0077111711777576,-0.0059989635551304,0.0013688462421144,-0.00681824516505,-0.000526038580574,-0.0117270182818174,-0.185073127951473,0.0699231883417815,-9.808887274861336,14933.0
0.2,1.2999999523162842,193.0,25.54684257507324,0.1510837078094482,-79.78275247464896,40.45900260222359,268.3779060611725,0.0034334475640207,-0.0092221889644861,0.9934078454971312,0.1142103970050811,-0.0071567826017582,-0.0083630554213672,-6.536912859819092e-05,-0.0016508436528965,0.0004577546496875,0.0068215052597224,-0.1854786140844226,0.0605966281285509,-9.810632668733597,14933.0
0.3,1.2999999523162842,193.0,25.55435562133789,0.0079517737030982,-79.78275246242751,40.45900260834705,268.37791237926484,0.0034339583944529,-0.0092074964195489,0.9934087991714478,0.1142038628458976,-0.0104085301386499,-0.0095433592252777,0.0001018217653386,-0.0047611389309167,0.0012648921692743,-0.0073298155330121,-0.1860588223300874,0.0703536713216453,-9.809218811988831,14933.0
0.5,1.2999999523162842,193.0,25.55435562133789,-0.0238553211092948,-79.78275246729284,40.45900259975768,268.3618055353165,0.003437322564423,-0.0092080803588032,0.9934122562408448,0.1141731515526771,-0.0114244442283172,-0.0086292421777346,-0.0011593166919378,0.0046591265127062,0.0023583420552313,0.0066670938394963,-0.1860844952613115,0.0616433619568124,-9.809876623749734,14933.0
0.6,1.2999999523162842,189.0,25.543087005615234,-0.0238553211092948,-79.78275244976057,40.45900260516508,268.3616983661652,0.0034430427476763,-0.0091999499127268,0.9934142827987672,0.1141559183597564,-0.0150264300040988,-0.0097438766291607,-0.0010162245136338,-0.0101292347535491,-0.0026748746167868,-0.0105817299336195,-0.185975864958018,0.0641571850329637,-9.808505451679231,14933.0
0.8,1.2999999523162842,185.0,25.55435562133789,-0.0397588685154914,-79.78275247830979,40.4590026200647,268.3458469877243,0.0034170493017882,-0.0091933785006403,0.9934211969375608,0.1140974760055542,-0.0108627218845968,-0.0114188046885916,-0.0021000458820839,0.001039449009113,0.0020271886605769,0.0059356433339416,-0.1855552308820188,0.063691897415556,-9.809878962635995,14933.0
0.91,1.2999999523162842,183.0,25.55685997009277,-0.0159035474061965,-79.78275254700534,40.4590026095902,268.3323894510269,0.0033939843997359,-0.0092125823721289,0.9934232831001282,0.1140781491994857,-0.0027008523134795,-0.0063530639927416,0.0008593733668452,-0.0086095565930008,-0.0024669738486409,-0.0067662722431123,-0.1851727864332496,0.0649549827910959,-9.807879214882847,14933.0
1.1,1.2000000476837158,183.0,25.55435562133789,0.0,-79.78275253195686,40.459002620875225,268.33256158924104,0.0034297802485525,-0.0091931615024805,0.9934266805648804,0.1140494048595428,-0.0070762727196498,-0.0086408879167096,0.0007707717447936,0.0024060821160674,-0.0015657356707379,0.0078724464401602,-0.1844028908573091,0.0641998605709523,-9.809495385289193,14933.0
1.21,1.2999999523162842,180.0,25.5581111907959,-0.0318070948123931,-79.78275254329778,40.45900263083497,268.3193707237244,0.0034163244999945,-0.0091993389651179,0.993427574634552,0.1140418499708175,-0.0080848976515775,-0.0101065833008067,0.0023248969101211,-0.0101712755858898,-0.0022835780400782,-0.0074751037172973,-0.1854847536608576,0.0637670843861997,-9.808676190376284,14933.0
1.4,1.2999999523162842,176.0,25.55435562133789,-0.055662415921688,-79.78275256102822,40.45900264532021,268.3064285287857,0.0034035872668027,-0.0092264050617814,0.9934309124946594,0.1140105873346328,-0.0054092103763076,-0.0112460832643042,0.0034402575595188,0.0020925775170326,4.423107020556927e-05,0.0071926140226423,-0.1861400986276567,0.0640612724237144,-9.810148519277574,14933.0
1.5,1.2999999523162842,176.0,25.54559135437012,0.0079517737030982,-79.78275254965673,40.45900265412804,268.3067881832123,0.0033964856993407,-0.0092132678255438,0.9934318065643308,0.1140040978789329,-0.0090401990003229,-0.0122664594802741,0.0035382505081568,-0.0090191522613167,-0.0019165710546076,-0.0093124620616436,-0.1849753149971366,0.0634709594585001,-9.80860660851002,14933.0
1.7,1.2000000476837158,176.0,25.563119888305664,0.0,-79.78275257994486,40.45900264574532,268.29433415031434,0.0033831654582172,-0.0092516355216503,0.9934368133544922,0.1139575019478798,-0.0056252725842737,-0.0085636875271654,0.0045089173499668,0.0032030344009399,-3.96656832890585e-05,0.0052103260532021,-0.1849254492111504,0.0633431064337492,-9.809526960253717,14933.0
1.8,1.2000000476837158,175.0,25.55310249328613,0.0318070948123931,-79.78275256919599,40.459002652135545,268.2947964439392,0.0033737428020685,-0.0092551987618207,0.9934351444244384,0.1139720827341079,-0.0091514013283136,-0.009526045051272,0.0046260041632754,-0.0088176857680082,-0.0042194346897304,-0.0093138357624411,-0.185512071121484,0.0663489772751927,-9.80838616847992,14933.0
2.0,1.100000023841858,170.0,25.56061553955078,0.0079517737030982,-79.78275259942052,40.45900264266536,268.2802556524277,0.0033641154877841,-0.009246896021068,0.9934393167495728,0.1139371395111084,-0.0066211323629516,-0.0069930089149558,0.0016666132664552,-0.0028366688638925,-0.0031208684667944,0.0038317930884659,-0.1835585894621908,0.0616453034151345,-9.810689971446992,14933.0
2.1,1.100000023841858,169.0,25.55685997009277,-0.0079517737030982,-79.78275258820959,40.45900264764656,268.2804282674789,0.0033490776550024,-0.0092330574989318,0.9934393763542176,0.1139373704791069,-0.0098229044404125,-0.0081181972735447,0.0017277580776245,-0.0047543561086058,-0.0011825069086626,-0.0071478369645774,-0.1861334839649498,0.0666877274913713,-9.80927786886692,14933.0
2.3,1.2000000476837158,168.0,25.54433822631836,-0.1113248318433761,-79.78275264566507,40.45900265502391,268.2659332523346,0.0033421907573938,-0.0092185270041227,0.9934483170509338,0.1138613075017929,-0.0031204679146092,-0.0090762089473239,-0.000285589578456,-0.0029203484300524,-0.0010369411902502,0.0027103549800813,-0.1839911189675331,0.0576370827667415,-9.811150732040408,14933.0
2.41,1.2000000476837158,166.0,25.543087005615234,-0.1192766055464744,-79.78275263276375,40.459002622423256,268.2526175746918,0.0033149986993521,-0.0092297717928886,0.9934501051902772,0.1138458997011184,-0.0085164213733477,-0.0055648957970458,-0.0010129815755389,-0.0006348055321723,0.0003736412618309,-0.0056604510173201,-0.1862019146606326,0.0677537525631487,-9.80926325082779,14933.0
2.6,1.2000000476837158,164.0,25.5581111907959,-0.1351801604032516,-79.78275260496116,40.45900263004216,268.2524168262482,0.00332857016474,-0.0092202331870794,0.993452489376068,0.1138247773051262,-0.0130684765715495,-0.0078307505469123,-0.0009073972140389,-0.0048249471001327,-0.001567933242768,-0.0003873787354677,-0.1847052284516394,0.0569774802960455,-9.811287556886674,14933.0
2.7,1.2999999523162842,159.0,25.55059814453125,-0.1590354740619659,-79.78275262407175,40.45900261864119,268.2410993347168,0.0032840583007782,-0.009219660423696,0.9934570789337158,0.1137860938906669,-0.0085181196507893,-0.0088104351143749,0.0013021237162047,-0.002282892121002,0.0001620055409148,-0.0060254223644733,-0.1853698924183845,0.0688316593598574,-9.808993694186212,14933.0
2.9,1.2999999523162842,154.0,25.54809379577637,-0.1510837078094482,-79.7827526314999,40.45900261217313,268.2280072937012,0.0032685948535799,-0.0092102289199829,0.993460774421692,0.1137549355626106,-0.005579493150183,-0.0098295253357521,-0.0005201190468389,-0.0049474081024527,-0.0041742208413779,-0.0017123647266998,-0.1838164882175624,0.0560000131325796,-9.809988890290262,14933.0
3.0,1.2999999523162842,153.0,25.55310249328613,-0.1828908026218414,-79.78275262112345,40.45900262008939,268.2279553184509,0.003257913980633,-0.0092128915712237,0.9934628009796144,0.11373782902956,-0.0081613944849364,-0.0109645075160003,-0.0006176404841494,-0.0026897629722952,-0.0013538147322833,-0.0070729218423366,-0.184797468278557,0.0700331525411456,-9.808002006411552,14933.0
3.2,1.2999999523162842,145.0,25.549346923828125,-0.1749390214681625,-79.7827526101058,40.45900259005021,268.2142829666138,0.0032597205135971,-0.0092297010123729,0.9934700727462769,0.113672561943531,-0.0091821300722822,-0.0080723919040307,-0.0015643356598911,-0.0071282763965427,-0.0014238118892535,0.0017742696218192,-0.1837423747591674,0.0567090976657345,-9.81040579676628,14933.0
3.3,1.399999976158142,142.0,25.549346923828125,-0.1669872552156448,-79.78275259617324,40.45900259555746,268.21412489509584,0.0032632201910018,-0.0092368712648749,0.9934718012809752,0.1136570945382118,-0.0116391077627628,-0.0091152994166389,-0.0016356326091055,-0.000261609267909,0.001317624701187,-0.0077030067332088,-0.1847137251868844,0.068160033551976,-9.808680868148803,14933.0
3.5,1.5,139.0,25.55185127258301,-0.1510837078094482,-79.78275258769979,40.459002579917104,268.2010388145447,0.0032445832621306,-0.0092469938099384,0.9934765696525574,0.1136148124933242,-0.0101874132138471,-0.0104753397574892,-0.002024333893774,-0.0047767744399607,0.0006460971198976,-0.0045975907705724,-0.1826766831614077,0.0527821624511852,-9.81080457687378,14933.0
3.61,1.5,135.0,25.55185127258301,-0.1669872552156448,-79.78275257225776,40.459002587488754,268.2008380661011,0.0032482936512678,-0.0092417290434241,0.9934784173965454,0.1135989353060722,-0.0119979163752656,-0.011590113136943,-0.0021631705124568,0.0012985547073185,0.0002608851646073,-0.0001568791485624,-0.1843925851397216,0.0669357179570943,-9.809491876959804,14933.0
3.8,1.5,134.0,25.54684257507324,-0.1669872552156448,-79.78275258010369,40.459002530278354,268.1883458862305,0.0032392647117376,-0.0092741064727306,0.9934822320938108,0.1135632246732711,-0.0103195545766209,-0.0043096858687588,-0.0021420326004406,-0.0088158557191491,-0.0002915040822699,-0.0053421882912516,-0.1834719227626919,0.0502427532384172,-9.811092259883884,14933.0
3.91,1.5,131.0,25.54183387756348,-0.1431319266557693,-79.78275260761745,40.45900248865087,268.1779250869751,0.0031830926891416,-0.0092820934951305,0.993484616279602,0.1135432422161102,-0.0017414167730026,-0.0020043692937202,0.0007885478753158,0.0075956392101943,0.0021793209016323,0.0013414908898994,-0.1856136847659944,0.0623098349059,-9.809272606372836,14933.0
4.1,1.5,131.0,25.55435562133789,-0.1590354740619659,-79.78275259637738,40.45900249190584,268.17809460258485,0.0032035470940172,-0.0092758303508162,0.9934881925582886,0.1135125681757927,-0.0069057518573702,-0.0038506049511087,0.0008967306585455,-0.0046595004387199,-0.0010962163796648,-0.0056988885626196,-0.1854093976691365,0.047970187193714,-9.81056951880455,14933.0
4.2,1.5,127.0,25.549346923828125,-0.1510837078094482,-79.78275260437087,40.45900248567932,268.166109539032,0.0032037298660725,-0.0092684803530573,0.99349045753479,0.113492451608181,-0.0013678050466878,-0.0094726885954551,-0.0007420196829118,0.0062276432290673,0.0012762467376887,0.0043976320885121,-0.1836924907006323,0.054287857026793,-9.810750782489777,14933.0
4.4,1.5,130.0,25.54809379577637,-0.1510837078094482,-79.78275258021436,40.459002433742135,268.155311800003,0.0031811909284442,-0.0092651387676596,0.9934929609298706,0.1134719178080558,-0.0060539209779159,-0.0050326169571172,-0.0012813347375478,-0.0001164464338216,-0.0002984915918204,-0.0026434706524014,-0.1851549524255097,0.0665785901248455,-9.807998498082162,14933.0
4.51,1.399999976158142,131.0,25.55185127258301,-0.1908425688743592,-79.78275257050551,40.45900243728856,268.15518972969056,0.0032007053960114,-0.009262922219932,0.993498921394348,0.1134193688631057,-0.007785905411604,-0.0061160103085009,-0.0012670970477993,0.0006276104249991,0.0025914013385772,0.0065769436769187,-0.1836836102418601,0.0490013665147125,-9.811026771068574,14933.0
4.7,1.399999976158142,135.0,25.55310249328613,-0.1590354740619659,-79.78275256172076,40.45900239521824,268.1444551715851,0.0031868256628513,-0.0092741651460528,0.9935028553009032,0.1133847534656524,-0.0063118016128951,-0.0047309007384329,-0.0017306344113726,0.0107208928093314,0.0005401701200753,0.0013220539549365,-0.1854948949255049,0.0670915097091347,-9.808173914551736,14933.0
4.8,1.5,139.0,25.549346923828125,-0.1669872552156448,-79.7827525512203,40.45900239815115,268.144292093277,0.0032020409125834,-0.0092724571004509,0.9935058951377868,0.1133571416139602,-0.0090566868538234,-0.0056629452193614,-0.0016485638431338,-0.0004648034810088,0.0016888887621462,0.0034944079816341,-0.185925542358309,0.0484678172226995,-9.810816271305084,14933.0
5.0,1.399999976158142,150.0,25.566875457763672,-0.0874695107340812,-79.78275252599599,40.45900236800408,268.1337830791473,0.0032120323739945,-0.0092404168099164,0.9935088157653807,0.1133337467908859,-0.0092972279961411,-0.0084325708961975,-0.0020782406599739,0.0085970796644687,0.0016189101152122,0.0046196295879781,-0.1848296279646456,0.0702964782435447,-9.8087919652462,14933.0
5.1,1.399999976158142,148.0,25.569379806518555,-0.0795177370309829,-79.78275251088391,40.45900237359346,268.1335944900513,0.0032408935949206,-0.0092255007475614,0.9935115575790404,0.1133101731538772,-0.0122020958149675,-0.0093809709595252,-0.001915883412304,-0.0042425626888871,-0.0020253167022019,0.0025165635161101,-0.1841311963275075,0.0497909096488729,-9.811275862455366,14933.0
5.3,1.399999976158142,161.0,25.56437110900879,-0.0874695107340812,-79.78275254268219,40.45900235908943,268.1234273681641,0.0032049720175564,-0.0092267226427793,0.99351567029953,0.1132753938436508,-0.0032484736267114,-0.0127768194183174,-0.0024340305818701,0.0076417732052505,0.0026810916606336,0.0025822899769991,-0.1840875980257988,0.0736169704003259,-9.808182100653651,14933.0
5.4,1.399999976158142,163.0,25.57188415527344,-0.0715659633278846,-79.78275252282073,40.45900230060044,268.1142306098938,0.0031869763042777,-0.0092187579721212,0.9935190081596376,0.1132469028234481,-0.0053580984277794,-0.0091784267876265,-0.0021695296250918,-0.0039104153402149,-0.0012543514603748,-0.0002693659334909,-0.185155738145113,0.0499706658488139,-9.810987010002137,14933.0
5.6,1.2999999523162842,172.0,25.559362411499023,-0.0636141896247863,-79.78275250033566,40.4590023155795,268.1138314971924,0.0031762016005814,-0.0092218918725848,0.9935219883918762,0.1132214218378067,-0.0090170340339417,-0.011268598655345,-0.0022658891878802,0.0102951880544424,0.0021345175337046,0.0083246435970067,-0.184477863125503,0.0550256979838013,-9.810336799621584,14933.0
5.7,1.2999999523162842,171.0,25.56562423706055,-0.0715659633278846,-79.78275250584396,40.459002250756114,268.10650203323365,0.0031460169702768,-0.0092306211590766,0.9935253858566284,0.1131911128759384,-0.0049774626948805,-0.0068953615406594,0.0015641768372733,-0.003678064327687,-0.0006888981442898,0.0022847552318125,-0.1841293142549693,0.0499913275334984,-9.810753121376038,14933.0
5.92,1.2999999523162842,173.0,25.563119888305664,-0.0874695107340812,-79.78275249714106,40.45900225599604,268.10666201210023,0.0031266659498214,-0.0092264702543616,0.9935265183448792,0.1131821870803833,-0.0075236320153002,-0.0078916994715884,0.0016305448596525,-0.0087638664990663,-0.001495013013482,-0.0080808922648429,-0.1858734838664532,0.0716452024877071,-9.809089003801349,14933.0
6.0,1.399999976158142,175.0,25.57063102722168,-0.0795177370309829,-79.78275251341405,40.45900221567077,268.0992069015503,0.0031014883425086,-0.009214942343533,0.9935340881347656,0.1131175458431244,-0.0010823611922416,-0.0084847088691257,0.0035029093925575,-0.0008160023135133,-0.0013383501209318,0.0078055672347545,-0.183887294344604,0.0478377066459506,-9.811459465026855,14933.0
6.2,1.5,178.0,25.56437110900879,-0.0874695107340812,-79.78275248821436,40.459002178095886,268.090083814621,0.0030729954596608,-0.0092161865904927,0.993539333343506,0.1130717471241951,-0.0035697094144726,-0.0101636550499671,0.0012596591614082,0.0088136941194534,0.0036618958692997,0.0010092501761391,-0.1847479496710002,0.0700826208991929,-9.808227708935735,14933.0
6.31,1.5,176.0,25.56061553955078,-0.0954212844371795,-79.7827524799482,40.459002186323474,268.09022662734986,0.0030716240871697,-0.0092203384265303,0.9935396313667296,0.113069087266922,-0.0053451573680134,-0.011033373478352,0.0011964226844846,0.0045398133806884,0.0004164447891525,0.0053367423824965,-0.1845894535817206,0.0478839361947029,-9.811789247989656,14933.0
6.5,1.5,170.0,25.55185127258301,-0.1669872552156448,-79.78275246761187,40.45900213754141,268.0838346252441,0.0030542679596692,-0.009238813072443,0.9935442805290222,0.1130278632044792,-0.0058633800676388,-0.0091412210831848,0.0028600776611552,0.0026785053778439,0.0004114550538361,0.0019392282702028,-0.1855227788351476,0.0633019520854577,-9.809214134216312,14933.0
6.6,1.399999976158142,165.0,25.549346923828125,-0.1669872552156448,-79.78275245689322,40.459002144544094,268.08413217163087,0.0030606279615312,-0.0092421611770987,0.9935473799705504,0.1129990965127945,-0.0076515664365327,-0.0101646958251161,0.0027963385202387,0.0030052051879465,0.0021690586581826,0.007349707186222,-0.1847675561159849,0.0483300604764372,-9.81116008758545,14933.0
6.81,1.5,168.0,25.54559135437012,-0.1749390214681625,-79.78275245152791,40.459002073013245,268.0762223968506,0.0030252437572926,-0.0092663997784256,0.9935516715049744,0.1129604652523994,-0.0063263186109775,-0.0033364218573983,0.0013186241644782,0.0072397664189338,-0.0038094802293926,-0.0014920035609975,-0.185367663167417,0.0659387631202116,-9.80915741622448,14933.0
6.9,1.399999976158142,168.0,25.55310249328613,-0.1749390214681625,-79.78275244852449,40.459002044985866,268.0699693927765,0.0030003786087036,-0.0092618465423583,0.993554413318634,0.1129376515746116,-0.001791300526298,-0.0080819750312807,0.003279959478345,0.0012442707084119,0.0010262710275128,0.0031300778500735,-0.1839240952581168,0.0471811054414138,-9.81115657925606,14933.0
7.1,1.5,172.0,25.55059814453125,-0.1828908026218414,-79.78275243479675,40.459002059174814,268.070646024704,0.0030033539514988,-0.0092601384967565,0.9935622811317444,0.1128682419657707,-0.0051749707207398,-0.0099970330587992,0.0031715232464505,0.0015085181221365,0.0013051480054855,0.0006442774320021,-0.1849632733874023,0.0677018493879586,-9.808601930737495,14933.0
7.21,1.5,171.0,25.55685997009277,-0.0874695107340812,-79.78275244282116,40.45900197482806,268.06252954101564,0.0029837368056178,-0.0092784855514764,0.9935685396194458,0.1128123626112938,-0.0021776190038705,-0.0011683465077677,0.00125857293131,0.0032322893384844,0.00068038032623,0.0089684519916772,-0.185229632332921,0.0490693221241235,-9.810084199905395,14933.0
7.4,1.5,178.0,25.563119888305664,-0.0874695107340812,-79.78275241255763,40.45900193619038,268.05678842163087,0.0029619766864925,-0.0092738736420869,0.9935705065727234,0.1127959340810775,-0.0041829183589825,-0.0045165045007075,0.0028261649060817,0.0038102190010249,-0.0002409552689641,-0.002043571555987,-0.1845649866387248,0.0672592928213998,-9.808686130642892,14933.0
7.51,1.399999976158142,180.0,25.5681266784668,-0.1272283792495727,-79.78275240503109,40.45900193944589,268.0570757160187,0.0029637147672474,-0.0092710545286536,0.9935769438743592,0.1127397492527961,-0.0057659983724799,-0.0054099046239856,0.002782885711428,0.0026537107769399,0.0013243524590507,0.0085877776145935,-0.184618031848222,0.0476999773085117,-9.811763520240785,14933.0
7.7,1.5,182.0,25.55435562133789,-0.1192766055464744,-79.78275240824009,40.45900188948293,268.052091337204,0.0029567116871476,-0.0092856548726558,0.993582010269165,0.1126938760280609,-0.0015471573019411,-0.0032493970420748,0.0045753259924094,0.0046102972701191,0.002352740149945,0.0001480850332882,-0.1848723491840064,0.0644708470394835,-9.809535731077196,14933.0
7.81,1.600000023841858,180.0,25.555606842041016,-0.1033730581402778,-79.78275240452056,40.459001892181256,268.05255363082887,0.0029770780820399,-0.0092803761363029,0.9935832619667052,0.1126825660467147,-0.0026464662212561,-0.0041196954905778,0.0045175834905014,0.0028891169931739,0.0035657817497849,0.0054024076089262,-0.1815408249758184,0.0526564473146572,-9.811597459316252,14933.0
8.0,1.600000023841858,184.0,25.566875457763672,-0.1033730581402778,-79.78275238981956,40.459001858300425,268.0481791267395,0.002954262541607,-0.0092719681560993,0.9935903549194336,0.1126216202974319,-0.002161322058266,-0.0065212741510465,0.0058894947819636,-0.0007515787729062,0.0011810819851234,-0.0021805972792208,-0.1849007447250187,0.0553828303841874,-9.810867726802826,14933.0
8.1,1.7000000476837158,186.0,25.56437110900879,-0.0795177370309829,-79.78275238486255,40.45900186373468,268.0487735042572,0.0029612281359732,-0.0092692282050848,0.9935911297798156,0.11261498183012,-0.0030070698335138,-0.0074536621878361,0.0057905776186166,0.0080042742192745,0.0042200009338557,0.0079720802605152,-0.1839401020109653,0.0554166665766388,-9.811715573072432,14933.0
8.3,1.7999999523162842,187.0,25.559362411499023,-0.1351801604032516,-79.78275231677766,40.45900181095476,268.0419146785736,0.0029512862674891,-0.0092707518488168,0.9935965538024902,0.1125670447945594,-0.0106093458518894,-0.006780371801949,0.0030663998545353,-0.0019895026925951,0.0003497601428534,-0.0044758329167962,-0.1852152152918279,0.0518385588889941,-9.810246752500532,14933.0
8.4,1.7999999523162842,186.0,25.555606842041016,-0.1113248318433761,-79.78275228883172,40.45900174659352,268.0354213485718,0.0029353455174714,-0.0092851920053362,0.9936010837554932,0.1125259548425674,-0.0090769039113579,-0.0023206975067582,0.0016761434771212,0.0087574506178498,0.0013261234853416,0.0015885895118117,-0.1841017409786582,0.0564818693837151,-9.810585891008378,14933.0
8.6,1.7999999523162842,183.0,25.559362411499023,-0.0874695107340812,-79.78275226074874,40.45900174769497,268.035747505188,0.0029299138113856,-0.0092621687799692,0.9936023950576782,0.1125165894627571,-0.0136511900200476,-0.0042028437220857,0.0016356633682305,-0.0014476658543571,-0.0046204538084566,-0.0062866434454917,-0.1858279852196574,0.0495218372298404,-9.81011694431305,14933.0
8.71,1.7999999523162842,183.0,25.563119888305664,-0.0795177370309829,-79.78275227894684,40.45900169949852,268.02934882736207,0.0029041985981166,-0.0092788552865386,0.993604838848114,0.1124945357441902,-0.0034230583953731,-0.001788619479568,0.0004278421107547,0.0054446146823465,0.0019580561202019,0.0048013548366725,-0.1847928635962308,0.0579181693866849,-9.810201144218444,14933.0
8.9,1.8999999761581416,181.0,25.44167137145996,1.0019235610961914,-79.7827522644679,40.45900165851732,268.0236077079773,0.0028961778152734,-0.0092799570411443,0.9935901165008544,0.1126241013407707,-0.0023759238878946,-0.0006552036355206,-0.000109671584938,0.0024511984083801,0.0006331304321065,-0.0061193872243165,-0.1761159610189497,0.0618737879348918,-9.808302553296093,14933.0
9.01,1.8999999761581416,179.0,25.516794204711918,0.2226496636867523,-79.78275226046344,40.4590016594121,268.02358219718934,0.0028791334480047,-0.0093204332515597,0.9935975074768066,0.1125561967492103,-0.003467893229286,-0.0021584730666297,-0.0003119135413328,0.0116710243746638,0.0063209300860762,-0.0004820150788873,-0.1864682187885046,0.0373899702401831,-9.808494926691056,14933.0
9.2,1.8999999761581416,174.0,25.519296646118164,0.2146978974342346,-79.78275225266775,40.45900163428114,268.01781079864503,0.0028758882544934,-0.0092699481174349,0.993611216545105,0.1124396622180938,-0.0025829892332487,-0.0042559270348263,-0.0008341686554965,-9.486765338806435e-05,-0.0031113794539123,-0.0178173948079347,-0.1803296656161546,0.0468646248942241,-9.814193623065949,14933.0
9.31,1.8999999761581416,173.0,25.51554107666016,0.2067461162805557,-79.78275224898934,40.45900163832139,268.017733789444,0.0028647047001868,-0.0093047199770808,0.9936168789863586,0.1123866513371467,-0.00244277170582,-0.005635246051759,-0.000964644510357,0.0094288801774382,-0.000148264618474,0.0011783590307459,-0.1894483070634304,0.052036126255989,-9.813075635433195,14933.0
9.5,1.8999999761581416,171.0,25.52430534362793,0.2226496636867523,-79.78275223703038,40.4590015873944,268.01238248443605,0.0028629240114241,-0.0093077486380934,0.9936192035675048,0.1123655959963798,-0.0031657863690641,-0.001445102705533,-0.0009842933902075,-0.0024926806800067,0.0042082522995769,-0.0047580683603882,-0.1872703288681805,0.0554943705908954,-9.81078001856804,14933.0
9.6,1.7999999523162842,166.0,25.52430534362793,0.2703603208065033,-79.78275223253188,40.45900158804496,268.0122823486328,0.0028598804492503,-0.0093198968097567,0.9936184883117676,0.1123711243271827,-0.0035730236566765,-0.0020153437796156,-0.0009930108361575,0.0058594103902578,0.0034537948668003,0.0105978865176439,-0.1807834643684328,0.056750512397848,-9.814139828681949,14933.0
9.8,1.7999999523162842,160.0,25.51053237915039,0.326022744178772,-79.78275219399059,40.45900157092097,268.0074512729645,0.0028719978872686,-0.0092875706031918,0.9936192035675048,0.1123672798275947,-0.0057150488067879,-0.0054126691661247,-0.0016133852306115,0.0057473178021609,-0.0074384976178407,-0.0034889143425971,-0.1772031411342323,0.0568135572597384,-9.817849302291869,14933.0
9.92,1.7999999523162842,160.0,25.50802993774414,0.3896369338035584,-79.78275220378343,40.45900154656992,268.00254819488526,0.0028555314056575,-0.0092966631054878,0.9936208128929138,0.1123524978756904,0.0026340028202042,-0.0056162243929283,-0.0020358413766568,0.0062891305424273,-0.004365487024188,0.0088737020269036,-0.1781662323698401,0.0446897027827799,-9.812068744897845,14933.0
10.1,1.7999999523162842,161.0,25.027240753173828,1.6778242588043213,-79.78275220236111,40.45900155925109,268.0024604568481,0.0027507913764566,-0.0093396436423063,0.9936178922653198,0.112377680838108,-0.002302389737343,-0.0067650154689724,-0.0003244107082386,-0.0304804369807243,-0.0119466455653309,0.0060509140603244,-0.2061558304354548,0.0830967916175723,-9.759260201454165,14933.0
10.21,1.7999999523162842,159.0,25.422889709472656,0.3419262766838074,-79.78275218131625,40.45900153752967,267.99980018234254,0.0031520496122539,-0.0090161357074975,0.9936246871948242,0.1123337298631668,-0.0009847469719287,-0.0142431980858507,0.0028648017624772,-0.0052273743785917,0.0608658790588378,-0.0003678677603602,-0.2258175681531429,-0.002461435678415,-9.827538138628006,14932.0
10.4,1.7000000476837158,157.0,23.79397201538086,11.188145637512209,-79.78275216146359,40.45900153091561,267.9949967632294,0.007358475588262,-0.0056236530654132,0.9936413168907166,0.1122103482484817,-0.0136895727091914,-0.031457709204427,0.0048558289805152,-0.0527476482093334,0.1300718635320663,0.0023568957112729,-0.228696755412966,0.0135952423419803,-9.79555854678154,14932.0
10.5,1.7999999523162842,155.0,25.184999465942383,1.160959005355835,-79.78275213313745,40.459001554867285,267.9953717956543,0.0116527201607823,-0.0021438426338136,0.9936334490776062,0.1120365634560585,-0.0252640921122026,-0.0331366725619866,-0.0001125091588697,-0.1206019818782806,0.0121636232361197,-0.0182529650628566,-0.1757320730388164,0.0594796820310875,-9.778296396732332,14932.0
10.71,1.7000000476837158,154.0,25.513036727905277,0.1669872552156448,-79.78275208259434,40.459001578129225,267.99215052223207,0.0176336448639631,0.0026896456256508,0.9935567378997804,0.1119232699275016,0.0100014333205225,-0.0093971588959714,0.0025021349076944,-0.0040800939314067,-0.0170822236686944,0.0163113567978143,0.0473643379937857,0.3975210557878018,-9.78845359504223,14932.0
10.82,1.7000000476837158,150.0,25.505525588989247,0.2226496636867523,-79.782752102622,40.45900158306375,267.9922771224976,0.0166513714939355,0.0019248252501711,0.9936206936836244,0.1115212887525558,0.0161115556090791,-0.0003966186488245,-0.0006772434754038,0.0083032539114356,0.0115353409200906,-0.0046690823510289,0.215452793687582,0.415193570740521,-9.802857626080511,14932.0
11.0,1.7000000476837158,149.0,25.05603790283203,4.604076862335205,-79.78275202896064,40.45900160384421,267.986009098053,0.0145530682057142,0.0002297763858223,0.993647277355194,0.1115943267941474,-0.0067494789019869,-0.0205356211316801,0.0015660827878258,-0.0028378015849739,-0.0272113047540187,-0.0212626904249191,0.0585181805072352,0.247393556367606,-9.80615487098694,14932.0
11.1,1.7000000476837158,152.0,24.925825119018555,5.391302585601807,-79.78275201839905,40.45900162235253,267.98620555496217,0.0145076187327504,0.0001496535696787,0.9936437010765076,0.1116327196359634,-0.0033700062648067,-0.0225226941745647,0.0026863063724634,0.0383192859590053,-0.0064757294021546,0.016910882666707,-0.0104980144661385,0.2333745096623897,-9.784453514814375,14932.0
11.3,1.7999999523162842,152.0,24.651626586914062,7.681413650512695,-79.78275201261773,40.4590016026236,267.9872860679626,0.0140580954030156,-0.0001203679275931,0.9936290979385376,0.1118199452757835,0.0005367738704548,-0.0152026353949562,0.0063817497890426,0.0558323189616203,0.0122162634506821,-0.038368884474039,0.0871188719943165,0.2768807359971106,-9.843620320558546,14932.0
11.4,1.7999999523162842,151.0,24.515151977539062,8.866228103637695,-79.7827520055378,40.45900154857153,267.9880134830475,0.0140784000977873,-7.943600940052421e-05,0.9936319589614868,0.1117916256189346,-0.0048582029355506,-0.014346089005708,0.0061085933266177,-0.0284232404083013,0.013998944312334,0.0419327169656753,-0.0288076395238749,0.2519603414274752,-9.799120670557024,14932.0
11.6,2.799999952316284,149.0,24.192123413085927,11.91970920562744,-79.78275199417331,40.4590015706542,267.98924038505555,0.0143521046265959,0.0002717123716138,0.9936262965202332,0.1118066161870956,-0.0023166682860014,-0.0121274911933989,0.0065371513128463,-0.0585184507071971,-0.0528737045824527,0.0584324784576892,0.0925576504971832,0.2573663115687668,-9.868439412117004,14932.0
11.71,2.900000095367432,147.0,24.04187774658203,13.040908813476562,-79.7827519892279,40.45900154273471,267.9906418094635,0.0146907391026616,0.0006283183465711,0.9936376214027404,0.111660748720169,0.0041910935027669,-0.021527525330921,0.0065995318328517,0.0523847639560699,0.1140422001481056,-0.0873437896370887,-0.0878523960616439,0.3746138575673104,-9.76446773171425,14932.0
11.9,3.5,135.0,23.685043334960927,16.611255645751953,-79.7827519690063,40.45900151631067,267.99257371521,0.0155160371214151,0.0018686241237446,0.9935901165008544,0.1119580119848251,0.0029452517328114,-0.0078629442256129,0.0087082636879909,0.0068158409558236,0.0530987828969955,-0.0182363297790288,0.0921675041690468,0.2530613355897367,-9.84336070418358,14932.0
12.01,3.700000047683716,136.0,23.53104019165039,17.621131896972656,-79.7827519723091,40.45900152536059,267.9937264690399,0.0148738911375403,0.0019827215000987,0.9935986399650574,0.1119673326611518,0.0111376978275727,-0.0091613202254741,0.0145223332701767,0.0207820236682891,-0.0308085046708583,0.0228172969073057,0.0794674796797335,0.1753286517038941,-9.943382005691529,14932.0
12.2,4.0,128.0,23.19423866271973,21.461837768554688,-79.78275195937967,40.45900148951196,267.9974987277985,0.0146591896191239,0.0073088705539703,0.9935635328292848,0.112086497247219,-0.0038609677838176,-0.0310981967217704,0.0313069094370908,-0.0399871841073036,0.1307989954948425,-0.0195306222885847,0.0792703736945986,0.4330712498724461,-9.902000091075898,14932.0
12.3,4.0,124.0,23.01644897460937,23.12375831604004,-79.78275195443355,40.45900151677605,268.00129220581056,0.0142649877816438,0.0114016942679882,0.9935522079467772,0.1118959113955497,0.0174154320791717,-0.0342037818930936,0.0432445947588497,0.1276178061962127,0.1371511220932006,0.017626354470849,0.1430613311659545,0.0295003495691344,-9.870525698661805,14933.0
12.5,4.699999809265137,131.0,22.71220016479492,26.7418155670166,-79.78275185803659,40.459001554324615,268.0148210296631,0.0145724322646856,0.016440387815237,0.9936694502830504,0.1101746708154678,-0.0274861693168147,-0.074285461269956,0.1055231145169886,-0.072541631758213,0.0746561139822006,-0.1597307920455932,0.1663503982499242,0.1712258249334991,-10.080344846248629,14933.0
12.6,4.800000190734863,136.0,22.54317283630371,28.44349479675293,-79.78275180525003,40.45900162895854,268.0275926361084,0.0120622888207435,0.019714668393135,0.9934300184249878,0.1120831966400146,-0.0112508474451176,-0.0941540470677265,0.1667879576910726,0.1608967185020446,0.0893146693706512,-0.0031990641728043,0.1778818018734455,-0.0357649376476183,-10.48202400326729,14933.0
12.81,4.900000095367432,128.0,22.82363319396973,22.33653259277344,-79.78275192877356,40.45900172027629,268.05734059906007,0.0085642077028751,0.0152758713811635,0.9930012822151184,0.1167981922626495,-0.0246445985152076,-0.1258799790609485,0.3476112589639554,-0.0083724437281489,-0.1184203922748565,-0.0051834373734891,0.1099116749223321,0.1012959579750895,-10.791782591342926,14933.0
12.91,5.0,126.0,23.032724380493164,22.32858085632324,-79.78275182721579,40.459001927090014,268.0875620613098,0.0024308937136083,0.0064586959779262,0.9931048154830932,0.117026537656784,-0.0051906579080444,-0.1535324142733902,0.3572293846267711,0.0515720285475254,-0.0844714790582656,0.0583956018090248,-0.0156294269976206,-0.0939651027135551,-10.334662474393843,14933.0
13.1,4.800000190734863,133.0,22.908771514892567,23.250986099243164,-79.7827517711166,40.45900206488978,268.12254450416566,-0.0001036431494867,-0.0017990983324125,0.9932063221931458,0.1163535267114639,-0.0075375552654447,-0.1611296098122809,0.3472322105121932,-0.0128503059968352,-0.1742914319038391,0.0538020692765712,-0.1083461286127567,-0.2221999871917069,-9.891491475105289,14933.0
13.21,4.099999904632568,130.0,22.84867286682129,23.855321884155277,-79.78275179815216,40.459002541563365,268.1608159313202,0.0048719113692641,-0.0112679312005639,0.993453860282898,0.1135729402303695,0.0188704275240035,-0.1374328866140593,0.2131731084378263,0.0215683206915855,0.0786223411560058,-0.0131478486582636,-0.0513653090083971,0.0634141866490244,-9.527950782179833,14933.0
13.4,4.0,135.0,22.77605438232422,24.61869239807129,-79.78275183546297,40.45900285733092,268.22185418701173,0.0051591037772595,-0.0065835583955049,0.9937371611595154,0.1114300712943077,0.0300209244994672,-0.1499977217336437,0.1688772796483802,-0.0119128692895174,0.0141660589724779,-0.0244120024144649,-0.0384123924421146,0.2498149797320366,-9.711431731581689,14933.0
13.5,3.700000047683716,139.0,22.837404251098643,23.4179744720459,-79.7827518372117,40.45900298676301,268.2390258083344,0.0055602425709366,-0.0037165037356317,0.9938035011291504,0.1109502390027046,0.0397670289364251,-0.1403799207195123,0.1653000859678177,-0.0093829594552516,0.1461599767208099,0.0208557359874248,0.0241937181400135,0.2131865225359796,-9.74761664092541,14933.0
13.7,3.400000095367432,139.0,22.87997436523437,23.736045837402344,-79.78275195658846,40.459003137618055,268.28168151474,0.008201009593904,-0.0061677093617618,0.9937540888786316,0.111119382083416,0.0485853514028441,-0.1064907880480359,0.1291935831753841,-0.0229779724031686,-0.0516845732927322,0.0211035553365945,-0.1466403296403587,0.0508188090473413,-9.642272034287451,14933.0
13.81,3.5,138.0,22.63707733154297,25.453628540039062,-79.78275197623347,40.4590032362788,268.29275724983216,0.0096980622038245,-0.0078062787652015,0.993681252002716,0.1115466058254242,0.0494783829848998,-0.1009566623195722,0.0959467450274621,0.0423643104732036,0.070979319512844,0.0118534350767731,-0.1028641263954341,0.1009763162769377,-9.54077255666256,14933.0
14.0,3.400000095367432,137.0,22.73598861694336,25.127605438232425,-79.78275196376433,40.45900337883166,268.3472356567383,0.0094022145494818,-0.006625338923186,0.9935383200645448,0.1129129827022552,0.023724732760829,-0.0932682981929938,0.1414746882182559,0.0379667989909648,0.1136749759316444,0.088513858616352,-0.0665915819071233,0.2353366159647703,-9.725906513929369,14933.0
14.1,2.799999952316284,134.0,22.658361434936523,25.270736694335927,-79.78275196023876,40.45900345573235,268.3612203369141,0.0093451840803027,-0.0054053235799074,0.99344140291214,0.1138320863246917,0.0036595274208956,-0.0769136504090518,0.1378451594693598,-0.1241169422864914,-0.0668599978089332,-0.1067519187927246,-0.0081024935818277,0.3924680382013321,-9.774230827689172,14933.0
14.3,2.799999952316284,134.0,22.67338562011719,24.793630599975582,-79.78275207961585,40.4590035707436,268.4272007713318,0.0061029498465359,-0.0077565978281199,0.9932348728179932,0.1157031506299972,0.017951140993483,-0.0512741411760447,0.1914394580456677,-0.0610544048249721,-0.1618008613586425,0.0766995325684547,0.0116810672194696,0.2535142755322158,-9.862881048917776,14933.0
14.41,2.799999952316284,135.0,22.60076713562012,22.614845275878903,-79.78275210244493,40.459003678190186,268.4492589006424,0.0047843744978308,-0.0110720992088317,0.9930852651596068,0.1167745888233184,0.0255156305705426,-0.0648372278861771,0.2062852648142986,0.0511486232280731,-0.0781304910778999,0.1341738253831863,-0.1286197317671031,-0.0439751547574997,-9.82197392821312,14933.0
14.6,2.799999952316284,136.0,22.46805000305176,27.560848236083984,-79.78275212985784,40.45900378829216,268.4798140296936,0.0013432804262265,-0.0126975197345018,0.9929571747779846,0.1177841424942016,0.0316457844395659,-0.055219928203803,0.0642388070836258,0.0212599691003561,0.1204416006803512,0.0640244185924529,-0.0292158596869558,0.1638912055268883,-9.308964369893074,14933.0
14.71,2.799999952316284,136.0,22.345348358154297,29.00012016296387,-79.78275243074835,40.45900381955249,268.51918194389344,-2.447109000058845e-05,-0.0076902122236788,0.992950439453125,0.1182806268334388,0.0554696626245554,-0.0379374430268026,0.0895079607040258,-0.1046311929821968,0.0655962005257606,-0.0726484879851341,-0.0741362031502649,0.4308168924227357,-9.610884180665016,14933.0
14.9,2.799999952316284,137.0,21.90462684631348,33.37359619140625,-79.78275248845118,40.45900390071888,268.5715929040909,0.0022093569859862,-0.0034555301535874,0.993035078048706,0.1177477613091468,0.0717151063666861,-0.0213595154535782,0.2625371478108569,-0.1180859059095382,-0.0731988400220871,-0.0047939680516719,0.0904055645037442,0.2703132712841034,-10.739072281122208,14933.0
15.0,2.799999952316284,136.0,21.89210700988769,34.02564239501953,-79.78275257860511,40.45900393369311,268.6051974067688,0.0051003117114305,-0.0053458954207599,0.9931429624557496,0.1166727170348167,0.0862694898321072,-0.0208620651808049,0.4117988582264261,-0.057375319302082,-0.0604151226580143,0.1003464013338089,-0.0721403063368052,0.0585630898643285,-11.166142387390137,14933.0
15.2,2.799999952316284,134.0,21.636688232421875,36.14876556396485,-79.7827527696689,40.459004015266366,268.7142281303406,0.0119756795465946,-0.0087025016546249,0.993318736553192,0.1144499406218528,0.0941646463682238,-0.0112540973090697,0.7383543414226241,0.0271171014755964,-0.0877202227711677,0.0552711859345436,-0.132038023173809,0.0673621718399226,-11.431726430654528,14933.0
15.31,2.799999952316284,134.0,21.5452880859375,37.27791595458984,-79.7827528613597,40.45900402670974,268.79904816246034,0.0087791085243225,-0.0135885793715715,0.9933695197105408,0.1138215512037277,0.1024376625086573,0.0028544659472499,0.958827883051868,0.021175080910325,-0.0554295517504215,-0.0045105926692485,-0.0694510804954916,0.2637377849221229,-11.941686666011815,14933.0
15.5,2.799999952316284,133.0,21.188453674316406,41.46850204467773,-79.78275299888679,40.45900400638232,269.0452725658417,0.0079286750406026,-0.0156690068542957,0.9933162331581116,0.1140815690159797,0.0969943698439236,-0.0008138781723007,1.4561836409958515,-0.0217325575649738,0.0642004758119583,0.0226184874773025,-0.0631291714310646,0.4192703956738114,-12.179136246442797,14934.0
15.61,2.900000095367432,133.0,21.294878005981445,38.92393493652344,-79.78275308440129,40.45900397726423,269.2044133911133,0.0085431924089789,-0.0100889652967453,0.9932703971862792,0.115061767399311,0.0934708831312846,0.0098618773099741,1.7170811237887584,0.0061829215846955,0.0310257542878389,0.0846734568476677,-0.1474715661630034,0.1165193301066756,-12.350216420888904,14934.0
15.81,2.799999952316284,136.0,21.093297958374023,41.27765655517578,-79.78275325187008,40.459003896944864,269.59435597753526,0.0079332794994115,-0.0039371405728161,0.9930709600448608,0.1171827241778373,0.100057945698072,0.0403392270724481,2.189871282027565,0.0601983033120632,0.0606746524572372,0.1233226507902145,-0.0150906837335787,0.2043185073696077,-12.245223816633224,14934.0
15.9,2.900000095367432,135.0,21.07201385498047,42.96343612670898,-79.78275330434059,40.459003857666815,269.81117374396325,0.0062590609304606,0.0003124435606878,0.9930819272994996,0.1172560602426529,0.1038728113082863,0.0421489698831671,2.414542989616796,0.0797171145677566,0.106508620083332,0.0024021638091653,-0.0798740530293434,0.1200476496666669,-12.309268369674683,14934.0
16.1,3.0,137.0,21.19847106933593,39.52826690673828,-79.7827534651145,40.45900378798835,270.339722603023,0.0085190590471029,-0.0007203849381767,0.9932071566581726,0.116045281291008,0.0762946747442851,0.067284654217884,2.851798247535076,-0.158158853650093,-0.044378075748682,-0.0352479219436645,-0.0146107027027755,0.0821013396978378,-12.196284960508349,14935.0
16.2,3.0999999046325684,138.0,21.258569717407227,36.76105117797852,-79.78275356721072,40.45900367450151,270.6338382432461,0.0138205522671341,-0.006716857664287,0.993167757987976,0.1156796440482139,0.092335509175602,0.0544177255337619,3.030964132664242,-0.1119976714253425,-0.1370428651571273,-0.0372958593070507,-0.1860686346888542,0.1057912973687052,-11.751145788431169,14935.0
16.4,3.2000000476837163,140.0,21.801958084106445,32.920345306396484,-79.7827536863313,40.45900349570497,271.275579012394,0.0150159336626529,-0.0083940960466861,0.9932793974876404,0.1144557669758796,0.1118928272551898,-8.026173413195821e-05,3.2777745017496684,0.0115492232143878,0.0760616362094879,-0.0665785819292068,-0.1570439332723617,0.1767639056034386,-11.415646587610246,14936.0
16.51,3.2000000476837163,141.0,21.74686813354492,33.763233184814446,-79.7827536919394,40.45900344762661,271.607022977829,0.0128791257739067,-0.0029220522847026,0.9933821558952332,0.114094041287899,0.0877956213937255,0.0049100994748628,3.3416718190535546,0.0833777487277984,0.1470257639884948,0.0115077588707208,-0.1211169683653861,0.2029315478168428,-10.575542031526568,14936.0
16.7,3.299999952316284,139.0,21.952205657958984,29.31818962097168,-79.78275376711758,40.45900324661858,272.3278524646759,0.0055665732361376,0.0073548736982047,0.9933518171310424,0.1147484183311462,0.0288064610863429,0.0704061287253579,3.4477031380191567,0.0876467898488044,0.0340424813330173,0.0765522345900535,-0.0370647417102009,0.1613625405728817,-10.40590845823288,14937.0
16.81,3.299999952316284,142.0,22.17256546020508,27.24277687072754,-79.78275373591326,40.45900321208181,272.67220018005366,0.0035720039159059,0.0069578764960169,0.9933423399925232,0.1149341985583305,-0.003917647734148,0.0812994949661823,3.427650627150061,0.0448805317282676,0.0065975449979305,0.0850566774606704,0.0133603875548578,0.0167355534620583,-9.739055732488634,14937.0
17.0,3.400000095367432,142.0,22.103702545166016,28.17313575744629,-79.78275368508748,40.45900307761162,273.38193366622926,0.0051424363628029,0.0089033897966146,0.9931656718254088,0.1162598878145218,-0.0101445624994608,0.0267543595933901,3.332422708003372,0.0266654379665851,0.0497385784983634,0.0514731928706169,-0.0614129862282425,-0.040523762628436,-9.341294209957123,14938.0
17.1,3.400000095367432,142.0,22.137508392333984,28.7218074798584,-79.78275363489345,40.45900309464167,273.71279094314576,0.0066861752420663,0.0096004968509078,0.9930500388145448,0.1171101927757263,-0.0103604281458884,0.0319735509726554,3.278267575304424,0.0143741453066468,-0.029343020170927,0.0281445812433958,0.1151819805242121,0.1790309624746442,-9.271368527412417,14938.0
17.3,3.5,143.0,21.723079681396484,33.95407485961914,-79.78275371416079,40.45900295442967,274.3795251617432,0.0049725002609193,0.0033916789107024,0.9930503964424132,0.117536261677742,0.0080268247587943,-0.0122917046934598,3.1710072066795045,0.001512914081104,-0.0275615155696868,-0.0455724149942398,0.0158449996775016,-0.043904266403988,-9.21428976237774,14939.0
17.4,3.5999999046325684,141.0,21.70179557800293,32.363719940185554,-79.78275378323545,40.45900284786393,274.6617712745666,0.0035583968274295,0.0046366890892386,0.9930830001831056,0.1172691881656646,0.0035547369423818,-0.0254231444341431,3.128085244651879,-0.025754066184163,-0.0051248958334326,-0.0816927850246429,-0.0158682400756515,0.1276519262138754,-9.684224637150765,14939.0
17.6,3.5999999046325684,142.0,22.16254997253418,26.93265914916992,-79.78275369540245,40.45900290560037,275.2868690261841,0.0038983155973255,0.0075429752469062,0.993200182914734,0.1161093711853027,-0.0041998687479748,-0.0154830126910559,3.1193166989951653,0.0681286454200744,-0.0036735453177243,-0.0503756739199161,0.0666559378243982,0.0852089795004576,-9.786974834203722,14940.0
17.7,3.5,143.0,21.87457847595215,30.192886352539062,-79.78275375907454,40.459002755105466,275.5550174484253,0.0042914850637316,0.0066658230498433,0.993173122406006,0.1163799166679382,0.000325763610655,-0.006784542055026,3.030362999152308,0.0103662023320794,0.0220991559326648,0.0632496029138565,0.0318813540553674,0.0275021915277466,-9.433794822692873,14940.0
17.9,3.5,146.0,21.763145446777344,31.592397689819336,-79.7827534056552,40.45900230064338,276.12066695785524,0.0050337887369096,0.0053990022279322,0.993119180202484,0.1168753281235694,-0.0347440431032143,0.0001868617834422,2.898207836183704,0.0666276589035987,-0.0152153326198458,0.0833622887730598,0.0442987524624914,0.0730068728327751,-9.407636134028436,14941.0
18.0,3.5,146.0,21.65797233581543,33.103233337402344,-79.78275331953508,40.45900232159399,276.4095110664368,0.0060707349330186,0.0038401582278311,0.9930574893951416,0.1174112036824226,-0.0352573493585957,-0.0073723079996802,2.884674757380122,0.0607254728674888,-0.0346336103975772,0.0446131005883216,0.0042015145230107,-0.1462466841191053,-9.603041895031929,14941.0
18.2,3.299999952316284,150.0,21.75062561035156,31.830951690673828,-79.78275272382069,40.4590019756885,277.0332693824768,0.005134433042258,0.0001151631950051,0.9928314089775084,0.1194132044911384,-0.0899916677258523,-0.0044355799907714,2.8801712086970963,0.0333104580640792,0.0264612678438425,0.0036730030551552,-0.002465585831087,-0.0195054982881993,-9.813565632104872,14942.0
18.3,3.299999952316284,153.0,21.78818702697754,31.46516990661621,-79.78275257805137,40.45900196679747,277.321325756073,0.0009442762820981,0.0007699616253376,0.9928126931190492,0.1196726113557815,-0.0970820794531612,-0.0169933338407526,2.883136746433087,0.0681894794106483,0.0406798273324966,0.0051126009784638,-0.0501001999480649,0.0564585444750264,-9.83181479215622,14942.0
18.5,3.2000000476837163,157.0,21.723079681396484,32.72154998779297,-79.7827524347061,40.4590019723278,277.97748181915284,-0.0022248304449021,0.002834566636011,0.9930048584938048,0.1180190965533256,-0.1358694562988224,-0.0002321998402749,2.8991330845028846,-0.0323850363492965,0.0084206080064177,-0.0147337522357702,0.045630807573907,0.0315196580858901,-9.884592930078504,14942.0
18.6,3.2000000476837163,161.0,21.84077262878418,30.542762756347656,-79.78275229461094,40.45900195514636,278.2680473098755,0.0002117498370353,0.0012224179226905,0.9930979013442992,0.1172823160886764,-0.1302483042000107,0.0055536939650332,2.913436603637493,-0.0023694487754255,0.0388450399041175,-0.0016080518253147,0.0760927683021873,0.0645408948557451,-9.895738892555237,14943.0
18.8,3.0,163.0,21.803211212158203,31.93432426452637,-79.7827524322413,40.45900212696546,278.92247006988526,0.0037685527931898,-0.001688327640295,0.9932785630226136,0.115674965083599,-0.0691246173400926,-0.0173760022971895,2.94015657535934,0.1283434480428695,0.042197361588478,0.0981173440814018,0.1217340232059359,0.0659401838108897,-9.953521077632905,14943.0
18.9,2.900000095367432,166.0,21.90337562561035,28.538917541503903,-79.7827523143782,40.45900211772767,279.2171602020264,0.0059269377961754,-0.001449582632631,0.9934244751930236,0.1143271774053573,-0.0695252846330065,-0.0157501525311451,2.9559465785022168,0.1047020852565765,0.0705783814191818,0.0376563034951686,0.0252334855590015,-0.1611978318169713,-9.953117619752884,14944.0
19.1,2.700000047683716,170.0,21.85204124450684,30.16903114318848,-79.78275229044941,40.45900225002932,279.87688539123536,0.0011051745386794,0.002363370032981,0.993815541267395,0.111013151705265,-0.06979333013156,-0.008328623188655,2.929129591829512,0.0315659716725349,0.0751865431666374,-0.0106211984530091,0.1031000341381877,0.0311242446955293,-9.798265807628631,14944.0
19.21,2.700000047683716,173.0,22.031084060668945,28.13337707519531,-79.78275191070581,40.45900204047271,280.2225627670288,-0.0014692666009068,0.0040819053538143,0.9939732551574708,0.1095371320843696,-0.1059268325506009,0.0171752073190121,2.917080644598286,0.2021499425172805,0.0580268427729606,0.0537225343286991,0.1665140837430954,-0.1472882650885731,-9.68892053604126,14945.0
19.4,2.700000047683716,179.0,21.977245330810547,30.08156013488769,-79.7827516179957,40.45900197892254,280.8032026062012,-0.0035616478417068,0.0038615225348621,0.9940589070320128,0.1087168380618095,-0.1422960010999583,0.0334700769712876,2.8809237679286355,0.0153913488611578,-0.0530646666884422,-0.0185525119304656,0.0482125816913321,-0.1277342805918306,-9.565868221521376,14945.0
19.5,2.700000047683716,181.0,21.885847091674805,28.22084617614746,-79.78275081751195,40.45900138488449,281.1483821640015,-0.0052595753222703,0.0027170164976269,0.99383145570755,0.1107435673475265,-0.2090791788984881,0.0677241338742366,2.8841056115941965,0.1194335967302322,0.027103966102004,0.0722993835806846,0.1143994951620698,0.0376227488089352,-9.666511666774747,14946.0
19.7,2.700000047683716,186.0,21.77316093444824,30.69384765625,-79.78275045969724,40.45900124426132,281.7911052474976,-0.0082495557144284,0.002568558556959,0.9931573867797852,0.1164642423391342,-0.2140006284946265,0.0513952107319195,2.895754383191888,0.0540773943066597,0.0194684583693742,0.0422527566552162,0.0515313927736133,-0.1628688381426036,-9.711570310592652,14946.0
19.8,2.700000047683716,191.0,21.597875595092773,32.777210235595696,-79.78275027268396,40.45900117165961,282.0813102493286,-0.0066340896300971,0.0022830457892268,0.9929034113883972,0.1187165230512619,-0.223404624330508,0.0577143731096657,2.9022998165277096,-0.1192093640565872,-0.090218111872673,0.0484557673335075,0.0049903747206553,-0.1947894827462732,-9.80350140452385,14947.0
20.0,2.5999999046325684,191.0,21.6279239654541,31.4890251159668,-79.78274989127458,40.4590009396124,282.72616765594483,-0.0048114703968167,-0.0020917230285704,0.9926287531852722,0.1210815981030464,-0.1701824710498347,0.0546912457805859,2.9893581318897766,0.036640278995037,0.0170281268656253,0.0614444240927696,0.101788969617337,-0.0751391787920147,-9.999745656251909,14947.0
20.1,2.5,189.0,21.610395431518555,32.363719940185554,-79.78274974967346,40.45900085571493,283.02720449066163,-0.0047652437351644,-0.002490194980055,0.9926579594612122,0.1208362504839897,-0.1576748488024474,0.0478016235986945,3.0254166580157538,0.0488149970769882,0.0687457770109176,0.079749122262001,0.0824964287504553,-0.113200669772923,-10.20750190615654,14948.0
20.3,2.700000047683716,188.0,21.644201278686523,30.08156013488769,-79.78274913628906,40.45900045664251,283.677086807251,0.0031957414466887,0.0003114129358436,0.9929794669151306,0.1182431727647781,-0.1756253419249169,0.0810119553524876,3.112407692432224,0.0201588328927755,0.0328452512621879,-0.0107529778033494,-0.0214351045782677,-0.1591226367093622,-10.235803599357604,14948.0
20.41,2.700000047683716,186.0,22.057376861572266,26.034107208251957,-79.78274900676848,40.45900011445522,284.02053258514405,0.0050102113746106,0.0013864820357412,0.9932590126991272,0.1157995164394378,-0.1368448228748229,0.1308804429326951,3.128423787187497,0.0951498597860336,-0.0019860395696014,-0.0846188589930534,0.0968547601439058,0.0782859127130359,-10.057060064077378,14949.0
20.51,2.799999952316284,185.0,22.058629989624023,25.86712074279785,-79.78274885382962,40.45899996919195,284.33249185180665,0.0042033442296087,0.0004480876668822,0.9935171008110046,0.1136044040322303,-0.1423582651796558,0.1464814865046529,3.109249609551563,-0.0235461071133613,-0.0118266437202692,-0.0157213807106018,0.0180311411339789,0.0650080280005931,-9.648403424620628,14949.0
20.7,2.700000047683716,185.0,21.71431541442871,31.17095375061035,-79.78274893112442,40.45899960202935,284.98233125305177,0.0044426475651562,-0.0019241591216996,0.9937772750854492,0.1112809032201767,-0.1235600536535749,0.1205450626267592,3.047343549602136,-0.035422034561634,-0.0133856358006596,-0.0096900127828121,-0.0467088103014975,-0.1271164217591285,-9.574098177552225,14949.0
20.9,2.700000047683716,184.0,21.696786880493164,31.011919021606445,-79.78274878821409,40.458999459805,285.28718659973146,0.0034439347218722,-0.0013438811292871,0.9937952160835266,0.1111644878983497,-0.1298748601550713,0.1196684648168051,3.0596950308382542,-0.0253001432865858,0.0109232133254408,-0.0507143139839172,-0.0363817298202775,0.0440686051407828,-9.806636096835136,14950.0
21.01,2.700000047683716,185.0,21.968481063842773,27.48928260803223,-79.78274898623839,40.45899936563728,285.9539069900513,-0.0016067456454038,-0.0028931675478816,0.9934890866279602,0.1138796880841255,-0.111076773226576,0.0888560271408066,3.1250376542416314,0.0664271041750907,-0.0419118776917457,0.0100194886326789,-0.015693022320047,-0.1321773696318268,-10.033050227165225,14950.0
21.2,2.700000047683716,184.0,21.93968391418457,27.886871337890625,-79.78274907237486,40.45899943502401,286.6218423614502,-0.0057242936454713,-0.0046604652889072,0.9929478764533995,0.1183217912912368,-0.1012332012736966,0.0407074486655202,3.1039184648337605,0.0905932411551475,0.000439066265244,-0.0036362367682158,-0.0042396424803882,0.0432338191755116,-9.83855312347412,14951.0
21.3,2.700000047683716,184.0,22.018564224243164,27.29048728942871,-79.78274899433094,40.45899935227576,286.9310521850586,-0.0060769161209464,-0.004438869189471,0.9927491545677184,0.1199690103530883,-0.1260355046275437,0.0448025932584857,3.081431877881505,-0.0762899219989776,-0.0113920718431472,0.0170307587832212,-0.0463415183639153,0.0175177738722413,-9.599310786724091,14951.0
21.4,2.700000047683716,188.0,21.8670654296875,28.817228317260746,-79.78274891418522,40.45899926613245,287.2375592956543,-0.006123861297965,-0.0037582844961434,0.9926973581314088,0.1204176321625709,-0.1253737910853344,0.0499683775913619,3.0472320607431334,-0.0393164493143558,-0.0300002638250589,-0.0337697267532348,-0.0311257932940498,-0.0013251161109656,-9.525004954934117,14952.0
21.6,2.799999952316284,188.0,21.78693389892578,29.12734794616699,-79.7827489043485,40.45899930512172,287.89063928222663,-0.0054215989075601,-0.0018136533908545,0.9929867386817932,0.118088275194168,-0.1047907283541851,0.0446567139620035,3.0024734615487136,-0.0347383990883827,0.0231692399829626,-0.0666813105344772,0.0873032511491328,-0.059430748145096,-9.55603320479393,14952.0
21.71,2.900000095367432,192.0,21.870820999145508,28.713855743408203,-79.78274892822073,40.45899939639492,288.2464055786133,-0.0042130956426262,-0.0012672074371948,0.9931442141532898,0.1168132573366165,-0.097730059905891,0.0421260095345642,3.016752751772992,-0.0821667462587356,-0.0399731770157814,-0.07329823076725,-0.0401763649284839,-0.1108198845572769,-9.607029696106911,14953.0
21.92,2.900000095367432,194.0,21.6917781829834,30.892641067504893,-79.7827489200333,40.45899931855677,288.8907384643555,-0.0030068308115005,-0.0008852932369336,0.9932743906974792,0.1157425567507743,-0.0821904592901794,0.0324041105263365,3.017193596937932,-0.0613449811935424,-0.0871394574642181,-0.0076909083873033,-0.0254533979692496,-0.1303011899907142,-9.699323902130129,14953.0
22.1,2.900000095367432,197.0,21.70179557800293,29.59650230407715,-79.78274880314842,40.45899922856589,289.4951333770752,-0.0027897667605429,-0.0014448165893554,0.9934315085411072,0.1143853738903999,-0.0822431767724107,0.0324816759334888,3.0292645360200408,0.0038087619468569,-0.0783496871590614,-0.0790304243564605,-0.0412084441725164,0.0181340612657368,-9.79052877187729,14954.0
22.21,2.900000095367432,197.0,21.7456169128418,29.66011619567871,-79.78274884108289,40.45899926078892,289.8399801025392,-0.0034172220621258,-0.002222440438345,0.9934712648391724,0.1140100583434104,-0.0798332980781458,0.0221752172589456,3.0602993983725506,-0.0909843519330024,-0.0588885806500911,-0.0409895107150077,-0.1022667602263391,0.0127199826808646,-9.785032973885537,14954.0
22.3,2.900000095367432,199.0,21.76690101623535,29.93842887878418,-79.782748781605,40.4589992200498,290.14565560913087,-0.0040949801914393,-0.002863748697564,0.993515968322754,0.1135831698775291,-0.0776306295941463,0.0141256590913233,3.0513766148295685,0.0673095062375068,0.0116414912045001,0.0585678480565548,-0.0757633188134059,-0.200051647927612,-9.779733642339709,14955.0
22.5,2.900000095367432,199.0,21.823244094848643,29.898670196533203,-79.78274883127007,40.45899918252833,290.7919320831299,-0.007719874382019,-0.0042852698825299,0.9933748841285706,0.1145798787474632,-0.0705505500955919,0.0070564933201981,3.0406916142010623,0.0766022279858589,0.0551399178802967,0.1018019691109657,-0.0816323564574122,0.0299308371171355,-9.647311164736749,14955.0
22.61,2.900000095367432,197.0,21.660476684570312,30.55866622924805,-79.78274879918926,40.45899914181658,291.09514710998536,-0.0098913060501217,-0.0023642191663384,0.9931997656822203,0.1159776449203491,-0.0778021692917875,0.0035320972521138,3.028328271774828,0.0497027784585952,0.0795465931296348,-0.0484604872763156,-0.0893637003097683,-0.0555291249789297,-9.730798879265787,14956.0
22.8,2.900000095367432,198.0,21.80696678161621,28.348073959350582,-79.78274879085144,40.45899912041804,291.7327337036133,-0.0044004982337355,0.0048851836472749,0.9929977655410768,0.1179501935839653,-0.0695749673201176,0.0316588610787831,3.0335919816166026,0.0554856546223163,0.1967377662658691,0.0177560206502676,0.0204906627628952,-0.2044158086925745,-9.732650107741357,14956.0
23.0,2.799999952316284,201.0,21.594118118286133,29.97818756103516,-79.78274869741648,40.458999153976,292.36882684326173,-0.003692545229569,0.0058492152020335,0.9931106567382812,0.1169766634702682,-0.0552680878640761,0.0391321575286247,3.0420255422771465,0.0366611555218696,0.0099622569978237,0.0031831481028348,0.0916802118346095,-0.0890486632939428,-9.710169317722322,14957.0
23.1,2.799999952316284,202.0,21.711811065673828,29.874814987182607,-79.78274865524386,40.45899914422184,292.6743898162842,-0.0042451829649508,0.004149598069489,0.9932814836502076,0.1155717447400093,-0.0653148741825803,0.0309579373427206,3.068988677086668,0.0543850846588611,0.0061800731346011,0.0393288061022758,-0.0399338882043957,-0.1660789047181606,-10.01122607946396,14957.0
23.3,2.799999952316284,203.0,21.815731048583984,27.07579040527344,-79.78274873756875,40.45899914919608,293.0012311706543,-0.0037049076054245,0.0012290551094338,0.9934114813804626,0.1145356297492981,-0.0584888836347137,0.0223045637809303,3.088565290134784,0.0281877294182777,0.0334235355257988,-0.0597846172749996,0.0353427595412358,-0.1759632938727736,-10.052067711353304,14958.0
23.41,2.700000047683716,204.0,21.885847091674805,26.38398551940918,-79.78274874363608,40.45899909885201,293.6353635559082,-0.0063161174766719,-0.0036458566319197,0.993395745754242,0.1145067512989044,-0.0554615232045734,0.0037769203995905,3.0711756362015703,0.0242896638810634,0.027059057727456,0.0718334764242172,-0.023080088510178,-0.1793543500453233,-9.757587313055993,14958.0
23.6,2.700000047683716,204.0,21.85329246520996,27.46542739868164,-79.7827486871335,40.45899906041159,294.246329284668,-0.009413837455213,0.0003397304390091,0.9935222864151,0.1132464632391929,-0.0846728650068374,-0.0017548852287221,3.0401301542285024,-0.1572262197732925,0.0103139718994498,-0.0951229557394981,0.0372152892407029,-0.2167341561801732,-9.668382191061974,14959.0
23.71,2.5999999046325684,204.0,21.793193817138672,28.26060485839844,-79.78274870912388,40.45899902025728,294.568667388916,-0.0080756060779094,0.0046484558843076,0.9936790466308594,0.1118717715144157,-0.08149070996956,0.0141085229897487,3.030938601755236,-0.0583867281675338,0.0263354834169149,-0.0780752822756767,0.0235095802042633,-0.1900051812641322,-9.744867864847183,14959.0
23.8,2.5999999046325684,205.0,21.616655349731445,30.701799392700195,-79.7827486874673,40.458999006086046,294.8721036682129,-0.0059761903248727,0.0070546907372772,0.9937949776649476,0.110843263566494,-0.0735050409859318,0.0309397157049635,3.0367703115527247,-0.0398123785853385,-0.0153774283826351,0.0364674031734466,0.0400850889785215,0.0285863429680466,-9.831240595579148,14959.0
24.0,2.700000047683716,207.0,21.751876831054688,28.57072448730469,-79.78274873602345,40.458999006919925,295.50087258911134,-0.0070251119323074,6.777579255867751e-05,0.9937185645103456,0.1116880103945732,-0.0520264812603617,0.0208281015035201,3.0598684682825747,-0.1367344707250595,-0.0279961042106151,-0.0068859248422086,0.0403599263867363,0.1008059338945895,-9.912383576631548,14960.0
24.1,2.799999952316284,211.0,21.617908477783203,30.002042770385746,-79.78274873279655,40.45899901107372,295.8071393737793,-0.0035682695452123,-0.0017516792286187,0.9935529828071594,0.1132997721433639,-0.0402359480624534,-0.0113528859638794,3.0672509236080567,-0.0303765349090099,0.0262736566364765,-0.0504435487091541,0.0281573857460171,-0.0763659200677648,-9.924448721408844,14960.0
24.3,2.799999952316284,212.0,21.64545249938965,30.009994506835927,-79.78274891879721,40.45899901684477,296.4300813446045,-0.0012867476325482,-0.0018458607373759,0.9933400154113772,0.1151982322335243,-0.0151901909764721,-0.0024612999584176,3.0758581568036347,-0.0047479881905019,0.0896929949522018,-0.0168369840830564,-0.0321000033756718,-0.2098579584807157,-9.958854907751084,14961.0
24.5,2.799999952316284,208.0,21.76439666748047,28.22084617614746,-79.78274908127275,40.45899905814454,296.7476396331786,-0.0012708571739494,0.0010699351551011,0.9933273196220398,0.1153179630637168,-0.0205059511186035,-0.0096737141303025,3.0823378221492788,-0.0383252501487731,0.0184593982994556,-0.0645130276679992,-0.0071788208023644,0.097272013798356,-9.983235458135605,14961.0
24.6,2.799999952316284,208.0,21.652965545654297,29.739633560180664,-79.78274906909735,40.45899903593468,297.3656701812744,-0.0087176514789462,0.002827254589647,0.9933732748031616,0.1145672500133514,-0.0410660352589698,0.0223002339672536,3.0947177150452454,0.096025139093399,-0.0239406153559684,-0.076751098036766,0.0919583017565309,0.0638191428780555,-9.904248930215836,14962.0
24.7,2.799999952316284,206.0,21.65797233581543,28.284460067749023,-79.78274917201698,40.45899898957075,297.68583963012696,-0.0109094642102718,0.0018978421576321,0.9934497475624084,0.1137325093150138,-0.057910596323286,0.0302393852632587,3.090269184585761,0.0103829158470034,0.0494959838688373,-0.0900282263755798,-0.0092361156642436,-0.1302151719667017,-9.922788112163545,14962.0
24.91,2.799999952316284,206.0,21.70179557800293,28.363977432250977,-79.78274923061578,40.45899900918669,298.3145398864746,-0.0087843760848045,0.0022327105980366,0.9935938119888306,0.1126466691493988,-0.0618621756489053,0.012484738717796,3.073642485424392,-0.0153847252950072,0.0453222207725048,-0.0157433319836854,-0.0490888417745009,-0.1729991027154028,-9.781463248729708,14963.0
25.0,2.799999952316284,210.0,21.751876831054688,27.886871337890625,-79.78274924124659,40.45899900401734,298.6213311920166,-0.0084995459765195,0.0020228561479598,0.99362713098526,0.1123783811926841,-0.035679152976075,0.0114710126111017,3.0601189313254915,0.1591748595237732,0.00210244464688,0.0955081954598426,0.0788410327490419,-0.2399522435478866,-9.76935249567032,14963.0
25.21,2.799999952316284,211.0,21.594118118286133,30.01794624328613,-79.7827497029254,40.45899892032465,299.257502532959,-0.0074920458719134,-0.0011627650819718,0.9937220811843872,0.1116196662187576,-0.0022017695222032,0.0432851977811411,3.061858782058174,0.040749192237854,-0.0640542283654213,0.08008873462677,-0.0248702729679644,-0.324846670255065,-9.895448870658877,14964.0
25.4,2.700000047683716,213.0,21.88334274291992,27.15530776977539,-79.78275003554394,40.458998808462894,299.89261911010743,-0.0105205914005637,-0.0024328690487891,0.993678867816925,0.1117397621273994,0.0195139337345043,0.0518300636807257,3.0818049464507613,0.0469922497868537,-0.0664278417825698,0.0151532022282481,-0.0578653936972841,-0.1166100350394845,-9.83143121480942,14964.0
25.5,2.700000047683716,212.0,21.759389877319336,28.284460067749023,-79.78275013405188,40.45899875695189,300.19969651794435,-0.0122967585921287,-0.0004562028916552,0.9936643838882446,0.11171256005764,0.0046184301886364,0.0495916792628933,3.061305149557459,-0.0401738993823528,0.1136178597807884,-0.0191881321370601,-0.0230560281313955,-0.0698201951198279,-9.68893398463726,14965.0
25.6,2.5999999046325684,210.0,21.832008361816406,27.163259506225582,-79.7827502393987,40.45899870639553,300.5045385131836,-0.0100261699408292,0.0021654698066413,0.9936987161636353,0.1116142943501472,0.006573353159097,0.0596745980172122,3.0380873114704148,-0.0011137353722006,0.1124477386474609,0.0678933933377265,-0.0321156469616107,-0.1915314507298172,-9.625236171483994,14965.0
25.8,2.5999999046325684,212.0,21.662981033325195,28.880842208862305,-79.78275046509839,40.45899867465265,301.1364907989502,-0.0017280197935178,0.0057595940306782,0.9938035011291504,0.1109887138009071,0.0388198778172852,0.0804225674911378,3.0110759278094865,-0.0677863806486129,0.0250533930957317,0.0245144218206405,-0.08642243206501,-0.0794297285936772,-9.67614203095436,14966.0
26.0,2.5999999046325684,212.0,21.686769485473643,30.407583236694336,-79.78275063720163,40.45899860562689,301.471426940918,-0.001370960380882,0.0043850177899003,0.9937974214553832,0.1111107841134071,0.050232152309912,0.0986092563247025,3.0256279179631744,-0.1242455020546913,-0.1377715170383453,0.0077526778914034,-0.0439667676575481,-0.076100360546261,-9.70373971939087,14966.0
26.1,2.5999999046325684,212.0,21.48268699645996,30.582523345947266,-79.78275081766479,40.45899852994521,302.0734758148193,-0.002797078108415,0.0014597487170249,0.9937005043029784,0.112024500966072,0.0402653508703969,0.0602395538478331,3.001391087181697,-0.0109085571020841,-0.0522853024303913,-0.0089893145486712,-0.1208256673905998,-0.1296110632270574,-9.725811204314232,14967.0
26.2,2.5999999046325684,204.0,21.685518264770508,28.228797912597656,-79.78275105510525,40.4589985073969,302.4053563842773,-0.0034542065113782,0.0018583200871944,0.9935437440872192,0.1133818179368972,0.0415552588499364,0.0457918264975666,3.0205621740420816,0.0490021929144859,0.130389392375946,0.0521967224776744,-0.0859318689443171,0.0764425140246748,-9.80155662059784,14967.0
26.41,2.700000047683716,203.0,21.592866897583008,29.23072052001953,-79.78275125989677,40.4589985477729,303.03403375244136,-0.002997803967446,0.0056954412721097,0.9929935336112976,0.1179935038089752,0.0194350794292634,0.0363985894615402,3.003512505442268,-0.0628323629498481,-0.0166669804602861,0.067041739821434,-0.0272870185598731,-0.1186017976887524,-9.61383351624012,14968.0
26.5,2.799999952316284,199.0,21.664234161376957,28.690000534057607,-79.7827513123808,40.45899855421735,303.3335523376465,-0.0001953403261722,0.0043457383289933,0.9928645491600036,0.1191686987876892,0.0125547396571532,0.0285744031229722,2.988566298552401,-0.197697713971138,-0.079745277762413,-0.0320487543940544,-0.0817147656530141,0.0639220036240294,-9.605506496429443,14968.0
26.7,2.799999952316284,196.0,21.53902816772461,30.39963150024414,-79.78275137795693,40.458998579280674,303.9592847595215,0.0045960349962115,-0.0020496894139796,0.9931820034980774,0.1164659485220909,0.0287833478850242,-0.0253883003517476,3.010173773046541,0.0271988827735185,-0.1038336157798767,-0.0148131856694817,-0.1754587887972593,0.016984498668462,-9.898809850215912,14968.0
26.9,2.900000095367432,193.0,21.56782531738281,29.10349273681641,-79.78275152187777,40.45899873667357,304.57816217041017,-0.0022155430633574,-0.0051336926408112,0.9938254356384276,0.110813945531845,0.0285714939360606,-0.0773243703553903,3.0569270329687965,0.12611123919487,-0.1221201568841934,-0.0115685444325208,-0.1667917899414897,-0.0129245712747797,-9.974814298152925,14969.0
27.01,3.0999999046325684,194.0,21.67675399780273,28.149280548095703,-79.78275151531044,40.45899878615747,304.8846311340332,-0.0072910948656499,-0.0069637158885598,0.9940017461776732,0.1088985949754715,-0.0078235942210037,-0.0839711063720542,3.0646015717928696,0.0011635551927611,-0.1307548433542251,-0.0484961420297622,-0.2138495054282248,-0.2679616673290729,-9.868547000885007,14969.0
27.11,3.2000000476837163,193.0,21.589111328125,29.397708892822266,-79.78275150218285,40.458998832570245,305.19021508789064,-0.0090655693784356,-0.0098363421857357,0.9941022992134094,0.1076187491416931,-0.0455325748645035,-0.0970416628534415,3.0432176074433754,-0.0282628256827592,-0.0494239069521427,0.0147333526983857,-0.146890426017344,-0.2055909711308777,-9.674587841033937,14970.0
27.31,3.2000000476837163,194.0,21.421335220336918,30.701799392700195,-79.78275168593338,40.458998921259166,305.8061856994629,-0.0056029073894023,-0.0142563115805387,0.994174599647522,0.1066879406571388,-0.0326238274858791,-0.1108043415292104,3.009945079237993,-0.0682127252221107,0.0622644498944282,0.0233337115496397,-0.2086187873035668,-0.1003681967128068,-9.736941379308703,14970.0
27.5,3.5,189.0,21.61164665222168,27.94253349304199,-79.78275173857622,40.45899900553077,306.12581536865235,-0.005375447217375,-0.0110975196585059,0.9941688776016236,0.1071274578571319,-0.0196462191801936,-0.1162333660634969,3.0152736456159834,0.1250215619802475,0.0781417340040206,0.183460384607315,-0.1813441392593086,-0.2597986253723502,-9.850652182102204,14971.0
27.6,3.5,188.0,21.437612533569336,30.176982879638672,-79.78275172379303,40.4589990518657,306.7278165588379,-0.0101348618045449,-0.0005020648823119,0.9939264059066772,0.1095781251788139,-0.0400387470697235,-0.0578431396620623,2.992094444089445,0.028440173715353,-0.0037321057170629,-0.0742400363087654,-0.0372561946255154,0.0758723922260105,-9.61519416332245,14971.0
27.8,3.5,188.0,21.25105667114257,33.294078826904304,-79.78275168608447,40.45899915197735,307.3387479553223,-0.0107282074168324,-0.0030600402969866,0.9938305616378784,0.1103466600179672,-0.0803044287601121,-0.0480664534534168,2.968938660855041,-0.1664385646581649,-0.1426097005605697,0.0546636804938316,-0.0017157375253736,-0.2219099104776978,-9.669068654179574,14972.0
27.9,3.5,189.0,21.51899528503418,29.85891151428223,-79.78275180162574,40.45899921389467,307.6503782043457,-0.0080173835158348,-0.005983002949506,0.9937843084335328,0.1108728945255279,-0.0512288632340577,-0.0706806553194337,2.9878849954520565,-0.1239145919680595,-0.0614567659795284,-0.0848300755023956,-0.1951907661929726,0.0850140753574669,-9.86191391944885,14972.0
28.0,3.5,193.0,21.411319732666016,31.051677703857425,-79.7827518118834,40.45899926001168,307.9494275817871,-0.006072414573282,-0.0060181259177625,0.993754267692566,0.1112626940011978,-0.0141085872970415,-0.0892914641368255,2.9905427008284664,0.0453104898333549,0.0082624889910221,0.0596868470311164,-0.1863751384243368,-0.1910056581348181,-9.867845335006717,14972.0
28.21,3.5,194.0,21.435108184814453,28.95240974426269,-79.78275198923211,40.45899927411259,308.5606717834473,-0.0041992622427642,-0.0054339179769158,0.9938088059425354,0.1108916476368904,-0.0055693058823311,-0.0631785917947237,3.016378646421032,-0.0519653409719467,-0.0337967276573181,-0.0633407682180404,-0.102898652376607,0.0697093812469393,-9.960192750692368,14973.0
28.4,3.5,194.0,21.30990219116211,31.059629440307607,-79.78275201319221,40.45899929794458,308.862784362793,-0.0046266010031104,-0.0062305936589837,0.9938443303108216,0.1105132699012756,0.007236321968633,-0.0553254238118335,3.0248114580915897,0.0752760544419288,0.0343834348022937,0.0274626780301332,-0.0673256084695458,-0.0568011364946141,-9.918684536218644,14973.0
28.5,3.5999999046325684,193.0,21.51774406433105,28.92060089111328,-79.78275227720373,40.45899935224221,309.47951028442384,-0.0087445518001914,-0.0053735147230327,0.9936763048171996,0.1118127182126045,0.0159776971998725,-0.0617180640000258,3.0513233218288662,-0.0196774322539568,-0.0114565100520849,-0.1402466893196106,-0.1005376654677093,0.0130110735213384,-9.977474781274797,14974.0
28.6,3.5,191.0,21.304895401000977,32.18082809448242,-79.78275233789138,40.45899937885896,309.7843847045898,-0.0092875938862562,-0.0052318219095468,0.9935583472251892,0.1128202006220817,0.0085320053006266,-0.0531803075562131,3.0485501136698487,-0.0678883716464042,-0.0374778099358081,0.027407893911004,-0.2151704462617636,-0.0975057105626911,-9.790142270922662,14974.0
28.81,3.5,190.0,21.26107215881348,32.22058868408203,-79.78275270993731,40.45899923672156,310.40371224975587,-0.0039174859412014,-0.0060937539674341,0.9934946894645692,0.1136482879519462,0.0532963173815322,-0.0318833578720572,3.0662382269506288,0.0379082970321178,0.0400510765612125,0.0952068269252777,-0.1861170386709273,-0.2449034099467099,-9.987604497671128,14975.0
28.9,3.299999952316284,188.0,21.297382354736328,30.4711971282959,-79.7827528119564,40.45899924286165,310.7117566833496,-0.0012341000838205,-0.0049728732556104,0.9935476779937744,0.1132998839020729,0.0680181427396115,-0.0294306578622092,3.0961421640909417,0.0092329010367393,0.0140960058197379,-0.0115986810997128,-0.1134878411516547,-0.1117065965384244,-10.102745529413223,14975.0
29.1,3.299999952316284,188.0,21.284862518310547,31.84685516357422,-79.78275324025721,40.45899916663649,311.34953591918946,0.0013005095534026,-0.0033584546763449,0.9935633540153505,0.1132204979658126,0.0936852841929735,0.0096835886463452,3.1203375518480336,0.0606073029339313,-0.0472765900194644,0.1113547533750534,-0.1172837987355888,-0.1984042131900787,-9.87775168776512,14976.0
29.3,3.2000000476837163,184.0,21.606639862060547,28.29241180419922,-79.78275346208119,40.458999204815775,311.9825238952637,-0.0022516506724059,-0.0099922241643071,0.9935325384140016,0.1130846887826919,0.0601130378290305,-0.0101417656890857,3.0981938021378816,-0.0065368073992431,-0.1215356886386871,-0.0147280888631939,-0.0461237826710566,-0.0697983776964247,-9.846729869842529,14976.0
29.4,3.2000000476837163,184.0,21.493953704833984,29.039878845214844,-79.78275357855743,40.458999310746776,312.2988729248047,-0.0030842805281281,-0.0128783863037824,0.9935399889945984,0.112707681953907,0.0334193382082629,-0.0412626244533847,3.0653291360930246,-0.0848431438207626,-0.1115994900465011,-0.0399107374250888,-0.1425349812582135,-0.1556040198728442,-9.646803626418114,14977.0
29.5,3.2000000476837163,186.0,21.377513885498047,29.69987487792969,-79.78275363111948,40.458999300244095,312.60425469970704,-0.0025303422007709,-0.0133632067590951,0.9936513900756836,0.1116780787706375,0.0230754694499901,-0.0517092847830543,3.041635505035744,-0.0165465045720338,-0.0096298400312662,-0.0634714663028717,-0.0466183611843735,-0.0109639861620962,-9.623332902789118,14977.0
29.7,3.2000000476837163,187.0,21.39379119873047,29.342044830322266,-79.78275368815419,40.45899937207312,313.2458181152344,-0.0037173070013523,-0.0060446411371231,0.9938879013061525,0.1101660951972007,0.0012474698334665,-0.0313081281643855,3.057235827674891,-0.0486690253019332,0.0176809262484312,-0.0708232745528221,-0.0698153209174052,0.0412581455055624,-9.864505405426025,14978.0
29.9,3.2000000476837163,188.0,21.589111328125,28.268556594848643,-79.78275371822271,40.45899934151704,313.5516462097168,-0.0066722524352371,-0.0015125609934329,0.9938927292823792,0.1101387366652488,0.002697845639902,0.0043943940075129,3.05712188941534,0.0861115455627441,0.0972334966063499,0.0164311993867158,-0.0148441299470141,-0.057673079688102,-9.792869997024535,14978.0
30.0,3.2000000476837163,191.0,21.75062561035156,25.77169990539551,-79.78275348541726,40.45899947691181,314.21017739868165,-0.009818191640079,-0.0014015146298334,0.9937083721160888,0.111558973789215,-0.0758005028746133,0.0214764198441673,3.0304461959752804,-0.0313979387283325,-0.0808414593338966,0.0053472188301384,-0.0275861516059376,-0.038827590434812,-9.400956859588623,14979.0
30.2,3.0999999046325684,194.0,21.83451271057129,25.175315856933597,-79.78275350500992,40.45899944881037,314.8579091796875,-0.0093838861212134,-0.003405179362744,0.9934632778167723,0.1137156784534454,-0.0607718121060953,-0.0111185026268034,2.9323373358129365,-0.0082650333642959,0.035487838089466,0.0487399213016033,-0.0917531832586974,0.0073763995897024,-9.175539679527285,14979.0
30.31,3.0999999046325684,194.0,21.992271423339844,23.25893783569336,-79.78275349789993,40.45899943202508,315.1466893920898,-0.0078130168840289,-0.0018014209344983,0.993510127067566,0.1134610697627067,-0.0667971607327632,-0.0106285783996745,2.841488860055404,-0.1134963482618332,0.058170448988676,-0.041004728525877,-0.1722002451494336,-0.1476734778285026,-8.891262672543526,14980.0
30.4,3.0,197.0,22.078662872314453,21.565210342407227,-79.78275339189341,40.458999520035526,315.4780606994629,-0.0060285958461463,-0.0001849027903517,0.9936331510543824,0.1125023588538169,-0.0517976217317591,-0.0032409912357998,2.7707980603604523,-0.061278935521841,0.0572560429573059,0.0200419947504997,-0.1176301549002528,-0.2213610396534204,-8.676168751716615,14980.0
30.6,3.0,198.0,22.13249969482422,22.48761749267578,-79.78275337356668,40.45899949516517,316.00369165039064,-0.0058754640631377,0.0004599450039677,0.9938114285469056,0.1109238639473915,-0.040616842519342,0.003499172977578,2.4803152857356734,0.0230229888111352,-0.0465869940817356,0.0147968418896198,-0.0861910285055637,-0.056651388388127,-8.34295522749424,14981.0
30.7,3.0,199.0,22.24894142150879,19.457990646362305,-79.78275345953871,40.45899952017,316.2810392150879,-0.0068909986875951,-0.0005377929774112,0.9937607645988464,0.111318327486515,-0.0232789297004948,0.0073788839996536,2.3609303551055585,0.1146987006068229,-0.045517224818468,-0.0401010401546955,-0.0171435520704835,-0.141287459526211,-8.363237464427947,14981.0
30.9,3.0,200.0,22.018564224243164,24.17339324951172,-79.78275357263402,40.45899954894616,316.7679471740723,-0.009090956300497,-0.0023159261327236,0.9935956001281738,0.1126047447323799,-0.0362733662305175,-0.0144407466515341,2.0986274745042954,-0.0685952678322792,0.0031607737764716,0.0518405437469482,-0.1060879978816956,-0.1021304104663431,-8.382145020961763,14981.0
31.1,3.0,197.0,21.984758377075195,23.96664619445801,-79.78275357315856,40.458999572130814,317.1651716003418,-0.0020983391441404,-0.0025625897105783,0.9936440587043762,0.1125189960002899,-0.0157324985758085,-0.030118299825505,1.879571002413134,-0.0371802635490894,0.0174330193549394,-0.0047089252620935,-0.026885301140137,-0.1004100134409964,-8.605208696722983,14982.0
31.21,2.900000095367432,196.0,21.99853134155273,22.948820114135746,-79.78275373967601,40.45899960326204,317.4225492248535,0.0008732361602596,-0.0032030274160206,0.9936896562576294,0.11211559176445,-0.0049932296151601,-0.02501476796993,1.840260221290396,-0.1248072311282158,0.0066352426074445,-0.0726056471467018,0.0043642978090792,0.0798097793385386,-8.860520936250689,14982.0
31.3,2.900000095367432,194.0,21.95721244812012,23.82351493835449,-79.78275373791709,40.45899961975426,317.6021299133301,0.0019014631398022,-0.0045640994794666,0.9937615394592284,0.1114169359207153,-0.0042639953769865,-0.03325922721217,1.7502872877229751,-0.0235668662935495,0.0268659442663192,-0.0040311915799975,-0.0770178526360541,0.090188459213823,-8.892987016439438,14982.0
31.51,2.799999952316284,192.0,21.918399810791016,24.141586303710927,-79.78275396107361,40.45899962833987,318.0648717651368,0.0001965865958482,-0.0091129951179027,0.9940767884254456,0.1082974150776863,0.0035454336292528,-0.0270726943424013,1.6646843588153792,0.1430861353874206,-0.0546596087515354,-0.0527427159249782,-0.058287759097293,-0.3745033451914788,-8.979212982058526,14983.0
31.7,2.700000047683716,188.0,21.968481063842773,23.410022735595703,-79.78275393509266,40.4589996270943,318.2279386291504,-0.0013925950042903,-0.0110157551243901,0.994257390499115,0.1064381748437881,-0.0168621792348768,-0.0297810419208833,1.5978837287458365,0.1391762942075729,0.0029430107679218,-0.0403422527015209,-0.1618687084503472,-0.1805253646150231,-9.104070332050323,14983.0
31.8,2.700000047683716,188.0,21.96597671508789,22.96472358703613,-79.78275413646979,40.458999571102616,318.67993829345704,-0.0050951181910932,-0.0107652144506573,0.9944850206375122,0.1042004376649856,-0.0272683702127819,-0.0066621259165354,1.5850866666045915,0.131446361541748,-0.0070131779648363,-0.1280633956193924,-0.0992804958298802,-0.1554481550306082,-9.251338890194893,14983.0
32.0,2.5999999046325684,185.0,21.948448181152344,22.93291664123535,-79.78275434119948,40.4589995002693,319.1655721435547,-0.0093281948938965,-0.0099153527989983,0.994549036026001,0.1033776029944419,-0.0496276835134068,0.0229308101199584,1.5949117883120278,-0.0139012383297085,0.0042026005685329,-0.0764397531747818,-0.158003753721714,-0.2904872433654964,-9.130283399820328,14984.0
32.1,2.700000047683716,183.0,22.95635032653809,9.255865097045898,-79.78275432423148,40.45899944015954,319.3223752746582,-0.0087558003142476,-0.0092323487624526,0.9945733547210692,0.1032573655247688,-0.04529644233668,0.0328877348275035,1.5357128895830978,0.0853663459420204,0.114214226603508,0.0653360560536384,-0.0986964686214924,-0.2316062020137906,-9.155914669632912,14984.0
32.3,2.5999999046325684,183.0,22.35912132263184,21.597017288208008,-79.7827543454803,40.45899939210158,319.63882348632814,-0.0060324370861053,-0.006804016418755,0.9949849247932434,0.0996108129620552,-0.0884082933797364,0.034197131949379,1.4345560831531492,-0.1448700577020645,0.037466499954462,-0.2711033225059509,-0.2260933009162545,-0.2246088755875826,-7.86121307015419,14984.0
32.4,2.5999999046325684,183.0,22.263965606689453,20.889310836791992,-79.78275435650622,40.45899934453664,319.9189786682129,-0.0028463299386203,-0.0024738083593547,0.9996770024299622,0.0251336768269538,-0.0934058091286057,0.0561533743348154,1.0350015715907726,0.0648733749985694,-0.1090108156204223,-1.0046364068984983,-0.035379889360629,-0.2270017206855118,-7.8494005250930785,14984.0
32.6,2.5999999046325684,187.0,22.151281356811523,22.85339736938477,-79.78275410781006,40.45899922967647,320.0984983215332,0.0074177123606204,0.0055963364429771,-0.9952518343925476,0.0968897119164466,-0.1280477371655001,0.0539634123667303,0.7758908346868097,0.0256506130099296,-0.0203350689262151,-1.3476579189300537,-0.008735402142629,-0.2955887562967837,-8.311182627081871,14985.0
32.71,2.5999999046325684,191.0,22.330324172973643,21.294851303100582,-79.78275415034035,40.45899922141506,320.166380859375,0.0104433866217732,0.0053911991417407,-0.9873440861701964,0.1581570208072662,-0.1282309110526838,0.0535160494217125,0.6948778875332305,0.0254440251737833,0.0535948537290096,-1.3820918798446655,-0.2614359005726874,-0.2090471872128546,-8.674625671505929,14985.0
32.8,2.5,180.0,22.099946975708008,22.50352096557617,-79.78275399999596,40.45899918864321,320.23065087890626,0.0146558471024036,0.0048165936022996,-0.9729254245758056,0.2306037992238998,-0.1171703918279754,0.0663264743757324,0.5921132802140694,0.0934320464730262,0.0775898396968841,-1.4658193588256836,-0.1942799527198076,-0.3029025267250836,-8.790680623054504,14985.0
33.01,2.5,174.0,21.902122497558597,25.22302627563477,-79.78275375829855,40.458999107967685,320.2766103515625,0.0238518416881561,0.0074048661626875,-0.929404318332672,0.3682172000408173,-0.0681813449244247,0.1029319593697157,0.4562847109657618,0.0841211974620819,0.0001028944316203,-1.605099081993103,0.0229860077239573,-0.253404457513243,-9.222598071098329,14985.0
33.1,2.400000095367432,183.0,21.83075523376465,25.175315856933597,-79.78275364914138,40.45899905481283,320.3205899963379,0.0261765327304601,0.0077001131139695,-0.8989160656929016,0.4372704923152924,-0.0267491689888957,0.110390781685728,0.4248262075099368,0.136411964893341,-0.0040075969882309,-1.4864133596420288,0.0133032881235703,-0.4969913303107024,-9.438114160895347,14985.0
33.3,2.5,189.0,21.88709831237793,24.05411529541016,-79.78275322131388,40.45899885589847,320.4037198791504,0.0267899092286825,0.0058148773387074,-0.8229252099990845,0.5674880146980286,0.0374830464501512,0.1259570635324509,0.4698047770012946,-0.0648208484053611,-0.08786141872406,-1.4601486921310425,0.1523932589404285,-0.3529431261867285,-9.92218584895134,14985.0
33.5,2.5,177.0,21.8570499420166,24.491464614868164,-79.78275314144992,40.45899873790975,320.4507398376465,0.0251747891306877,0.0039952732622623,-0.7791222333908081,0.6263536810874939,0.0891384564147024,0.122854374350716,0.4682429924262934,-0.0042197098955512,0.0455183982849121,-1.369577407836914,0.3677443293482065,-0.1076914780028164,-9.840806640386583,14985.0
33.6,2.5,173.0,21.952205657958984,24.07001876831055,-79.78275217410912,40.45899872331045,320.5670194396973,0.0283665880560874,0.0045424746349453,-0.6993435621261597,0.7142082452774048,0.179012589767337,0.1388956785507894,0.4693511866092234,0.1232348009943962,0.0488233752548694,-0.8847610354423523,0.2380810431763529,-0.198547506518662,-9.573198875784874,14985.0
33.7,2.5,188.0,21.875829696655277,24.04616355895996,-79.78275144890156,40.4589981388454,320.5070333251953,0.0324200503528118,0.0014319985639303,-0.6703925132751465,0.7412967085838318,0.2447416936230551,0.1746780442785286,0.4048217601408493,0.0017524210270494,0.014663272537291,-0.561075747013092,0.579543965421617,-0.2538357262127101,-9.577710002660751,14985.0
33.91,2.5999999046325684,195.0,21.61540412902832,27.505186080932607,-79.78275079731355,40.45899804732503,320.46592614746095,0.0418081395328044,-0.0031844791956245,-0.6392220258712769,0.7678784132003784,0.2976012564062602,0.1605978794414521,0.3276853893909614,0.0859157294034957,0.0457302965223789,-0.3025037050247192,0.5383360420167447,0.0819909278210252,-9.788623749017717,14985.0
34.01,2.700000047683716,194.0,21.89461135864257,24.61869239807129,-79.78275056225182,40.45899777584143,320.4994230041504,0.0432495139539241,0.0021987373474985,-0.6332069039344788,0.7727701663970947,0.32056372258318,0.1945808931700876,0.3348118284538919,-0.0147263323888182,-0.4450228214263916,0.0807117894291877,1.0578565480560065,-0.3561844936385751,-9.766523612737656,14985.0
34.21,2.700000047683716,198.0,21.662981033325195,27.409765243530277,-79.78274972351454,40.45899745536816,320.4635038146973,-0.0101329358294606,0.0317074134945869,-0.6350522637367249,0.7717517018318176,0.3319779611008139,0.3021756485425934,0.2969474845294976,-0.1398020535707473,-0.70502769947052,0.149407684803009,0.7420522313565017,-0.1991297430172562,-9.95265335083008,14985.0
34.4,2.5999999046325684,204.0,21.680509567260746,26.94856262207031,-79.7827486547822,40.45899693602697,320.43010232543946,-0.0549264848232269,0.0551577806472778,-0.6421101689338684,0.7626501321792603,0.3391560216526472,0.5338900926563206,0.3684365103001205,-0.190545380115509,-0.2983466386795044,-0.0656819641590118,0.3174697498977184,-0.4283467727154493,-10.140214487314225,14985.0
34.5,2.700000047683716,206.0,21.574085235595703,28.093616485595703,-79.7827478081649,40.45899674413368,320.4605588684082,-0.065065212547779,0.0584208816289901,-0.6458373665809631,0.7584508657455444,0.307956680726441,0.7130746327980013,0.4382567954509929,-0.1182455271482467,-0.1563265025615692,0.0736674666404724,0.1432722877431661,-0.1945381255634129,-10.1576555621624,14985.0
34.6,2.700000047683716,192.0,21.574085235595703,29.342044830322266,-79.78274671741968,40.45899660339007,320.4936094055176,-0.0700914487242698,0.0613117069005966,-0.6491869688034058,0.7549068927764893,0.2951662902043393,0.9249482144162218,0.5151845051124577,0.1326901316642761,-0.0435002520680427,0.1704975813627243,0.4166809927672148,-0.3921393881365657,-10.33643184185028,14985.0
34.81,2.700000047683716,190.0,21.58785820007324,27.76759529113769,-79.78274379211989,40.45899660688074,320.4904393920898,-0.0738762989640235,0.0694436281919479,-0.6539726853370667,0.7496930360794067,0.2084680925766989,1.3618524047044067,0.6655813269361004,0.0902808085083961,0.0341121219098568,-0.0266320779919624,0.5157837697863579,-0.0537705565989017,-10.437650653123857,14985.0
35.0,2.700000047683716,187.0,21.4238395690918,29.739633560180664,-79.78273982239077,40.45899689940043,320.4872693786621,-0.0826271623373031,0.0741825699806213,-0.6535989046096802,0.7486509084701538,0.1375338936830443,1.8043252745144167,0.8273703650288594,0.0097513813525438,-0.129753828048706,-0.0010550423758104,0.2593116253986954,-0.4807256188988686,-10.412138081789015,14985.0
35.11,2.5999999046325684,184.0,21.45013236999512,29.77144241333008,-79.78273738402359,40.45899703404696,320.53228662109376,-0.0858295559883117,0.0753521397709846,-0.6520955562591553,0.7494843006134033,0.1063322505872813,2.033886783541055,0.9493634189865672,-0.1691699922084808,-0.0747492983937263,-0.0129904579371213,0.1132393253501504,-0.1956231312453747,-10.552602235078814,14985.0
35.2,2.5,173.0,21.20848655700684,32.506851196289055,-79.78273481550058,40.45899748969224,320.4825048217773,-0.0873407796025276,0.0764122456312179,-0.6500652432441711,0.7509647607803345,0.0869501825984828,2.2509503618531594,1.0274147555072526,0.0675173476338386,-0.0532470047473907,0.0170544851571321,0.1053472104761749,-0.2028123377077281,-10.64474616765976,14985.0
35.41,2.5,167.0,21.173429489135746,32.39552688598633,-79.78272884747149,40.458998469406026,320.47114083862306,-0.0911996066570282,0.0750669464468956,-0.6438826322555542,0.7559515833854675,0.0240290593899326,2.694151204840668,1.2595240957367189,-0.1630393862724304,-0.1083229184150695,-0.1249554380774498,0.0826875778846442,-0.1390614427998662,-10.945414674282077,14985.0
35.51,2.400000095367432,155.0,21.487693786621094,28.4912052154541,-79.78272529434139,40.458998863086336,320.5354451904297,-0.0931329354643821,0.0740032419562339,-0.6405016183853149,0.7586880922317505,0.0357917654055237,2.9245388775974765,1.4126450180897443,-0.1071608811616897,0.0116190398111939,-0.1291583627462387,-0.0071090242336504,-0.0909957586973905,-10.938155940771104,14985.0
35.71,2.400000095367432,148.0,21.45388984680176,27.72783470153809,-79.78271779610705,40.45900031508483,320.54684732055665,-0.0944207236170768,0.074694313108921,-0.6338576078414917,0.7640222907066345,0.0003375226299695,3.3543066051675563,1.5820093260128791,-0.0676055178046226,-0.1232969239354133,-0.0665713027119636,-0.1098220937512815,-0.1133511076681316,-10.632351239919664,14985.0
35.8,2.5,136.0,21.348716735839844,28.41168785095215,-79.78271344486733,40.45900092777558,320.62351892089845,-0.094977430999279,0.0775892734527587,-0.6318395137786865,0.7653353214263916,0.0186089976651453,3.5698760386688813,1.6918419041768908,0.1737173199653625,-0.0375422611832618,-0.0356018543243408,-0.037038504614029,-0.2716429646685719,-10.648733968734742,14985.0
36.0,2.5999999046325684,128.0,21.51899528503418,27.47337913513184,-79.78270479573033,40.45900326651336,320.5836629638672,-0.0943221747875213,0.0866579115390777,-0.6303613781929016,0.7656620740890503,-0.0807619057636828,3.978376881678283,1.8223231179959456,0.1557550281286239,-0.0661599710583686,0.0085502201691269,-0.2740657219290733,-0.3801125426217914,-10.334591138362883,14985.0
36.2,2.700000047683716,118.0,21.679258346557614,26.06591415405273,-79.78269565041074,40.45900640630474,320.4793729553223,-0.0974698588252067,0.0866879671812057,-0.6306449174880981,0.7650307416915894,-0.2269326418196013,4.377614662147032,1.88843247808384,-0.0502143986523151,-0.0251582767814397,0.0087411170825362,-0.3524995417892933,-0.0840365853533148,-10.210334297418592,14985.0
36.31,2.799999952316284,113.0,21.67675399780273,26.10567283630371,-79.78269011567319,40.4590074291291,320.54876611328126,-0.098414771258831,0.0846330523490905,-0.6317842602729797,0.7641992568969727,-0.223576132908727,4.587260966297444,1.937203551432771,0.1061097607016563,0.1055786684155464,-0.1124166920781135,-0.2728934100084007,-0.3041399437375367,-10.04198594212532,14985.0
36.5,3.2000000476837163,103.0,21.71556663513184,25.1673641204834,-79.7826849398705,40.45900860605006,320.57303903198243,-0.0988247469067573,0.082212321460247,-0.6333123445510864,0.7631450295448303,-0.2626533212759874,4.7545863271005855,1.9533225552190536,0.0188090093433856,0.0371557138860225,0.0124529814347624,-0.4104991701990366,-0.2129393863119185,-9.932074660062788,14985.0
36.6,3.299999952316284,100.0,21.92340850830078,23.65652656555176,-79.78267465790795,40.45901303755788,320.3883085021973,-0.098890334367752,0.0798747390508651,-0.6357927322387695,0.7613201141357422,-0.4424968167816545,5.10191571513333,1.927559619936436,0.1613679975271225,0.200400710105896,0.041090365499258,-0.6808651395142079,-0.1190942976996302,-9.84938684463501,14985.0
36.8,3.700000047683716,95.0,21.90337562561035,23.75990104675293,-79.78266316060291,40.45901781351976,320.2449826965332,-0.074561670422554,0.063331015408039,-0.6405119299888611,0.761691689491272,-0.6603871794117103,5.442852446008563,1.6841220877057566,0.0474785342812538,0.2925950884819031,-0.0073682330548763,-0.7357960760593415,-0.3281876961886883,-9.708145011663438,14985.0
36.91,3.900000095367432,92.0,22.084922790527344,21.06424903869629,-79.78265768670445,40.459021642017454,320.07499215698243,-0.0631377324461937,0.054223995655775,-0.6410080790519714,0.7630085945129395,-0.8722006810270084,5.597615932594088,1.4206849133266968,-0.0346984602510929,0.3120889365673065,0.0915154293179512,-0.4577614103257656,-0.3019841118715704,-9.446846977472308,14985.0
37.0,4.300000190734863,90.0,22.033588409423828,21.207380294799805,-79.78265112216619,40.45902332030817,320.1024694213868,-0.0553308352828025,0.0459192916750907,-0.6433277130126953,0.76220703125,-0.8904895638720407,5.722189796094992,1.210129280141711,-0.0358294136822223,0.209446832537651,0.0864807143807411,-0.6836948995292187,-0.0268515106290578,-9.236696877479554,14985.0
37.2,4.5,93.0,22.296518325805664,19.545459747314453,-79.78263848004971,40.45902929303321,319.986865020752,-0.0477911531925201,0.0378390103578567,-0.6448582410812378,0.7618675827980042,-1.1243894251036208,5.887803548807678,0.8343168603970103,-0.0707998052239418,-0.0087993564084172,0.0027330254670232,-0.5933899893611669,-0.0767785005178302,-8.915086567997934,14984.0
37.3,4.900000095367432,88.0,22.26146125793457,19.92714500427246,-79.78263176194645,40.459031168453286,319.9891004333496,-0.0462550744414329,0.0402303822338581,-0.6457813382148743,0.7610574960708618,-1.1197797369455311,5.947786946246525,0.7099551714526242,0.0485264621675014,-0.0737548097968101,-0.0531264133751392,-0.5780908226966858,-0.1710206059366464,-8.923696008324622,14984.0
37.51,5.099999904632568,87.0,22.22515296936035,20.8256950378418,-79.78261850978633,40.459037693191135,319.8870572814941,-0.0425987802445888,0.0397790409624576,-0.6433241963386536,0.7633721828460693,-1.2782155217952131,6.037775452839721,0.5326279144796606,-0.0701125711202621,-0.0372559688985347,0.0463491678237915,-0.8255973947793246,-0.2763025377318263,-8.916899204850196,14984.0
37.6,5.400000095367432,86.0,22.13625717163086,20.952924728393555,-79.78261170660281,40.45903974175344,319.86382196044923,-0.0410318672657012,0.0382460132241249,-0.6419878602027893,0.7646602392196655,-1.2666034286818733,6.078759794302353,0.4281011110640034,0.0244129225611686,-0.0166373774409294,0.0259122885763645,-0.75391849771142,-0.1079578917659819,-8.948052000403404,14984.0
37.81,5.5,85.0,22.10245132446289,21.636775970458984,-79.7825979473004,40.45904589237431,319.7788648376465,-0.0361750945448875,0.035007506608963,-0.6371161937713623,0.7691221833229065,-1.3131882843614378,6.158317655208343,0.2822171363761731,-0.0605330280959606,-0.007204158231616,-0.0331576652824878,-0.8403311356902123,-0.1484317886084318,-9.25416835784912,14984.0
37.9,5.800000190734862,83.0,22.03984832763672,23.1953239440918,-79.78259107981478,40.45904804582119,319.7422437438965,-0.0328031554818153,0.0321772024035453,-0.6353377103805542,0.7708662152290344,-1.2922118146041417,6.181124202995743,0.2391069956812934,0.0087560713291168,0.1206625327467918,-0.1518585681915283,-0.7294278004020452,-0.0920736746303737,-9.582526938915253,14984.0
38.1,5.9000000953674325,83.0,21.94344139099121,22.86134910583496,-79.782577133374,40.4590550559417,319.6989354858398,-0.0250656586140394,0.0305634681135416,-0.6290801167488098,0.7763348817825317,-1.3264905990693752,6.246770528739884,0.1931230353362502,-0.0049176788888871,-0.0723312273621559,0.1543178856372833,-0.9240115159749984,-0.3506593499332666,-9.85600238442421,14984.0
38.3,6.099999904632568,83.0,21.99978256225586,24.507368087768555,-79.7825699752977,40.45906037824276,319.7168187866211,-0.0255251806229352,0.0298863127827644,-0.6254363656044006,0.7792847752571106,-1.4327142793384164,6.288094898614229,0.2304353336111168,-0.0713482201099395,-0.0544707365334034,-0.064776562154293,-0.6455742694437504,-0.0922067627403885,-9.912007015943528,14984.0
38.4,6.199999809265138,81.0,22.054872512817383,23.068096160888672,-79.78255622261777,40.4590693997769,319.7689885864258,-0.0278051514178514,0.0287493411451578,-0.6208873987197876,0.7828788757324219,-1.5448145707280283,6.3245766953868126,0.3085614772378665,0.0926735624670982,0.0066078533418476,-0.0199071392416954,-0.514334171935916,0.0007364202663302,-9.672600372433664,14984.0
38.6,6.300000190734862,81.0,22.41671562194824,20.26907157897949,-79.78254250264546,40.45907459202107,319.72884271240235,-0.0214402489364147,0.0261603463441133,-0.6196560263633728,0.7841443419456482,-1.4721383615941457,6.314531961445319,0.201333969100513,-0.0517947785556316,0.050481479614973,-0.0989319682121276,-0.8035397969931365,-0.0701658843364566,-9.354962661266327,14984.0
38.7,6.300000190734862,80.0,21.99101829528809,25.61266326904297,-79.78253539069037,40.45907970592278,319.74577996826173,-0.0165590941905975,0.022161703556776,-0.6170900464057922,0.7864062190055847,-1.5671912143860447,6.3045023633989326,0.1433512886247583,-0.0217874143272638,0.2921713292598724,0.103333331644535,-1.0059951804578304,-0.166478269547224,-9.285998845696447,14984.0
38.9,6.300000190734862,80.0,21.86831855773925,26.272661209106445,-79.7825286014714,40.45908239999441,319.7202253112793,-0.0113441739231348,0.0124810086563229,-0.6162037253379822,0.7874062657356262,-1.533599700797866,6.28423496855266,0.0710378418987217,-0.1685963720083236,0.2286858409643173,-0.0014013922773301,-0.7995537500828505,-0.0803146133199334,-9.853995620012284,14984.0
39.0,6.300000190734862,85.0,21.77942276000977,26.25675773620605,-79.78251412282637,40.45908811460461,319.68371102905274,0.0017888016300275,-0.0013545205583795,-0.6151764392852783,0.7883862853050232,-1.5357306572406764,6.228247592182303,-0.0885492998976522,-0.0060381451621651,-0.0870246216654777,0.0667241811752319,-0.5185771308839321,-0.0277774446364492,-10.053734167814255,14984.0
39.2,6.4000000953674325,85.0,22.02482414245605,22.92496490478516,-79.78249971645515,40.459093120809065,319.51818368530274,-0.0173793099820613,0.0013775718398392,-0.6173862218856812,0.7864670157432556,-1.5675958558461598,6.181081644460938,-0.0569540389092621,-0.1832503527402877,-0.2795967757701874,-0.0743730515241622,-0.401731306873262,-0.132754124365747,-10.143638616800308,14984.0
39.3,6.4000000953674325,85.0,21.84077262878418,24.507368087768555,-79.78249311239568,40.45909583234928,319.51285836791993,-0.0314873568713665,0.0096644517034292,-0.6175350546836853,0.7858534455299377,-1.6105006559247292,6.151792841956726,0.1764147114447434,0.0192270688712596,-0.2999897301197052,-0.162504181265831,-0.317223728299141,0.0558370722457766,-10.31733600497246,14984.0
39.41,6.300000190734862,83.0,21.84703254699707,25.1673641204834,-79.78248594019743,40.45909871212565,319.33837411499024,-0.0373167730867862,0.0201127398759126,-0.6171901822090149,0.7856712937355042,-1.6426265171962582,6.1375398125949525,0.3631277183517307,0.1141353696584701,-0.2848119139671325,-0.0228002350777387,-0.6124170483648778,0.0003650124371051,-10.094844771623611,14984.0
39.6,6.300000190734862,78.0,21.89461135864257,24.348331451416016,-79.782472817125,40.459104250005865,319.33919427490235,-0.0300160497426986,0.0212464854121208,-0.6167348027229309,0.7863115668296814,-1.6887644662722217,6.1108097040268206,0.6138968504916938,0.0117734605446457,0.1320803314447403,-0.0643914192914962,-0.6848147144168616,-0.306996582672,-10.424021962881088,14984.0
39.7,6.199999809265138,77.0,21.914644241333008,24.674354553222656,-79.78246544146269,40.4591069886164,319.2065305480957,-0.0187816433608531,0.0149077400565147,-0.6167269349098206,0.7868118882179259,-1.6758773338539588,6.113710823769,0.5374652861412206,0.0767742842435836,0.2026965767145156,0.0530466847121715,-0.7380294200778008,-0.1701008754596114,-10.17575035572052,14984.0
39.9,6.099999904632568,78.0,22.114971160888672,22.32858085632324,-79.78245150165563,40.45911270636133,319.07179544067384,0.0044621396809816,-0.0002537995460443,-0.6173433661460876,0.7866812348365784,-1.7007816186508138,6.066998535518088,0.1760892080707625,-0.1000016257166862,0.0727023109793663,-0.0230829138308763,-0.4071449514850974,-0.0081361904460936,-10.00183895945549,14984.0
40.1,6.0,82.0,22.043603897094727,23.75194931030273,-79.78244506382144,40.45911548394554,319.0790700683594,0.0122529082000255,-0.0033878036774694,-0.616884708404541,0.786950945854187,-1.70288757699992,6.000538792298408,0.0137793283548704,0.0647414401173591,0.1469521224498748,0.0125945135951042,-0.2058662470802665,0.1578799754753709,-9.814732736349104,14984.0
40.2,5.9000000953674325,88.0,21.76189422607422,24.777727127075195,-79.78243147602879,40.459121034218654,318.93286798095704,0.0210712514817714,-0.0166529100388288,-0.6152880787849426,0.7878446578979492,-1.6853784102106029,5.833823480123535,-0.2445891865897093,-0.0597784593701362,0.1838148087263108,-0.0858816802501678,-0.141177139012143,0.0473003932088613,-9.792138510346414,14983.0
40.3,5.800000190734862,89.0,21.992271423339844,23.31460189819336,-79.7824253309103,40.45912377385979,318.9335012207032,0.020572941750288,-0.0208412427455186,-0.6141574382781982,0.7886400818824768,-1.6967221783622597,5.7480597264112046,-0.302285198960904,0.003363411175087,0.0532154627144336,-0.0992459133267402,-0.2011785708367824,-0.1245921422168612,-9.854934682846071,14983.0
40.5,5.699999809265138,89.0,22.08241844177246,21.207380294799805,-79.78241203425928,40.45912928178401,318.803702331543,0.0141745284199714,-0.0023215559776872,-0.6128377318382263,0.790078341960907,-1.6454308405460858,5.627169299126432,-0.3323361000864138,0.0345592536032199,-0.1337200105190277,-0.0039676064625382,-0.2304591975733638,-0.3137841402366758,-9.593030877113344,14983.0
40.6,5.599999904632568,93.0,22.091182708740234,23.04424095153809,-79.78240612590838,40.45913197430113,318.7931546936035,0.0091603761538863,0.0058817639946937,-0.6133935451507568,0.7897024154663086,-1.64727821407539,5.556360998996098,-0.2986580123469045,0.0591156110167503,-0.0942043736577034,0.0040913149714469,-0.3933254227414728,-0.1035626402590423,-9.25678381741047,14983.0
40.8,5.5,88.0,21.636688232421875,26.95651435852051,-79.78239327081576,40.45913752103589,318.67900369262696,0.0069193732924759,0.0099560497328639,-0.6144018769264221,0.7889001369476318,-1.6153192598846309,5.478054751327557,-0.2141292336106682,0.0699746236205101,0.0551860630512237,-0.0702286958694458,-0.2690790702402592,-0.117820171136409,-9.689279555082322,14983.0
41.0,5.400000095367432,88.0,21.832008361816406,24.44375228881836,-79.78238068006,40.45914297919951,318.5696668395996,0.0061666881665587,0.0058057848364114,-0.6143697500228882,0.7889728546142578,-1.5710966193862954,5.401125543629289,-0.1618069057814051,-0.0285585410892963,0.0727496221661567,0.0118456957861781,-0.4260768470540643,-0.0039807844161987,-9.768380103707312,14983.0
41.1,5.400000095367432,87.0,21.925912857055664,25.596759796142567,-79.78237498664163,40.45914553748156,318.5590467224121,0.0037628794088959,0.0067136180587112,-0.6136793494224548,0.7895179390907288,-1.5720160893062525,5.358160759120591,-0.1436653910661493,-0.1288317590951919,-0.1680363714694976,-0.0277365129441022,-0.4921572544053197,0.0772083896398544,-9.778057245612144,14983.0
41.2,5.300000190734863,85.0,21.85078811645508,24.491464614868164,-79.78236840648603,40.45914818209317,318.46976754760743,-0.0012324198614805,0.0088094789534807,-0.6123062968254089,0.7905707359313965,-1.5044766433567556,5.3300771896291534,-0.1010670329680512,-0.0563869476318359,-0.219261959195137,0.1017985194921493,-0.5556375876814127,-0.1311663403641432,-9.84162875890732,14983.0
41.41,5.300000190734863,83.0,21.90087127685547,25.342304229736328,-79.7823564283712,40.45915320432341,318.3851041564941,-0.0185660794377326,0.0158859901130199,-0.6105512380599976,0.7915997505187988,-1.4323641759103058,5.310251028420026,0.0117588648901917,-0.1210838928818702,-0.3040572702884674,-0.0908999219536781,-0.4399460771307349,0.1008359191473573,-9.50826203763485,14983.0
41.6,5.300000190734863,83.0,21.803211212158203,25.366159439086918,-79.78235080688934,40.45915565083736,318.37226388549806,-0.0272918120026588,0.0202269665896892,-0.609748125076294,0.7918670177459717,-1.4212140878626096,5.300718154744934,0.1153043691135897,-0.0191824361681938,-0.1575527340173721,0.0891262292861938,-0.461917903572321,-0.1373950046114623,-9.573645018339157,14983.0
41.71,5.300000190734863,84.0,21.743112564086918,25.92278289794922,-79.78233908454376,40.45916059776541,318.31327340698243,-0.0356431007385253,0.0258434973657131,-0.6090099215507507,0.7919397950172424,-1.3909997297952903,5.3231204244920125,0.2832608825527739,0.1473201662302017,-0.1191838309168815,0.0820059701800346,-0.5308226622641087,0.0041373801603913,-9.702822875976564,14983.0
41.8,5.199999809265137,77.0,21.74686813354492,27.38591003417969,-79.78233342227016,40.45916305303941,318.29857919311524,-0.0355438813567161,0.0321740470826625,-0.6102545857429504,0.7907533645629883,-1.4063302670598663,5.348790051232066,0.3310723328290965,0.1282508969306945,-0.1034251525998115,0.1195728927850723,-0.6106757840886713,-0.1578003437072038,-9.848185826539996,14983.0
42.01,5.199999809265137,75.0,21.672998428344727,25.914831161499023,-79.78232158483516,40.45916795237111,318.2592458496094,-0.0300746075809001,0.036626148968935,-0.6129798293113708,0.7886759638786316,-1.4257244252103185,5.391701471177127,0.4325878912688267,-0.0148889180272817,0.022891653701663,-0.0977110862731933,-0.5252063385397197,-0.2979361027479172,-10.044369267225266,14983.0
42.11,5.300000190734863,75.0,21.793193817138672,25.64447021484375,-79.78231580508847,40.45917041013573,318.25376031494136,-0.0302422996610403,0.0342138670384883,-0.6134141087532043,0.7884402871131897,-1.4313742243512746,5.426133520812422,0.4272452141071533,-0.0377521589398384,-0.0844949334859848,0.0237918756902217,-0.5648307263106108,-0.2537657240778208,-10.009866017103196,14983.0
42.3,5.199999809265137,74.0,21.659225463867188,28.29241180419922,-79.78230384842642,40.45917521691993,318.2110700378418,-0.0345753468573093,0.0297015719115734,-0.612037718296051,0.7895140051841736,-1.4012063493219264,5.465427071787065,0.4501521157254455,-0.0950376689434051,-0.0546974726021289,0.03554368019104,-0.5774221204966307,0.0480969027522951,-9.859730569124222,14983.0
42.5,5.300000190734863,75.0,21.713064193725582,26.29651641845703,-79.78229176426203,40.459180061664405,318.1699895629883,-0.0388448871672153,0.0245795957744121,-0.6104820966720581,0.7906949520111084,-1.3756593379124915,5.505300988811313,0.5298319961689681,-0.0971657112240791,-0.0927068963646888,-0.037191953510046,-0.5163082650303841,0.0019805798493325,-10.105277373790742,14983.0
42.6,5.300000190734863,75.0,21.89461135864257,23.83146667480469,-79.78228584059734,40.45918251820949,318.1726941833496,-0.042537223547697,0.0236855875700712,-0.6093211770057678,0.7914274334907532,-1.3705849226170008,5.5436979222810105,0.5513296176492063,-0.0882172062993049,-0.0227035097777843,-0.0767842903733253,-0.4892346332967282,0.1391473420523107,-9.885259512662886,14983.0
42.7,5.300000190734863,75.0,21.91714859008789,24.22905540466309,-79.78227953685423,40.459184953489945,318.1395292053223,-0.0458599813282489,0.026472458615899,-0.6084302067756653,0.7918388843536377,-1.3535434582073271,5.568083746176679,0.5555431801151812,-0.071979321539402,-0.1016569584608078,-0.0268358588218688,-0.6125503283366561,0.0833652610424906,-9.649789799451831,14983.0
42.9,5.300000190734863,75.0,21.8132266998291,24.332427978515625,-79.7822672388367,40.45918986816034,318.1214627990723,-0.0492189638316631,0.0264940056949853,-0.6061601042747498,0.7933761477470398,-1.3295819158787745,5.624283795887954,0.6073543126860282,-0.0229637045413255,0.1255509853363037,-0.0761486813426017,-0.6821992548555136,0.0140573733765631,-9.617472823262217,14983.0
43.1,5.300000190734863,72.0,21.82073974609375,24.92881202697754,-79.78225510983283,40.45919488096063,318.109984375,-0.044457871466875,0.0209203138947486,-0.6041406989097595,0.7953614592552185,-1.3244093127950258,5.700454588115273,0.5516748012216109,0.0307428538799285,0.060446809977293,-0.0431474596261978,-0.7256592699140311,-0.1406350198946893,-9.693455051779749,14983.0
43.21,5.300000190734863,72.0,21.84077262878418,24.849292755126957,-79.78224868402928,40.45919737953683,318.0965680847168,-0.0380748622119426,0.0193819552659988,-0.6037541627883911,0.7960249185562134,-1.3241751548180405,5.7308450218710485,0.5197973988145009,-0.0257111769169569,0.1357523053884506,-0.1586050689220428,-0.6643604962527753,0.2011400340311229,-9.730782507061956,14983.0
43.3,5.400000095367432,71.0,21.94344139099121,23.68833541870117,-79.78224255838471,40.45919992201642,318.090266204834,-0.0314822308719158,0.0199994258582592,-0.6039572954177856,0.7961435317993164,-1.3208596139957984,5.749702910670488,0.4390115139061711,0.1528759002685547,0.0752027034759521,-0.0679671466350555,-0.6386671728640795,0.1457875863276422,-9.722607514858248,14983.0
43.51,5.400000095367432,71.0,22.002286911010746,22.66255569458008,-79.78223002775968,40.45920508536955,318.07284829711915,-0.0258775725960731,0.0191502198576927,-0.6063755750656128,0.7945264577865601,-1.363136032727583,5.763808880651437,0.2998989948027225,0.0340568199753761,0.0229706261307001,0.0237742960453033,-0.4778913272917271,-0.172507662512362,-9.646861513853072,14983.0
43.6,5.5,74.0,21.950952529907227,24.22110366821289,-79.78222390701731,40.45920765840629,318.0624685058594,-0.0266844369471073,0.0192943569272756,-0.608051598072052,0.7932143807411194,-1.3786593251349089,5.7546177045890285,0.2540420291579202,0.0229933951050043,0.1208539232611656,-0.0479495003819465,-0.5730262934044004,-0.002676060469821,-9.5778403955698,14983.0
43.8,5.5,74.0,21.908382415771484,24.3721866607666,-79.78221126386643,40.45921283100045,318.04154107666017,-0.0266063716262578,0.0202399939298629,-0.6103684306144714,0.7914119958877563,-1.4416040031547992,5.748780893476638,0.257506649071898,-0.0785825699567794,-0.028251415118575,-0.030989246442914,-0.6066080588847399,-0.1378387900069356,-9.67253663778305,14983.0
44.0,5.5,74.0,21.713064193725582,26.20109558105469,-79.78220488002395,40.45921544076075,318.0278539428711,-0.0284205172210931,0.0193507131189107,-0.610957145690918,0.7909168004989624,-1.4634142366172336,5.733122639768357,0.2714654925917527,-0.0925008505582809,0.0479508452117443,-0.0217585675418376,-0.7400633009523153,-0.1381091140955686,-9.759589399695397,14983.0
44.1,5.5,75.0,21.630428314208984,27.28253555297852,-79.78219267128053,40.45922061831894,318.0092992553711,-0.0273971538990736,0.0223018378019332,-0.6121397018432617,0.7899602055549622,-1.48938234245792,5.715358528180697,0.3343954283399945,0.1362715810537338,-0.1446931511163711,0.2109694182872772,-0.9838031698018312,-0.2770084611140192,-9.974390959739685,14983.0
44.2,5.599999904632568,76.0,21.888351440429688,23.608816146850582,-79.78218627291135,40.45922325497778,318.0031957397461,-0.0268829986453056,0.0259150769561529,-0.6124740839004517,0.7896082997322083,-1.5153020601491425,5.724294040037544,0.3788650119143354,-0.0852948874235153,-0.0171267725527286,-0.0087864017114043,-0.6528686709702015,-0.2531574674695729,-10.0866563308239,14983.0
44.4,5.599999904632568,75.0,21.849536895751957,26.58278083801269,-79.7821738055203,40.45922835610013,317.9844503173828,-0.0289104171097278,0.0352167226374149,-0.6131150722503662,0.7886786460876465,-1.50579842728672,5.729374675469037,0.3943188017451717,-0.0191771499812603,-0.0895242616534233,-0.0566121563315391,-0.6962026785314084,-0.1207580498233437,-9.672012142539025,14982.0
44.5,5.599999904632568,74.0,21.8132266998291,24.74592018127441,-79.78216767124064,40.459230935165856,317.9777364501953,-0.0269211996346712,0.0393081754446029,-0.6136427521705627,0.7881451845169067,-1.4881705554297568,5.739732560397,0.4131823212578976,0.1270292252302169,0.1258038431406021,-0.0987798869609832,-0.6815780612826348,0.0921318361535668,-9.701686761975289,14982.0
44.71,5.599999904632568,74.0,21.79444694519043,24.85724449157715,-79.78215513778223,40.4592361031395,317.9639539489746,-0.0255064610391855,0.035157062113285,-0.6135525107383728,0.7884584665298462,-1.4869491441873186,5.76794115509721,0.3963587637773294,-0.1827093064785004,0.0534620136022567,-0.1234470978379249,-0.5466929922625423,-0.1230223475396633,-9.855914676189425,14982.0
44.9,5.5,73.0,21.624168395996094,28.32421875,-79.7821425542224,40.45924119996769,317.9450139770508,-0.0272738859057426,0.0221205279231071,-0.6092827916145325,0.7921751737594604,-1.4244809077762028,5.7985757418671255,0.3874318131320834,-0.1679452061653137,0.0570227541029453,-0.1081385090947151,-0.8518380175530911,-0.0978296463098377,-9.731108196973803,14982.0
45.0,5.5,76.0,21.43886375427246,28.97626495361328,-79.78213634114762,40.45924374945532,317.9422826538086,-0.0280017498880624,0.0162440557032823,-0.6071682572364807,0.7939135432243347,-1.3897230033836347,5.812232470324986,0.4026541815429555,-0.0997834950685501,0.0770717710256576,-0.0558944456279277,-0.5191671880334616,0.0591377158463001,-10.163163639307024,14982.0
45.1,5.5,77.0,21.711811065673828,26.32832336425781,-79.78213012299075,40.45924630863056,317.9448919067383,-0.0289644561707973,0.014241823926568,-0.6052163243293762,0.7954065203666687,-1.3619556709644545,5.825101103094639,0.4372439120248575,-0.0052559990435838,0.0414027385413646,-0.1402986049652099,-0.5182577267289162,0.053878364637494,-10.266221984624863,14982.0
45.3,5.5,77.0,21.66924095153809,26.06591415405273,-79.78211746823648,40.45925135203953,317.94779489135743,-0.0265350304543972,0.0171685293316841,-0.6046067476272583,0.7958969473838806,-1.3241390885101716,5.8301117076425255,0.5117155410864771,0.1915250718593597,0.1399362534284591,-0.0726565197110176,-0.5556693453714252,0.0408597582578659,-10.208939151763916,14982.0
45.5,5.400000095367432,76.0,21.81447982788086,24.642547607421875,-79.7821110705419,40.45925388125878,317.9457654724121,-0.0232465621083974,0.0184489600360393,-0.6052372455596924,0.7954918742179871,-1.333993227076541,5.830505647870172,0.4930190217463106,0.1299326568841934,0.0430356189608573,-0.0502439066767692,-0.7074906552582979,-0.0461239516921341,-10.06290026307106,14982.0
45.6,5.400000095367432,77.0,21.646705627441406,26.30446815490723,-79.78209863161965,40.45925904040366,317.97300622558595,-0.0214529763907194,0.0206030029803514,-0.6067222356796265,0.7943572998046875,-1.3691708923456647,5.828571422823311,0.4813740427814474,0.0315625183284282,0.0124890645965933,-0.0138029735535383,-0.5537036941945553,-0.0354870350193232,-9.904074683189393,14982.0
45.7,5.300000190734863,77.0,21.785682678222656,25.978445053100582,-79.7820921852178,40.4592615684549,317.9667081604004,-0.0191841293126344,0.0236776117235422,-0.6071537137031555,0.7939999103546143,-1.3679707690612464,5.826224071590272,0.4604576057855438,0.0522894673049449,0.0842165052890777,0.0709665715694427,-0.6555227952450514,-0.0423049706965684,-9.893612844944,14982.0
45.91,5.199999809265137,77.0,21.683013916015625,27.497234344482425,-79.78207960260244,40.45926666641674,317.9879293212892,-0.0190505478531122,0.0210137125104665,-0.6073781251907349,0.7939064502716064,-1.363279998280722,5.8214463485746695,0.4196927278221322,-0.0455829985439777,0.1157081052660942,-0.0656758844852447,-0.5190911742299795,-0.2184508804231882,-9.772609979510309,14982.0
46.0,5.199999809265137,77.0,21.8132266998291,25.39796638488769,-79.78207339213618,40.45926922657104,317.9987249145508,-0.0201311260461807,0.0167955104261636,-0.6073397397994995,0.7940095663070679,-1.3641289958765357,5.803350625553748,0.4201152204735957,-0.0463449545204639,0.0228199623525142,0.0826919078826904,-0.8287878549098969,-0.1891865528002381,-9.754616342782974,14982.0
46.2,5.199999809265137,79.0,21.86581420898437,24.642547607421875,-79.78206076841423,40.45927424993493,318.02138803100587,-0.0195457395166158,0.0141287464648485,-0.6080154180526733,0.7935588359832764,-1.3509920406580969,5.803974183547412,0.3709188123017316,0.0105510903522372,0.0530217699706554,-0.038255862891674,-0.4422714782506228,0.0383829233888536,-9.75001399934292,14983.0
46.41,5.199999809265137,78.0,21.80821990966797,25.46953201293945,-79.78204825942187,40.459279306690114,318.0489110717773,-0.0191933959722518,0.0166831295937299,-0.6083101630210876,0.7932919859886169,-1.3668885531024937,5.779698016793902,0.344590262441957,0.035436738282442,0.0119820199906826,0.0365287363529205,-0.5842553228884936,0.0153054295806214,-9.55522511959076,14983.0
46.5,5.199999809265137,78.0,21.63543701171875,27.266632080078125,-79.7820420888479,40.45928184575156,318.0534200439453,-0.0200158357620239,0.0169504024088382,-0.6070042252540588,0.7942656874656677,-1.3627055536947137,5.773016132555047,0.3281000853993016,0.0210910532623529,0.0384871512651443,0.0526793971657753,-0.5843744964525104,-0.1595619087852537,-9.617447680234909,14983.0
46.6,5.199999809265137,78.0,21.869569778442383,24.197248458862305,-79.78203592924766,40.45928438819679,318.0580625305176,-0.0224325377494096,0.0146502368152141,-0.6053900718688965,0.7954778075218201,-1.3594568464798045,5.775302916070492,0.3502460773798181,-0.1375316083431244,-0.1219172403216362,-0.1363688856363296,-0.4864283352345229,-0.0916672017797827,-9.84412551999092,14983.0
46.81,5.199999809265137,75.0,21.74186134338379,26.224950790405277,-79.78202342547236,40.45928934354136,318.0965490112305,-0.0271968953311443,0.012639844790101,-0.602845311164856,0.7972943186759949,-1.3013880705394745,5.7718142107626615,0.3924415957582549,-0.0385314971208572,-0.0492559261620044,-0.18998122215271,-0.5580810660123825,0.1238094010390341,-9.726093624830249,14983.0
47.0,5.099999904632568,75.0,21.80696678161621,25.326400756835927,-79.78201713301782,40.459291800584566,318.1161412963868,-0.0281914696097374,0.0120811825618147,-0.6022889614105225,0.7976887226104736,-1.2846121005721591,5.775865032426293,0.4255558374963309,-0.0709239989519119,0.0490041747689247,-0.0327851995825767,-0.5706893440335989,0.3351390854269266,-9.791855505108831,14983.0
47.11,5.099999904632568,75.0,21.82699966430664,25.86712074279785,-79.78200482762448,40.45929689894147,318.1334905395508,-0.0287657119333744,0.0104314498603343,-0.6021419763565063,0.7978023886680603,-1.2972813350186536,5.777180249688161,0.4685009865125839,0.1047449707984924,-0.003014265326783,-0.0820443481206893,-0.6959220852702857,-0.0069111165404319,-9.886987949609756,14983.0
47.2,5.099999904632568,74.0,21.984758377075195,23.74399757385254,-79.7819985443447,40.459299376115645,318.1684217224121,-0.0284397527575492,0.012167377397418,-0.6020323634147644,0.7978723645210266,-1.2982677372128482,5.783760547197139,0.4676493750023614,0.1052639186382293,0.0157591961324214,0.0320655070245266,-0.6309867089241743,0.207113129273057,-9.672044302225112,14983.0
47.41,5.099999904632568,74.0,21.751876831054688,25.64447021484375,-79.78198608248552,40.45930444365773,318.21011254882814,-0.0280835758894682,0.0186659693717956,-0.6011471152305603,0.7984266877174377,-1.320690875237124,5.792262417030095,0.4446359724050825,-0.0051670428365468,0.0070580709725618,-0.0070358519442379,-0.521900213174522,-0.0349906520918011,-9.507150481939316,14983.0
