time,wind_speed,wind_angle,battery_voltage,battery_current,position_x,position_y,position_z,orientation_x,orientation_y,orientation_z,orientation_w,velocity_x,velocity_y,velocity_z,angular_x,angular_y,angular_z,linear_acceleration_x,linear_acceleration_y,linear_acceleration_z,node_ids
0.0,0.2000000029802322,176.0,24.358646392822266,-0.0795177370309829,-79.7827931407473,40.45900953601748,271.190056142658,0.0211959574371576,-0.0046522743068635,-0.9997125864028932,0.0101953092962503,-0.0057397008722716,-0.0352321604200679,0.0196862579580738,0.005380492657423,0.0025314916856586,0.0061456426046788,0.0561627164762467,-0.4523835799098015,-9.803787333369256,14936.0
0.19,0.2000000029802322,176.0,24.359899520874023,-0.0715659633278846,-79.78279331849447,40.459009705195655,271.2012801126391,0.0212242975831031,-0.0046004606410861,-0.9997118711471558,0.0102300606667995,-0.0018395638747191,-0.0320313935706988,0.0180832635559446,-0.0008712979033589,0.0008427739958278,-0.00185067509301,0.0590576546732336,-0.4495989165455103,-9.803028949499131,14936.0
0.3,0.2000000029802322,173.0,24.358646392822266,-0.0795177370309829,-79.7827933164636,40.459009735921896,271.20307605274024,0.0212047789245843,-0.0046138959005475,-0.9997121691703796,0.0102367801591753,-0.004032493456145,-0.0357884384246205,0.0182210759620073,0.0047463467344641,0.0043285936117172,0.0077427863143384,0.0586721175955608,-0.4564287202432752,-9.803032457828524,14936.0
0.49,0.2000000029802322,175.0,24.358646392822266,-0.0715659633278846,-79.78279347065684,40.459009922193495,271.2145120918565,0.021228477358818,-0.0045736725442111,-0.9997114539146424,0.0102694276720285,-0.0034676370971675,-0.0364675805419794,0.0169774866755419,0.0018075942061841,-0.0006057937862351,0.0050701331347227,0.0569355630688369,-0.4352866502478719,-9.80081110060215,14936.0
0.59,0.2000000029802322,174.0,24.35739517211914,-0.0636141896247863,-79.78279346728377,40.45900995537652,271.21620968964885,0.0212235376238822,-0.0045503200963139,-0.9997114539146424,0.0102939456701278,-0.0065096239752562,-0.0398686141337516,0.0172534606405696,-0.0036320744547992,-0.0006870975485071,0.0059400489553809,0.0592216507997363,-0.4550245114043355,-9.80353824198246,14936.0
0.79,0.2000000029802322,176.0,24.359899520874023,-0.0795177370309829,-79.78279361681795,40.459010142404416,271.22776909571144,0.0212322529405355,-0.0045565930195152,-0.9997109174728394,0.0103275952860713,-0.0049998849673333,-0.0396760957466808,0.0164140990555431,0.0052534886635839,0.0056816753931343,0.0081348000094294,0.0561927839554846,-0.4320921336114407,-9.799891333580018,14936.0
0.9,0.2000000029802322,174.0,24.35238647460937,-0.0636141896247863,-79.78279375175514,40.45901025574149,271.2376731850952,0.0212650038301944,-0.0044887526892125,-0.9997103214263916,0.0103449271991848,-0.0026362544970572,-0.0282666475773678,0.0154124796074618,-0.0030139519367367,-0.0015865274472162,0.0019015982979908,0.0585871456749737,-0.4517517882585526,-9.802829559445382,14936.0
1.09,0.2000000029802322,172.0,24.35739517211914,-0.0636141896247863,-79.78279374451989,40.459010311776375,271.2408016633988,0.0212698653340339,-0.0044795330613851,-0.9997100830078124,0.0103615391999483,-0.0068763393703587,-0.0350569305300551,0.0159585319961797,0.0075024864636361,0.0044863088987767,0.0071586030535399,0.0590450831595808,-0.4309199861437081,-9.800421091318134,14936.0
1.2,0.2000000029802322,173.0,24.351133346557607,-0.0795177370309829,-79.78279389144835,40.459010483012,271.2523540978134,0.0212897397577762,-0.0044797365553677,-0.9997093081474304,0.0103966379538178,-0.0022259267855869,-0.0362736587569055,0.0186558196480543,-0.0041008060798048,-0.0058016604743897,-0.0009605740779079,0.0567678941600024,-0.4480313145741821,-9.802517902851106,14936.0
1.39,0.2000000029802322,172.0,24.35739517211914,-0.0795177370309829,-79.78279401715456,40.45901065123044,271.2660637696088,0.0213255137205123,-0.0044577801600098,-0.9997082948684692,0.0104331597685813,-9.88147673945605e-05,-0.0306204855640913,0.0203740582455556,0.0059269950725138,0.0033195135183632,0.0035294429399073,0.0577879500668495,-0.4343685277551413,-9.800960789322852,14936.0
1.49,0.3000000119209289,169.0,24.35238647460937,-0.0715659633278846,-79.78279401651369,40.45901068052888,271.2681004789472,0.0213298425078392,-0.0044671343639492,-0.9997079372406006,0.010449412278831,-0.004036857053685,-0.0340287080698473,0.0207696425052404,-0.0045979912392795,-0.00434674276039,-0.0033938898704946,0.0573322326969355,-0.4429981044307351,-9.800986517071726,14936.0
1.69,0.3000000119209289,168.0,24.36115074157715,-0.0715659633278846,-79.78279409861159,40.45901091889922,271.2802436810732,0.0213308930397033,-0.0044816951267421,-0.9997076392173768,0.0104761738330125,-0.0082943746807698,-0.0445340083015639,0.0193535068853265,0.0053745503537356,0.0022798459976911,0.0070902183651924,0.0578600215679034,-0.4343168895319104,-9.80080876171589,14936.0
1.79,0.3000000119209289,162.0,24.351133346557607,-0.0795177370309829,-79.78279408885216,40.45901096091103,271.2821940530837,0.0213393997400999,-0.0044958340004086,-0.999707281589508,0.0104851862415671,-0.0120171602836622,-0.048052867806795,0.0197220116327984,-0.0063566891476511,-0.0021481532603502,-0.0041686221957206,0.0577456673886627,-0.4433589507266879,-9.802128478288653,14936.0
1.99,0.3000000119209289,168.0,24.35739517211914,-0.0715659633278846,-79.78279410027706,40.45901114680903,271.2957024884224,0.021316647529602,-0.0044900602661073,-0.999707281589508,0.0105304354801774,-0.0222516889365486,-0.0449826451189427,0.0205723680065329,0.0019649062305688,0.0039848005399107,0.0065073063597083,0.0561785907531157,-0.4336563003435731,-9.801333256959916,14936.0
2.11,0.3000000119209289,162.0,24.359899520874023,-0.055662415921688,-79.7827940756297,40.45901118764368,271.29783465087417,0.0213267672806978,-0.0044678058475255,-0.9997069835662842,0.0105455061420798,-0.0259145807412243,-0.0481873362284861,0.0209060906718676,-0.0068317567929625,-0.0021493639796972,-0.0028491325210779,0.0562410508934408,-0.4451756806299091,-9.801575331687928,14936.0
2.29,0.3000000119209289,161.0,24.354890823364247,-0.0715659633278846,-79.78279419286385,40.45901130522714,271.3138769131899,0.0213675666600465,-0.0044196359813213,-0.9997059106826782,0.0105927297845482,-0.0171134910175733,-0.0332375284107596,0.0255247680867827,0.0039195101708173,0.0038417349569499,0.0032537172082811,0.0595824103010818,-0.4320566117763521,-9.80069064795971,14936.0
2.39,0.3000000119209289,155.0,24.35739517211914,-0.0715659633278846,-79.782794284568,40.459011455468136,271.3245601218939,0.0213966481387615,-0.0043888241052627,-0.9997052550315856,0.0106093576177954,-0.0138706352321448,-0.0298154438583205,0.0248546741576777,-0.0043347086757421,-0.0037315106019377,-0.0007595143979415,0.0564612533804029,-0.4477255782857537,-9.803811306953431,14936.0
2.59,0.3000000119209289,152.0,24.35739517211914,-0.0795177370309829,-79.78279425280344,40.45901151487393,271.3296434518695,0.0214199442416429,-0.0043992213904857,-0.999704360961914,0.0106383999809622,-0.01726549314739,-0.036343289721206,0.0252021288660828,0.0083015114068984,0.0032154954969882,0.0062638749368488,0.0571776103880256,-0.4321473167091608,-9.801165441870689,14936.0
2.69,0.3000000119209289,151.0,24.356142044067383,-0.0795177370309829,-79.7827943662232,40.45901162767692,271.3401275289059,0.0214413534849882,-0.0043698525987565,-0.9997037053108216,0.0106723634526133,-0.0103348678655315,-0.0250715014758492,0.0246780016005714,-0.003413758939132,-0.0015855968231335,-0.0034292787313461,0.0584552178718149,-0.4491579268500209,-9.80285060942173,14936.0
2.89,0.3000000119209289,151.0,24.359899520874023,-0.0795177370309829,-79.78279443417244,40.459011797503,271.35254761695865,0.0214575063437223,-0.0043518180027604,-0.9997026920318604,0.0107321664690971,-0.007428281439967,-0.0254164786525333,0.0245696478472867,0.0052943774498999,0.0028958681505173,0.0068696606904268,0.0587088819639757,-0.4300085879489779,-9.801232100129129,14936.0
2.99,0.3000000119209289,150.0,24.35238647460937,-0.0715659633278846,-79.78279442506515,40.45901182219434,271.35504485785964,0.0214581489562988,-0.0043619042262434,-0.9997023940086364,0.0107586774975061,-0.0108432498311085,-0.0286445723588546,0.0250315799392128,-0.0019801575690507,0.0010560119990259,0.0020099258981645,0.0590770007343962,-0.4502934926748276,-9.803575079441073,14936.0
3.2,0.3000000119209289,146.0,24.36365509033203,-0.0159035474061965,-79.78279454579746,40.45901200608375,271.3652243328095,0.0215315762907266,-0.0043846284970641,-0.9997003078460692,0.010791596956551,0.00019875130165,-0.0302809311468818,0.0216847268613478,0.0053183292038738,0.0036604218184947,0.0039721364155411,0.0581300578638911,-0.4312124200165272,-9.800691232681276,14936.0
3.29,0.3000000119209289,144.0,24.354890823364247,-0.0954212844371795,-79.78279454577638,40.45901203500807,271.3673892480135,0.0215045921504497,-0.0043799947015941,-0.9997007250785828,0.0108078168705105,-0.0029054108568017,-0.0335528122047568,0.0220483772537614,-0.0006735456408932,-1.4417215425055474e-05,0.0014056413201615,0.0583345368225127,-0.4542694896832109,-9.803040059208868,14936.0
3.49,0.3000000119209289,143.0,24.359899520874023,-0.0795177370309829,-79.7827946001476,40.45901220179494,271.3795010608435,0.021522544324398,-0.0043565826490521,-0.9997002482414246,0.0108302710577845,-0.0053022657032242,-0.0299646010581417,0.0225982686821062,0.0072024976834654,0.0029530508909374,0.0070023885928094,0.0566003120457753,-0.4306223994120956,-9.800719299316407,14936.0
3.6,0.3000000119209289,141.0,24.359899520874023,-0.0795177370309829,-79.78279459457356,40.45901222933225,271.38178281605246,0.0215157642960548,-0.0043443054892122,-0.999700129032135,0.0108548505231738,-0.0079982705347923,-0.0330693650781435,0.0228942348182056,-0.0010462932987138,0.0013325047912076,0.0047363764606416,0.0573432373395189,-0.4565934655442834,-9.802642448544503,14936.0
3.79,0.3000000119209289,141.0,24.362401962280277,-0.0954212844371795,-79.78279461313112,40.45901240991839,271.3911122244597,0.0215256605297327,-0.00437722960487,-0.9996992349624634,0.0109066581353545,-0.013226623077589,-0.0331056160588874,0.0191240886636926,0.0062154158949851,-0.0018095626728609,0.0079720178619027,0.0559485941799357,-0.4318742882832885,-9.800352678894996,14936.0
3.89,0.3000000119209289,139.0,24.35739517211914,-0.0715659633278846,-79.78279471446263,40.45901253680403,271.4005184781552,0.0215660538524389,-0.00434633763507,-0.9996982216835022,0.0109307095408439,-0.0031211976198851,-0.0255201574457044,0.0205988124532609,-0.0001261215802514,-0.0003721941611729,0.0047632385976612,0.0587000426184386,-0.4567589052021504,-9.804115946888924,14936.0
4.09,0.3000000119209289,139.0,24.356142044067383,-0.0318070948123931,-79.7827947070278,40.4590125877788,271.4046823245287,0.0216121543198824,-0.0043455008417367,-0.9996970891952516,0.010947004891932,-0.0066041460169586,-0.03189338799892,0.021113147791807,0.0053473045118153,0.002816638443619,0.0046391836367547,0.0558213487174362,-0.4322932047396898,-9.80062282025814,14936.0
4.19,0.3000000119209289,142.0,24.34863090515137,-0.0159035474061965,-79.78279475756354,40.45901274074174,271.4124395263196,0.0216118469834327,-0.0043362625874578,-0.9996967911720276,0.0109794288873672,-0.007079760651206,-0.0299957135839276,0.0185482326986812,-0.0019789431244134,-0.0022135979961603,0.0022537517361342,0.0577665620483458,-0.4552472537755967,-9.803145309090617,14936.0
4.39,0.3000000119209289,143.0,24.358646392822266,-0.0238553211092948,-79.78279482791892,40.459012919843175,271.4220806819201,0.0216641705483198,-0.0043271197937428,-0.9996953010559082,0.011011553928256,-0.0029925616384771,-0.0299975136049831,0.0166930781957087,0.0089618898928165,0.0032274955883622,0.0051028369925916,0.0564041745057329,-0.4305275648832321,-9.800188956856726,14936.0
4.5,0.3000000119209289,143.0,24.34988212585449,-0.0238553211092948,-79.78279482398085,40.45901294852164,271.423761279583,0.0216663684695959,-0.0043388032354414,-0.9996950626373292,0.0110272243618965,-0.0061229806674564,-0.0332421105096169,0.0170901387757307,-0.0026360393967479,-0.0022988931741565,-0.0008153554517775,0.0568334926106035,-0.4507697849348188,-9.802362951636317,14936.0
4.69,0.3000000119209289,145.0,24.34737777709961,0.0,-79.78279489835442,40.459013106206,271.4330269110203,0.0217179488390684,-0.0043045240454375,-0.9996939301490784,0.0110373720526695,-0.0018001988520541,-0.0287302740015723,0.0157023230438462,0.0041596749797463,0.000986773520708,0.0064524393528699,0.0585335248801857,-0.4294138164818287,-9.799993659853936,14936.0
4.8,0.3000000119209289,148.0,24.34863090515137,-0.0159035474061965,-79.78279489585553,40.45901313364561,271.4346092355252,0.0217231567949056,-0.0043209274299442,-0.9996935129165648,0.0110579868778586,-0.0052509680494729,-0.0317980594792969,0.0162734951610891,-0.0062387189827859,-0.0044005154632031,-0.0071430252864956,0.0578315986180678,-0.4395211672782898,-9.802726063728333,14936.0
4.99,0.3000000119209289,150.0,24.339866638183597,0.0636141896247863,-79.78279497753462,40.45901331372611,271.44377809882167,0.0217595752328634,-0.0043070116080343,-0.9996923208236694,0.0111018363386392,-0.0008728178336381,-0.033569329257806,0.0158281701113804,0.0041397432796657,0.0009760669199749,0.0058860653080046,0.0580803291220218,-0.4390970979630947,-9.800758475661278,14936.0
5.09,0.3000000119209289,153.0,24.34988212585449,0.0,-79.78279497822751,40.4590133442296,271.4453542095423,0.0217885989695787,-0.0042977826669812,-0.999691605567932,0.0111110564321279,-0.0032674170580635,-0.0365784005668001,0.0162867575952138,-0.00286630471237,0.0006067823269404,-0.0087320283055305,0.0566690670792013,-0.4289010156691074,-9.800250937342645,14936.0
5.29,0.3000000119209289,156.0,24.34988212585449,-0.0159035474061965,-79.78279505022728,40.45901347813618,271.45418371379384,0.0217880140990018,-0.0042633987031877,-0.9996910095214844,0.011178377084434,-0.0018269645734616,-0.0283588709470064,0.015365513148299,-0.0048194541595876,-0.0005488108727149,-0.0030129530932754,0.0583061869628727,-0.4535383319109679,-9.803330665826795,14936.0
5.4,0.3000000119209289,157.0,24.34863090515137,-0.0318070948123931,-79.7827950950808,40.45901362173037,271.4610693317652,0.0217972416430711,-0.0042349644936621,-0.9996908903121948,0.0111866779625415,-0.0021536432664474,-0.0265124627228713,0.0142903245380568,0.0006023201858624,-0.0009007682674564,-0.0016734544187784,0.0581752047641202,-0.4352677198871969,-9.800495350956917,14936.0
5.59,0.3000000119209289,158.0,24.34988212585449,0.0079517737030982,-79.78279508959812,40.45901367433476,271.4639612299204,0.0217961762100458,-0.0042477096430957,-0.9996904134750366,0.0112252449616789,-0.0063228906874611,-0.0325483663373515,0.0150229774038318,-0.0126040251925587,-0.000468755926704,-0.0075186998583376,0.0600412705494091,-0.4583115236833692,-9.802750037312508,14936.0
5.69,0.3000000119209289,159.0,24.342369079589844,-0.0159035474061965,-79.78279518732886,40.45901381856126,271.4727665197849,0.0218117982149124,-0.004250225611031,-0.9996899962425232,0.0112331099808216,0.0028687644521895,-0.0299050651482956,0.0179798793117884,0.0076076127588748,-0.000956775387749,0.0067701884545385,0.058619300792925,-0.4532940644770861,-9.802976909279824,14936.0
5.9,0.3000000119209289,158.0,24.342369079589844,-0.0079517737030982,-79.78279524945394,40.459013970318615,271.48024046540263,0.0218236520886421,-0.0042216614820063,-0.9996894001960754,0.0112711759284138,0.0018487133804553,-0.0269028296651762,0.0165739261548032,-0.0001692244695732,-0.0018142308108508,-0.0012114167911931,0.0576703525101766,-0.4484452608972788,-9.802772256731988,14936.0
5.99,0.3000000119209289,160.0,24.351133346557607,0.0,-79.78279525226202,40.45901399595577,271.48188001036647,0.0218018498271703,-0.004229836165905,-0.9996896386146544,0.0112952031195163,0.000878939417315,-0.02992470617241,0.0167420090644726,0.006447120103985,0.0011752702994272,0.0061771175824105,0.0593761452008038,-0.4595902732014656,-9.803105548024178,14936.0
6.19,0.3000000119209289,161.0,24.35238647460937,-0.0318070948123931,-79.78279530800636,40.459014167325584,271.48929497718814,0.0218258928507566,-0.0042522670701146,-0.999688446521759,0.0113373026251792,0.0009492647923307,-0.0310322144097846,0.015851970301561,0.0083013614639639,0.0029871608130633,0.0014577793190255,0.0564416332310065,-0.4346511675417423,-9.800424014925955,14936.0
6.29,0.2000000029802322,164.0,24.351133346557607,0.0159035474061965,-79.7827953091265,40.45901419675338,271.49087444067004,0.0218297727406024,-0.0042693675495684,-0.9996878504753112,0.0113750444725155,-0.0011960977747401,-0.0341432332766269,0.0162282488414775,-0.0006117185694165,0.0011579794809222,0.0021524827461689,0.0578740457491949,-0.4565952927991748,-9.803093853592872,14936.0
6.49,0.2000000029802322,165.0,24.3536376953125,0.0079517737030982,-79.78279534574126,40.45901433794714,271.49980035543445,0.0218313913792371,-0.0042514996603131,-0.9996876716613772,0.0114011671394109,-0.0031325627279648,-0.0287156467423649,0.0186627433275087,0.0072057154029607,-0.0003406052710488,0.0077021238394081,0.0567240080656483,-0.4296869179978967,-9.800800575613977,14936.0
6.59,0.2000000029802322,169.0,24.354890823364247,0.0397588685154914,-79.78279534231197,40.45901436436796,271.50168463706973,0.021823089569807,-0.0042411000467836,-0.9996874928474426,0.0114296805113554,-0.0057579059866284,-0.0317344880529701,0.0191056056147956,-0.0041150990873575,-0.0020231476519256,0.0002890281321015,0.0572392939450219,-0.4515773219615221,-9.80313244521618,14936.0
6.79,0.2000000029802322,167.0,24.34988212585449,-0.0079517737030982,-79.78279537693943,40.45901450225093,271.50772693872455,0.0218472760170698,-0.004255617968738,-0.9996864199638368,0.0114718144759535,-0.0061174318732073,-0.027839627377707,0.0166022715641842,0.0076920855790376,0.002617608057335,0.0062629980966448,0.0577861456526443,-0.4300867579132319,-9.800419921875,14936.0
6.9,0.2000000029802322,170.0,24.34111785888672,0.0,-79.78279542313092,40.459014629722745,271.5126215231419,0.0218472052365541,-0.0042176009155809,-0.9996864795684814,0.011486530303955,-0.0049140653715059,-0.0252752519203847,0.0158559424820144,-0.0084043741226196,-0.0014957168605178,-0.0016213291091844,0.0571769754169508,-0.4464257422462106,-9.803194425702095,14936.0
7.09,0.2000000029802322,172.0,24.354890823364247,0.0159035474061965,-79.78279541338836,40.4590146801296,271.51584735631945,0.0218469761312007,-0.0042057870887219,-0.999686360359192,0.0115040661767125,-0.0066062479899515,-0.0314447677798186,0.0164219932550716,0.0083133038133382,0.000725959194824,0.0091527616605162,0.0572203407436609,-0.4312256858870388,-9.800157381892204,14936.0
7.19,0.2000000029802322,176.0,24.351133346557607,-0.0715659633278846,-79.78279548472615,40.459014814762966,271.5203067970276,0.0218794606626033,-0.0042135310359299,-0.9996854066848756,0.0115192737430334,-0.0009740503819636,-0.0293551576954002,0.0154490407110215,-0.0078527787700295,-0.0006329604657366,-0.0083252256736159,0.0574271722929552,-0.4402224677056074,-9.802110351920126,14936.0
7.39,0.2000000029802322,178.0,24.3536376953125,-0.0795177370309829,-79.78279555585453,40.45901493208234,271.5279982995987,0.0219128374010324,-0.0041763777844607,-0.9996843338012696,0.011559241451323,0.0062453855104176,-0.0194783541948327,0.0184512505358011,0.0042186160571873,0.0029700126033276,0.0065776663832366,0.0581495044240728,-0.4368290361016989,-9.801865938305856,14936.0
7.5,0.2000000029802322,180.0,24.354890823364247,-0.0715659633278846,-79.78279556348471,40.4590149510453,271.52982220172885,0.0219210628420114,-0.0041983118280768,-0.9996839761734008,0.0115728098899126,0.0036629801650988,-0.022562395779787,0.0189160413294842,-0.0086303856223821,-0.0033684857189655,-0.0093190697953104,0.055976089797914,-0.4320244155451656,-9.800705850720409,14936.0
7.69,0.2000000029802322,180.0,24.3536376953125,-0.0795177370309829,-79.78279558678987,40.45901510908393,271.53520438194283,0.0219075009226799,-0.0041727935895323,-0.9996837973594666,0.0116218654438853,0.000368560343055,-0.0249612391910616,0.0166349841216089,-0.0034736737143248,-0.0007122316746972,0.0026478159707039,0.0586295151477679,-0.447032171599567,-9.801701046824457,14936.0
7.79,0.2000000029802322,183.0,24.33861351013184,-0.1908425688743592,-79.78279558815599,40.459015133008776,271.5368627023697,0.0219062566757202,-0.0041753915138542,-0.9996838569641112,0.0116158863529562,-0.001464371029917,-0.0278919980369048,0.0170597339358296,-0.0040182345546782,-0.0033878437243402,-0.0049853869713842,0.0588349534152075,-0.4286177911609411,-9.800980669856072,14936.0
7.99,0.2000000029802322,181.0,24.35739517211914,-0.0874695107340812,-79.78279562387688,40.45901529476184,271.54185083627704,0.0218889396637678,-0.0041784201748669,-0.9996836185455322,0.0116673242300748,-0.0015619493669354,-0.0301624281371081,0.016277373514368,-0.0087644914165139,-0.0048194164410233,-0.0015024532331153,0.0595708483457565,-0.4550181891024113,-9.802902649641036,14936.0
8.09,0.3000000119209289,182.0,24.356142044067383,-0.0636141896247863,-79.78279562508978,40.4590153222766,271.5434647214413,0.0218971464782953,-0.0041680815629661,-0.9996833205223083,0.0116820661351084,-0.0021087967893334,-0.0331214744312199,0.0165194085965883,-0.0020611868239939,0.0007939868373796,-0.0034949951805174,0.0578242850303649,-0.4338624877855181,-9.80110872387886,14936.0
8.29,0.3000000119209289,183.0,24.34737777709961,-0.0874695107340812,-79.7827957007915,40.45901551431845,271.54576629519465,0.0219124797731637,-0.0042197131551802,-0.9996820092201232,0.0117420759052038,0.0032297350913959,-0.0404033951360263,0.0132920612138391,-0.0063862237147986,-0.003541515674442,-0.0071303904987871,0.0588573921052739,-0.4600014786422253,-9.804016544222833,14936.0
8.4,0.3000000119209289,184.0,24.354890823364247,-0.0715659633278846,-79.78279570914408,40.4590155811236,271.5480696868897,0.0219186823815107,-0.0041628959588706,-0.9996818900108336,0.0117639303207397,0.0020778481870319,-0.0227174865785796,0.0123944390705732,0.0058549400418996,0.0034334268420934,0.0026454527396708,0.0567679626820609,-0.4457484519481659,-9.80191330075264,14936.0
8.59,0.3000000119209289,186.0,24.354890823364247,-0.0636141896247863,-79.78279571279684,40.45901562657072,271.5505903077126,0.0219074375927448,-0.0041694422252476,-0.9996816515922546,0.0118021089583635,-0.0018300808415965,-0.0285694329522308,0.0132325981229957,-0.0039391238242387,-0.0015981709584593,-0.0087808268144726,0.0578614422585815,-0.4550229765102268,-9.804067999720576,14936.0
8.69,0.3000000119209289,188.0,24.35739517211914,-0.0715659633278846,-79.78279574830692,40.45901571949931,271.5520905566216,0.0219122637063264,-0.0041468725539743,-0.999681293964386,0.0118332654237747,0.0031225858161395,-0.020791244151221,0.0122710123345992,0.0060392240993678,0.0040325103327631,0.007621806114912,0.0587518498627469,-0.4557598718628288,-9.8031926715374,14936.0
8.89,0.3000000119209289,187.0,24.35739517211914,-0.0636141896247863,-79.78279578301591,40.45901586996092,271.55372640609744,0.0219449438154697,-0.0041590118780732,-0.9996801018714904,0.0118658561259508,0.0038904271653694,-0.0245790206477955,0.0104602931602938,-0.0012719741789624,-0.0025491148699074,-0.0051913443021476,0.0568208891199901,-0.447504663169384,-9.80405981361866,14936.0
8.99,0.3000000119209289,187.0,24.35238647460937,-0.0715659633278846,-79.78279578817953,40.459015893412335,271.55475250005725,0.0219367891550064,-0.0041602216660976,-0.9996801018714904,0.0118850050494074,0.0033740951207403,-0.0275737880895955,0.0107419357481176,0.0060062040574848,0.0017152825603261,0.0073765483684837,0.0596215226920321,-0.4573297761753202,-9.804051042795182,14936.0
9.19,0.3000000119209289,187.0,24.35739517211914,-0.0715659633278846,-79.78279579409225,40.4590160291944,271.55731040358546,0.0219521578401327,-0.0041444962844252,-0.9996792078018188,0.0119331236928701,-0.0005367822045941,-0.0252431526366402,0.0113340159756718,0.0022908772807568,0.0016544276149943,-0.0023486646823585,0.0575628276960924,-0.4392206569388509,-9.802672269344331,14936.0
9.3,0.3000000119209289,188.0,24.35739517211914,-0.0795177370309829,-79.7827957935624,40.4590160534091,271.55845388889315,0.0219340994954109,-0.0041466602124273,-0.9996792674064636,0.0119643863290548,-0.0018795390080698,-0.0283141372258666,0.011775174953798,0.0057933256030082,0.0023108138702809,0.0069313831627368,0.0576680364646017,-0.4591363099962473,-9.804350420236588,14936.0
9.49,0.3000000119209289,187.0,24.354890823364247,-0.0715659633278846,-79.78279583628105,40.45901617878106,271.5608976197243,0.0219644419848918,-0.0041300877928733,-0.9996782541275024,0.0119937164708971,0.0032233010954299,-0.0255169829447063,0.0122994697422048,0.0055013438686728,-8.32848745631054e-05,0.006384854670614,0.0564670320739969,-0.4352220019698143,-9.80258631527424,14936.0
9.59,0.3000000119209289,188.0,24.354890823364247,-0.0636141896247863,-79.78279584041867,40.45901620212405,271.5621183228493,0.0219809859991073,-0.0041268845088779,-0.9996777176856996,0.0120123950764536,0.0017448025784222,-0.0282973998991127,0.0126316760434054,0.0008835549815557,0.0016200914978981,0.0045727835968136,0.0581283219717443,-0.4573478294536472,-9.80298217177391,14936.0
9.8,0.3000000119209289,185.0,24.3536376953125,-0.0795177370309829,-79.78279585781532,40.45901631595872,271.56406816959384,0.0219788756221532,-0.0041056894697248,-0.9996773600578308,0.012051491998136,0.0020815166213886,-0.0242514720315646,0.0125850271869904,0.006212587468326,0.0019410792738199,0.003258534008637,0.0576326242648065,-0.4349455383047462,-9.801435583233834,14936.0
9.9,0.3000000119209289,183.0,24.35739517211914,-0.0795177370309829,-79.78279585529113,40.459016414453615,271.5646538150311,0.0219813622534275,-0.0040907603688538,-0.9996771216392516,0.0120741771534085,0.0031186877727952,-0.0206997560364438,0.0122100400088915,0.0024799425154924,0.0046317772939801,0.0069707776419818,0.0593479415215551,-0.4571273894235492,-9.803071634173394,14936.0
10.09,0.3000000119209289,182.0,24.358646392822266,-0.0636141896247863,-79.78279586238725,40.459016455914686,271.5671261560917,0.0219945535063743,-0.0040905219502747,-0.999676525592804,0.0121007477864623,0.0007091209307464,-0.0263546233469043,0.0130084789517394,0.0062975189648568,-0.0022330600768327,-0.0007743527530692,0.0573848941829055,-0.4353477536514402,-9.802062404751778,14936.0
10.2,0.3000000119209289,176.0,24.351133346557607,-0.0636141896247863,-79.78279585731076,40.45901656969245,271.5672456932068,0.0219849776476621,-0.0040902043692767,-0.9996764659881592,0.0121230678632855,0.0019936977980619,-0.0258992251771708,0.0126856722953509,0.00264787604101,0.0042233150452375,0.0035960196983069,0.059137674733065,-0.4579432221874595,-9.804387842416764,14936.0
10.4,0.3000000119209289,174.0,24.34988212585449,-0.0715659633278846,-79.78279585251819,40.45901668564305,271.5681756448746,0.0219764597713947,-0.0040930951945483,-0.9996762871742249,0.0121516929939389,0.0021728963133614,-0.023343787660108,0.0125523797573782,0.0011557446559891,0.0007034625159576,-0.000933579285629,0.056413612277247,-0.4378943622484803,-9.802094564437867,14936.0
10.5,0.3000000119209289,170.0,24.356142044067383,-0.0636141896247863,-79.78279585536279,40.45901670801128,271.5694234085083,0.0219624955207109,-0.0040839654393494,-0.9996760487556458,0.0121984323486685,0.0011033796053426,-0.0262486824412848,0.0128462142888649,0.0022841617465019,0.0054881535470485,0.005460521671921,0.0589265765435993,-0.4568988729268313,-9.804011281728744,14936.0
10.69,0.3000000119209289,169.0,24.35739517211914,-0.0715659633278846,-79.78279584792658,40.45901683661781,271.56822642803195,0.0219650249928236,-0.0040750945918262,-0.999675750732422,0.0122227985411882,0.0013116453197478,-0.0271359187093006,0.0091115829797152,0.001711665187031,0.0015301504172384,-0.0045607034116983,0.0583550660312175,-0.4393949405103922,-9.802194551825524,14936.0
10.79,0.3000000119209289,167.0,24.354890823364247,-0.0715659633278846,-79.7827958496637,40.45901686238592,271.5691343259812,0.0219624489545822,-0.0040685231797397,-0.9996753931045532,0.0122567033395171,0.0002935625854715,-0.03006812519046,0.0094548301395613,0.0016024146461859,0.0019368418725207,0.0052105165086686,0.058997743553482,-0.4572372074425221,-9.80382124722004,14936.0
10.99,0.3000000119209289,165.0,24.34863090515137,-0.0715659633278846,-79.7827958004252,40.45901696221737,271.56804257750514,0.0219777897000312,-0.0040324516594409,-0.9996747374534608,0.0122945653274655,-0.0054502972041568,-0.0260241505251061,0.0076028969224651,0.0051603210158646,-0.0013090561842545,-0.0008016005158424,0.0580667297774925,-0.437880000025034,-9.802627830505374,14936.0
11.09,0.3000000119209289,162.0,24.35238647460937,-0.0636141896247863,-79.78279579466005,40.459016985852365,271.5688320708275,0.0219749063253402,-0.0040158368647098,-0.9996745586395264,0.012321813032031,-0.0064555578887931,-0.0285118063703339,0.0079632017749962,0.003639226546511,-0.000256719358731,0.0036881980486214,0.060079816491343,-0.4579161788150669,-9.804715286493302,14936.0
11.29,0.3000000119209289,162.0,24.33360481262207,-0.1669872552156448,-79.78279579835217,40.45901712829465,271.5693185043335,0.0219745114445686,-0.0040390705689787,-0.9996739029884338,0.0123660257086157,-0.0016633678832864,-0.033053277994728,0.0095720691826233,0.0007005593506619,0.0003592023567762,0.0001526467240182,0.0563961254479363,-0.4384867217391729,-9.802793891429902,14936.0
11.4,0.3000000119209289,165.0,24.339866638183597,-0.1749390214681625,-79.78279577703994,40.459017198415935,271.568335146904,0.0219746083021164,-0.003986052237451,-0.9996737241744996,0.0124028278514742,0.0014353348241344,-0.0239311853284533,0.0100940102765272,0.0018537259893491,0.0033178641460835,0.0035475650802254,0.0591471536178141,-0.4569790163263679,-9.803449949026108,14936.0
11.59,0.3000000119209289,163.0,24.339866638183597,-0.1590354740619659,-79.78279577959643,40.45901724531342,271.5704015207291,0.0219616293907165,-0.0039819357916712,-0.9996735453605652,0.0124361393973231,-0.0014603326233574,-0.0291827025934851,0.0109225563993445,0.0051632826216518,0.0026373020373284,-0.002175910398364,0.056124376100488,-0.4392176236957312,-9.803194425702095,14936.0
11.7,0.3000000119209289,165.0,24.336109161376957,-0.1908425688743592,-79.78279575379942,40.45901731650181,271.5688127589226,0.0219552218914032,-0.003957993350923,-0.9996734261512756,0.012463791295886,0.0011396084353703,-0.0228262743062736,0.0109060932261651,0.0026747481897473,0.0023437973577529,0.0079601490870118,0.0585305236140266,-0.4583908996358514,-9.804526421427727,14936.0
11.89,0.3000000119209289,165.0,24.33861351013184,-0.2067461162805557,-79.78279570892343,40.45901743278199,271.56647059440616,0.0219638515263795,-0.0039314585737884,-0.9996731877326964,0.0124747911468148,-0.0021191848306474,-0.0246790759488857,0.0086043207530696,-0.0009265089756809,0.0018170746043324,-0.0002877142396755,0.0555812291521579,-0.4405909153819084,-9.803723598718644,14936.0
12.0,0.3000000119209289,167.0,24.328598022460927,-0.2146978974342346,-79.78279570681103,40.4590174562506,271.5673432660103,0.0219414941966533,-0.0039136060513556,-0.9996732473373412,0.0125191882252693,-0.0028723425091769,-0.0272701112244936,0.0089371651096403,0.0058329440653324,0.0024947959464043,0.0080112451687455,0.0603293921006843,-0.4563250783458352,-9.804325277209283,14936.0
12.19,0.3000000119209289,169.0,24.33736228942871,-0.198794350028038,-79.78279567436344,40.45901755804017,271.56600692987445,0.0219555646181106,-0.0039024697616696,-0.9996724724769592,0.0125555275008082,-0.0021982425607753,-0.0237687497698469,0.0098704991281119,-0.0020607823971658,0.0003942240437027,-0.000194371692487,0.0572176912240684,-0.4429111270979047,-9.803265761733057,14936.0
12.3,0.3000000119209289,170.0,24.33861351013184,-0.1590354740619659,-79.78279567220184,40.45901758066282,271.5669934165478,0.0219269655644893,-0.0038831522688269,-0.9996730089187622,0.0125743495300412,-0.0028170600311282,-0.0262133299688248,0.0100502040342915,0.0075258654542267,0.0058553698472678,0.0051239626482129,0.0597558853123337,-0.4546822665631771,-9.803141800761225,14936.0
12.49,0.2000000029802322,169.0,24.33736228942871,-0.1749390214681625,-79.78279559579178,40.45901764525862,271.56522685408595,0.0219545122236013,-0.0038267946802079,-0.9996720552444458,0.0126211671158671,-0.0092759558718006,-0.0172793608405047,0.0103390436182055,-0.0013919313205406,0.0003903452306985,-0.0075309900566935,0.0590056327264756,-0.4493097351863981,-9.803786163926125,14936.0
12.59,0.3000000119209289,170.0,24.33861351013184,-0.1749390214681625,-79.78279558656641,40.45901766098915,271.5663032245636,0.021953534334898,-0.0038234014064073,-0.9996715784072876,0.0126551128923892,-0.0094706554550465,-0.0193279816323898,0.0105574008456521,0.0029176163952797,0.0045617911964654,0.0070423609577119,0.058793817339465,-0.4523780616000295,-9.803090929985046,14936.0
12.79,0.3000000119209289,173.0,24.33110237121582,-0.2226496636867523,-79.78279555212166,40.45901774861019,271.564154894352,0.0219567436724901,-0.0038007015828043,-0.9996711015701294,0.0126957055181264,-0.007346664589156,-0.0187634102789185,0.0108977954179495,-0.0047923275269567,0.0003706726420205,-0.0089146140962839,0.0583550203498452,-0.4534443379193545,-9.803908955454826,14936.0
12.89,0.3000000119209289,175.0,24.33110237121582,-0.1590354740619659,-79.7827954785647,40.45901779835791,271.5610421609879,0.0219161678105592,-0.003771498799324,-0.9996719360351562,0.0127102360129356,-0.0087226221711303,-0.0116213048175359,0.0103456261203596,0.0057368464767932,0.0035518240183591,0.0043362583965063,0.0573567955708131,-0.4452909804135561,-9.801659531593325,14936.0
13.09,0.3000000119209289,179.0,24.34111785888672,-0.1351801604032516,-79.78279545599173,40.45901782309971,271.5632492017746,0.0219132620841264,-0.003771485062316,-0.9996715784072876,0.0127422362565994,-0.0129385613211805,-0.0160274083306472,0.0109894784415791,-0.0078085111454129,-0.0042371759191155,-0.0073005887679755,0.0582822499237954,-0.4567613171786071,-9.80269448876381,14936.0
13.2,0.3000000119209289,178.0,24.33736228942871,-0.1749390214681625,-79.78279543466124,40.459017939917736,271.5591033709049,0.0219485610723495,-0.003788647474721,-0.9996705651283264,0.0127538088709115,-0.0048150399979491,-0.0240547978968884,0.0108716557954512,0.0024451289791613,0.0014179170830175,0.0021631552372127,0.0563420889526605,-0.4402383282780648,-9.801040896177293,14936.0
13.4,0.3000000119209289,178.0,24.33861351013184,-0.1431319266557693,-79.78279538029003,40.45901802974167,271.5540321183205,0.0219448506832122,-0.0037850267253816,-0.9996702671051024,0.0127884335815906,-0.0040383085894872,-0.0211158681403915,0.0076683809397997,-0.0058204336091876,-0.0045879227109253,-0.0071680108085274,0.0596387080242857,-0.457981557995081,-9.803119581341743,14936.0
13.49,0.4000000059604645,180.0,24.339866638183597,-0.1431319266557693,-79.78279537671175,40.45901804995315,271.55481401205066,0.0219468269497156,-0.0037834530230611,-0.9996700286865234,0.0127996047958731,-0.004624466355015,-0.0234534182356672,0.0080434469834406,3.626110992627218e-05,-0.0013425054494291,-0.0008274457650259,0.0581672927504405,-0.4340061465650797,-9.802024982571602,14936.0
13.69,0.3000000119209289,178.0,24.29103660583496,0.7633702754974365,-79.78279532004262,40.45901813125749,271.5511894834042,0.0219563692808151,-0.0037957055028527,-0.9996700286865234,0.0127832433208823,-0.0035234971667835,-0.0204576687662879,0.00866567721447,-0.0112589308992028,-0.0078802900388836,0.0064257085323333,0.0604841331811621,-0.4565696746855975,-9.80414108991623,14936.0
13.79,0.3000000119209289,172.0,24.31732940673828,0.1351801604032516,-79.78279531619592,40.459018151215616,271.55207482099536,0.0219628904014825,-0.0037939818575978,-0.9996684789657592,0.012894868850708,-0.006007255061818,-0.0232658718803085,0.0091687832006711,-0.0070463363081216,-0.0071571548469364,-0.0152381993830204,0.0491147522488608,-0.4286720606312156,-9.798135414719582,14936.0
13.99,0.3000000119209289,173.0,24.324840545654297,0.1590354740619659,-79.78279525621274,40.45901825127466,271.54850190997126,0.021943898871541,-0.0037607341073453,-0.9996681809425354,0.0129575543105602,-0.0048259055880873,-0.0250647951875054,0.0095048671095311,-0.0052410918287932,-0.0002500227128621,0.0003329399914946,0.0564771322254091,-0.4533570316806436,-9.804180850982666,14936.0
14.1,0.4000000059604645,171.0,24.32358932495117,0.1510837078094482,-79.78279525311513,40.45901827426231,271.54945609092715,0.0219590980559587,-0.0037638251669704,-0.9996687173843384,0.0128900092095136,-0.0058252877833164,-0.0273622216992459,0.0097714388348281,-0.0039694691076874,0.0024810533504933,-0.0078537939116358,0.0545296393940225,-0.4318880657851696,-9.803412526845932,14936.0
14.29,0.3000000119209289,170.0,24.336109161376957,0.2146978974342346,-79.78279522242292,40.45901840840185,271.54306969165805,0.021916588768363,-0.0037701521068811,-0.9996684789657592,0.012976654805243,-0.0018218287633995,-0.0339968227530136,0.0074038901846645,-0.0041536302305758,0.002146250102669,-0.0035129457246512,0.0546950607793405,-0.4467401031777263,-9.801827346682549,14936.0
14.4,0.3000000119209289,166.0,24.33110237121582,0.2544567584991455,-79.78279514151683,40.45901847675074,271.5400905621052,0.0219219792634248,-0.0037604968529194,-0.9996678233146667,0.0130212707445025,-0.0037445730028264,-0.0288124698348189,0.0114256112899879,-0.0023882680106908,-0.001176037127152,-0.0030387877486646,0.0622619242826476,-0.4279511354863644,-9.80245826125145,14936.0
14.59,0.3000000119209289,163.0,24.32609367370605,0.326022744178772,-79.7827951339527,40.45901853205079,271.5424360942841,0.0219025500118732,-0.0037944940850138,-0.999667763710022,0.0130496257916092,-0.0063736342863098,-0.033178773201773,0.0121342695889039,-0.0031419571023434,-0.004379229620099,0.0045287599787116,0.0571069321688264,-0.4576936922594905,-9.804119455218316,14936.0
14.7,0.4000000059604645,161.0,24.324840545654297,0.3737333714962005,-79.78279505470222,40.45901855360634,271.5391257417202,0.0219102744013071,-0.0037796988617628,-0.9996672868728638,0.0130763249471783,-0.0074181284319984,-0.0203877440930946,0.0149623812150397,0.0002376323536736,0.0001763901673257,-0.0071547199040651,0.0631478779530152,-0.433004591614008,-9.802238405942918,14936.0
14.89,0.3000000119209289,159.0,24.229684829711918,1.5028852224349976,-79.7827949802373,40.45901864946784,271.5370358538628,0.0220333896577358,-0.0036335512995719,-0.9996647238731384,0.0131130265071988,-0.0046881541894809,-0.0226423535653476,0.0163806796503169,-0.00099650665652,-0.0011420644586905,-0.0048636766150593,0.0582873022835701,-0.4708024919405579,-9.806899806261065,14936.0
14.99,0.3000000119209289,160.0,24.32108497619629,0.3339745104312897,-79.78279497330001,40.45901867198851,271.5386841607094,0.022034503519535,-0.0036618052981793,-0.9996654391288756,0.0130446990951895,-0.0062623420853209,-0.0236821097373692,0.0161046905041323,0.0116542419418692,0.010966713540256,0.002617864171043,0.0571093852585181,-0.4554700326919556,-9.798909586071966,14936.0
15.19,0.4000000059604645,158.0,23.54606628417969,9.971524238586426,-79.78279491986623,40.4590187211608,271.5329697144032,0.0220013819634914,-0.0036354432813823,-0.9996657967567444,0.0130810849368572,-0.0047838448395588,-0.0172893265968333,0.0151239381463778,-0.0164014436304569,-0.005944603588432,-0.0096132969483733,0.0441829410474747,-0.4375518250465393,-9.804779021143911,14936.0
15.3,0.4000000059604645,162.0,24.25723075866699,1.1371036767959597,-79.78279491798855,40.45901873781244,271.53448230147364,0.022082420065999,-0.0035439422354102,-0.9996630549430848,0.0131794232875108,-0.0108596154878044,-0.0197495966458148,0.0139854140832655,-0.0036777160130441,-0.0742997601628303,-0.0462614372372627,0.0579907844960689,-0.3835241005942225,-9.821281617879867,14936.0
15.49,0.4000000059604645,162.0,24.328598022460927,0.1749390214681625,-79.78279483887862,40.45901881211946,271.5291600835324,0.0220247842371463,-0.0036010877229273,-0.9996638298034668,0.0132025349885225,-0.0029323889195492,-0.0229061670029448,0.0122159588349031,0.0216032471507787,0.0512762404978275,0.0185858868062496,0.0306296798866242,-0.3595960881561041,-9.78478037416935,14936.0
15.59,0.4000000059604645,160.0,24.29604339599609,0.7315632104873657,-79.78279483297152,40.45901883009477,271.53044599413874,0.0219366252422332,-0.0036765779368579,-0.999664545059204,0.0132705615833401,-0.0081751913738817,-0.0225945707530449,0.0126488077351471,-0.0079860528931021,0.0043391403742134,-0.0190119408071041,0.0463027166062966,-0.4205871155485511,-9.806437291502952,14936.0
15.79,0.4000000059604645,159.0,24.090707778930664,3.92022442817688,-79.78279468419488,40.45901887508778,271.52583021044734,0.0218953937292099,-0.0037520893383771,-0.9996647238731384,0.0133064566180109,-0.01708629419508,-0.0161374296141472,0.012245894068209,-0.0252658426761627,-0.0025588914286345,-0.011912421323359,0.0599255276564508,-0.4371834139153361,-9.795876050591469,14936.0
15.9,0.5,160.0,24.044382095336918,4.826726913452148,-79.78279467142636,40.45901889040609,271.5271189820767,0.0219280328601598,-0.0037043895572423,-0.999663472175598,0.0133551321923732,-0.0131242759040216,-0.0199905904581088,0.0111379466616381,0.0087379999458789,0.0361345931887626,0.0267693381756544,0.0961483068577945,-0.4600830107554794,-9.825488104820252,14936.0
16.09,0.5,159.0,23.901647567749023,7.2281622886657715,-79.78279460794361,40.45901895429873,271.5221632432938,0.0220135133713483,-0.0035789511166512,-0.999662697315216,0.0133103718981146,-0.006484949904683,-0.015885587831518,0.0131857436182536,-0.0270745251327753,-0.0609693340957164,0.0272668655961752,0.0526516187936067,-0.4662797071784735,-9.76815557062626,14936.0
16.19,0.6000000238418579,160.0,23.83403778076172,8.532253265380861,-79.78279452646409,40.45901900081618,271.5164054942132,0.0221753437072038,-0.0035566466394811,-0.999659776687622,0.0132708279415965,-0.0039535441362281,-0.0172166145237737,0.012775895023958,0.0520171299576759,0.0343931168317794,-0.0287888906896114,0.0385605188598856,-0.3757917791604996,-9.802716123461725,14936.0
16.39,0.6000000238418579,158.0,23.6612548828125,11.490313529968262,-79.78279443083309,40.459019086359895,271.5120888364316,0.0226599518209695,-0.0034906882792711,-0.9996493458747864,0.0132545614615082,-0.0041544721532728,-0.0260787656677427,0.0112435998672827,0.0631474107503891,-0.0580085888504982,0.0059102014638483,0.0519177201390266,-0.3815861140564084,-9.782911604046824,14936.0
16.49,0.6000000238418579,153.0,23.56860160827637,12.754645347595217,-79.78279442967644,40.45901910933468,271.5134572398663,0.0231715738773346,-0.0036081965081393,-0.9996378421783448,0.0132071580737829,-0.014202367262301,-0.0268709454391592,0.0136996932891816,-0.027154179289937,-0.0333593785762786,0.053576648235321,0.0162981383339501,-0.4948822030797601,-9.818821109533312,14936.0
16.69,0.699999988079071,151.0,23.354501724243164,16.293184280395508,-79.78279435145052,40.45901910416129,271.5151353490353,0.0250072628259658,-0.005179151892662,-0.9995872974395752,0.0131559437140822,0.0059359131127322,-0.01636070924763,0.0235294280582593,0.0153989363461732,0.0668558627367019,-0.0153528871014714,-0.044084022603929,-0.4060159637778998,-9.81064085483551,14936.0
16.8,0.8000000119209291,146.0,23.25183296203613,17.859683990478516,-79.78279435758951,40.45901911629335,271.51764780402186,0.0261229071766138,-0.0063722091726958,-0.9995552897453308,0.0128997713327407,0.0105194907798284,-0.0169449239487578,0.0289595265720871,0.0589920841157436,0.0064694322645664,0.0448562987148761,-0.0401197839807719,-0.6199107668548822,-9.82946538090706,14936.0
16.99,0.8000000119209291,143.0,23.02145576477051,21.65267944335937,-79.78279425359472,40.45901918793478,271.5131362092495,0.0262349899858236,-0.0089950179681181,-0.9995498061180116,0.0114537058398127,0.0135375408775526,-0.0067023133910911,0.0330713897495068,-0.0348902270197868,-0.0349554605782032,0.0294592976570129,0.0485539631545543,-0.4353890861570836,-9.823115304708482,14936.0
17.09,0.8999999761581421,140.0,22.90501594543457,23.8076114654541,-79.7827942682395,40.45901919350428,271.5178260815144,0.0224260874092578,-0.0084781423211097,-0.9996346235275269,0.0124853011220693,0.0111899041405952,-0.0078162379981358,0.0724414961163752,-0.0810067504644393,-0.0808339864015579,-0.0041498653590679,-0.0188439223822206,-0.3309583993256092,-10.121703372001653,14936.0
17.29,0.8999999761581421,139.0,23.015195846557607,19.951000213623047,-79.78279427075525,40.4590192555236,271.5377287578583,0.0056490106508135,-0.0048109977506101,-0.9995847940444946,0.0278436187654733,0.0523105188052805,-0.0174116171582827,0.2424667702279523,-0.2027152627706528,-0.1009329333901405,-0.184907615184784,0.0090973379393108,-0.2333151421509683,-10.481391334533694,14936.0
17.4,1.0,137.0,23.165441513061523,18.137996673583984,-79.78279456070227,40.45901950352357,271.54396811246875,-0.0021583642810583,0.0004208752943668,-0.9994959831237792,0.0316704660654068,0.0997925686748617,0.0008195535192238,0.274388398896766,0.0993945002555847,0.0170844234526157,-0.0686295852065086,0.1772744771651923,0.1198875455930829,-10.492264816761017,14936.0
17.59,1.0,130.0,23.09407615661621,19.887386322021484,-79.78279476075953,40.45901946224714,271.5935024034977,-0.0073070111684501,0.0049560847692191,-0.9994375109672546,0.0323535986244678,0.0789692221127318,0.0132995939423916,0.19734309053717,-0.0978061556816101,0.1334477066993713,0.0495255552232265,0.0228744058473967,0.2778226676210761,-9.806539033055309,14936.0
17.7,1.0,132.0,23.07404327392578,19.10811233520508,-79.78279494340049,40.45901943453055,271.5740005683899,-0.0071319681592285,-0.0016313252272084,-0.99952632188797,0.0298940762877464,0.0972583439414478,0.0422467094722552,0.0827686610898204,-0.0543993636965751,0.1821138709783554,0.0509141758084297,-0.0485044673876836,0.3417437347769737,-9.244459056258204,14936.0
17.89,1.0,133.0,22.92254447937012,22.14569091796875,-79.78279502036429,40.45901935925091,271.59059164047244,-0.0072809290140867,-0.0076525597833096,-0.9996368885040284,0.0247919335961341,0.0877983166367992,0.0630116877649398,0.0078867282997223,0.0246814917773008,0.0313304029405117,0.0354231595993042,0.1427290540002286,0.0321799320727586,-9.28841725409031,14936.0
18.01,1.100000023841858,139.0,22.94132423400879,22.09798049926757,-79.78279510389577,40.45901929505124,271.5904104423523,-0.0070954775437712,-0.006858529523015,-0.9996839761734008,0.023124186322093,0.0697028856676127,0.0637044010248283,-0.0103815081600635,0.0046064602211117,-0.0120530109852552,-0.0025754855014383,0.0962544520944357,0.0964272555895149,-9.593878138661385,14936.0
18.2,1.100000023841858,139.0,22.83865737915039,22.82954216003418,-79.78279532703895,40.45901903958267,271.61386197924617,-0.0073559014126658,-0.0057462863624095,-0.9997246265411376,0.0215335637331008,0.0697149271301826,0.0735425988858587,0.0361951703509479,0.0263761915266513,-0.0166731569916009,0.090827964246273,0.1218164598103612,0.0201776037504896,-9.7100956428051,14936.0
18.29,1.2000000476837158,139.0,22.833648681640625,22.630748748779297,-79.7827953891359,40.45901897790689,271.6189977836609,-0.0092379273846745,-0.0073481588624417,-0.9997027516365052,0.021335182711482,0.0635845870882431,0.0650838701309761,0.0606995640179053,0.0686752051115036,0.0931108221411705,-0.0471216812729835,0.1400192532688379,-0.0922658470273018,-10.013607065677643,14936.0
18.49,1.2000000476837158,137.0,22.912527084350582,22.32858085632324,-79.78279536626223,40.4590189290631,271.6389023971558,-0.0125084072351455,-0.0081138396635651,-0.9996405839920044,0.0222831908613443,0.0264578268843737,0.0525811740223156,0.1039174882741455,-0.0326246842741966,0.0227191653102636,0.0020641423761844,0.1226492403633892,0.0996336676552891,-9.96119028568268,14936.0
18.6,1.2000000476837158,140.0,22.79233169555664,22.972675323486328,-79.7827953917627,40.45901888674962,271.6489120435715,-0.0122319441288709,-0.009467733092606,-0.9996100068092346,0.0232510734349489,0.007164699709662,0.0478883406618615,0.0990917194808025,-0.0584341399371624,-0.0398531518876552,0.0026320095639675,0.1113085747417062,0.3056916303187609,-9.829377672672273,14936.0
18.79,1.2999999523162842,139.0,22.791078567504893,23.48158836364746,-79.7827952744358,40.45901872765034,271.6702213895321,-0.0107334749773144,-0.0097531313076615,-0.9995959401130676,0.0244459398090839,0.0167536057148031,0.0428631104887056,0.1465300841654521,0.1090599000453949,0.0596770085394382,-0.0223724506795406,0.0878229955304414,0.3254257638752461,-10.042038567066196,14936.0
18.9,1.2999999523162842,136.0,22.74350166320801,24.252910614013672,-79.78279520512466,40.45901866979312,271.6757422995568,-0.0101663805544376,-0.0107987644150853,-0.9995806813240052,0.0248732306063175,0.0133342355797059,0.0462788211142154,0.1409269416603843,0.0400487706065177,0.0315366685390472,-0.0042249630205333,0.0437383242510259,0.2201913041621446,-9.907420459985731,14936.0
19.09,1.2999999523162842,133.0,22.66587448120117,25.04808807373047,-79.78279519539895,40.45901861687204,271.70804554343226,-0.0137796644121408,-0.0135326478630304,-0.9994956851005554,0.0252104587852954,-0.0128424676741892,0.0152207741624241,0.2012180541163294,-0.0970810949802398,0.0090774865821003,-0.0340149961411953,0.0223294293601065,0.3061988580040634,-9.93453984618187,14936.0
19.19,1.5,125.0,22.886234283447266,21.27099609375,-79.78279509234157,40.45901859061439,271.7156558942795,-0.0168348047882318,-0.0141858030110597,-0.9994509816169742,0.0247628130018711,-0.0070311009932422,0.0024400011727242,0.2381329348598957,0.0375828221440315,0.0263797249644994,0.0457290969789028,0.1113091868720948,-0.0516979424888268,-10.291367350816726,14936.0
19.4,1.5,122.0,22.69467163085937,25.86712074279785,-79.78279472929573,40.45901872082157,271.735092253685,-0.0124562066048383,-0.0076063531450927,-0.9996317625045776,0.0228761527687311,-0.0325640936328093,-0.0275265309929406,0.0503257792148546,0.1594356000423431,-0.0711065605282783,0.0560797378420829,0.0853238224703818,0.2953390436433256,-9.710689719915392,14936.0
19.5,1.7000000476837158,118.0,22.446765899658203,28.01409912109375,-79.78279468088363,40.45901874719194,271.73575416326526,-0.00676143867895,-0.000238643202465,-0.9997513890266418,0.021247373893857,-0.0487502596589195,-0.0268024785888045,-0.0128251537420305,0.0794629007577896,-0.1888809353113174,0.0254779029637575,0.0738311931956559,0.3091939297690988,-9.172465213537215,14936.0
19.7,1.7000000476837158,116.0,22.362876892089844,29.61240577697754,-79.78279458086342,40.45901868392839,271.76358166456225,9.268165013054386e-05,0.0015466618351638,-0.9997994899749756,0.0199686326086521,-0.0276336621301665,-0.0245500799437797,0.1936525548276476,-0.0226967744529247,0.1703016012907028,0.0954932644963264,0.0474727307539433,0.0632223157491535,-10.808140761852265,14936.0
19.8,1.7999999523162842,117.0,22.133752822875977,33.548534393310554,-79.78279454987748,40.459018700568215,271.79021760940554,-0.0031206253916025,-0.002602218883112,-0.9997768998146056,0.020728200674057,-0.0230332243209143,-0.0097254914858367,0.3386166524560771,-0.0952970534563064,0.0506821647286415,-0.0754336565732956,0.1439879138488322,0.0734322943165898,-11.136589390039443,14936.0
19.99,1.8999999761581416,117.0,21.81447982788086,37.65960311889648,-79.78279452056825,40.45901856083447,271.8639340114594,-0.0096003748476505,-0.0008000343805179,-0.9996801614761353,0.0233857538551092,-0.0127788657560226,0.0249996544446663,0.7253459550415123,-0.070284716784954,-0.1440015882253646,-0.0044600651599466,0.2439065693132579,0.1717302569188177,-11.54933147907257,14936.0
20.09,2.0999999046325684,118.0,22.028579711914062,33.36564254760742,-79.78279449234823,40.45901854360741,271.9517015528679,-0.011866832152009,0.0035222340375185,-0.9995959401130676,0.0255883820354938,-0.004496455271188,0.0302683029966085,1.0244322364167684,0.0001096832929761,-0.0848026797175407,-0.0214068684726953,0.0962270067259669,0.1772189286164939,-12.55609805345535,14936.0
20.29,2.0999999046325684,116.0,22.04986572265625,36.156715393066406,-79.78279425697059,40.45901851141311,272.1945537042618,-0.0097836488857865,-0.0004753782704938,-0.9994741082191468,0.0309115443378686,-0.0104401036558313,0.0151528488918927,1.4771948501121297,-0.0013644127175211,0.0807088539004325,0.0368208326399326,0.0348383503966033,0.1954933961480856,-12.34293195962906,14937.0
20.39,2.200000047683716,116.0,21.87332534790039,36.72924423217773,-79.78279404652143,40.4590184598726,272.3337918233872,-0.0074775381945073,-0.0061845667660236,-0.9994172453880308,0.0327273346483707,-0.0065735693661174,0.0220734622509941,1.6693954231459958,0.0181464049965143,0.1870430707931518,-0.0364276953041553,-0.0248728905105963,0.0809443949908018,-11.992801855802536,14937.0
20.59,2.299999952316284,117.0,21.83325958251953,38.10490036010742,-79.78279399378756,40.45901844962138,272.5125029993057,-0.0062456191517412,-0.0100104520097374,-0.9993716478347778,0.0334238372743129,-0.0123873326820159,0.0299727363795165,1.9070138804428247,0.032959509640932,0.0856860354542732,-0.0123602245002985,0.0610664153611287,0.2297513190284371,-12.113809983730311,14937.0
20.69,2.400000095367432,119.0,21.908382415771484,34.88443374633789,-79.7827936756093,40.459018431129714,272.8865198802948,-0.0090469717979431,-0.005881399847567,-0.999360203742981,0.0341014601290226,-0.0316207766915076,0.0158364264133675,2.325776122604024,-0.0282478015869855,-0.0777073502540588,-0.0132162841036915,0.0186027110321447,0.1931540896184742,-12.17721952915192,14937.0
20.89,2.5,124.0,22.03734397888184,31.52878379821777,-79.78279323598755,40.45901843359992,273.2872352313996,-0.0124684181064367,-0.0017391140572726,-0.9993641972541808,0.0333583056926727,-0.0424326221655514,-0.0315904570273284,2.7170257723099795,0.0254354551434516,0.0101894913241267,0.0350621417164802,-0.015353084388189,0.1717079644091427,-12.175976411104203,14938.0
20.99,2.5999999046325684,126.0,22.163801193237305,30.20878982543945,-79.78279310292666,40.45901848826228,273.5686626148224,-0.0108972378075122,-0.0017811725847423,-0.999421238899231,0.0321770012378692,-0.0384787063355167,-0.0492009224995255,2.9002153707682323,0.1266766786575317,0.0251266043633222,0.1160870343446731,-0.045203700447455,-0.0082124669174663,-11.720777689218526,14938.0
21.09,2.5999999046325684,124.0,22.258956909179688,29.039878845214844,-79.78279295607265,40.45901855003576,273.8649408531189,-0.0069787320680916,-0.0021768712904304,-0.9994916319847108,0.0310332030057907,-0.052482012096656,-0.0558694914693473,3.0196019307621014,0.2201453149318695,0.0659647211432457,0.1919477581977844,-0.01650252136169,-0.0044154603750212,-11.12787469983101,14938.0
21.3,2.700000047683716,126.0,22.14627265930176,29.604454040527344,-79.78279240682166,40.459018554778645,274.3468858909607,-0.0008708449895493,-0.0024205308873206,-0.9995773434638976,0.0289601292461156,-0.1315636363159086,-0.0563237299601941,3.0739614474030064,0.0592657513916492,0.0437049083411693,0.028978306800127,0.0734950696583837,-0.0702900417381897,-10.72674751996994,14939.0
21.49,2.799999952316284,128.0,22.52188873291016,25.60471153259277,-79.7827920128728,40.45901844539701,274.54702016830447,-0.0025867542717605,-0.0027599043678492,-0.9995985627174376,0.0280802082270383,-0.1544282988051327,-0.0550155944304741,3.074399306762154,-0.0288589932024478,0.0742121264338493,0.0244910717010498,0.0200822804309427,-0.090699935266748,-10.645465375185012,14939.0
21.6,2.900000095367432,136.0,22.41796875,26.312419891357425,-79.78279163493765,40.459018609762,275.165634841919,-0.00778354331851,-0.0034629004076123,-0.9995364546775818,0.0292292311787605,-0.1378360606525644,-0.0635685219720497,3.0830137319034265,-0.0847878903150558,-0.0759028941392898,-0.1537106037139892,-0.0456542740948498,0.2482431385293603,-9.708680616617205,14940.0
21.79,2.900000095367432,137.0,22.29401588439941,28.18903923034668,-79.78279089487091,40.45901857512753,275.7616984558106,-0.0085112275555729,-0.0028304664883762,-0.9994117617607116,0.0331006981432437,-0.1559925687350967,-0.0959374243914859,2.99758180468656,-0.0132165076211094,0.0327822901308536,-0.1180303990840912,-0.0489222829230129,-0.0506419399101287,-9.585955161452294,14940.0
21.9,3.0,142.0,22.499351501464844,25.74784469604492,-79.78279051776146,40.45901838473787,276.07517883300784,-0.007042673882097,-0.0052792760543525,-0.9993867874145508,0.0338916145265102,-0.1720395017543394,-0.0768416031719352,2.9808982543372,-0.0977773293852806,0.0350615121424198,-0.1307840943336486,-0.1116927368100732,0.3403055024519563,-9.607961742281914,14941.0
22.09,3.0,144.0,22.41796875,25.7876033782959,-79.78279027464474,40.45901848876255,276.3714463424683,-0.0047096363268792,-0.0068285027518868,-0.9993887543678284,0.0339623168110847,-0.1517280426188876,-0.0814983318736927,2.950183838627185,0.274881511926651,0.1062045469880104,0.1067530736327171,0.003755091028288,-0.2679180142097175,-9.588706861138345,14941.0
22.19,3.0,149.0,22.382909774780277,25.67627716064453,-79.78278962942261,40.459018322923605,276.92536994934085,0.0017942782724276,-0.0042532072402536,-0.9994569420814514,0.0326287746429443,-0.2219138782837743,-0.0686916881049519,2.8683976602010888,-0.0443452857434749,-0.1263845860958099,-0.0743111371994018,-0.1072182920761406,0.0476290250010788,-9.621934248805047,14941.0
22.39,3.0,150.0,22.39668273925781,26.185192108154297,-79.78278883718491,40.45901788345183,277.4735834312439,0.0056527233682572,0.0036842809058725,-0.9994968175888062,0.030994864180684,-0.2377776231515439,-0.0513018881896285,2.775665004397573,-0.0887880697846412,-0.106591947376728,-0.0979349017143249,-0.008291989621357,-0.004828886501491,-9.567776167988775,14942.0
22.5,2.900000095367432,149.0,22.34660148620605,26.19314384460449,-79.78278860693013,40.45901794630206,277.7499167633057,0.0082937581464648,0.0049781654961407,-0.9994954466819764,0.0302568599581718,-0.2091704134234446,-0.0777412384517742,2.7500672999743867,0.14386548101902,0.0666681826114654,0.0896122306585311,-0.0639049873128533,-0.1586560837179422,-9.60559946715832,14942.0
22.59,2.900000095367432,150.0,22.34409713745117,25.86712074279785,-79.78278838566602,40.45901800776529,278.0248734664917,0.0059157088398933,0.0048525859601795,-0.9995056390762328,0.0304969474673271,-0.2491102600098255,-0.0819488329928341,2.7415456258326727,-0.2297696620225906,-0.0384668335318565,-0.1217434182763099,-0.1007197879627347,0.1396861721109599,-9.685881738066676,14943.0
22.79,3.0,155.0,22.369138717651367,26.65434646606445,-79.78278716300453,40.45901725757751,278.6890437316895,-0.0024837022647261,0.0031162782106548,-0.9994593858718872,0.0326373390853405,-0.2183321077004774,0.0115328179298808,2.7567846173840733,-0.100508265197277,-0.0147741753607988,-0.0614713616669178,-0.0225408770120702,0.0011932157166302,-9.694896975159644,14943.0
22.89,2.900000095367432,155.0,22.30904006958008,26.98832130432129,-79.78278711874412,40.459017344439545,279.12580797195443,-0.0036382947582751,0.0018978796433657,-0.9994231462478638,0.0337122417986393,-0.1630002739249113,0.0078519453248039,2.8099257045004657,-0.0706143453717231,0.0304651446640491,-0.1401023268699646,-0.0219553263299167,0.2857770005241036,-9.684355030059814,14944.0
23.09,3.0,152.0,22.376649856567383,26.59868431091309,-79.7827867174792,40.45901732261239,279.6849114608765,0.0013413269771263,0.0048404256813228,-0.9994083046913148,0.0340282022953033,-0.1423929689764226,0.0089649820382063,2.7752820527317112,0.1266794204711914,0.0044517046771943,0.0429598726332187,-0.0055476828943938,-0.0311001797486096,-9.651437544822691,14944.0
23.29,2.900000095367432,152.0,22.296518325805664,28.18903923034668,-79.78278676948364,40.4590174194841,280.0694033813477,0.0027888687327504,0.0064400420524179,-0.9994197487831116,0.0333304442465305,-0.1497029952202016,-0.0177065301898911,2.7837913877548384,-0.1711898297071457,-0.0876085385680198,-0.0471410043537616,-0.151856183046475,0.2295043107122183,-9.472953625917436,14945.0
23.4,2.900000095367432,152.0,22.392927169799805,25.97049331665039,-79.7827864032998,40.4590174330536,280.73106357574466,-0.0070842895656824,0.0073141516186296,-0.9993548393249512,0.0344437323510646,-0.1309442518595756,-0.0235907953026623,2.7928115558276345,-0.3323721289634705,-0.0403920747339725,-0.1745255440473556,-0.0856226060539484,0.4392678366601467,-9.550997582674029,14945.0
23.49,2.900000095367432,149.0,22.355365753173828,26.10567283630371,-79.78278626431772,40.4590174274186,281.00870296478274,-0.0096254916861653,0.0074713737703859,-0.9993227124214172,0.0347222723066806,-0.0643339139951689,-0.0250593241618692,2.7624109543024544,0.1716417223215103,0.0579417720437049,0.0903893038630485,-0.0624900113744661,-0.1431262626685202,-9.583775319457054,14946.0
23.69,2.900000095367432,147.0,22.31404685974121,26.04205894470215,-79.78278603297305,40.45901743801228,281.64816066741946,-0.0038181643467396,0.0067275199107825,-0.9993937015533448,0.0339497625827789,-0.1014947276261917,-0.0338194363823575,2.7684725557885232,-0.0766303092241287,-0.0358067601919174,-0.0666943415999412,-0.1732494914531707,0.1273858779016882,-9.553797229528428,14946.0
23.8,3.0,149.0,22.220144271850582,28.92855262756348,-79.78278587171074,40.45901744103642,281.9232918930054,-0.0016143980901688,0.0077003985643386,-0.9993956685066224,0.0338607355952262,-0.1190237536312927,-0.0305138429590692,2.7354238028696365,0.0803553313016891,0.0749319791793823,0.0245365854352712,-0.0992724650446325,-0.1350775520503521,-9.502206661105156,14946.0
24.0,3.0,155.0,22.223899841308597,29.09554100036621,-79.78278571466582,40.45901752322965,282.5643298339844,0.0033749425783753,0.008535536006093,-0.9994279146194458,0.0325536206364631,-0.1414608566935387,-0.0591892301138231,2.7603177088204296,0.0064711174927651,-0.0248455442488193,-0.0810550525784492,-0.1609338483028114,0.0348495514690876,-9.699409271478654,14947.0
24.19,3.0,162.0,22.356616973876957,25.93073463439941,-79.7827855712875,40.45901776575029,283.1981198501587,0.0086733670905232,0.0108774052932858,-0.999445140361786,0.0302657335996627,-0.1608285223887033,-0.0690257551859543,2.79532173646685,0.0715136304497718,-0.0354496277868747,0.0605500005185604,-0.0977807855140418,0.0050131468847393,-9.85355824828148,14948.0
24.3,3.0999999046325684,167.0,22.35787010192871,26.72591209411621,-79.78278543418067,40.45901778365581,283.47700569152835,0.007753680460155,0.0134653253480792,-0.999419093132019,0.0303331762552261,-0.1705537928713428,-0.0686978418727677,2.776060109398626,-0.0978208780288696,-0.0005685802898369,-0.0433357916772365,-0.2297121061384678,-0.1736878681741654,-9.604773255586624,14948.0
24.39,3.0999999046325684,168.0,22.34660148620605,24.39604187011719,-79.78278538362277,40.45901783807341,283.82791206359866,0.0072034443728625,0.0146080190315842,-0.9993740916252136,0.0314030833542346,-0.1332935497156482,-0.086106573165379,2.798707446768728,-0.0210792850703001,-0.0315799564123153,-0.086791880428791,-0.1221818194258958,-0.1867238517478108,-9.598775766491892,14948.0
24.59,3.2000000476837163,177.0,22.23892402648925,28.57072448730469,-79.78278517989165,40.45901783728328,284.3806416702272,0.0072054965421557,0.0156424865126609,-0.999247908592224,0.0347439758479595,-0.1410372828464868,-0.0584298738392603,2.728624334888751,-0.1362638622522354,-0.0123433163389563,-0.1044912785291671,-0.1261570581234991,-0.0586445762962102,-9.48270619690418,14949.0
24.79,3.2000000476837163,180.0,22.297771453857425,26.33627510070801,-79.7827849794173,40.45901779259516,285.0059230041504,0.0057542598806321,0.0094057228416204,-0.9992002844810486,0.0384357646107673,-0.105046989975367,-0.0227194890628872,2.7646031226994885,0.0049367258325219,0.0009260685183107,-0.0171970482915639,-0.2062969858758152,0.0349019936844706,-9.64769591152668,14950.0
24.9,3.2000000476837163,187.0,22.16254997253418,27.9345817565918,-79.78278517204748,40.45901796419472,285.3734290313721,0.0053950808942317,0.008174592629075,-0.9991576671600342,0.0398517400026321,-0.0679696586222091,-0.0208844834270716,2.8162885313216366,0.1534075438976287,0.0163144078105688,0.1381889134645462,-0.036472928111907,-0.2198708767443895,-9.697766788601877,14950.0
24.99,3.2000000476837163,192.0,22.07991409301757,30.009994506835927,-79.78278511872158,40.45901793401651,285.6553580474854,0.0068028648383915,0.0071764294989407,-0.9991317391395568,0.0404719524085521,-0.0633990560556806,-0.0015616232690282,2.8216016157517028,0.1377726942300796,0.0945643410086631,0.0403754189610481,0.0459409612510353,-0.2077642532810568,-9.846055101156235,14950.0
25.2,3.299999952316284,200.0,22.186338424682614,27.505186080932607,-79.78278506345896,40.45901782975994,286.27365467071536,0.0092953601852059,0.0049003046005964,-0.999155342578888,0.0397275350987911,-0.0720739879242102,0.0381496234265237,2.9155881279972617,-0.0194696076214313,-0.0676833018660545,-0.0223519280552864,-0.0147454901598393,-0.0638922604825347,-9.995852580070496,14951.0
25.29,3.299999952316284,204.0,22.31404685974121,25.42977333068848,-79.78278503655268,40.45901776790596,286.5660721969605,0.0084992786869406,0.0047113918699324,-0.9991986751556396,0.0388291925191879,-0.0761230948492149,0.0469101432011501,2.930910882552288,-0.0031955342274159,0.0211337450891733,0.0329214259982109,0.0861434833332896,0.0122045643255114,-10.0092871427536,14951.0
25.49,3.299999952316284,206.0,22.1062068939209,30.11336708068848,-79.78278489621857,40.4590176494948,287.1672236633301,0.008995690383017,0.0032761746551841,-0.999342918395996,0.0349612571299076,-0.0578789420161341,0.0657705582030583,2.9268873471961534,0.018214451149106,0.0662623792886734,0.0491647869348526,0.025935763567686,0.0562099966965615,-9.717646737098695,14952.0
25.69,3.299999952316284,209.0,22.22640419006348,25.596759796142567,-79.78278488043573,40.45901756976856,287.46027824401864,0.0111903790384531,0.0023357367608696,-0.9993810653686525,0.0332717038691043,-0.0395985809803146,0.0741805560276474,2.9390670681160542,0.2078994214534759,0.0671191066503524,0.1455942243337631,0.0528206261666491,-0.4739763240516186,-9.96626683831215,14952.0
25.8,3.299999952316284,210.0,22.22139549255371,26.79747772216797,-79.78278509104756,40.459017446107815,288.07526847839364,0.0117594627663493,-0.002358216792345,-0.9994072318077089,0.0322715044021606,-0.047428127142162,0.083750751807264,2.9886373527068235,-0.1137705892324447,-0.0489376932382583,-0.0486633852124214,0.0606653511850163,-0.1336020619980991,-9.9113462805748,14953.0
25.89,3.299999952316284,211.0,22.129995346069336,28.849035263061523,-79.7827849792838,40.45901726796398,288.3686511230469,0.0088966032490134,-0.0043968381360173,-0.9994044303894044,0.0330495201051235,-0.0391194942509424,0.0960734429095996,2.9781623091563487,-0.1042957752943039,0.0010493523441255,-0.0762347877025604,0.0253498565708287,-0.194039906244725,-9.84091890692711,14953.0
26.1,3.2000000476837163,211.0,22.240177154541016,26.73386383056641,-79.78278504193132,40.45901712823775,288.9661109161377,0.0020752584096044,-0.0046704174019396,-0.99936044216156,0.0353938117623329,0.0068152799836165,0.1068058601952202,2.9960204164822675,0.0350883640348911,-0.0254754703491926,-0.0242084674537181,0.0403305349918082,-0.0993866227939724,-9.895342451334,14953.0
26.19,3.0999999046325684,211.0,22.10996437072754,28.73771095275879,-79.78278494189533,40.45901690839988,289.26255294799813,0.0023560896515846,-0.0012903668684884,-0.99937242269516,0.0353224091231823,0.019311830210213,0.1119383260495194,3.004302129013668,0.0690919086337089,-0.0973548293113708,0.04721400141716,-0.0384056727122515,-0.1847839648649096,-9.950115659236909,14954.0
26.39,3.2000000476837163,210.0,22.26897430419922,25.723989486694336,-79.78278492215614,40.45901660738328,289.86214897155764,0.0025279857218265,0.0009675936889834,-0.999472439289093,0.0323672853410244,0.0069414394932884,0.0917751077271428,3.046094900929641,0.0564807392656803,0.0698094442486763,0.0026990710757672,-0.0173662567546125,-0.213832676410675,-10.01229495048523,14954.0
26.59,3.299999952316284,212.0,22.10245132446289,27.71193122863769,-79.78278495016991,40.45901643856633,290.47134468078616,0.0074331127107143,-0.0047901910729706,-0.999499261379242,0.0303821545094251,0.0058467489592991,0.108761099467632,3.039754929132485,0.1973885595798492,0.0658740177750587,0.096731998026371,-0.0329985468322411,0.2600284940376878,-9.839579894542696,14955.0
26.7,3.0999999046325684,207.0,22.11622428894043,28.62638664245605,-79.7827847209724,40.45901622657601,290.7591502380372,0.0072510153986513,-0.0067704594694077,-0.9994804263114928,0.0306687075644731,-0.0458339428395784,0.1188338287197885,3.0224697262320284,-0.1237297430634498,-0.0630038678646087,-0.0823630020022392,0.0910094174277037,-0.1217104516178369,-9.827529952526094,14955.0
26.79,3.0999999046325684,208.0,22.08617401123047,28.13337707519531,-79.7827847266462,40.459016155061256,291.0616595458985,0.0061249868012964,-0.0087720053270459,-0.9994468092918396,0.0314899384975433,-0.0413227633193826,0.1190192490000092,3.0276588324435023,-0.1000422090291976,-0.0589052103459835,-0.0735369399189949,0.0232330799940973,0.1053421032987535,-9.833768931627274,14956.0
27.0,3.0,206.0,22.09243392944336,28.67409706115723,-79.78278473773344,40.4590158364934,291.66211196899417,0.0045549790374934,-0.007326599676162,-0.9993619918823242,0.0346589870750904,-0.0161726918800443,0.1261791515358619,3.0278133788837174,-0.0609721876680851,-0.0317393764853477,-0.0126367649063467,0.0121070345956832,0.0334474896546453,-9.767519978284836,14956.0
27.19,3.0,208.0,22.217639923095703,26.9724178314209,-79.78278491691944,40.45901571123737,292.273113937378,0.0026925520505756,-0.003784263972193,-0.999312460422516,0.0367861166596412,0.0211010408722237,0.0551800721156103,3.045098809988469,-0.0288957748562097,-0.0203731767833232,-0.0696796923875808,0.0204776161629706,-0.4007748851180077,-9.858826589584352,14957.0
27.29,3.0,207.0,22.098695755004886,27.393861770629893,-79.78278496335794,40.45901569585036,292.57716629028323,0.0027101577725261,-0.0039130421355366,-0.999294638633728,0.0372521169483661,0.0024138352715673,0.0341895599074853,3.0389287172045747,-0.1899797320365905,-0.0376183949410915,-0.0460355468094348,-0.0489234477980062,0.1668646425940096,-9.730442199110986,14957.0
27.39,3.0,207.0,22.15503692626953,26.82928466796875,-79.78278501937177,40.45901561405221,292.8987796020508,0.0031999945640563,-0.0051122470758855,-0.9992809295654296,0.0374340452253818,0.0325781683660737,0.032841566381282,3.0514848513889894,0.0877300947904586,-0.0200459361076354,-0.0299650635570287,0.0638358805328607,-0.0895761278271675,-9.776859151124953,14957.0
27.59,3.0,205.0,22.05111694335937,29.34999847412109,-79.78278510967505,40.459015613362986,293.5089862060547,0.0040053753182291,-0.0061514521948993,-0.9992985129356384,0.0367254056036472,0.0179581401975485,0.0214071764880532,3.0599411980123623,0.0637125894427299,0.0925472825765609,0.1377824544906616,0.0376679322542622,-0.2387415592744947,-9.911223489046098,14958.0
27.69,3.0,206.0,22.087427139282227,27.886871337890625,-79.78278508218517,40.45901555147249,293.8323313903809,0.0031180335208773,-0.0052556097507476,-0.9993305802345276,0.0360714495182037,0.0233396783395154,0.0242249197491693,3.1014421604890186,0.0958259478211402,-0.0132919484749436,0.0835848152637481,0.0995337899029255,-0.388413432687521,-10.034998519420622,14958.0
27.9,3.0,206.0,22.10245132446289,26.773622512817383,-79.78278510700575,40.45901545452779,294.45971176147464,0.003758079605177,-0.0038466400001198,-0.999367654323578,0.035147525370121,0.0098575911790743,0.0114910208918696,3.0986987449460845,-0.0099948458373546,-0.0882794633507728,-0.0519141554832458,0.0606832217378541,-0.217135128993541,-9.709484608769417,14959.0
28.09,3.0,205.0,22.171314239501957,26.65434646606445,-79.78278514199688,40.45901547268453,294.7687289428711,0.003666166216135,-0.003985134884715,-0.9993817806243896,0.0347393490374088,-0.0043604076599636,-0.0012038131966921,3.0820720495792098,-0.0374068133533,-0.0088896928355097,-0.0641010254621505,0.0285459766234271,0.1877023101970553,-9.604544629454614,14959.0
28.19,2.799999952316284,203.0,22.054872512817383,28.89674568176269,-79.78278508910665,40.459015447003374,295.3853213500977,0.0043857884593307,-0.0043453415855765,-0.999380588531494,0.0346467867493629,-0.0129633354446702,-0.0066625163170624,3.041576076545172,-0.0327933058142662,-0.074605144560337,0.0163731500506401,-0.047412166390568,-0.057418232448399,-9.577048682570457,14960.0
28.3,2.799999952316284,202.0,22.103702545166016,27.298439025878903,-79.7827851133243,40.459015482819794,295.6892249298096,0.0067401500418782,-0.0046933707781136,-0.9993711113929749,0.0344956628978252,-0.0092309391587304,-0.0199312400629164,3.0441010177230297,0.029007663950324,-0.0551942698657512,-0.0101125231012702,-0.1083289341442287,-0.0531447583436966,-9.778543149232863,14960.0
28.5,2.900000095367432,199.0,22.09368705749512,27.751691818237305,-79.78278517264727,40.45901544745318,296.31196662902835,0.0088606439530849,-0.004033857025206,-0.9993324875831604,0.0352125018835067,-0.0081383988002361,-0.0235074523222081,3.0886235262313777,0.0765704810619354,-0.0106749879196286,0.0165655501186847,0.0374015778768807,-0.4016768181324005,-9.968012816905976,14961.0
28.59,2.900000095367432,198.0,22.032337188720703,28.42759132385254,-79.78278522015637,40.459015500549256,296.6211955261232,0.0068293800577521,-0.0020766730885952,-0.9993283748626708,0.0359440706670284,-0.0250054094709807,-0.0379519173953125,3.094722114830181,-0.1790068745613098,-0.0213900282979011,-0.0468371286988258,0.0014580329158343,0.0496390145178884,-9.839979844093325,14961.0
28.79,2.900000095367432,198.0,22.1888427734375,28.30036354064941,-79.78278519449252,40.45901545841722,297.2372462463379,-0.0034379232674837,0.0012101751053705,-0.9992801547050476,0.037762101739645,0.0078344868799149,-0.055222784918399,3.081159828223936,-0.1389282494783401,-0.0210936740040779,-0.0854065120220184,-0.046345670800656,0.1229529849439859,-9.630503343343737,14962.0
28.99,2.900000095367432,196.0,22.091182708740234,27.640365600585927,-79.78278518095698,40.459015495122536,297.8463942718506,-0.0039048031903803,0.0028204426635056,-0.9992546439170836,0.0383016504347324,0.0383342145767743,-0.0667765439043158,3.067110406505165,0.0088623315095901,0.0156661625951528,-0.009137243963778,0.0276898209122009,-0.1335004757624119,-9.688822887539864,14962.0
29.09,2.900000095367432,195.0,22.02231979370117,29.453371047973643,-79.78278519644783,40.45901554162064,298.15352508544925,0.0008139734854921,0.0020524398423731,-0.9992746710777284,0.0380176454782486,0.0291072381627584,-0.0660280180370227,3.0742506851917955,0.1306431740522384,-0.0275892112404108,0.004232388921082,-0.0020174058876,-0.2217608795687556,-9.863298540115355,14963.0
29.19,2.900000095367432,196.0,22.141263961791992,27.028079986572266,-79.78278505478522,40.459015466365685,298.45517227172854,0.0056174364872276,0.0007694457308389,-0.9992755651474,0.0376334078609943,-0.0268028691615496,-0.0481202239231535,3.0920805278113166,-0.0223804134875536,-0.0302574373781681,-0.0863417759537696,-0.0044688122207298,0.0561659141723066,-9.992407400608064,14963.0
29.4,2.799999952316284,193.0,21.988513946533203,28.65024185180664,-79.78278496321144,40.4590155229937,299.0647570800781,0.0093493973836302,-0.0011750049889087,-0.99925696849823,0.0373728461563587,-0.0352983030474282,-0.0396153892960037,3.082879298720669,0.1071435511112213,0.0416550822556018,0.1515576541423797,0.0010317366337403,-0.4885247813165188,-9.768623932600024,14964.0
29.59,2.900000095367432,193.0,22.054872512817383,28.149280548095703,-79.78278497711624,40.459015564403245,299.3726184082032,0.0078864954411983,-0.0002537242835387,-0.9992815852165222,0.0370706394314765,-0.0476195745581415,-0.041349634380207,3.0730581588495154,-0.0427986681461334,-0.0152378706261515,0.0303324107080698,0.028466073051095,-0.055935844508931,-9.717715149521828,14964.0
29.69,3.0,192.0,22.05988121032715,28.554821014404297,-79.78278502515623,40.459015523739815,299.9768645477295,0.0039762910455465,0.0003835590905509,-0.9993162751197816,0.0367564558982849,0.0096936962717032,-0.0474262440567313,3.0442871412359462,-0.0266623422503471,0.001124252565205,-0.001229325775057,0.0048882117576431,0.0326477824151516,-9.60106962919235,14964.0
29.9,3.0999999046325684,192.0,22.034839630126957,28.47530174255371,-79.78278499738282,40.4590154748155,300.58372375488284,-0.0006511979736387,9.938864241121335e-05,-0.9992967247962952,0.0374937430024147,0.0281108886617511,-0.0324166438824878,3.0359589584782625,-0.1378714591264724,-0.0911327600479126,-0.0533051043748855,-0.0145795480068773,-0.1676777344755828,-9.6516410279274,14965.0
29.99,3.0999999046325684,190.0,22.140012741088867,26.32832336425781,-79.78278504866344,40.45901550290997,300.8867804718018,-0.0019942142535001,-0.0001568880106788,-0.999282717704773,0.0378161258995533,0.0335774320552442,-0.0370325529551391,3.025857770394607,-0.0331979393959045,-0.0416512265801429,-0.045332059264183,0.045496874358505,0.1846184886619448,-9.731622167229652,14965.0
30.09,3.0999999046325684,189.0,22.017311096191406,28.73771095275879,-79.78278509036312,40.45901553126638,301.18840286254886,-0.0021638011094182,-0.0002275993756484,-0.9992662668228148,0.0382405444979667,0.0427887217133351,-0.0314081515379311,3.0042870050600814,0.0259126182645559,0.0798448771238327,0.0202407836914062,0.0400921741593629,-0.0662936114519834,-9.606694650650024,14966.0
30.29,3.0,188.0,22.193851470947266,25.994348526000977,-79.78278510179891,40.45901558944996,301.78479072570804,0.0002692462876439,0.0011634909315034,-0.9992575645446776,0.0385097675025463,0.034202056707982,-0.0403608878024584,2.9998694094347527,0.1062963902950286,-0.0038577842060476,0.0342184044420719,0.0552676128270104,-0.1403742706216871,-9.758922232389448,14966.0
30.49,3.0,187.0,21.90713119506836,29.69987487792969,-79.78278507931769,40.45901552990943,302.0780684661865,0.0011720288312062,0.0013167659053578,-0.9992612600326538,0.0383913442492485,0.0013359776547939,-0.0353492269610736,2.9918134200412565,-0.1646576672792434,-0.0563823916018009,-0.0906169340014457,-0.0817128287628293,0.0756054302863776,-9.596747952103618,14967.0
30.6,3.0999999046325684,187.0,21.98726272583008,28.73771095275879,-79.78278512368563,40.45901558201463,302.6756045532227,0.001269840169698,-0.0009467857889831,-0.9992855191230774,0.0377630181610584,0.024288894231559,-0.0363490369880215,2.9962077110972727,0.1670997440814972,0.1474639624357223,0.101668432354927,-0.0275290978560224,-0.2089825937524438,-9.880511573553086,14967.0
30.79,3.0999999046325684,187.0,21.928415298461918,28.713855743408203,-79.78278507760761,40.4590155355176,303.2683207702637,0.0016112602315843,-0.0035546196158975,-0.9993025064468384,0.0371399261057376,-0.01418772774601,-0.0175496693467877,3.007433196049592,-0.1231245994567871,0.0046148682013154,-0.0617245472967624,0.0017728620814159,-0.2943249537236989,-9.913298081159592,14968.0
30.9,3.0999999046325684,186.0,22.034839630126957,27.831209182739247,-79.78278505298027,40.459015510975455,303.5546214294434,0.0010317510459572,-0.0045233210548758,-0.9993053674697876,0.0369761884212493,0.0006552912348832,-0.0162354621363165,3.0024311535091304,-0.052752461284399,-0.0189308673143386,-0.0496752075850963,0.0045734208502108,0.0596360904816538,-9.746914975047114,14968.0
31.09,3.0999999046325684,186.0,21.932172775268555,28.037954330444336,-79.78278507063624,40.45901554846337,303.85414382934573,0.0008026481373235,-0.0045201103202998,-0.9993020296096802,0.0370732955634594,0.0043738673547718,-0.0201948535371884,2.9869465830338457,0.0020686849020421,0.0431773923337459,0.0078767146915197,-0.0032512985821813,0.0348137190006673,-9.654390388727188,14968.0
31.2,3.0,188.0,22.034839630126957,27.457475662231445,-79.78278501456619,40.45901550362387,304.44337722778323,0.0001057956251315,-0.0020511297043412,-0.9992848634719848,0.0377571582794189,0.0186475624304494,-0.0282069898466342,3.001459449407967,0.1569448262453079,0.0554070957005024,0.0864706560969352,0.001704349159263,-0.2466383519209921,-9.885640751123429,14969.0
31.4,3.0,186.0,21.885847091674805,30.407583236694336,-79.78278499749314,40.45901548932649,305.02480575561526,0.000774182844907,0.0006601263303309,-0.9992582201957704,0.0384979657828807,-0.0132460848472553,-0.0385937211707706,2.9897800194610165,-0.0650813952088356,-0.0443552769720554,-0.0715347528457641,0.0073687022784724,-0.2405535565875471,-9.8137199985981,14970.0
31.49,3.0999999046325684,185.0,21.87708282470703,30.48710060119629,-79.78278499939752,40.459015527341535,305.32433197021487,0.0013370621018111,0.0008797228219918,-0.999247431755066,0.0387578457593917,-0.0149188399302864,-0.0447052869169882,3.0036455129181574,-0.0642396360635757,-0.0273458492010831,-0.0540727488696575,-0.0474853936303407,0.0882390157878399,-9.90262106537819,14970.0
31.59,3.0999999046325684,186.0,21.99978256225586,28.1572322845459,-79.78278499922641,40.45901556533831,305.6257960510254,0.0021581414621323,0.0004209961625747,-0.9992333054542542,0.0390890426933765,-0.0133960967753751,-0.0474186254397468,3.0274336547578184,0.0209613591432571,0.0387571901082992,-0.1069240570068359,0.0266276033828035,0.0085433850623667,-10.001439009904864,14970.0
31.8,3.2000000476837163,185.0,21.849536895751957,31.099388122558597,-79.78278487058458,40.45901561864157,306.2075297546387,0.0022793002426624,0.0007101566297933,-0.9992180466651917,0.0394681729376316,-0.0206819295454981,-0.0477701321606575,3.0111172850607235,0.0883906111121177,0.0497853234410286,0.070186823606491,0.0661470930185169,-0.0067971689254045,-9.778622086644171,14971.0
31.89,3.0999999046325684,186.0,21.99853134155273,28.38783264160156,-79.78278475670278,40.45901552062548,306.485796661377,0.0024420809932053,0.0009991948027163,-0.9992103576660156,0.0396452881395816,-0.0143367433652389,-0.0333202257504188,3.0069039030640683,0.0873364955186843,0.0448233075439929,0.0982251912355423,-0.0262318291096016,-0.2235905464366078,-9.880109285116196,14971.0
32.09,3.0999999046325684,184.0,21.87332534790039,31.10733985900879,-79.78278474085106,40.45901557728677,307.0866038513184,0.002341552870348,-0.0008586900075897,-0.999220371246338,0.0394025035202503,-0.038404749038884,-0.0284452611015748,2.9905713356676222,-0.2035111188888549,-0.0817316472530365,-0.0987146869301796,-0.0649509993754327,0.1249722751881927,-9.645257037878038,14972.0
32.29,3.0999999046325684,183.0,22.0035400390625,27.17121124267578,-79.78278472406367,40.45901550427981,307.3661753845215,0.0010294741950929,-0.0009434315725229,-0.9992225170135498,0.0394018106162548,-0.0221260346180486,-0.0214890173613903,2.987144417639203,-0.0469869710505008,-0.0101346066221594,-0.0080985706299543,0.0608960740920156,0.1627458090707659,-9.809331663250925,14972.0
32.39,3.0999999046325684,181.0,22.04986572265625,28.212894439697266,-79.78278461111931,40.45901549800283,307.9446322631836,2.835200575646013e-06,0.0002964986779261,-0.9992243051528932,0.0393801629543304,-0.0060032558682514,-0.0262677739728719,2.9496960674878783,0.0526603944599628,-0.0002262928319396,0.0266451984643936,0.0149317605234682,0.0281913544144481,-9.570672293901444,14972.0
32.49,3.0999999046325684,180.0,21.97974967956543,28.53096389770508,-79.78278460331241,40.45901552525028,308.23817321777346,0.0007798938313499,0.0012526536593213,-0.999221682548523,0.0394209809601306,-0.0048961276200174,-0.0314767126428567,2.9257856739154464,0.0568198598921299,0.0212676059454679,0.07252998650074,-0.0205528648034669,-0.0696696247486397,-9.598629001379011,14973.0
32.69,3.0999999046325684,177.0,21.90963554382324,30.88468933105469,-79.78278458914897,40.45901537073607,308.8154933166504,0.0019523275550454,-0.0005132217775098,-0.9992242455482484,0.0393318496644496,-0.0022331594393746,-0.0198275240576194,2.9417531799921632,-0.0856523662805557,-0.0483291819691658,-0.0772759243845939,-0.0535795445088297,-0.0780417457781732,-9.85398509502411,14973.0
32.79,3.0999999046325684,177.0,21.83451271057129,30.11336708068848,-79.78278460948864,40.45901538631846,309.11023208618167,0.0024179341271519,-0.000481282826513,-0.9992302656173706,0.0391508378088474,-0.0067046860911045,-0.0173144092779933,2.9593885491916216,-0.1101720854640007,-0.0430290177464485,-0.0627930536866188,-0.0256463629379868,0.0614658852573484,-9.98303314447403,14974.0
33.0,3.0,174.0,21.888351440429688,29.00012016296387,-79.7827846666827,40.45901527886813,309.69427368164065,-0.0002205258060712,0.0013028354151174,-0.9992082715034484,0.0397631824016571,0.0100214017169314,-0.0157815305561683,3.0359694872334444,-0.0640007928013801,0.0051113977096974,0.037356924265623,-0.0542859338410198,-0.0420104765938594,-10.23014583349228,14974.0
33.19,3.0,172.0,21.992271423339844,28.04590606689453,-79.78278468463556,40.45901519513652,310.28093215942386,-0.0031895611900836,0.001670524594374,-0.999189794063568,0.0400862842798233,0.0433323617336107,-0.0176715488492638,3.068119745058963,0.0669517591595649,-0.0016645857831463,-0.0281700678169727,-0.0437251131981611,-0.0131846992811188,-10.188089150190354,14975.0
33.3,3.0,169.0,21.93467712402344,28.05385780334473,-79.78278470436176,40.4590152003217,310.58740493774417,-0.0030087737832218,0.0026060887612402,-0.9992038011550904,0.0396985635161399,0.0273545564116655,-0.0176857277723743,3.060700852946084,-0.1017306447029113,-0.0524582043290138,-0.0193443801254034,-0.0740672745276242,-0.0368000364303588,-9.80154024839401,14975.0
33.39,3.0999999046325684,168.0,21.895862579345703,28.451446533203125,-79.7827846797899,40.45901510580857,310.8671328735352,-0.0023757782764732,0.0032355866860598,-0.9992232322692872,0.0392038933932781,0.0194910527598956,-0.0193986210358012,3.0252716537062376,-0.0908021554350853,-0.0266666915267705,-0.0606487207114696,-0.0436389764025807,0.2450056814029813,-9.735163241028786,14975.0
33.6,3.0999999046325684,165.0,21.90963554382324,28.196990966796875,-79.78278470806158,40.45901510714082,311.46946594238284,-0.0010143321705982,0.0018642246723175,-0.9992295503616332,0.0391909889876842,0.0249474945121368,-0.0226180158427916,2.9873051580472154,0.0863705351948738,0.0902452319860458,0.0824775546789169,-0.1035397904366254,-0.0550172469299286,-9.58899395942688,14976.0
33.79,3.0999999046325684,167.0,21.915895462036133,29.29433441162109,-79.78278465277613,40.45901507163144,311.7522265625,3.095400461461395e-05,0.000911770039238,-0.9992214441299438,0.039443127810955,0.0175308590493353,-0.0208228298458807,2.9732199560554364,0.0732994079589843,-0.0069147404283285,0.0988976284861564,-0.0733505200920626,-0.1633979197964072,-9.677140735387804,14976.0
33.9,3.299999952316284,166.0,21.85329246520996,29.739633560180664,-79.78278464705244,40.45901502075758,312.3385874938965,0.0011925329454243,0.0014831885928288,-0.9991798996925354,0.0404481217265129,-0.0046009071441293,-0.0132296440847207,2.9699758314180333,-0.1652199476957321,-0.1517332941293716,-0.1086872741580009,-0.096402724692598,0.033644933681935,-9.709718497395516,14977.0
33.99,3.299999952316284,167.0,21.908382415771484,27.46542739868164,-79.78278466445366,40.459015031645386,312.6353594970704,0.0002529530320316,0.0028180622030049,-0.9991620182991028,0.0408326163887977,-0.0063500070106863,-0.0215412159001748,2.9685366746998443,-0.1165578290820121,0.0145175689831376,-0.0484335087239742,-0.0230172629188746,0.2787571988627315,-9.752468660473824,14977.0
34.19,3.299999952316284,167.0,21.818235397338867,29.13529968261719,-79.78278463449018,40.45901495383005,313.2167155456543,-0.0007191612385213,0.0030798900406807,-0.9991199970245358,0.0418258719146251,0.0131473679350688,-0.0245815129093015,2.932164275426301,0.0749653428792953,0.0919202715158462,0.1041716560721397,-0.0499443442421034,-0.1604207916744053,-9.60708641409874,14978.0
34.29,3.400000095367432,169.0,21.87457847595215,28.729759216308597,-79.78278463471752,40.459014960302405,313.50977203369143,-0.0010477328905835,0.0019793834071606,-0.9991028904914856,0.0422896593809127,0.0047808157933793,-0.024255542505694,2.9279401180101834,0.0195438489317894,0.0016975047765299,0.0425014048814773,-0.059150689356029,-0.1354264480993151,-9.711998911499975,14978.0
34.5,3.299999952316284,169.0,21.843276977539062,27.990243911743164,-79.78278451214159,40.45901487581933,314.09831497192386,-0.0004934393218718,0.0001075004402082,-0.999108910560608,0.0422034114599227,0.0081150765596759,-0.0069875645633685,2.951300393077962,0.1386290490627288,0.0049257674254477,0.0663192272186279,-0.0110524275829084,-0.2461773903295397,-9.821101523637774,14979.0
34.7,3.2000000476837163,168.0,21.89461135864257,28.936504364013672,-79.78278456155823,40.459014767457546,314.6801287841797,0.0020363701041787,0.001887358026579,-0.9991524815559388,0.0410691350698471,-0.0037012908399035,-0.002691464730104,2.9431688544064163,-0.0080219153314828,-0.102550521492958,0.0297137256711721,-0.0247547539137303,-0.1002357755508273,-9.787188257575036,14979.0
34.79,3.2000000476837163,169.0,21.733097076416016,30.20878982543945,-79.78278456939186,40.459014764834905,314.9736087036133,0.0009274737676605,0.0033680966589599,-0.9991633296012878,0.0407485142350196,-0.0107474079109323,-0.0064257609228899,2.9315680984877512,-0.0835583806037902,-0.0278487615287303,-0.0582660287618637,-0.0671260402584448,0.0373717822018079,-9.680505223274231,14979.0
34.89,3.2000000476837163,171.0,21.95721244812012,27.099645614624023,-79.78278447281257,40.4590146687383,315.2631175231934,-0.00030658475589,0.0033471677452325,-0.9991652369499208,0.0407144650816917,-0.0120436052949594,-0.0134014364008072,2.959768416879704,-0.0513911955058574,-0.0621777176856994,-0.0759466215968132,-0.0274707901524379,0.0227571714576333,-9.89204462170601,14980.0
35.1,3.0999999046325684,172.0,21.85454559326172,29.21481704711914,-79.78278447477035,40.4590146527748,315.85220977783206,0.0019139219075441,0.0002226055948995,-0.999151051044464,0.0411536768078804,0.014016969087722,-0.0064388003840409,2.9258968691775764,0.1970533728599548,0.0507135167717933,0.1169286295771598,-0.0575516174873337,-0.1120891871675849,-9.688480825424197,14980.0
35.19,3.2000000476837163,173.0,21.823244094848643,29.453371047973643,-79.78278443069159,40.45901455089611,316.13450500488284,0.0034176995977759,-0.0012807298917323,-0.9991429448127748,0.0412327013909816,-0.0016384796687936,0.0095577131864023,2.9327107475106904,0.1043455302715301,0.1293361037969589,0.0633395463228225,-0.011350583047606,-0.1671332673355937,-9.781485468149183,14981.0
35.4,3.0999999046325684,173.0,21.905879974365234,28.96036148071289,-79.78278430309365,40.45901447679522,316.7150866699219,0.0007161770481616,-0.0012870199279859,-0.9991428256034852,0.0413715690374374,-0.0180694393447364,0.0128548683421349,2.9537226488125,-0.0394316129386425,-0.0036299338098615,0.0254136566072702,-0.0227686077891848,-0.0730421753972768,-9.810128638744352,14981.0
35.59,3.0999999046325684,176.0,21.83451271057129,30.137222290039062,-79.78278429580922,40.45901447727938,317.303553314209,-0.0010242817224934,0.0018245779210701,-0.9991146922111512,0.0420181080698967,-0.0040525329348378,-0.0030972518999797,2.931891732137452,-0.059597909450531,-0.0539216063916683,-0.0605382956564426,0.0011658251658082,-0.152384972339496,-9.758184898495674,14982.0
35.7,3.0999999046325684,175.0,21.815731048583984,30.192886352539062,-79.78278419000208,40.45901434187415,317.58972427368167,-0.0005419538356363,0.0005576531402766,-0.9991092085838318,0.0421939715743064,-0.0100666033044733,-0.0108896912696288,2.9470430760871027,-0.0793691650032997,-0.0074167610146105,-0.0775442123413086,-0.0941468688938766,0.06109285117127,-9.847877093553542,14982.0
35.79,3.0999999046325684,174.0,21.82449531555176,29.071685791015625,-79.78278418620137,40.45901434300458,317.8850772094727,0.0005681929178535,-0.0016787470085546,-0.99911367893219,0.0420559346675872,-0.0140800840024857,-0.0034813880852643,2.963889144211844,-0.1145299449563026,-0.0218142215162515,-0.0143554955720901,-0.0640142754279077,0.1234982926212251,-9.906443974971774,14982.0
35.99,3.299999952316284,171.0,21.739356994628903,31.67191505432129,-79.78278408333586,40.459014278186544,318.4634310913086,0.0026193158701062,-0.0025977252516895,-0.9991390705108644,0.0413231998682022,-0.0113107967559594,-0.0042106392448614,2.9900209745208355,-0.012861737050116,-0.0467938035726547,-0.0218959171324968,-0.0201878706389106,-0.071546795675531,-9.995218741893767,14983.0
36.09,3.299999952316284,172.0,21.739356994628903,30.20878982543945,-79.7827840831802,40.45901429847533,318.7637316894532,0.0017118740361183,-0.0013825367204844,-0.9991524815559388,0.0411045253276824,-0.0212263103649023,-0.0078997642262277,3.0220481239292365,-0.0806431770324707,-0.088383600115776,-0.0781164392828941,-0.0397077517071738,-0.1170217703841626,-10.10704908013344,14983.0
36.29,3.299999952316284,173.0,21.78192710876465,28.50710868835449,-79.78278406483767,40.45901419684893,319.3513629150392,-0.0001601227995706,0.0023523923009634,-0.999104142189026,0.0422562323510646,-0.0005874891991068,-0.0229435968267491,3.0581399602651107,-0.0661776736378669,0.0108010973781347,-0.0692236497998237,-0.0899898183345794,0.0707002924382686,-10.019608647823334,14984.0
36.49,3.299999952316284,175.0,21.70054244995117,31.13914680480957,-79.78278401448078,40.45901421663422,319.93644973754886,0.0001493831223342,0.0007878938340581,-0.999086320400238,0.0427307933568954,-0.0070644909907943,-0.0321428473869209,3.0574355814174394,-0.0797093734145164,0.0191272050142288,-0.0074378689751029,-0.0877573239896446,0.0172875032108277,-9.92858738064766,14984.0
36.59,3.299999952316284,174.0,21.82699966430664,28.95240974426269,-79.78278401922594,40.45901423221768,320.24334594726565,2.2995469407760528e-05,-6.713121547363697e-05,-0.999086320400238,0.0427377447485923,-0.0013951903973429,-0.0230758625049977,3.0808994407002035,-0.0123687973245978,-0.0443074218928813,0.0102883568033576,0.0230550870951265,-0.0535595360677689,-10.045460357666016,14985.0
36.69,3.2000000476837163,176.0,21.626672744750977,32.11721420288086,-79.78278384871365,40.45901405213935,320.5209147644043,-8.793709275778383e-05,-0.0001921634102473,-0.9990973472595216,0.0424782112240791,-0.0105367402887709,0.0161266249116541,3.059924623464384,-0.009146305732429,-0.0324468575417995,-0.0140853272750973,-0.0396686438843607,-0.1601120404154062,-9.97181935429573,14985.0
36.89,3.0999999046325684,175.0,21.924659729003903,27.664220809936523,-79.78278390299597,40.45901400402448,321.11323043823245,0.001628789352253,-0.001403042464517,-0.9990654587745668,0.0431687980890274,-0.0005177017827321,-0.0050157843524692,3.059446200733668,-0.0074907909147441,-0.0304400995373725,-0.0564715713262558,0.0040908399783074,-0.1381171448808163,-9.841718806028368,14986.0
37.09,3.0,176.0,21.859554290771484,27.807353973388672,-79.78278390557745,40.45901402048287,321.7198893737793,0.0024341396056115,-0.0021867151372134,-0.9990013241767884,0.044560570269823,-0.0194413129146016,0.000428955648342,3.0130222107471547,-0.0197829771786928,-0.0674102753400802,-0.0289987735450267,-0.0040141278208466,0.082175718108192,-9.61876271903515,14986.0
37.2,2.900000095367432,175.0,21.8570499420166,28.196990966796875,-79.78278385113559,40.45901394653978,322.0139567565918,0.0021787225268781,-0.0020321472547948,-0.9989752769470216,0.0451620891690254,-0.0199271767082961,0.0066981185873324,3.0029939737988656,-0.0581388399004936,-0.0363585837185382,-0.1060172244906425,0.0176427798054646,0.0702169652469456,-9.65963651061058,14987.0
37.29,2.900000095367432,175.0,22.0035400390625,26.04205894470215,-79.78278385243071,40.45901395391928,322.3132960510254,0.0026133225765079,-0.0008797239279374,-0.9989564418792723,0.0455908142030239,-0.017332344013992,0.0038963062286159,2.9823767143415028,-0.0314306989312171,-0.0893040969967842,-0.0863616541028022,-0.0064639084681402,0.0135650378186255,-9.574416266083718,14987.0
37.49,2.799999952316284,178.0,21.8570499420166,28.212894439697266,-79.78278383082755,40.45901391169168,322.903032989502,0.0024095098488032,-0.0031685219146311,-0.9989332556724548,0.0460067130625248,-0.0028040123994241,-0.0054163056627213,2.934947283183172,0.0984552875161171,0.0604338496923446,0.1074620485305786,-0.0277410320146009,-0.2132042103633284,-9.599338268637656,14987.0
37.59,2.900000095367432,179.0,21.78818702697754,28.69795227050781,-79.78278383439984,40.45901392398369,323.1959559631348,0.0020674474071711,-0.0051084849983453,-0.998937487602234,0.0457548610866069,-0.0003165470773699,-0.0007412304711665,2.9217782264918704,0.0970957726240158,0.0759109929203987,0.0461457334458828,0.0670121977105736,-0.2825741150602698,-9.690457184314733,14988.0
37.8,2.900000095367432,180.0,21.76815414428711,30.009994506835927,-79.78278363246893,40.45901380580764,323.7935321044922,0.0002022227126872,-0.0046931109391152,-0.9989666938781738,0.0452061854302883,-0.0080503613580185,0.0106283407947561,2.9220326953894777,-0.0302222594618797,-0.1274384707212448,0.0136422598734498,0.0376978992344811,-0.0973703932017088,-9.54521819472313,14988.0
37.99,3.0,182.0,21.775665283203125,29.381805419921875,-79.78278361226981,40.45901378854409,324.38987609863284,0.0016135988989844,-0.0007580489618703,-0.9989868998527528,0.0449683219194412,-0.0104839061037205,-0.0097916800404559,2.957137897851069,-0.050698809325695,-0.0948657244443893,-0.095850832760334,0.0296652410505339,0.0776570720784366,-9.689981805682184,14989.0
38.09,2.900000095367432,183.0,21.93342399597168,26.58278083801269,-79.78278361196695,40.4590138165924,324.6859423828125,0.0019756054971367,-0.0001615052315173,-0.9990085959434508,0.0444741658866405,-0.0213905822860648,-0.0289058210423442,2.9633636517019344,-0.0645815357565879,-0.001245831255801,-0.0614834800362587,0.0201430092472583,0.0041611390421167,-9.86925802230835,14989.0
38.19,2.900000095367432,185.0,21.819488525390625,29.13529968261719,-79.78278355771627,40.45901382630791,324.980482788086,0.0016949090640991,-0.0013489061966538,-0.9990390539169312,0.0437762662768364,-0.0357518615259121,-0.032339286788133,2.9583160968055298,-0.1309392303228378,-0.0136589808389544,-0.113324150443077,-0.0178622114192694,0.2247046785615384,-9.59279874265194,14989.0
38.4,2.900000095367432,185.0,21.74686813354492,30.002042770385746,-79.78278352669061,40.459013838263886,325.56706497192386,0.0030719176866114,-0.0027397300582379,-0.9990727305412292,0.0428588204085826,-0.0103667368348412,-0.0204415091990689,2.9571583724420285,0.0574187599122524,0.0906609669327736,0.0548885390162468,0.0618172983499243,-0.1384605774376541,-9.832198369503024,14990.0
38.59,3.0,187.0,21.924659729003903,26.781574249267567,-79.78278352820831,40.45901390346732,326.16125747680667,0.0031526228412985,-0.0014459750382229,-0.999132752418518,0.0414941236376762,-0.019232546644643,-0.0238734630492476,2.9788189909696547,0.0053333942778408,0.0191146563738584,0.0505152270197868,0.061974254976958,-0.1708876183256507,-9.928002659082413,14991.0
38.7,3.0,186.0,21.8282527923584,28.65819358825684,-79.78278348411867,40.459013866882245,326.4533030700684,0.0028615647461265,-0.0013078561751171,-0.9991477727890016,0.0411559455096721,-0.0022014076360754,-0.0304778292903931,2.966226982219814,0.0748753324151039,0.0121660064905881,-0.000927917775698,0.0932431543059647,-0.2745305024832487,-9.711360395550727,14991.0
38.79,3.0999999046325684,187.0,21.69428253173828,30.28035545349121,-79.78278349451602,40.459013902698665,326.74875900268563,0.0026328496169298,-0.0010429272660985,-0.999157190322876,0.0409498363733291,-0.0289557158135637,-0.0297235344340289,2.948768719296726,-0.1869373917579651,-0.0469952337443828,-0.138740986585617,-0.0232969699613749,0.2947185261547566,-9.588924377560616,14991.0
38.99,3.2000000476837163,188.0,21.662981033325195,30.3042106628418,-79.78278342693339,40.45901389917961,327.33343383789065,0.0015295017510652,0.0013277055695652,-0.9991155862808228,0.0420004613697528,-0.0094836253304983,-0.0346979990259398,2.9638390123731013,0.0181259009987115,0.0355400778353214,0.038933053612709,0.0118859961396083,-0.2063572121970356,-9.871451897621156,14992.0
39.09,3.2000000476837163,184.0,21.80571556091309,29.278430938720703,-79.78278343093366,40.45901393382373,327.63069793701175,0.0006131026893854,0.0022584958933293,-0.9990817308425904,0.0427825972437858,-0.0057355570748935,-0.0453488066621169,2.9792230881439234,0.0014648004435002,0.0099532548338174,-0.0053778826259076,0.0132896248251199,-0.1432349386531859,-9.921506402492524,14992.0
39.31,3.2000000476837163,185.0,21.590362548828125,32.061553955078125,-79.78278345848554,40.45901391472443,328.21805450439456,0.0003517569857649,0.0012608936522156,-0.9990174770355223,0.0442994534969329,0.0120584687166334,-0.0425892989807399,2.971156402670472,0.0390262976288795,0.0221638921648264,-0.042080532759428,0.0653216169169172,-0.1276937063969671,-9.721972507238393,14993.0
39.49,3.2000000476837163,185.0,21.80821990966797,28.682048797607425,-79.7827834631657,40.45901387560366,328.50785705566415,0.0004838409367948,3.890488005708903e-05,-0.9989888072013856,0.0449588038027286,-0.0053691859278357,-0.0313258984575292,2.9874202289881544,-0.1468481421470642,-0.0819560289382934,-0.1334597915410995,-0.0090231296920683,0.0054889275133609,-9.885963517427443,14993.0
39.61,3.2000000476837163,184.0,21.98726272583008,26.59868431091309,-79.78278349122672,40.4590139233868,329.10714599609383,0.0006092494586482,-0.0015504948096349,-0.9989436268806458,0.0459236614406108,-0.0017889150459194,-0.0225588233242017,3.0024264134039624,-0.0245453789830207,-0.0634442716836929,-0.0071807284839451,0.0133646245021373,0.0616527631832286,-9.836694878339769,14994.0
39.69,3.2000000476837163,183.0,21.76439666748047,30.20878982543945,-79.78278341042763,40.45901386633259,329.39160797119143,0.0008325729286298,-0.0014319093897938,-0.9989409446716307,0.0459821000695228,0.0008805371585425,-0.0156716564086633,2.9714160039267417,0.0517427772283554,0.071733608841896,-0.0067593967542052,0.050786375273019,0.0318563069589436,-9.655836405158045,14994.0
39.9,3.0999999046325684,180.0,21.70805549621582,29.795297622680664,-79.78278334816815,40.459013867087286,329.9740168762208,0.0017819292843341,0.0007004362414591,-0.9989632964134216,0.0454834699630737,-0.00795600766066,-0.0232773901747228,2.9775344623635887,0.0666892230510711,0.0611765049397945,0.0850605592131614,0.0023497127462178,-0.014649257780984,-9.922500429153445,14994.0
39.99,3.2000000476837163,179.0,21.821990966796875,28.30831527709961,-79.78278334356284,40.459013887803344,330.2730853271485,0.0021224934607744,0.0008915949147194,-0.9989773631095886,0.0451548621058464,-0.0090346278373529,-0.0266900860299184,3.002225276824216,0.0924762412905693,0.0163093078881502,0.1162664517760276,0.0294280131161212,-0.0982380560506135,-10.011987386941913,14995.0
40.2,3.299999952316284,179.0,21.76064109802246,29.21481704711914,-79.78278340431515,40.45901379088545,330.85583755493167,0.0011607441119849,-0.0001198044847114,-0.9989542365074158,0.0457077845931053,0.0074024777041629,-0.0108595363636247,2.98868521415235,0.0606308691203594,0.0426075682044029,0.0105058345943689,0.0666264916118234,-0.2561037149839103,-9.825668199062347,14995.0
40.39,3.299999952316284,182.0,21.634183883666992,31.0914363861084,-79.78278335849241,40.459013729647694,331.442282409668,0.0010891974670812,-0.0015426932368427,-0.9989263415336608,0.0462891943752765,-0.0048007942868282,0.0011546677193272,2.984658920124411,-0.0298570990562438,-0.0445322319865226,-0.0181817337870597,-0.0483766280673444,0.0896674814354628,-9.743091480731962,14996.0
40.5,3.2000000476837163,182.0,21.699291229248047,30.20878982543945,-79.78278336133475,40.459013732496864,331.7416064453125,0.001496021519415,-0.0015394936781376,-0.9989234805107116,0.046339139342308,-0.0108034952800622,0.0050979552219886,3.0015832799773614,-0.0431971624493598,-0.000376806827262,-0.030786782503128,0.0053413195791654,0.0336196124972775,-9.931508649587633,14996.0
40.59,3.2000000476837163,181.0,21.725584030151367,30.717702865600582,-79.78278336225128,40.459013737268734,332.04247543334964,0.0018669713754206,-0.0014094103826209,-0.9989059567451476,0.0467073433101177,-0.0058825104658081,0.0028104962856928,3.0145704678109486,0.0094308657571673,-0.0327730551362037,-0.0817912593483924,0.0684778754040598,-0.0455611389130354,-9.96292573928833,14997.0
40.8,3.0999999046325684,180.0,21.869569778442383,27.990243911743164,-79.78278330546235,40.45901370335677,332.6294314575196,0.0019722166471183,-0.0007849831599742,-0.9988958835601808,0.0469323508441448,-0.0249673052440243,0.0013631750213301,3.0160934817596377,-0.1043795198202133,-0.036717265844345,-0.0965743586421012,0.0408809407101944,0.1146726606320589,-9.825046055316925,14997.0
40.99,3.0999999046325684,181.0,21.70805549621582,29.95433235168457,-79.78278326677736,40.45901362048829,333.2144229125977,0.0001063003001036,-0.0018687237752601,-0.9989426732063292,0.0459368340671062,0.0132732132624905,0.010105271201919,2.9817970113416323,0.1619470119476318,0.0595774613320827,0.13761667907238,0.0127793513343203,0.1978366678208112,-9.65527448773384,14998.0
41.1,2.900000095367432,182.0,21.778169631958008,28.37988090515137,-79.78278326396277,40.45901361804491,333.5131594848633,-0.0001483715313952,-0.0022053369320929,-0.9989694356918336,0.045333944261074,0.0005149659432525,0.0147622267571205,2.9901381028147656,0.0279741249978542,0.0791871100664138,0.0323581658303737,0.0532913590036332,-0.1759011489339172,-9.846381375789642,14998.0
41.29,3.0,183.0,21.72933959960937,28.642290115356445,-79.78278322853173,40.45901354422743,333.8049800109864,-0.0001647307217353,-0.0025164193939417,-0.9989852905273438,0.0449680611491203,0.0006615859687038,0.0174955856898822,2.99235075295998,-0.0285022966563701,-0.058360643684864,-0.0020786637905985,0.0321194088226184,-0.1802891919203102,-9.746651265621184,14998.0
41.4,2.900000095367432,186.0,21.849536895751957,27.55289649963379,-79.78278319388073,40.45901347462679,334.3946025085449,0.0018107652431353,-0.0046505429781973,-0.998972475528717,0.0450471676886081,-0.0092052493460864,0.0296912453588566,2.9844617030050293,0.0137579748407006,-0.0620399005711078,-0.0365683138370513,0.0396845821151509,0.0039499723305925,-9.754195927977564,14999.0
41.49,2.900000095367432,186.0,21.859554290771484,28.363977432250977,-79.78278318664249,40.45901347053768,334.6923014831543,0.0028502009809017,-0.0056812474504113,-0.9989554286003112,0.0452518612146377,-0.0176331598547467,0.0296867946111606,2.9675896608858783,0.0080520138144493,0.0621285736560821,-0.0012698902282863,0.0062938744062557,0.0150466857198625,-9.630759451389313,14999.0
41.69,2.900000095367432,187.0,21.869569778442383,27.48133087158203,-79.78278313064624,40.45901345837451,335.28013488769534,0.0029506017453968,-0.0066283796913921,-0.9989335536956788,0.0455981418490409,-0.0120481676346644,0.0192610756266687,2.959551093849853,0.0525423847138881,0.0091294841840863,0.085075631737709,0.0205347955366596,-0.2139282783865928,-9.724679183363914,15000.0
41.89,2.799999952316284,187.0,21.87958526611328,26.447599411010746,-79.7827831302116,40.45901347867189,335.57535430908206,0.0015448800986632,-0.005572575610131,-0.9989381432533264,0.045709129422903,-0.0179792390484762,0.0153113496252191,2.945188958288377,-0.0591191165149211,-0.089371845126152,-0.0493536032736301,0.0870478831417858,-0.1411184932664037,-9.721644478440288,15000.0
42.0,2.5999999046325684,189.0,21.791942596435547,28.4912052154541,-79.78278306548556,40.45901341494135,336.164076538086,0.0019173733890056,-0.0044808806851506,-0.9989348053932192,0.0458876751363277,-0.0167653904476801,0.0035162220837815,2.9627928024289085,-0.0797705873847007,-0.0453679636120796,-0.0798686891794204,0.0525884505920112,0.2551968483813107,-9.739591337442398,15001.0
42.09,2.700000047683716,189.0,21.76189422607422,29.40566062927246,-79.78278307088054,40.459013438617134,336.4598071289064,0.002213887637481,-0.0043483697809278,-0.9989235401153564,0.0461298897862434,0.0022873977958916,-0.0023595366333041,2.9505055661249937,0.1440337747335434,0.0754836648702621,0.0610104277729988,0.0660040098242461,-0.0108828743174672,-9.70595756828785,15001.0
42.3,2.700000047683716,190.0,21.83451271057129,28.24470138549805,-79.78278302837082,40.45901342374543,337.0438983154297,0.0033978302963078,-0.002389830071479,-0.9989106059074402,0.0464795418083667,-0.0085576233902738,-0.0063617997010855,2.9526921781467133,0.0411535054445266,0.0427324771881103,0.0157632008194923,0.042950590099208,-0.1290072377119213,-9.761952844262122,15002.0
42.39,2.5999999046325684,188.0,21.680509567260746,30.892641067504893,-79.78278299524595,40.45901335691344,337.33238098144534,0.0039287325926125,-0.0024031903594732,-0.9988998770713806,0.0466695912182331,-0.0123921930459174,-0.0087258459615025,2.9529932791272127,-0.048043917864561,-0.0362089425325393,-0.0263144634664058,0.0146976023772731,-0.0118670703470706,-9.747300891280174,15002.0
42.6,2.799999952316284,187.0,21.83325958251953,27.823257446289062,-79.7827830376503,40.45901340413297,337.924330444336,0.0036276769824326,-0.0039205579087138,-0.9988695979118348,0.0472343266010284,-0.011231354624717,-0.0050990837251502,2.970378698102197,-0.0827703177928924,-0.0629146993160247,-0.1131964698433876,0.0578606839478015,0.0009451932739466,-9.876121484041212,15002.0
42.79,2.700000047683716,188.0,21.664234161376957,30.18493461608887,-79.78278300894205,40.45901342676206,338.5078341674805,0.0022191230673342,-0.0008514496148563,-0.998856008052826,0.0477616712450981,-0.0006200176621495,-0.014428286023474,2.9784323981770617,-0.0176499728113412,-0.0517700538039207,0.0061754574999213,0.0182417596690356,0.1718049733713269,-9.80690272986889,15003.0
42.9,2.5999999046325684,187.0,21.664234161376957,30.510955810546875,-79.78278299518516,40.45901340703474,338.7949740600586,0.0004349101509433,-0.000133136898512,-0.998841106891632,0.0481274202466011,0.0125989320983169,-0.0249828621420901,2.9985979623552104,0.0555919967591762,0.0684230104088783,0.1340181231498718,0.0487282101809978,-0.0351845969259738,-10.024513292312625,15003.0
42.99,2.700000047683716,186.0,21.644201278686523,30.35192108154297,-79.78278302022255,40.45901343079319,339.0962512207032,-0.0007917727343738,-0.0004087285487912,-0.9988279342651368,0.0483938567340374,0.0268870525789386,-0.0272320843469799,3.02585222709921,0.1148462742567062,-0.0024854815565049,0.1235800459980964,0.0019859451265074,-0.1720748223736882,-10.081317822933196,15004.0
43.19,2.5,185.0,21.710559844970703,29.57264709472656,-79.78278310692207,40.459013373813065,339.6838366699219,0.0002295153681188,-0.0024672693107277,-0.9988400936126708,0.0480884313583374,0.034927185258243,-0.0126044858514108,3.0842697643155623,0.0984994694590568,0.0480278395116329,0.0157962348312139,0.0128754820721223,0.0238205241691321,-10.22609254360199,15004.0
43.3,2.5,185.0,21.77316093444824,28.348073959350582,-79.78278313463454,40.45901338869658,339.9942462158204,0.0011125593446195,-0.0041665388271212,-0.9988586902618408,0.0475694574415683,0.0225166830083055,-0.0029872892104437,3.120969271486029,0.01833251491189,0.0181462354958057,-0.0023751535918563,0.0671073611453175,0.0029566263221204,-10.171680693626405,15004.0
43.5,2.700000047683716,185.0,21.699291229248047,29.326141357421875,-79.78278310804538,40.459013367580106,340.5901171875,0.0016113674500957,-0.0037254348862916,-0.9988790154457092,0.0471631251275539,0.0189799928255426,0.0040416460368174,3.0680874314488387,0.0812461972236633,-0.0066214832477271,0.0697278380393982,0.0736524237133562,-0.0455235888250172,-9.636012005209924,15005.0
43.69,2.5999999046325684,187.0,21.765649795532227,28.98421669006348,-79.78278312189009,40.45901337558869,341.18494293212893,0.0025200522504746,-0.0029084964189678,-0.9988786578178406,0.0471874475479126,0.0077623524972758,-0.0084793824806537,3.0157467251972614,-0.0730560272932052,-0.0877817645668983,-0.0327732302248477,0.0157012266945093,-0.1720891115069389,-9.6421971899271,15006.0
43.79,2.700000047683716,186.0,21.783178329467773,28.77746963500977,-79.7827831518007,40.45901340015122,341.48531219482425,0.0032458782661706,-0.0022985734976828,-0.9988640546798706,0.0474855937063694,-0.0031709558855753,-0.0128891322974358,2.996165604625232,-0.0571883358061313,-0.0134242223575711,-0.0627630352973938,0.0844803524762392,0.2221289069764316,-9.596397703886034,15006.0
43.89,2.5999999046325684,186.0,21.796951293945312,28.14132881164551,-79.78278316787132,40.45901340864935,341.7805850219727,0.0028658115770667,-0.0017055069329217,-0.9988398551940918,0.0480408668518066,0.012294974582681,-0.0148098830138961,2.9918004979893964,0.0368716642260551,0.0416379384696483,0.0059550809673964,0.0256179377040825,-0.0431298483721911,-9.620039750933648,15006.0
44.09,2.5,190.0,21.79444694519043,27.409765243530277,-79.78278322882619,40.45901345372396,342.3741442871094,0.0012243525125086,-0.0003442031447775,-0.998784601688385,0.0492722168564796,0.0019834929993005,-0.0202399053363355,2.9475536427965485,-0.1027262732386589,0.0106987552717328,-0.0290829744189977,0.0198814148688688,0.0488566113822162,-9.594797320961954,15007.0
44.29,2.5,192.0,21.789438247680664,28.594579696655277,-79.7827831097414,40.45901339463538,342.6755587768555,-3.826851025223732e-05,-0.0017587618203833,-0.9987536668777466,0.0498807057738304,0.0081753770414922,-0.0158983415635345,2.958744610573525,-0.0622208341956138,-0.0659476220607757,-0.0286503452807664,0.0398350748280063,-0.0721983764972537,-9.625112795233726,15007.0
44.4,2.5999999046325684,195.0,21.604135513305664,31.56854248046875,-79.78278323116696,40.45901336047221,343.2503039550781,-0.0002502487041056,-0.0041168392635881,-0.9987245202064514,0.0503237694501876,0.0302966180704336,0.0184528210207758,2.9280455893158868,-0.0348689071834087,0.0659734681248664,-0.0124045852571725,0.0273738771211355,0.1736896954290568,-9.63403447687626,15008.0
44.49,2.5999999046325684,192.0,21.71556663513184,28.85698699951172,-79.78278326466427,40.45901335789465,343.5435778808594,0.0011069622123613,-0.0043843104504048,-0.9987195134162904,0.0503873825073242,0.0397668254152674,0.0225559948745155,2.9434301685020112,0.140266478061676,0.0037316086236387,0.1016207337379455,0.0705973951471969,-0.1558597624674439,-9.893466664552689,15008.0
44.69,2.700000047683716,193.0,21.844528198242188,27.870967864990234,-79.78278331514923,40.45901334274919,344.1245715332032,0.0034755789674818,-0.0020250254310667,-0.9987834692001344,0.0491483435034751,0.0344593726451459,0.0148415301806487,2.9834702675386806,0.1483063697814941,-0.0177324060350656,0.113712690770626,0.0911534873396158,-0.2987054684199393,-9.977576522827151,15009.0
44.89,2.799999952316284,193.0,21.71431541442871,28.17313575744629,-79.78278335474161,40.45901334533212,344.42313262939456,0.0032526100985705,-0.0010991299059242,-0.9988334774971008,0.0481666140258312,0.0130843431655693,0.0065917878554708,2.9836975970896806,-0.0215205010026693,0.0371165163815021,0.044535469263792,0.0386005220375955,-0.2274905661866069,-9.87665358066559,15009.0
45.0,2.700000047683716,194.0,21.77942276000977,28.37988090515137,-79.78278334325628,40.459013260278994,345.00719329833987,0.0015755825443193,-0.0002401831006864,-0.9989103674888612,0.0466424860060215,0.0142892838109403,0.0127963445823636,2.974868792317838,-0.0053595588542521,0.0386927165091037,0.0047384495846927,0.004613243015483,0.158042619433254,-9.796184198856354,15010.0
45.19,2.700000047683716,194.0,21.83952140808105,27.12350082397461,-79.78278323629755,40.4590132515726,345.58865997314456,0.0006825376185588,-0.0015731691382825,-0.9989052414894104,0.0467489212751388,0.0063513945721987,0.0143533426586096,2.9806198386814016,0.0021959899459034,0.0647845119237899,0.0016389010706916,0.0493162482138723,-0.3067776044458151,-9.880992214679717,15010.0
45.3,2.700000047683716,193.0,21.845781326293945,27.131452560424805,-79.78278325015738,40.45901324015875,345.886130065918,0.0008151474758051,-0.0027974357362836,-0.9988793134689332,0.047240812331438,0.0048206329831023,0.0215669501410488,2.9704267605454344,-0.0498340502381324,-0.0404881462454795,-0.0427396222949028,0.0178816968086175,0.0105002745520323,-9.727380596995356,15010.0
45.39,2.700000047683716,195.0,21.76690101623535,28.92060089111328,-79.7827832170919,40.459013207510345,346.1719958496094,0.0011287967208772,-0.0042355451732873,-0.9988547563552856,0.0476457700133323,0.0118869879006677,0.0251835366421322,2.9573865009287004,0.0373563207685947,0.0645055994391441,-0.0014350068522617,0.0926721006073057,-0.0234540042467415,-9.698298300504684,15011.0
45.6,2.900000095367432,195.0,21.72683525085449,29.49312973022461,-79.78278324256058,40.45901318877712,346.7617556762696,0.0006678628269582,-0.0055987956002354,-0.9987550377845764,0.0495655424892902,0.0148472194424195,0.0367025677489657,2.930602574163338,0.045934934169054,-0.0469303950667381,-0.0114562958478927,0.109129034243524,-0.2611296891979873,-9.65912370979786,15011.0
45.69,3.0,193.0,21.875829696655277,26.84518814086914,-79.78278319855245,40.4590131181008,347.0491320800781,0.00019067361427,-0.0054609607905149,-0.9987185001373292,0.050315361469984,0.0010990772570642,0.0364608331397168,2.9362156948705325,-0.105788454413414,-0.0119921686127781,-0.1176117733120918,0.0276368145318701,0.2039862393401564,-9.652062027454376,15012.0
45.9,2.799999952316284,195.0,21.74060821533203,28.50710868835449,-79.78278320622586,40.45901310739119,347.630400390625,-0.0006000322173349,-0.0047123651020228,-0.9986761212348938,0.0512212514877319,0.0409905572224706,0.0163389212265404,2.923178854482866,0.1700047552585601,0.0286508854478597,0.0842861533164978,0.0556194644607603,-0.3568606875836849,-9.710272228717804,15012.0
46.09,2.799999952316284,193.0,21.83075523376465,27.81530570983887,-79.78278322965294,40.45901311706591,347.92261383056643,-0.0001065941469278,-0.0045226425863802,-0.9986916780471802,0.0509368628263473,0.0086237495714416,0.012433612395439,2.920608186368843,-0.1249554827809333,-0.0583142861723899,-0.0995426848530769,0.0034670882485806,0.1154662282951176,-9.703776556849482,15012.0
46.2,2.799999952316284,193.0,21.617908477783203,29.99409103393555,-79.78278319778666,40.45901307412012,348.50045654296883,-0.0003592704015318,-0.0029812753200531,-0.9987345337867736,0.0502036660909652,0.020332227185778,0.0127974546418986,2.915082584390064,0.1907288432121276,0.0872222036123275,0.0695377141237258,0.1099055810272693,-0.3073557844385505,-9.714071164727214,15013.0
46.29,2.799999952316284,190.0,21.795698165893555,27.544944763183597,-79.78278319692372,40.45901308147171,348.79227325439456,-0.0009982123738154,-0.0017650399822741,-0.9987462162971495,0.0500199608504772,-0.0052450373901811,0.0103631265858016,2.9183185090761974,-0.0833365768194198,0.0111572593450546,-0.0167853329330682,0.0324072768422774,-0.0958103926107287,-9.77936936080456,15013.0
46.49,2.700000047683716,188.0,21.735599517822266,29.588550567626957,-79.78278314300066,40.45901303386141,349.36859008789065,0.0009594263974577,-0.0018152027623727,-0.9987444281578064,0.0500545054674148,0.012651962530962,-0.0003857986601246,2.923700154523865,0.0901322811841964,0.0987065285444259,-0.0053396858274936,0.0765148641820997,0.1229376177303493,-9.738843478560447,15014.0
46.59,2.799999952316284,187.0,21.769405364990234,28.50710868835449,-79.7827831531155,40.45901303840354,349.66082641601565,0.0023799890186637,-0.0028495055157691,-0.9987426400184632,0.0499938949942588,0.0126673295581403,0.0073755677400165,2.9220890060427767,0.0831071212887764,0.0683309659361839,0.0413298942148685,0.0311584668955765,-0.179077703654766,-9.824025131464005,15014.0
46.79,2.799999952316284,188.0,21.6091423034668,29.34999847412109,-79.78278305973903,40.45901299835953,350.23621246337893,0.0024901700671762,-0.00426578335464,-0.9987143278121948,0.0504516884684562,-0.020715204441148,0.0206447494375575,2.9331886395893507,-0.1723314672708511,-0.049859132617712,-0.0854665711522102,0.0235902101104147,0.1918817720375955,-9.831249951124194,15015.0
46.99,2.799999952316284,188.0,21.660476684570312,30.16903114318848,-79.78278305114962,40.45901300430908,350.81326171875,-0.0007857021410018,-0.0047372370027005,-0.9986920952796936,0.0509033165872097,0.0175826984988121,0.0086034413695654,2.9305319027426933,-0.0041101020760834,0.0567899160087108,-0.0496559329330921,0.0965719924494624,0.0990574793703854,-9.876995058059691,15015.0
47.09,2.900000095367432,188.0,21.56532096862793,31.31408500671387,-79.78278307478418,40.45901302106592,351.10592529296883,-0.0007711908547207,-0.0036872450727969,-0.9986947178840636,0.0509388260543346,0.0344583213466922,0.004907534052927,2.92724225558595,0.0958328694105148,-0.0005702525377273,0.0773055255413055,0.0683303245715797,-0.190120554137975,-9.802806755304337,15016.0
