time,wind_speed,wind_angle,battery_voltage,battery_current,position_x,position_y,position_z,orientation_x,orientation_y,orientation_z,orientation_w,velocity_x,velocity_y,velocity_z,angular_x,angular_y,angular_z,linear_acceleration_x,linear_acceleration_y,linear_acceleration_z,node_ids
0.0,0.1000000014901161,166.0,25.00345230102539,-0.1351801604032516,0.0,0.0,0.0,0.0,0.0,-0.0,1.0,0.0,0.0,0.0,-0.0050035757012665,-0.0066580278798937,-0.0032451923470944,0.1135282143484801,0.0764367901487276,-9.805949633717535,1188161.0
0.2,0.1000000014901161,166.0,24.99594116210937,-0.1272283792495727,0.0,0.0,0.0,0.0,0.0,-0.0,1.0,0.0,0.0,0.0,-0.0055138324387371,-0.0013080765493214,-0.0049100015312433,0.1205792529322207,0.0523439593194052,-9.80918080508709,1188161.0
0.3,0.1000000014901161,161.0,25.002201080322266,-0.1113248318433761,0.0,0.0,0.0,0.0,0.0,-0.0,1.0,0.0,0.0,0.0,0.0028141152579337,0.0026333916466683,-0.0008662813925184,0.115184438182041,0.0678054318996146,-9.807107382416726,1188161.0
0.5,0.1000000014901161,159.0,24.994688034057607,-0.1510837078094482,0.0,0.0,0.0,0.0,0.0,-0.0,1.0,0.0,0.0,0.0,-0.0068549402058124,-0.0040716533549129,-0.0067728171125054,0.1210510592814535,0.0526850986713543,-9.810864218473435,1188161.0
0.61,0.1000000014901161,154.0,24.998443603515625,-0.1033730581402778,0.0,0.0,0.0,0.0,0.0,-0.0,1.0,0.0,0.0,0.0,0.0110695958137512,0.0034072895068675,0.0080051450058817,0.1185866406094282,0.0588732389733195,-9.807732449769976,1188161.0
0.8,0.1000000014901161,151.0,25.00094795227051,-0.1192766055464744,0.0,0.0,0.0,0.0,0.0,-0.0,1.0,0.0,0.0,0.0,-0.0030442557763308,-0.0011940830154344,-0.0062848427332937,0.1190663681086152,0.0582836660463362,-9.810223363637924,1188161.0
0.9,0.1000000014901161,145.0,25.002201080322266,-0.1192766055464744,0.0,0.0,0.0,0.0,0.0,-0.0,1.0,0.0,0.0,0.0,0.0039179031737148,0.0017189345089718,0.0096753342077136,0.1197461343370378,0.052002678355202,-9.809788915514948,1188161.0
1.1,0.1000000014901161,142.0,25.0072078704834,-0.1113248318433761,0.0,0.0,0.0,0.0,0.0,-0.0,1.0,0.0,0.0,0.0,0.0037960063200443,0.0034524397924542,-0.0021150857210159,0.1155023348517716,0.068968982133083,-9.807624276280404,1188161.0
1.2,0.1000000014901161,139.0,25.00345230102539,-0.1192766055464744,0.0,0.0,0.0,0.0,0.0,-0.0,1.0,0.0,0.0,0.0,-0.0015947041101753,0.0050975568592548,0.0033190408721566,0.1212492616195231,0.0521439023176208,-9.810502860546114,1188161.0
1.4,0.1000000014901161,136.0,25.002201080322266,-0.1113248318433761,0.0,0.0,0.0,0.0,0.0,-0.0,1.0,0.0,0.0,0.0,0.0047654095105826,0.0028750712517648,0.0068271327763795,0.1124157084804028,0.0762823825422674,-9.806186445951464,1188161.0
1.51,0.1000000014901161,131.0,25.002201080322266,-0.1113248318433761,0.0,0.0,0.0,0.0,0.0,-0.0,1.0,0.0,0.0,0.0,-0.004286537412554,0.0050517288036644,0.0042263520881533,0.1190912461839616,0.0564235662482678,-9.808754543066025,1188161.0
1.7,0.1000000014901161,129.0,25.002201080322266,-0.1192766055464744,0.0,0.0,0.0,0.0,0.0,-0.0,1.0,0.0,0.0,0.0,0.0061931698583066,0.0060426848940551,0.0089243622496724,0.1128868022002279,0.0785579270124435,-9.805688263177872,1188161.0
1.8,0.1000000014901161,128.0,25.00470542907715,-0.1192766055464744,0.0,0.0,0.0,0.0,0.0,-0.0,1.0,0.0,0.0,0.0,-0.0055280607193708,-0.0031245932914316,-0.0010473979637026,0.1180926148407161,0.0622262973804026,-9.808123628497125,1188161.0
2.0,0.1000000014901161,127.0,24.99594116210937,-0.1272283792495727,0.0,0.0,0.0,0.0,0.0,-0.0,1.0,0.0,0.0,0.0,0.0023190816864371,0.0074541978538036,0.0084488857537508,0.1134353897999972,0.0743892779527232,-9.806308068037032,1188161.0
2.1,0.1000000014901161,127.0,25.002201080322266,-0.1192766055464744,0.0,0.0,0.0,0.0,0.0,-0.0,1.0,0.0,0.0,0.0,-0.0093281576409935,-0.0011409204453229,-0.0064633041620254,0.114426849167794,0.0708352215075865,-9.80706879079342,1188161.0
2.3,0.1000000014901161,128.0,24.985923767089844,-0.1351801604032516,0.0,0.0,0.0,0.0,0.0,-0.0,1.0,0.0,0.0,0.0,0.0002346854889765,0.0023473883047699,0.0049596228636801,0.1141225929558277,0.0681625414593145,-9.807826589941977,1188161.0
2.4,0.1000000014901161,132.0,25.00094795227051,-0.1272283792495727,0.0,0.0,0.0,0.0,0.0,-0.0,1.0,0.0,0.0,0.0,-0.0107930889353156,-0.0059710466302931,-0.007872519083321,0.1127903505507856,0.0759124136762693,-9.805564886927606,1188161.0
2.6,0.1000000014901161,135.0,25.0072078704834,-0.1192766055464744,0.0,0.0,0.0,0.0,0.0,-0.0,1.0,0.0,0.0,0.0,-0.0014202164020389,0.0030292535666376,0.0024201581254601,0.1167153306026011,0.061366153685376,-9.80784237742424,1188161.0
2.71,0.1000000014901161,138.0,25.00094795227051,-0.1192766055464744,0.0,0.0,0.0,0.0,0.0,-0.0,1.0,0.0,0.0,0.0,-0.0075236880220472,-0.0033593426924198,-0.0067322901450097,0.1136265297979116,0.0775856081396341,-9.805581259131433,1188161.0
2.9,0.1000000014901161,139.0,25.00345230102539,-0.1033730581402778,0.0,0.0,0.0,0.0,0.0,-0.0,1.0,0.0,0.0,0.0,-0.0051068468019366,-0.0011524469591677,-0.0054412460885941,0.1196846746187657,0.0539517883071675,-9.80897673726082,1188161.0
3.0,0.0,141.0,24.998443603515625,-0.1192766055464744,0.0,0.0,0.0,0.0,0.0,-0.0,1.0,0.0,0.0,0.0,0.0026461295783519,-0.0001240526762558,-0.0023898005019873,0.1140956318099051,0.0724763430794701,-9.807051833868028,1188161.0
3.2,0.0,142.0,24.994688034057607,-0.1113248318433761,0.0,0.0,0.0,0.0,0.0,-0.0,1.0,0.0,0.0,0.0,-0.0078759873285889,-0.0043047787621617,-0.0090660769492387,0.1210853842645883,0.050628331429325,-9.809973687529563,1188161.0
3.3,0.0,145.0,25.00470542907715,-0.1113248318433761,0.0,0.0,0.0,0.0,0.0,-0.0,1.0,0.0,0.0,0.0,0.0040688454173505,0.0047102207317948,0.0071354354731738,0.1181117279268801,0.0598385320510715,-9.808686715364455,1188161.0
3.5,0.0,146.0,24.9971923828125,-0.1272283792495727,0.0,0.0,0.0,0.0,0.0,-0.0,1.0,0.0,0.0,0.0,-0.0035025547258555,-0.0035017901100218,-0.0089200409129261,0.1191309250239282,0.0556408844562247,-9.80986726820469,1188161.0
3.6,0.0,150.0,24.999696731567383,-0.1272283792495727,0.0,0.0,0.0,0.0,0.0,-0.0,1.0,0.0,0.0,0.0,0.0078569436445832,0.0052234372124075,0.006667333189398,0.1201210961770266,0.0517209110828116,-9.809812304377555,1188161.0
3.8,0.0,150.0,24.9871768951416,-0.1272283792495727,0.0,0.0,0.0,0.0,0.0,-0.0,1.0,0.0,0.0,0.0,0.0011427355930209,-0.0007783438195474,0.0013767126947641,0.1165011123754084,0.0679090326838195,-9.808465105891226,1188161.0
3.9,0.0,149.0,24.99594116210937,-0.1192766055464744,0.0,0.0,0.0,0.0,0.0,-0.0,1.0,0.0,0.0,0.0,-0.0022318481933325,0.0035281057935208,0.005402473732829,0.1202469940390438,0.0511806831741705,-9.808629412651063,1188161.0
4.1,0.0,147.0,25.01722526550293,-0.0477106422185897,0.0,0.0,0.0,0.0,0.0,-0.0,1.0,0.0,0.0,0.0,0.0042932927608489,0.0038511797320097,0.0046156095340847,0.1135557328071445,0.0758167568827048,-9.806053714156151,1188161.0
4.2,0.0,145.0,24.99093246459961,-0.1272283792495727,0.0,0.0,0.0,0.0,0.0,-0.0,1.0,0.0,0.0,0.0,-0.006281916052103,0.0018309013685211,-0.0004383465857245,0.117938568117097,0.0587378942035138,-9.808009023070335,1188161.0
4.4,0.0,146.0,25.002201080322266,-0.1192766055464744,0.0,0.0,0.0,0.0,0.0,-0.0,1.0,0.0,0.0,0.0,0.0059823524206876,0.0053287344053387,0.0061131324619054,0.1129348224587738,0.0756392984557896,-9.806024478077893,1188161.0
4.5,0.1000000014901161,146.0,24.999696731567383,-0.1351801604032516,0.0,0.0,0.0,0.0,0.0,-0.0,1.0,0.0,0.0,0.0,-0.0069141266867518,-0.0037047518417239,-0.0058293892070651,0.1152282009366899,0.0707625561486929,-9.807762855291369,1188161.0
4.7,0.1000000014901161,145.0,25.005956649780277,-0.1272283792495727,0.0,0.0,0.0,0.0,0.0,-0.0,1.0,0.0,0.0,0.0,-0.0024251195136457,0.0047596734948456,0.0071117328479886,0.1160838678572327,0.0656209715176373,-9.80765058875084,1188161.0
4.8,0.1000000014901161,141.0,25.002201080322266,-0.1192766055464744,0.0,0.0,0.0,0.0,0.0,-0.0,1.0,0.0,0.0,0.0,-0.0076189734973013,-0.0045819715596735,-0.0031801301520317,0.1139762937929481,0.077607178883627,-9.806091136336327,1188161.0
5.0,0.1000000014901161,140.0,24.99218368530273,-0.1272283792495727,0.0,0.0,0.0,0.0,0.0,-0.0,1.0,0.0,0.0,0.0,-0.0069847987033426,0.0001539722288725,-0.0007642244454473,0.1185046608187258,0.0547001268435269,-9.807804955244064,1188161.0
5.1,0.1000000014901161,136.0,24.998443603515625,-0.1272283792495727,0.0,0.0,0.0,0.0,0.0,-0.0,1.0,0.0,0.0,0.0,0.0009657381451688,-0.0012044039322063,-0.0014659230364486,0.1135771390981972,0.0733024267433211,-9.806534940004347,1188161.0
5.3,0.1000000014901161,135.0,25.0072078704834,-0.1113248318433761,0.0,0.0,0.0,0.0,0.0,-0.0,1.0,0.0,0.0,0.0,-0.0110034449025988,-0.0062597561627626,-0.0058301882818341,0.1208122644759714,0.0505244565568864,-9.810585891008378,1188161.0
5.4,0.1000000014901161,133.0,25.00345230102539,-0.1192766055464744,0.0,0.0,0.0,0.0,0.0,-0.0,1.0,0.0,0.0,0.0,0.0046766432933509,-0.0006082304171286,0.0028948667459189,0.1162374577671289,0.0635119265131652,-9.808049953579904,1188161.0
5.6,0.1000000014901161,133.0,24.99594116210937,-0.1272283792495727,0.0,0.0,0.0,0.0,0.0,-0.0,1.0,0.0,0.0,0.0,-0.0062175439670681,-0.003766615409404,-0.0094118295237422,0.1198852980695664,0.0530208247806876,-9.809954391717907,1188161.0
5.7,0.1000000014901161,133.0,24.99343681335449,-0.1192766055464744,0.0,0.0,0.0,0.0,0.0,-0.0,1.0,0.0,0.0,0.0,0.0054827081039547,0.0030469268094748,0.0087855970486998,0.1181437505688518,0.0556959853274747,-9.807724848389627,1188161.0
5.9,0.1000000014901161,132.0,24.98967933654785,-0.1669872552156448,0.0,0.0,0.0,0.0,0.0,-0.0,1.0,0.0,0.0,0.0,0.0021848115138709,-0.0016240561380982,-0.0036692884750664,0.1170553827378898,0.0601909547019749,-9.808444640636443,1188161.0
6.0,0.1000000014901161,129.0,24.9971923828125,-0.1351801604032516,0.0,0.0,0.0,0.0,0.0,-0.0,1.0,0.0,0.0,0.0,0.0073602218180894,0.0017760553164407,0.0091171693056821,0.1205421779304742,0.0512215086165815,-9.809490122795104,1188161.0
6.2,0.1000000014901161,127.0,24.9971923828125,-0.1351801604032516,0.0,0.0,0.0,0.0,0.0,-0.0,1.0,0.0,0.0,0.0,0.0041005429811775,-0.0009136523585766,0.0029584716539829,0.1140442494023591,0.0707785629015416,-9.80665422320366,1188161.0
6.31,0.1000000014901161,125.0,24.9971923828125,-0.1351801604032516,0.0,0.0,0.0,0.0,0.0,-0.0,1.0,0.0,0.0,0.0,-0.0014817790361121,0.0014374613529071,0.006682647857815,0.1207141957059502,0.052783478074707,-9.81021400809288,1188161.0
6.5,0.1000000014901161,125.0,24.99594116210937,-0.1431319266557693,0.0,0.0,0.0,0.0,0.0,-0.0,1.0,0.0,0.0,0.0,0.0060431375168263,0.0038450174033641,0.0071903243660926,0.1124261329695582,0.0778265316970646,-9.805961912870409,1188161.0
6.6,0.0,124.0,24.98091506958008,-0.1351801604032516,0.0,0.0,0.0,0.0,0.0,-0.0,1.0,0.0,0.0,0.0,-0.0049612182192504,-0.0017904104897752,-0.0018536290153861,0.1182049818802625,0.0594786176551133,-9.809691851735115,1188161.0
6.81,0.0,123.0,24.99218368530273,-0.1192766055464744,0.0,0.0,0.0,0.0,0.0,-0.0,1.0,0.0,0.0,0.0,0.0070660384371876,0.0057900589890778,0.0082629192620515,0.1126705557201057,0.0765303958486765,-9.806189369559286,1188161.0
6.91,0.0,121.0,24.9971923828125,-0.1272283792495727,0.0,0.0,0.0,0.0,0.0,-0.0,1.0,0.0,0.0,0.0,-0.0067663518711924,-0.0024019484408199,-0.0048061041161417,0.115005422020331,0.0700041540060192,-9.80826688528061,1188161.0
7.1,0.0,120.0,25.00094795227051,-0.1113248318433761,0.0,0.0,0.0,0.0,0.0,-0.0,1.0,0.0,0.0,0.0,-0.0004086963017471,0.0040468373335897,0.003147589508444,0.1157775833923369,0.0669768129196018,-9.807904942631724,1188161.0
7.2,0.0,120.0,25.00094795227051,-0.1113248318433761,0.0,0.0,0.0,0.0,0.0,-0.0,1.0,0.0,0.0,0.0,-0.0083841513842344,-0.0027026119641959,-0.008334239013493,0.1122085982747376,0.0779174284916371,-9.806425597071648,1188161.0
7.41,0.0,121.0,25.002201080322266,-0.1113248318433761,0.0,0.0,0.0,0.0,0.0,-0.0,1.0,0.0,0.0,0.0,-0.0073367794975638,-0.0008235158165916,5.5070773669285707e-05,0.1192480611987412,0.0557860918343067,-9.808337636590004,1188161.0
7.5,0.0,121.0,24.994688034057607,-0.1113248318433761,0.0,0.0,0.0,0.0,0.0,-0.0,1.0,0.0,0.0,0.0,0.0012015685206279,-0.0023254943080246,-0.002676119795069,0.1127321524824947,0.074800766617991,-9.80574381172657,1188161.0
7.7,0.0,122.0,25.00094795227051,-0.1272283792495727,0.0,0.0,0.0,0.0,0.0,-0.0,1.0,0.0,0.0,0.0,-0.0054955328814685,-0.004367611836642,-0.0061996397562325,0.1211337882466614,0.051301208906807,-9.809983627796171,1188161.0
7.81,0.0,124.0,24.99218368530273,-0.1033730581402778,0.0,0.0,0.0,0.0,0.0,-0.0,1.0,0.0,0.0,0.0,0.004546308889985,0.000914265809115,0.0012962943874299,0.1155008730478584,0.0658230339316651,-9.807586854100226,1188161.0
8.0,0.0,125.0,25.002201080322266,-0.1192766055464744,0.0,0.0,0.0,0.0,0.0,-0.0,1.0,0.0,0.0,0.0,-0.0072499318048357,-0.0034190227743238,-0.0050865798257291,0.1188934641145169,0.0535378876654431,-9.80880950689316,1188161.0
8.1,0.1000000014901161,129.0,25.005956649780277,-0.1192766055464744,0.0,0.0,0.0,0.0,0.0,-0.0,1.0,0.0,0.0,0.0,0.0062327091582119,0.0034021721221506,0.0081014623865485,0.1204185275919735,0.0528725750232115,-9.808759805560111,1188161.0
8.3,0.1000000014901161,130.0,25.00094795227051,-0.1192766055464744,0.0,0.0,0.0,0.0,0.0,-0.0,1.0,0.0,0.0,0.0,0.004805979784578,0.0023070203606039,0.0016873040003702,0.1150944458786398,0.0673183862445876,-9.807583345770835,1188161.0
8.41,0.1000000014901161,132.0,24.999696731567383,-0.1113248318433761,0.0,0.0,0.0,0.0,0.0,-0.0,1.0,0.0,0.0,0.0,-6.580881017725916e-05,-0.0010276837274432,0.005822748877108,0.1212067596707493,0.05233323790133,-9.809401245117188,1188161.0
8.6,0.1000000014901161,134.0,24.994688034057607,-0.1272283792495727,0.0,0.0,0.0,0.0,0.0,-0.0,1.0,0.0,0.0,0.0,0.0084305228665471,0.0050649964250624,0.00677106436342,0.1129678318183869,0.0795170622412115,-9.80530468583107,1188161.0
8.7,0.1000000014901161,135.0,25.002201080322266,-0.1192766055464744,0.0,0.0,0.0,0.0,0.0,-0.0,1.0,0.0,0.0,0.0,-0.0075004696846008,-0.0019642282277345,-0.0057312352582812,0.1160108507517725,0.0657413510698825,-9.807214386463167,1188161.0
8.9,0.1000000014901161,136.0,25.00345230102539,-0.1351801604032516,0.0,0.0,0.0,0.0,0.0,-0.0,1.0,0.0,0.0,0.0,0.0024702695664018,0.0019866824150085,0.0056270286440849,0.1145806492120027,0.0713620190927758,-9.805928583741188,1188161.0
9.0,0.1000000014901161,134.0,25.005956649780277,-0.1272283792495727,0.0,0.0,0.0,0.0,0.0,-0.0,1.0,0.0,0.0,0.0,-0.0090453941375017,-0.0009066782658919,-0.0069381794892251,0.1121405330300331,0.07679213183932,-9.805556116104126,1188161.0
9.2,0.1000000014901161,134.0,24.99343681335449,-0.1192766055464744,0.0,0.0,0.0,0.0,0.0,-0.0,1.0,0.0,0.0,0.0,-0.0083559602499008,-0.0036828680895268,-0.0011400900548323,0.1186511152982712,0.0572988852951675,-9.807831852436069,1188161.0
9.3,0.1000000014901161,133.0,24.9971923828125,-0.1192766055464744,0.0,0.0,0.0,0.0,0.0,-0.0,1.0,0.0,0.0,0.0,0.0001078407440218,0.0020052052568644,-0.0017240181332454,0.1118034410476684,0.073016548147425,-9.806399284601213,1188161.0
9.5,0.1000000014901161,133.0,25.00470542907715,-0.1272283792495727,0.0,0.0,0.0,0.0,0.0,-0.0,1.0,0.0,0.0,0.0,-0.0084438677877187,-0.0070474161766469,-0.0082599939778447,0.1195301345363259,0.0505274943681433,-9.809342188239098,1188161.0
9.6,0.1000000014901161,133.0,24.98967933654785,-0.1192766055464744,0.0,0.0,0.0,0.0,0.0,-0.0,1.0,0.0,0.0,0.0,0.002668720902875,0.0049690259620547,0.0070619555190205,0.1189062183536589,0.056132215023972,-9.80817216038704,1188161.0
9.8,0.1000000014901161,132.0,24.9971923828125,-0.1033730581402778,0.0,0.0,0.0,0.0,0.0,-0.0,1.0,0.0,0.0,0.0,0.0026448785793036,0.0021584148053079,-0.0015443791635334,0.1162376130837947,0.065101811857894,-9.80732723772526,1188161.0
9.9,0.1000000014901161,133.0,24.999696731567383,-0.1192766055464744,0.0,0.0,0.0,0.0,0.0,-0.0,1.0,0.0,0.0,0.0,-0.0028664963319897,0.0007126230048015,0.0051312372088432,0.1202359208744019,0.0525671904813498,-9.809342188239098,1188161.0
10.1,0.1000000014901161,133.0,25.00345230102539,-0.1113248318433761,0.0,0.0,0.0,0.0,0.0,-0.0,1.0,0.0,0.0,0.0,0.0088429786264896,0.0043022846803069,0.0071171554736793,0.1127022220473736,0.0783088995795697,-9.806200479269028,1188161.0
10.2,0.1000000014901161,134.0,25.002201080322266,-0.1192766055464744,0.0,0.0,0.0,0.0,0.0,-0.0,1.0,0.0,0.0,0.0,-0.006911133415997,-9.860667341854425e-05,-0.0071485098451375,0.1145855097100138,0.068656073869206,-9.807340101599694,1188161.0
10.4,0.1000000014901161,134.0,24.998443603515625,-0.1113248318433761,0.0,0.0,0.0,0.0,0.0,-0.0,1.0,0.0,0.0,0.0,-0.0012503545731306,0.0037168283015489,0.0042866906151175,0.1163845426496118,0.0657553524104878,-9.806750702261926,1188161.0
10.5,0.1000000014901161,134.0,25.002201080322266,-0.0954212844371795,0.0,0.0,0.0,0.0,0.0,-0.0,1.0,0.0,0.0,0.0,-0.0048383786343038,-0.0056971637532114,-0.0094385789707303,0.1115800043195486,0.077599860727787,-9.805780064463615,1188161.0
10.7,0.1000000014901161,134.0,24.99343681335449,-0.1828908026218414,0.0,0.0,0.0,0.0,0.0,-0.0,1.0,0.0,0.0,0.0,-0.0097743868827819,-0.001795076415874,-0.0069648595526814,0.1199896069150418,0.0514965652953833,-9.808837573528288,1188161.0
10.81,0.1000000014901161,134.0,24.999696731567383,-0.1192766055464744,0.0,0.0,0.0,0.0,0.0,-0.0,1.0,0.0,0.0,0.0,0.0048966514877975,0.0016154875047504,0.0014877816429361,0.1158741720858961,0.066170308291912,-9.807400327920917,1188161.0
11.0,0.1000000014901161,134.0,25.00345230102539,-0.1113248318433761,0.0,0.0,0.0,0.0,0.0,-0.0,1.0,0.0,0.0,0.0,-0.0051215547136962,-0.0039596487767994,-0.0066744429059326,0.1187299430742859,0.0543611253798008,-9.809022930264474,1188161.0
11.1,0.1000000014901161,133.0,24.99093246459961,-0.1192766055464744,0.0,0.0,0.0,0.0,0.0,-0.0,1.0,0.0,0.0,0.0,0.0042886906303465,0.004452128894627,0.0110564082860946,0.1205219045374542,0.0507253449596464,-9.810090047121047,1188161.0
11.3,0.1000000014901161,132.0,24.999696731567383,-0.1272283792495727,0.0,0.0,0.0,0.0,0.0,-0.0,1.0,0.0,0.0,0.0,0.0037640954833477,0.0022880812175571,0.0051344684325158,0.1147173918318003,0.0706246029725298,-9.807386294603347,1188161.0
11.4,0.1000000014901161,132.0,24.998443603515625,-0.1113248318433761,0.0,0.0,0.0,0.0,0.0,-0.0,1.0,0.0,0.0,0.0,-0.0031054548453539,0.0045266128145158,0.002034573117271,0.120284306583926,0.053264425266534,-9.809945620894432,1188161.0
11.6,0.1000000014901161,132.0,25.002201080322266,-0.1113248318433761,0.0,0.0,0.0,0.0,0.0,-0.0,1.0,0.0,0.0,0.0,0.0077348891645669,0.0070308404974639,0.0089446669444441,0.113673581611365,0.0786569642275571,-9.806604521870613,1188161.0
11.7,0.1000000014901161,131.0,24.999696731567383,-0.1351801604032516,0.0,0.0,0.0,0.0,0.0,-0.0,1.0,0.0,0.0,0.0,-0.0102607943117618,0.0008464835700578,-0.0031021339818835,0.1148806753288954,0.066073061786592,-9.806333795785903,1188161.0
11.9,0.1000000014901161,131.0,25.00345230102539,-0.1272283792495727,0.0,0.0,0.0,0.0,0.0,-0.0,1.0,0.0,0.0,0.0,0.0006502749747596,0.0022028195671737,0.0046294420026242,0.1124047175422311,0.0714237666036933,-9.805502906441689,1188161.0
12.01,0.1000000014901161,131.0,24.99594116210937,-0.1351801604032516,0.0,0.0,0.0,0.0,0.0,-0.0,1.0,0.0,0.0,0.0,-0.0079510090872645,-0.003401773283258,-0.0082770157605409,0.1131037795823067,0.0754447186505422,-9.806486408114433,1188161.0
12.2,0.1000000014901161,131.0,24.9871768951416,-0.1192766055464744,0.0,0.0,0.0,0.0,0.0,-0.0,1.0,0.0,0.0,0.0,-0.0046201674267649,-0.0014419796643778,0.0038328496739268,0.1178505218401551,0.0603155003953725,-9.807578667998314,1188161.0
12.31,0.1000000014901161,131.0,24.999696731567383,-0.1113248318433761,0.0,0.0,0.0,0.0,0.0,-0.0,1.0,0.0,0.0,0.0,-0.0030459221452474,-0.0048842867836356,-0.0051983217708766,0.1136646463349461,0.0772865413315594,-9.805247383117676,1188161.0
12.5,0.1000000014901161,131.0,25.002201080322266,-0.1192766055464744,0.0,0.0,0.0,0.0,0.0,-0.0,1.0,0.0,0.0,0.0,-0.0065195630304515,-0.0010658120736479,-0.0065697133541107,0.1192775439564138,0.0534851987706497,-9.808316586613657,1188161.0
12.6,0.1000000014901161,132.0,24.999696731567383,-0.1272283792495727,0.0,0.0,0.0,0.0,0.0,-0.0,1.0,0.0,0.0,0.0,0.0050973990000784,-0.0013939915224909,0.0024641414638608,0.1158687816839665,0.0705639335419982,-9.807384540438653,1188161.0
12.8,0.1000000014901161,133.0,24.994688034057607,-0.1351801604032516,0.0,0.0,0.0,0.0,0.0,-0.0,1.0,0.0,0.0,0.0,-0.0086219832301139,-0.007230348419398,-0.0088492343202233,0.1225006571318954,0.0522215241054073,-9.8086691737175,1188161.0
12.91,0.1000000014901161,133.0,24.99343681335449,-0.1272283792495727,0.0,0.0,0.0,0.0,0.0,-0.0,1.0,0.0,0.0,0.0,0.0070506366901099,0.0084521416574716,0.0038681775331497,0.1177767555601894,0.0616106403898447,-9.806855367422104,1188161.0
13.1,0.1000000014901161,133.0,24.99093246459961,-0.1749390214681625,0.0,0.0,0.0,0.0,0.0,-0.0,1.0,0.0,0.0,0.0,-0.0041566179133951,-0.0019028959795832,-0.0088221980258822,0.1189140298683196,0.056153465998359,-9.809381949305536,1188161.0
13.2,0.1000000014901161,132.0,24.99594116210937,-0.1351801604032516,0.0,0.0,0.0,0.0,0.0,-0.0,1.0,0.0,0.0,0.0,0.0042750872671604,0.0043420456349849,0.0037174003664404,0.1191359956562519,0.0536523012304678,-9.807640648484233,1188161.0
13.4,0.1000000014901161,132.0,24.99093246459961,-0.1669872552156448,0.0,0.0,0.0,0.0,0.0,-0.0,1.0,0.0,0.0,0.0,0.0024654890876263,-0.000486518983962,-0.0027010738849639,0.1165831013023853,0.063930651107803,-9.807502654194831,1188161.0
13.5,0.1000000014901161,133.0,24.99594116210937,-0.1272283792495727,0.0,0.0,0.0,0.0,0.0,-0.0,1.0,0.0,0.0,0.0,0.0045451964251697,0.0061148507520556,0.0052967257797718,0.1207734718546271,0.0497467403300106,-9.809973102808,1188161.0
13.7,0.1000000014901161,134.0,24.99093246459961,-0.1669872552156448,0.0,0.0,0.0,0.0,0.0,-0.0,1.0,0.0,0.0,0.0,0.0058684744872152,0.0052841617725789,0.0077013471163809,0.1128812016639858,0.0758057842170819,-9.805873619914056,1188161.0
13.8,0.1000000014901161,136.0,24.98341941833496,-0.1272283792495727,0.0,0.0,0.0,0.0,0.0,-0.0,1.0,0.0,0.0,0.0,-0.0059830900281667,0.000917746045161,0.0008512565400451,0.1181588711030781,0.0582486923877149,-9.80808737576008,1188161.0
14.0,0.1000000014901161,136.0,24.99218368530273,-0.1431319266557693,0.0,0.0,0.0,0.0,0.0,-0.0,1.0,0.0,0.0,0.0,0.0039385920390486,0.0054029813036322,0.0061477334238588,0.1129049102962017,0.0773636514879763,-9.805902271270751,1188161.0
14.1,0.1000000014901161,138.0,24.99594116210937,-0.1192766055464744,0.0,0.0,0.0,0.0,0.0,-0.0,1.0,0.0,0.0,0.0,-0.0084974151104688,-0.0027979756705462,-0.0088351173326373,0.1152839870285242,0.0698988858517259,-9.806929042339323,1188161.0
14.3,0.1000000014901161,138.0,24.98216819763184,-0.1113248318433761,0.0,0.0,0.0,0.0,0.0,-0.0,1.0,0.0,0.0,0.0,-0.0003500930906739,9.1325280664023e-05,0.0031126192770898,0.1158605224918574,0.0676323177712038,-9.807293323874475,1188161.0
14.4,0.1000000014901161,139.0,25.002201080322266,-0.1033730581402778,0.0,0.0,0.0,0.0,0.0,-0.0,1.0,0.0,0.0,0.0,-0.009299392811954,-0.0069659017026424,-0.0076642907224595,0.1120144067611545,0.0783350110519677,-9.805646163225177,1188161.0
14.6,0.1000000014901161,139.0,24.9971923828125,-0.1351801604032516,0.0,0.0,0.0,0.0,0.0,-0.0,1.0,0.0,0.0,0.0,-0.0089981062337756,-0.0018202712526544,-0.0042958389967679,0.1186415770277381,0.0552837566239759,-9.807247715592387,1188161.0
14.71,0.1000000014901161,140.0,24.99218368530273,-0.1113248318433761,0.0,0.0,0.0,0.0,0.0,-0.0,1.0,0.0,0.0,0.0,-0.0027142788749188,0.0005444540875032,-0.0039275786839425,0.1131985592935234,0.0736559137701988,-9.805439171791075,1188161.0
14.9,0.1000000014901161,142.0,24.99594116210937,-0.1272283792495727,0.0,0.0,0.0,0.0,0.0,-0.0,1.0,0.0,0.0,0.0,-0.0079915495589375,-0.0070833596400916,-0.0059030745178461,0.1215275434032082,0.0494250795152038,-9.80976143360138,1188161.0
15.0,0.1000000014901161,145.0,24.999696731567383,-0.1192766055464744,0.0,0.0,0.0,0.0,0.0,-0.0,1.0,0.0,0.0,0.0,0.0040522976778447,0.0044873235747218,0.0047042127698659,0.1164175885543227,0.0614364618854597,-9.808072172999385,1188161.0
15.2,0.1000000014901161,148.0,24.999696731567383,-0.1272283792495727,0.0,0.0,0.0,0.0,0.0,-0.0,1.0,0.0,0.0,0.0,-0.003726591123268,-0.0042077382095158,-0.006378199905157,0.1194226097222417,0.0558521105535328,-9.808746941685676,1188161.0
15.3,0.1000000014901161,159.0,25.00094795227051,-0.1272283792495727,0.0,0.0,0.0,0.0,0.0,-0.0,1.0,0.0,0.0,0.0,0.006491211708635,0.0069044330157339,0.0063843163661658,0.1209747896622866,0.0503349062707275,-9.809443929791447,1188161.0
15.5,0.1000000014901161,164.0,24.999696731567383,-0.1351801604032516,0.0,0.0,0.0,0.0,0.0,-0.0,1.0,0.0,0.0,0.0,0.0038089982699602,0.0043467497453093,0.0055692074820399,0.1140356887131929,0.0736726103117689,-9.806696907877924,1188161.0
15.6,0.1000000014901161,177.0,24.953371047973643,0.2942156493663788,0.0,0.0,0.0,0.0,0.0,-0.0,1.0,0.0,0.0,0.0,-0.0051164533942937,0.0025784254539757,-0.0003755849902518,0.1182334687840193,0.0581343793217092,-9.808903647065163,1188161.0
15.8,0.1000000014901161,183.0,24.96338653564453,0.2067461162805557,0.0,0.0,0.0,0.0,0.0,-0.0,1.0,0.0,0.0,0.0,0.0012145800283178,0.0022612230386585,0.0075632235966622,0.0997239340469241,0.0769820658490061,-9.80610692381859,1188161.0
15.9,0.1000000014901161,193.0,24.96714401245117,0.1828908026218414,0.0,0.0,0.0,0.0,0.0,-0.0,1.0,0.0,0.0,0.0,-0.0090591162443161,-0.0036846511065959,-0.0071286540478467,0.1151545717008412,0.0733666912978515,-9.807977448105811,1188161.0
16.1,0.1000000014901161,199.0,24.968395233154297,0.1669872552156448,0.0,0.0,0.0,0.0,0.0,-0.0,1.0,0.0,0.0,0.0,0.0011296223383396,0.0004290232318453,-0.0034963018260896,0.1177251173369586,0.0603498436510562,-9.804068584442142,1188161.0
16.21,0.0,209.0,24.96338653564453,0.1749390214681625,0.0,0.0,0.0,0.0,0.0,-0.0,1.0,0.0,0.0,0.0,-0.0031806922052055,-0.0048177344724535,-0.0041665830649435,0.1114247059263289,0.0743399100936949,-9.803150571584704,1188161.0
16.4,0.1000000014901161,213.0,24.96213531494141,0.2385532110929489,0.0,0.0,0.0,0.0,0.0,-0.0,1.0,0.0,0.0,0.0,-0.0099869463592767,-0.0070414636284112,-0.0070023103617131,0.1201671612728387,0.0563863907475024,-9.807711399793622,1188161.0
16.5,0.1000000014901161,218.0,24.96088218688965,0.2624085247516632,0.0,0.0,0.0,0.0,0.0,-0.0,1.0,0.0,0.0,0.0,0.0056033935397863,0.0016167239518836,0.0022354011889547,0.1130237092729658,0.062232902906835,-9.807745313644409,1188161.0
16.7,0.1000000014901161,221.0,24.94961357116699,0.3339745104312897,0.0,0.0,0.0,0.0,0.0,-0.0,1.0,0.0,0.0,0.0,-0.0023810821585357,-0.0001375381107209,-0.0059467847459018,0.1132637740205973,0.0564943815115839,-9.803484447598455,1188161.0
16.8,0.1000000014901161,220.0,23.06527900695801,13.883797645568848,0.0,0.0,0.0,0.0,0.0,-0.0,1.0,0.0,0.0,0.0,-0.0021905836183577,0.0004375110438559,0.009109565988183,0.1219443676527589,0.0843071287125349,-9.81275286912918,1188161.0
17.0,0.1000000014901161,219.0,24.933338165283203,0.2067461162805557,0.0,0.0,0.0,0.0,0.0,-0.0,1.0,0.0,0.0,0.0,-0.0040286583825945,0.0101501373574137,0.006251907441765,0.1043918942101299,0.041864620540291,-9.809411770105363,1188161.0
17.1,0.1000000014901161,216.0,24.96463966369629,0.1192766055464744,0.0,0.0,0.0,0.0,0.0,-0.0,1.0,0.0,0.0,0.0,-0.0284035000950098,0.0085647944360971,-0.0051496494561433,0.1499299183487892,0.085447280947119,-9.802953520417214,1188161.0
17.3,0.1000000014901161,214.0,24.81814956665039,0.7077078819274902,0.0,0.0,0.0,0.0,0.0,-0.0,1.0,0.0,0.0,0.0,-0.0243272557854652,0.0431379489600658,-0.0020429396536201,0.1149491334334016,0.0424324856791645,-9.816738331317902,1188161.0
17.41,0.2000000029802322,213.0,24.92457389831543,0.2146978974342346,0.0,0.0,0.0,0.0,0.0,-0.0,1.0,0.0,0.0,0.0,0.0077804485335946,0.0451911352574825,0.0104542765766382,0.1176405885256827,0.0672201484534889,-9.801181814074516,1188161.0
17.6,0.2000000029802322,212.0,24.952117919921875,0.1192766055464744,0.0,0.0,0.0,0.0,0.0,-0.0,1.0,0.0,0.0,0.0,0.0114020621404051,-0.0049765217117965,-0.003955072723329,0.1101195891201496,0.01385418263264,-9.817526535987854,1188161.0
17.7,0.2000000029802322,208.0,24.947111129760746,0.1749390214681625,0.0,0.0,0.0,0.0,0.0,-0.0,1.0,0.0,0.0,0.0,-0.0201132614165544,-0.0253408830612897,0.0004606792645063,0.1153975783288479,0.0577459962945431,-9.814119948148726,1188161.0
17.9,0.2000000029802322,207.0,24.893272399902344,0.8667433857917786,0.0,0.0,0.0,0.0,0.0,-0.0,1.0,0.0,0.0,0.0,-0.0118901543319225,0.0025227384176105,-0.005952282808721,0.120060166362673,0.0945848162099719,-9.816964033842089,1188161.0
18.0,0.3000000119209289,205.0,24.863222122192383,1.0416823625564575,0.0,0.0,0.0,0.0,0.0,-0.0,1.0,0.0,0.0,0.0,0.0045083500444889,0.011302201077342,0.0021235193125903,0.1321714401897043,0.0750119653064757,-9.819003542661669,1188161.0
18.2,0.3000000119209289,203.0,24.8507022857666,1.2325249910354614,0.0,0.0,0.0,0.0,0.0,-0.0,1.0,0.0,0.0,0.0,-0.0142887365072965,-0.0010990452719852,-0.0003377428511157,0.120065903943032,0.0632697741268202,-9.809653844833372,1188161.0
18.3,0.3000000119209289,199.0,24.8507022857666,1.343849778175354,0.0,0.0,0.0,0.0,0.0,-0.0,1.0,0.0,0.0,0.0,-0.0081083765253424,0.0076672444120049,0.0018762041581794,0.1249330714344978,0.0416557927150279,-9.793114410638813,1188161.0
18.5,0.3000000119209289,197.0,24.83818244934082,1.3677051067352295,0.0,0.0,0.0,0.0,0.0,-0.0,1.0,0.0,0.0,0.0,-0.0096556721255183,0.0034517890308052,0.0286110397428274,0.1417811381164938,0.0616690668649971,-9.805866018533706,1188161.0
18.61,0.3000000119209289,190.0,24.83442497253418,1.3756568431854248,0.0,0.0,0.0,0.0,0.0,-0.0,1.0,0.0,0.0,0.0,-0.0053258119150996,0.0071655134670436,-0.0011180203873664,0.1041550180222839,0.0644556077336892,-9.831128329038618,1188161.0
18.8,0.3000000119209289,190.0,24.83442497253418,1.3995121717453003,0.0,0.0,0.0,0.0,0.0,-0.0,1.0,0.0,0.0,0.0,-0.0334988348186016,-0.0084829982370138,0.0193942207843065,0.1109292000811547,0.0991767625696957,-9.826544111967086,1188161.0
18.9,0.3000000119209289,186.0,24.82941818237305,1.3995121717453003,0.0,0.0,0.0,0.0,0.0,-0.0,1.0,0.0,0.0,0.0,-0.0204388666898012,0.0082169445231556,0.0210062973201274,0.1144759840518236,0.0614854779979214,-9.810580043792728,1188161.0
19.1,0.3000000119209289,185.0,24.82315826416016,1.3995121717453003,0.0,0.0,0.0,0.0,0.0,-0.0,1.0,0.0,0.0,0.0,0.0015509102959185,0.0104831662029027,-0.0028330669738352,0.1307089327834546,0.090641115931794,-9.797195767164231,1188161.0
19.2,0.3000000119209289,185.0,24.820653915405277,1.4233675003051758,0.0,0.0,0.0,0.0,0.0,-0.0,1.0,0.0,0.0,0.0,-0.0184186231344938,-0.010414695367217,-0.009247787296772,0.0993136879149824,0.0490985444979742,-9.78749406695366,1188161.0
19.4,0.4000000059604645,183.0,24.820653915405277,1.439271092414856,0.0,0.0,0.0,0.0,0.0,-0.0,1.0,0.0,0.0,0.0,-0.0228760428726673,-0.0147536341100931,-0.0062542422674596,0.1083361609373241,0.0310386240994557,-9.802532520890235,1188161.0
19.5,0.4000000059604645,183.0,24.81940078735352,1.4710781574249268,0.0,0.0,0.0,0.0,0.0,-0.0,1.0,0.0,0.0,0.0,0.003491633804515,-0.00161126954481,0.0139566594734787,0.1202999661583453,0.0366810798528604,-9.799531145095823,1188161.0
19.7,0.4000000059604645,183.0,24.81564521789551,1.4631264209747314,0.0,0.0,0.0,0.0,0.0,-0.0,1.0,0.0,0.0,0.0,0.0027842556592077,-0.0028767473995685,0.0024729834403842,0.1223834021855145,0.0770672159269452,-9.843883445262913,1188161.0
19.8,0.4000000059604645,185.0,24.81564521789551,1.455174684524536,0.0,0.0,0.0,0.0,0.0,-0.0,1.0,0.0,0.0,0.0,-0.0134278330951929,-0.0058550219982862,-0.003245266387239,0.1278314265981316,0.0555233097402378,-9.8009280449152,1188161.0
20.0,0.4000000059604645,186.0,24.8118896484375,1.3995121717453003,0.0,0.0,0.0,0.0,0.0,-0.0,1.0,0.0,0.0,0.0,-0.0272130668163299,0.0061753434129059,0.0152066014707088,0.1101492454670369,0.0646067399857565,-9.822262780666351,1188161.0
20.11,0.4000000059604645,189.0,24.809385299682607,1.4154157638549805,0.0,0.0,0.0,0.0,0.0,-0.0,1.0,0.0,0.0,0.0,0.0139986090362072,0.0160017516463994,0.0115146972239017,0.1091361970826983,0.0452543565211817,-9.77573531627655,1188161.0
20.3,0.4000000059604645,190.0,24.80813217163086,1.439271092414856,0.0,0.0,0.0,0.0,0.0,-0.0,1.0,0.0,0.0,0.0,-0.00308148865588,0.0015297596110031,0.0145897287875413,0.0984865535795688,0.101735029052943,-9.821779800653456,1188161.0
20.4,0.3000000119209289,194.0,24.81439208984375,1.455174684524536,0.0,0.0,0.0,0.0,0.0,-0.0,1.0,0.0,0.0,0.0,0.0053292205557227,0.0255861431360244,-0.0123305944725871,0.1091852406039834,0.0686741865333169,-9.802310326695444,1188161.0
20.6,0.3000000119209289,196.0,24.8118896484375,1.4154157638549805,0.0,0.0,0.0,0.0,0.0,-0.0,1.0,0.0,0.0,0.0,0.0065213185735046,-0.0269220229238271,0.0040888944640755,0.0866664985008537,0.1025074645131826,-9.79541353583336,1188161.0
20.7,0.3000000119209289,197.0,24.805627822875977,1.455174684524536,0.0,0.0,0.0,0.0,0.0,-0.0,1.0,0.0,0.0,0.0,0.0229957904666662,0.0067013599909842,-0.0113466242328286,0.0944673694018274,0.0344982525799423,-9.802203322649005,1188161.0
20.9,0.3000000119209289,198.0,24.810636520385746,1.4631264209747314,0.0,0.0,0.0,0.0,0.0,-0.0,1.0,0.0,0.0,0.0,-0.0038043942768126,0.0370775870978832,-0.0060331742279231,0.1331145138479769,0.0748104419326409,-9.812793799638747,1188161.0
21.0,0.3000000119209289,202.0,24.809385299682607,1.455174684524536,0.0,0.0,0.0,0.0,0.0,-0.0,1.0,0.0,0.0,0.0,-0.0164473205804824,0.0022546392865478,0.0189927443861961,0.0963252764940261,0.032086353781633,-9.794422432780266,1188161.0
21.11,0.3000000119209289,204.0,24.805627822875977,1.4631264209747314,0.0,0.0,0.0,0.0,0.0,-0.0,1.0,0.0,0.0,0.0,0.0206009410321712,-0.0191261824220418,-0.0104640908539295,0.1299556926358491,0.0690371204679831,-9.80153790950775,1188161.0
21.31,0.3000000119209289,207.0,24.810636520385746,1.4790298938751218,0.0,0.0,0.0,0.0,0.0,-0.0,1.0,0.0,0.0,0.0,0.0021116081625223,0.0033549254294484,-0.0085971150547266,0.1223011026252061,0.0729541930742561,-9.812479219436646,1188161.0
21.4,0.3000000119209289,208.0,24.81439208984375,1.4949334859848022,0.0,0.0,0.0,0.0,0.0,-0.0,1.0,0.0,0.0,0.0,-0.0104828830808401,-0.0295933596789836,0.020283306017518,0.1349382421374321,0.0601058914186433,-9.804958530664443,1188161.0
21.6,0.3000000119209289,210.0,24.80187225341797,1.4710781574249268,0.0,0.0,0.0,0.0,0.0,-0.0,1.0,0.0,0.0,0.0,0.0104455724358558,-0.0097053106874227,-0.0055395038798451,0.1168306212499737,0.0485353799723088,-9.800996457338334,1188161.0
21.8,0.3000000119209289,209.0,24.79936790466309,1.4790298938751218,0.0,0.0,0.0,0.0,0.0,-0.0,1.0,0.0,0.0,0.0,-0.0086189405992627,0.0050046760588884,0.0001623431890038,0.1095181207638234,0.0558970244787633,-9.782771270871162,1188161.0
21.9,0.3000000119209289,208.0,24.80688095092773,1.486981749534607,0.0,0.0,0.0,0.0,0.0,-0.0,1.0,0.0,0.0,0.0,-0.0107275545597076,0.000566184753552,0.0015030594076961,0.1198654632177204,0.0757162076141685,-9.809970763921738,1188161.0
22.01,0.3000000119209289,206.0,24.8118896484375,1.4790298938751218,0.0,0.0,0.0,0.0,0.0,-0.0,1.0,0.0,0.0,0.0,0.0125145968049764,-0.0336326994001865,0.0141645213589072,0.1071061351709068,0.0564141467493027,-9.78499555170536,1188161.0
22.2,0.3000000119209289,208.0,24.80813217163086,1.4790298938751218,0.0,0.0,0.0,0.0,0.0,-0.0,1.0,0.0,0.0,0.0,-0.0038174600340425,0.0125291747972369,0.0075200623832643,0.1326490480732172,0.0267189158778637,-9.802843008041384,1188161.0
22.4,0.3000000119209289,209.0,24.80688095092773,1.4790298938751218,0.0,0.0,0.0,0.0,0.0,-0.0,1.0,0.0,0.0,0.0,0.0044199880212545,0.0188521537929773,-7.07669896655716e-05,0.1167947156913578,0.0793156987521797,-9.783282317519188,1188161.0
22.51,0.3000000119209289,209.0,24.80813217163086,1.4710781574249268,0.0,0.0,0.0,0.0,0.0,-0.0,1.0,0.0,0.0,0.0,-0.0051753604784607,-0.0229569021612405,0.0037955061998218,0.1149762224871665,0.0900522830430418,-9.78775485277176,1188161.0
22.6,0.3000000119209289,208.0,24.80437660217285,1.4790298938751218,0.0,0.0,0.0,0.0,0.0,-0.0,1.0,0.0,0.0,0.0,0.0226763188838958,-0.0004065161920152,0.0047572539187967,0.1287266992684453,0.0280293225869536,-9.795205959677697,1188161.0
22.8,0.3000000119209289,204.0,24.80688095092773,1.4949334859848022,0.0,0.0,0.0,0.0,0.0,-0.0,1.0,0.0,0.0,0.0,0.0085022682324051,0.0001389690733049,0.0076899272389709,0.1240558611787855,0.0609375116648152,-9.790860309004785,1188161.0
22.9,0.3000000119209289,203.0,24.80688095092773,1.4949334859848022,0.0,0.0,0.0,0.0,0.0,-0.0,1.0,0.0,0.0,0.0,0.005548620596528,-0.0182062145322561,-0.0108998399227857,0.1339788419567048,0.0517036435240879,-9.788302736878396,1188161.0
23.1,0.3000000119209289,199.0,24.805627822875977,1.486981749534607,0.0,0.0,0.0,0.0,0.0,-0.0,1.0,0.0,0.0,0.0,0.0048627518117427,0.0028011670801788,-0.0062174503691494,0.1121797093749046,0.0856527831684798,-9.786888295412064,1188161.0
23.3,0.3000000119209289,196.0,24.80312538146973,1.4949334859848022,0.0,0.0,0.0,0.0,0.0,-0.0,1.0,0.0,0.0,0.0,-0.0003239976067561,-0.0031551837455481,0.0168559495359659,0.1435988821461797,0.0256800027005374,-9.798821293115616,1188161.0
23.41,0.3000000119209289,193.0,24.805627822875977,1.5108370780944824,0.0,0.0,0.0,0.0,0.0,-0.0,1.0,0.0,0.0,0.0,0.0100400196388363,0.0157214384526014,-0.0017406545812264,0.1405864331871271,0.0859913095459342,-9.8129376411438,1188161.0
23.5,0.4000000059604645,191.0,24.80312538146973,1.4631264209747314,0.0,0.0,0.0,0.0,0.0,-0.0,1.0,0.0,0.0,0.0,-0.0001989041338674,-0.0172724872827529,0.0117743732407689,0.1130814688000828,0.0389684169692918,-9.796384173631669,1188161.0
23.7,0.4000000059604645,188.0,24.80187225341797,1.5108370780944824,0.0,0.0,0.0,0.0,0.0,-0.0,1.0,0.0,0.0,0.0,0.0047028586268425,0.0396290272474288,-0.0186770781874656,0.1624817524664104,0.0785073303245008,-9.81499936938286,1188161.0
23.8,0.4000000059604645,187.0,24.794361114501957,1.4790298938751218,0.0,0.0,0.0,0.0,0.0,-0.0,1.0,0.0,0.0,0.0,0.0003424552269279,-0.0049556358717381,-0.002659615362063,0.1045655382424593,0.0736264858301729,-9.797982217669489,1188161.0
24.01,0.4000000059604645,188.0,24.79936790466309,1.4472228288650513,0.0,0.0,0.0,0.0,0.0,-0.0,1.0,0.0,0.0,0.0,0.0171495769172906,0.0183423776179552,-0.015956949442625,0.1367459362652152,0.0389111462328583,-9.79117079615593,1188161.0
24.2,0.4000000059604645,188.0,24.796863555908203,1.4949334859848022,0.0,0.0,0.0,0.0,0.0,-0.0,1.0,0.0,0.0,0.0,-0.0138605646789073,0.0011092645581811,0.0170520730316638,0.0996713273786008,0.0531045907130465,-9.796191215515137,1188161.0
24.3,0.4000000059604645,187.0,24.79936790466309,1.455174684524536,0.0,0.0,0.0,0.0,0.0,-0.0,1.0,0.0,0.0,0.0,0.0083387969061732,0.0326280035078525,-0.0032286350615322,0.1349072884395718,0.0493000998487696,-9.812734158039094,1188161.0
24.4,0.4000000059604645,187.0,24.80312538146973,1.4631264209747314,0.0,0.0,0.0,0.0,0.0,-0.0,1.0,0.0,0.0,0.0,0.0073437676765024,-0.009349369443953,0.0007835185970179,0.1130711539462208,0.063172025126405,-9.810950757265092,1188161.0
24.6,0.4000000059604645,187.0,24.79936790466309,1.4631264209747314,0.0,0.0,0.0,0.0,0.0,-0.0,1.0,0.0,0.0,0.0,0.0136855989694595,0.0083871204406023,0.0036814457271248,0.1201438820455223,0.0652166274189949,-9.80548302590847,1188161.0
24.8,0.4000000059604645,189.0,24.77683067321777,1.4710781574249268,0.0,0.0,0.0,0.0,0.0,-0.0,1.0,0.0,0.0,0.0,0.0107250204309821,-0.0059232534840703,-0.0190031230449676,0.1518470010906458,0.0751669302256777,-9.823341007232669,1188161.0
24.9,0.4000000059604645,191.0,24.796863555908203,1.4631264209747314,0.0,0.0,0.0,0.0,0.0,-0.0,1.0,0.0,0.0,0.0,-0.004436198156327,0.0122144278138875,0.0083488812670111,0.1043831325229257,0.0712302785832434,-9.805564886927606,1188161.0
25.1,0.4000000059604645,191.0,24.80187225341797,1.439271092414856,0.0,0.0,0.0,0.0,0.0,-0.0,1.0,0.0,0.0,0.0,-0.0298060681670904,-0.0021925666369497,0.0063169226050376,0.1329299702402204,0.053851992781274,-9.80634432077408,1188161.0
25.21,0.4000000059604645,192.0,24.78935241699219,1.4631264209747314,0.0,0.0,0.0,0.0,0.0,-0.0,1.0,0.0,0.0,0.0,-0.0053582792170345,0.0197638384997844,-0.0036758470814675,0.1105862334743142,0.0878317754901945,-9.800660827159884,1188161.0
25.3,0.4000000059604645,193.0,24.80813217163086,1.5505958795547483,0.0,0.0,0.0,0.0,0.0,-0.0,1.0,0.0,0.0,0.0,0.0062676239758729,-0.0177082009613513,-0.0107175642624497,0.1145360185112804,0.038285526135005,-9.796350844502449,1188161.0
25.5,0.4000000059604645,193.0,24.79561233520508,1.4631264209747314,0.0,0.0,0.0,0.0,0.0,-0.0,1.0,0.0,0.0,0.0,-0.0047084623947739,0.0095423255115747,-0.0136814210563898,0.1020411216560751,0.0789209842868149,-9.812168147563932,1188161.0
25.7,0.4000000059604645,193.0,24.793107986450195,1.4710781574249268,0.0,0.0,0.0,0.0,0.0,-0.0,1.0,0.0,0.0,0.0,0.0067817205563187,-0.0044893757440149,0.0048026936128735,0.1281158845033496,0.0294561802502721,-9.806504534482958,1188161.0
25.8,0.4000000059604645,193.0,24.786848068237305,1.486981749534607,0.0,0.0,0.0,0.0,0.0,-0.0,1.0,0.0,0.0,0.0,0.006446682382375,-0.0017096353694796,0.0010498646879568,0.1026349429506808,0.0221293540857732,-9.810918012857435,1188161.0
25.9,0.4000000059604645,195.0,24.79060363769531,1.4790298938751218,0.0,0.0,0.0,0.0,0.0,-0.0,1.0,0.0,0.0,0.0,-0.0143047655001282,-0.0253578294068574,0.0080972993746399,0.1168702909536659,0.049406249653548,-9.790370897054672,1188161.0
26.1,0.4000000059604645,197.0,24.78559494018555,1.4710781574249268,0.0,0.0,0.0,0.0,0.0,-0.0,1.0,0.0,0.0,0.0,-0.0113241113722324,0.015432639978826,-0.0069078942760825,0.1066074133571237,0.0463274576375261,-9.813092007637024,1188161.0
26.2,0.4000000059604645,197.0,24.79060363769531,1.4472228288650513,0.0,0.0,0.0,0.0,0.0,-0.0,1.0,0.0,0.0,0.0,0.010962875559926,0.0169665478169918,-0.0114949811249971,0.1454506679344922,0.0307650337927043,-9.803363994956015,1188161.0
26.41,0.4000000059604645,197.0,24.796863555908203,1.4710781574249268,0.0,0.0,0.0,0.0,0.0,-0.0,1.0,0.0,0.0,0.0,0.0001221702696057,0.0230718553066253,-0.0095842275768518,0.1126505655515939,0.0503596564382314,-9.823701195716858,1188161.0
26.6,0.4000000059604645,199.0,24.78809928894043,1.4631264209747314,0.0,0.0,0.0,0.0,0.0,-0.0,1.0,0.0,0.0,0.0,0.0025214003399014,0.0170370545238256,-0.0030798639636486,0.1109551014192402,0.101747865518555,-9.791036894917488,1188161.0
26.7,0.4000000059604645,199.0,24.78559494018555,1.4472228288650513,0.0,0.0,0.0,0.0,0.0,-0.0,1.0,0.0,0.0,0.0,-0.0098369168117642,-0.0106154503300786,0.0032331454567611,0.0963167432136833,0.0207072564214468,-9.816223776340484,1188161.0
26.81,0.4000000059604645,199.0,24.78183937072754,1.4631264209747314,0.0,0.0,0.0,0.0,0.0,-0.0,1.0,0.0,0.0,0.0,-0.0137600041925907,0.0059315687976777,0.0146570662036538,0.1461215719766914,0.0514270199742168,-9.810475963354111,1188161.0
27.0,0.4000000059604645,196.0,24.78809928894043,1.4710781574249268,0.0,0.0,0.0,0.0,0.0,-0.0,1.0,0.0,0.0,0.0,0.0137112336233258,0.0125888185575604,0.0013744562165811,0.1210795370489359,0.0164718132012058,-9.826693800687789,1188161.0
27.2,0.4000000059604645,195.0,24.79060363769531,1.4472228288650513,0.0,0.0,0.0,0.0,0.0,-0.0,1.0,0.0,0.0,0.0,-0.0173455737531185,-0.0115110129117965,0.005146115552634,0.1391696985159069,0.0313199916598387,-9.797645418047903,1188161.0
27.3,0.4000000059604645,192.0,24.79185676574707,1.5108370780944824,0.0,0.0,0.0,0.0,0.0,-0.0,1.0,0.0,0.0,0.0,0.0077841347083449,0.0270227119326591,-0.0108067458495497,0.1290544448420405,0.0722319386014715,-9.82821056842804,1188161.0
27.5,0.4000000059604645,189.0,24.783092498779297,1.439271092414856,0.0,0.0,0.0,0.0,0.0,-0.0,1.0,0.0,0.0,0.0,-0.005536591168493,-0.0060518789105117,-0.0026030850131064,0.0935416272561997,0.0819281433429569,-9.763097144365313,1188161.0
27.6,0.4000000059604645,184.0,24.786848068237305,1.455174684524536,0.0,0.0,0.0,0.0,0.0,-0.0,1.0,0.0,0.0,0.0,-0.01798384077847,0.0158765483647584,0.0015056404517963,0.1174157265387475,0.0414871188160032,-9.807868689894676,1188161.0
27.7,0.4000000059604645,181.0,24.783092498779297,1.4154157638549805,0.0,0.0,0.0,0.0,0.0,-0.0,1.0,0.0,0.0,0.0,0.0008079324034042,0.0142012163996696,0.0073127155192196,0.1323738726228475,0.0547682332014665,-9.785484378933909,1188161.0
27.9,0.4000000059604645,177.0,24.79185676574707,1.4472228288650513,0.0,0.0,0.0,0.0,0.0,-0.0,1.0,0.0,0.0,0.0,-0.0320198275148868,0.0052524479106068,0.0072528701275587,0.1131591271329671,0.0467057313770055,-9.819085403680802,1188161.0
28.1,0.4000000059604645,174.0,24.774328231811523,1.455174684524536,0.0,0.0,0.0,0.0,0.0,-0.0,1.0,0.0,0.0,0.0,0.0019797692075371,0.0192839670926332,-0.0053349076770246,0.1357673407718539,0.0114880108879879,-9.801242040395737,1188161.0
28.2,0.4000000059604645,169.0,24.786848068237305,1.4790298938751218,0.0,0.0,0.0,0.0,0.0,-0.0,1.0,0.0,0.0,0.0,-0.0237897634506225,-0.0074153854511678,0.0023494053166359,0.1215375293511897,0.0496279687620699,-9.8296548306942,1188161.0
28.4,0.4000000059604645,166.0,24.786848068237305,1.486981749534607,0.0,0.0,0.0,0.0,0.0,-0.0,1.0,0.0,0.0,0.0,0.0001899515773402,-0.0259851980954408,0.0011242564069107,0.1328580951690673,0.0464425335824489,-9.808833480477334,1188161.0
28.5,0.4000000059604645,162.0,24.784343719482425,1.5108370780944824,0.0,0.0,0.0,0.0,0.0,-0.0,1.0,0.0,0.0,0.0,0.006356805562973,0.0308183506131172,0.0119150839745998,0.1301395692955702,0.0161588741024024,-9.820913243293765,1188161.0
28.7,0.4000000059604645,161.0,24.77683067321777,1.4790298938751218,0.0,0.0,0.0,0.0,0.0,-0.0,1.0,0.0,0.0,0.0,-0.0178679581731557,-0.0033836241345852,0.001551040331833,0.1123834665678441,0.0669780052034184,-9.79364592254162,1188161.0
28.91,0.4000000059604645,156.0,24.77683067321777,1.4790298938751218,0.0,0.0,0.0,0.0,0.0,-0.0,1.0,0.0,0.0,0.0,-0.0085152108222246,-0.0124607887119054,0.022435063496232,0.0859581722784787,0.0480693523166701,-9.796111693382263,1188161.0
29.01,0.4000000059604645,152.0,24.77683067321777,1.5187888145446775,0.0,0.0,0.0,0.0,0.0,-0.0,1.0,0.0,0.0,0.0,-0.0189060848206281,-0.0026323480997234,-0.014175753109157,0.1318569239415228,0.0578041075682267,-9.81991103053093,1188161.0
29.1,0.4000000059604645,149.0,24.783092498779297,1.486981749534607,0.0,0.0,0.0,0.0,0.0,-0.0,1.0,0.0,0.0,0.0,0.0093863504007458,0.0427493825554847,0.0108167668804526,0.1057844817079603,0.0475262601859867,-9.815809793472289,1188161.0
29.3,0.3000000119209289,143.0,24.779335021972656,1.4790298938751218,0.0,0.0,0.0,0.0,0.0,-0.0,1.0,0.0,0.0,0.0,0.0268323644995689,-0.0006347295711748,0.0009381425916217,0.121969300545752,0.0441143824439495,-9.80377680838108,1188161.0
29.5,0.3000000119209289,141.0,24.78559494018555,1.4790298938751218,0.0,0.0,0.0,0.0,0.0,-0.0,1.0,0.0,0.0,0.0,-0.0075674285180866,0.0237076114863157,-0.0001320702722296,0.0819950300082564,0.0670493183936923,-9.80947375059128,1188161.0
29.6,0.3000000119209289,139.0,24.779335021972656,1.5187888145446775,0.0,0.0,0.0,0.0,0.0,-0.0,1.0,0.0,0.0,0.0,-0.0156008675694465,-0.0180804003030061,-0.0003658676578197,0.1085966361220926,0.0675212252419441,-9.799715332388876,1188161.0
29.7,0.3000000119209289,139.0,24.779335021972656,1.4790298938751218,0.0,0.0,0.0,0.0,0.0,-0.0,1.0,0.0,0.0,0.0,-0.0120148854330182,0.0428890101611614,-0.0006343270069919,0.1290850330889225,0.0272414970723912,-9.828794120550157,1188161.0
29.91,0.3000000119209289,140.0,24.786848068237305,1.4949334859848022,0.0,0.0,0.0,0.0,0.0,-0.0,1.0,0.0,0.0,0.0,0.013738052919507,-0.0017439810326322,-0.0039629666134715,0.1167623732797801,0.0541122623998671,-9.805019926428796,1188161.0
30.0,0.3000000119209289,140.0,24.784343719482425,1.4710781574249268,0.0,0.0,0.0,0.0,0.0,-0.0,1.0,0.0,0.0,0.0,-0.0165862571448087,-0.0041459565982222,0.0125377373769879,0.083394478848204,0.0481059750728309,-9.807242453098295,1188161.0
30.2,0.3000000119209289,143.0,24.766815185546875,1.486981749534607,0.0,0.0,0.0,0.0,0.0,-0.0,1.0,0.0,0.0,0.0,-0.027314506471157,-0.0062589291483163,0.0145767573267221,0.1155353350751102,0.0413058505626395,-9.82180552840233,1188161.0
30.4,0.3000000119209289,143.0,24.78559494018555,1.5028852224349976,0.0,0.0,0.0,0.0,0.0,-0.0,1.0,0.0,0.0,0.0,-0.0020159773994237,-0.0164639595896005,-0.0171236041933298,0.131561274100095,0.0677441366342827,-9.819567214250563,1188161.0
30.5,0.3000000119209289,147.0,24.76931953430176,1.4790298938751218,0.0,0.0,0.0,0.0,0.0,-0.0,1.0,0.0,0.0,0.0,-0.0036700952332466,0.0193752385675907,-0.0005138653214089,0.1143569658044725,0.0918762854207307,-9.815061349868776,1188161.0
30.6,0.3000000119209289,148.0,24.78809928894043,1.4631264209747314,0.0,0.0,0.0,0.0,0.0,-0.0,1.0,0.0,0.0,0.0,-0.0212837867438793,-0.0032204086892306,-0.0074049616232514,0.1374646047502756,0.0903846972528845,-9.817271597385409,1188161.0
30.8,0.3000000119209289,151.0,24.783092498779297,1.4949334859848022,0.0,0.0,0.0,0.0,0.0,-0.0,1.0,0.0,0.0,0.0,-0.0074274847283959,-0.0063218791037797,0.0022491246927529,0.0883374591451138,0.0673941762093454,-9.81224650025368,1188161.0
31.0,0.3000000119209289,151.0,24.783092498779297,1.4710781574249268,0.0,0.0,0.0,0.0,0.0,-0.0,1.0,0.0,0.0,0.0,0.0150346830487251,0.0138537324965,-0.0057232291437685,0.1463119993451982,0.0729909985559061,-9.81464268922806,1188161.0
31.1,0.3000000119209289,153.0,24.783092498779297,1.4790298938751218,0.0,0.0,0.0,0.0,0.0,-0.0,1.0,0.0,0.0,0.0,-0.0129404561594128,0.0012199372285977,0.013948019593954,0.1031833660975098,0.0598685995303094,-9.81383928179741,1188161.0
31.3,0.3000000119209289,152.0,24.786848068237305,1.4790298938751218,0.0,0.0,0.0,0.0,0.0,-0.0,1.0,0.0,0.0,0.0,0.015129517763853,0.0110824657604098,0.0114957569167017,0.090123801799491,0.0481618799362331,-9.80246703207493,1188161.0
31.41,0.3000000119209289,153.0,24.78058815002441,1.4631264209747314,0.0,0.0,0.0,0.0,0.0,-0.0,1.0,0.0,0.0,0.0,-0.022852711379528,-0.0299861021339893,-0.0036535658873617,0.1008953232038766,0.0505142970196902,-9.811701539754868,1188161.0
31.5,0.3000000119209289,151.0,24.784343719482425,1.4313193559646606,0.0,0.0,0.0,0.0,0.0,-0.0,1.0,0.0,0.0,0.0,-0.006496510002762,0.010164089500904,0.0128110125660896,0.1225084686465561,0.1038232524879276,-9.7910871809721,1188161.0
31.7,0.2000000029802322,147.0,24.77307510375977,1.5028852224349976,0.0,0.0,0.0,0.0,0.0,-0.0,1.0,0.0,0.0,0.0,-0.0033389020245522,-0.0216225776821374,0.0046384995803236,0.1101974119059741,0.0751896886853501,-9.797708567976953,1188161.0
31.9,0.2000000029802322,144.0,24.78058815002441,1.486981749534607,0.0,0.0,0.0,0.0,0.0,-0.0,1.0,0.0,0.0,0.0,-0.0195954777300357,0.0121681923046708,-0.0006252384046092,0.1077360447496175,0.0801234276406467,-9.804845679402352,1188161.0
32.01,0.2000000029802322,136.0,24.774328231811523,1.486981749534607,0.0,0.0,0.0,0.0,0.0,-0.0,1.0,0.0,0.0,0.0,-0.0188714582473039,-0.0297152139246463,0.0086024729534983,0.1105783854145556,0.0514376180525869,-9.806230884790422,1188161.0
32.2,0.2000000029802322,134.0,24.774328231811523,1.4631264209747314,0.0,0.0,0.0,0.0,0.0,-0.0,1.0,0.0,0.0,0.0,0.0093121007084846,-0.0088768498972058,-0.0139829805120825,0.1380101682431996,0.0634755732771009,-9.813543412685394,1188161.0
32.31,0.2000000029802322,128.0,24.779335021972656,1.5108370780944824,0.0,0.0,0.0,0.0,0.0,-0.0,1.0,0.0,0.0,0.0,0.0205589476972818,-0.0046821511350572,0.0065756244584918,0.1378651755675673,0.0422436023410409,-9.811298081874847,1188161.0
32.4,0.2000000029802322,125.0,24.779335021972656,1.5028852224349976,0.0,0.0,0.0,0.0,0.0,-0.0,1.0,0.0,0.0,0.0,-0.0362127795815467,0.0219776816666126,0.0039759147912263,0.1312937274388969,0.0517206506989896,-9.822396097183226,1188161.0
32.6,0.2000000029802322,118.0,24.77808380126953,1.4790298938751218,0.0,0.0,0.0,0.0,0.0,-0.0,1.0,0.0,0.0,0.0,0.000395637267502,-0.0273908618837595,-0.0039714518934488,0.1029130237363279,0.064675083886832,-9.808000252246858,1188161.0
32.8,0.3000000119209289,117.0,24.766815185546875,1.4631264209747314,0.0,0.0,0.0,0.0,0.0,-0.0,1.0,0.0,0.0,0.0,-0.0105928089469671,-0.0227616503834724,0.0009680908988229,0.1141277458146214,0.0510389612847939,-9.810412813425064,1188161.0
32.91,0.3000000119209289,113.0,24.77808380126953,1.4790298938751218,0.0,0.0,0.0,0.0,0.0,-0.0,1.0,0.0,0.0,0.0,-0.0203170850872993,-0.0138907907530665,-0.0062954388558864,0.103952192729339,0.0926960559189319,-9.823466137647632,1188161.0
33.01,0.3000000119209289,111.0,24.76305961608887,1.4949334859848022,0.0,0.0,0.0,0.0,0.0,-0.0,1.0,0.0,0.0,0.0,0.0107864188030362,0.0180389452725648,-0.0019580805674195,0.0763789255544543,0.0615381805971264,-9.800840336680412,1188161.0
33.2,0.3000000119209289,108.0,24.77307510375977,1.439271092414856,0.0,0.0,0.0,0.0,0.0,-0.0,1.0,0.0,0.0,0.0,-0.0169876050204038,0.0020636250264942,0.0136605463922023,0.1074232004396617,0.0886582428775727,-9.82178681731224,1188161.0
33.3,0.3000000119209289,108.0,24.76806640625,1.4472228288650513,0.0,0.0,0.0,0.0,0.0,-0.0,1.0,0.0,0.0,0.0,-0.017726145684719,-0.0180734768509864,0.0003665026742964,0.1072856538277119,0.0619910565856844,-9.795454466342926,1188161.0
33.5,0.3000000119209289,106.0,24.77557945251465,1.486981749534607,0.0,0.0,0.0,0.0,0.0,-0.0,1.0,0.0,0.0,0.0,-0.0126348808407783,0.0161662939935922,-0.0145975714549422,0.0973967696260661,0.0782952591218054,-9.822061636447907,1188161.0
33.7,0.3000000119209289,105.0,24.75930213928223,1.4949334859848022,0.0,0.0,0.0,0.0,0.0,-0.0,1.0,0.0,0.0,0.0,-0.0032350949477404,0.0015887244371697,0.0116137051954865,0.1234590705949813,0.0312187548866495,-9.809818151593207,1188161.0
33.8,0.3000000119209289,102.0,24.76931953430176,1.5028852224349976,0.0,0.0,0.0,0.0,0.0,-0.0,1.0,0.0,0.0,0.0,0.0158836338669061,0.0190956890583038,0.011748407036066,0.0963984032347798,0.0544367097783833,-9.811558867692948,1188161.0
33.9,0.3000000119209289,102.0,24.77683067321777,1.4631264209747314,0.0,0.0,0.0,0.0,0.0,-0.0,1.0,0.0,0.0,0.0,0.0166059024631977,0.0013269656337797,-0.0144820613786578,0.1263561923615634,0.0673025530809536,-9.791452047228814,1188161.0
34.11,0.3000000119209289,102.0,24.77182388305664,1.4472228288650513,0.0,0.0,0.0,0.0,0.0,-0.0,1.0,0.0,0.0,0.0,-0.0136991338804364,0.0054254885762929,0.0129920057952404,0.0632375048054382,0.0647938006371259,-9.815667121410373,1188161.0
34.2,0.3000000119209289,102.0,24.76931953430176,1.4313193559646606,0.0,0.0,0.0,0.0,0.0,-0.0,1.0,0.0,0.0,0.0,0.0094953887164592,-0.0011721972841769,0.0001337488938588,0.1414866577181965,0.052892798166722,-9.788303906321524,1188161.0
34.4,0.3000000119209289,103.0,24.774328231811523,1.4710781574249268,0.0,0.0,0.0,0.0,0.0,-0.0,1.0,0.0,0.0,0.0,0.0217364188283681,0.0075705712661147,0.0009708712459541,0.0941472069360315,0.0475818498479202,-9.809632210135463,1188161.0
34.6,0.3000000119209289,104.0,24.77182388305664,1.4710781574249268,0.0,0.0,0.0,0.0,0.0,-0.0,1.0,0.0,0.0,0.0,0.004732399713248,0.0110544906929135,-0.0056695654056966,0.108943659234792,0.0753147871233523,-9.787380630970002,1188161.0
34.7,0.3000000119209289,106.0,24.770570755004893,1.4949334859848022,0.0,0.0,0.0,0.0,0.0,-0.0,1.0,0.0,0.0,0.0,0.0093870731070637,0.0131282703951001,-0.0110720144584774,0.0946310366224497,0.0739779720129445,-9.82496302485466,1188161.0
34.8,0.3000000119209289,107.0,24.77683067321777,1.4631264209747314,0.0,0.0,0.0,0.0,0.0,-0.0,1.0,0.0,0.0,0.0,-0.0079250326380133,-0.0090170875191688,-0.0028174903709441,0.1213956978265196,0.0584804613981396,-9.808662741780283,1188161.0
35.01,0.3000000119209289,110.0,24.760555267333984,1.4790298938751218,0.0,0.0,0.0,0.0,0.0,-0.0,1.0,0.0,0.0,0.0,-0.0221807900816202,-0.0086885597556829,-0.0179494116455316,0.128469504006207,0.0795140564069152,-9.820362435579302,1188161.0
35.2,0.3000000119209289,114.0,24.766815185546875,1.4790298938751218,0.0,0.0,0.0,0.0,0.0,-0.0,1.0,0.0,0.0,0.0,-0.0183249618858099,-0.0015815838705748,0.0083886934444308,0.1265836307778954,0.0537861156743019,-9.789316644072532,1188161.0
35.31,0.3000000119209289,116.0,24.76556396484375,1.5108370780944824,0.0,0.0,0.0,0.0,0.0,-0.0,1.0,0.0,0.0,0.0,-0.0148591147735714,-0.0042597907595336,-0.0012754928320646,0.1566314852982759,0.0009246023953892,-9.84298063516617,1188161.0
35.41,0.3000000119209289,117.0,24.76556396484375,1.5108370780944824,0.0,0.0,0.0,0.0,0.0,-0.0,1.0,0.0,0.0,0.0,-0.0008653068798594,0.0141248544678092,-0.0047429748810827,0.0943663496151566,0.125822515161708,-9.792334392070767,1188161.0
35.61,0.2000000029802322,121.0,24.77182388305664,1.5028852224349976,0.0,0.0,0.0,0.0,0.0,-0.0,1.0,0.0,0.0,0.0,0.0083469338715076,0.0025974672753363,-0.0072864089161157,0.1186458162590861,0.0891270616650581,-9.804348666071894,1188161.0
35.71,0.2000000029802322,122.0,24.76806640625,1.486981749534607,0.0,0.0,0.0,0.0,0.0,-0.0,1.0,0.0,0.0,0.0,-0.0115257147699594,-0.0044036987237632,0.0270091313868761,0.0909079042822122,0.0553199408389627,-9.804879593253135,1188161.0
35.9,0.2000000029802322,125.0,24.76931953430176,1.4631264209747314,0.0,0.0,0.0,0.0,0.0,-0.0,1.0,0.0,0.0,0.0,-0.0053760027512907,-0.0231756512075662,0.0150182731449604,0.1061056948453188,0.0419167840993031,-9.800371389985084,1188161.0
36.1,0.2000000029802322,126.0,24.77683067321777,1.4790298938751218,0.0,0.0,0.0,0.0,0.0,-0.0,1.0,0.0,0.0,0.0,0.0278687346726656,0.0266274735331535,-0.0142068741843104,0.110259967977181,0.0616407855274155,-9.810822118520738,1188161.0
36.2,0.2000000029802322,126.0,24.76806640625,1.486981749534607,0.0,0.0,0.0,0.0,0.0,-0.0,1.0,0.0,0.0,0.0,-0.0293391086161136,-0.0014120026025921,0.0084627224132418,0.1153576345369219,0.0743963311566039,-9.803441178202627,1188161.0
36.3,0.2000000029802322,125.0,24.779335021972656,1.5028852224349976,0.0,0.0,0.0,0.0,0.0,-0.0,1.0,0.0,0.0,0.0,0.0065054856240749,0.0048131039366126,0.0118449842557311,0.0775752476043999,0.0750452852994203,-9.785428830385207,1188161.0
36.5,0.3000000119209289,124.0,24.77182388305664,1.455174684524536,0.0,0.0,0.0,0.0,0.0,-0.0,1.0,0.0,0.0,0.0,-0.0170834995806217,0.0101153971627354,-0.0140255875885486,0.1394386064819991,0.0704494742956012,-9.824284747838975,1188161.0
36.6,0.3000000119209289,123.0,24.77182388305664,1.486981749534607,0.0,0.0,0.0,0.0,0.0,-0.0,1.0,0.0,0.0,0.0,0.0153549052774906,0.0262432135641574,0.0056545678526163,0.1054425566364079,0.0512879247637465,-9.819350867271424,1188161.0
36.8,0.3000000119209289,124.0,24.77307510375977,1.4949334859848022,0.0,0.0,0.0,0.0,0.0,-0.0,1.0,0.0,0.0,0.0,-0.0169375576078891,-0.0078889243304729,0.0324732437729835,0.1061518513038754,0.0465187164070084,-9.810749613046646,1188161.0
37.0,0.3000000119209289,123.0,24.77557945251465,1.4790298938751218,0.0,0.0,0.0,0.0,0.0,-0.0,1.0,0.0,0.0,0.0,0.0357023216784,-0.0036090882495045,-0.0024689876008778,0.0839086775109171,0.0715146040124818,-9.806967049241068,1188161.0
37.1,0.3000000119209289,123.0,24.77182388305664,1.4790298938751218,0.0,0.0,0.0,0.0,0.0,-0.0,1.0,0.0,0.0,0.0,-0.026123447343707,-0.0157758798450231,-0.0061836531385779,0.1149162885267287,0.0676803928473964,-9.825407413244248,1188161.0
37.2,0.3000000119209289,122.0,24.76556396484375,1.4790298938751218,0.0,0.0,0.0,0.0,0.0,-0.0,1.0,0.0,0.0,0.0,0.0106652379035949,0.0341293290257453,-0.0022490639239549,0.0840428162924945,0.0736253940453753,-9.808512468338014,1188161.0
37.4,0.3000000119209289,121.0,24.76556396484375,1.5028852224349976,0.0,0.0,0.0,0.0,0.0,-0.0,1.0,0.0,0.0,0.0,0.0064703649841248,-0.0028436903376132,0.00888751167804,0.108823243137449,0.0278815593360923,-9.814053289890287,1188161.0
37.6,0.3000000119209289,120.0,24.76931953430176,1.5187888145446775,0.0,0.0,0.0,0.0,0.0,-0.0,1.0,0.0,0.0,0.0,-0.0029327983502298,0.010464796796441,-0.0096190683543682,0.0994051602948457,0.0701338342856615,-9.82121846795082,1188161.0
37.7,0.3000000119209289,122.0,24.76931953430176,1.486981749534607,0.0,0.0,0.0,0.0,0.0,-0.0,1.0,0.0,0.0,0.0,-0.0094794752076268,-0.00518090557307,-0.0019575462210923,0.1016150697693228,0.0749084421806037,-9.816103323698044,1188161.0
37.81,0.3000000119209289,123.0,24.76305961608887,1.526740550994873,0.0,0.0,0.0,0.0,0.0,-0.0,1.0,0.0,0.0,0.0,0.0316578783094882,0.0041043469682335,-0.0033635681029409,0.0828884023334831,0.1033987811766564,-9.805721007585523,1188161.0
38.01,0.3000000119209289,126.0,24.76931953430176,1.526740550994873,0.0,0.0,0.0,0.0,0.0,-0.0,1.0,0.0,0.0,0.0,-0.0244940109550952,-0.0119658699259161,0.00945979449898,0.102314140945673,0.0456425157096236,-9.813182054758071,1188161.0
38.1,0.3000000119209289,126.0,24.77182388305664,1.5028852224349976,0.0,0.0,0.0,0.0,0.0,-0.0,1.0,0.0,0.0,0.0,0.0123957814648747,0.0118153840303421,-0.0186731200665235,0.1140468806494027,0.1127083342149853,-9.817092672586444,1188161.0
38.3,0.3000000119209289,129.0,24.76806640625,1.5108370780944824,0.0,0.0,0.0,0.0,0.0,-0.0,1.0,0.0,0.0,0.0,0.0075192865915596,0.0171506758779287,-0.0201617591083049,0.1162633865140378,0.1045482889562845,-9.829767097234727,1188161.0
38.5,0.3000000119209289,130.0,24.76931953430176,1.5108370780944824,0.0,0.0,0.0,0.0,0.0,-0.0,1.0,0.0,0.0,0.0,-0.0019571634475141,0.0037570453714579,0.0054933736100792,0.1309456536546349,0.0547634960431605,-9.819389458894731,1188161.0
38.6,0.2000000029802322,131.0,24.756797790527344,1.5108370780944824,0.0,0.0,0.0,0.0,0.0,-0.0,1.0,0.0,0.0,0.0,-0.0219154562801122,-0.0015211885329335,-0.0017781881615519,0.1046769825182855,0.0548155819438397,-9.830571674108503,1188161.0
38.7,0.2000000029802322,132.0,24.753042221069336,1.5108370780944824,0.0,0.0,0.0,0.0,0.0,-0.0,1.0,0.0,0.0,0.0,0.0065461779013276,0.0001133870828198,0.0026390722487121,0.1184933957923203,0.058939705369994,-9.812672177553177,1188161.0
38.9,0.2000000029802322,131.0,24.76931953430176,1.455174684524536,0.0,0.0,0.0,0.0,0.0,-0.0,1.0,0.0,0.0,0.0,-0.0144182005897164,-0.0198143720626831,0.0158594213426113,0.0895401674509048,0.0755001941090449,-9.8119213950634,1188161.0
39.1,0.2000000029802322,129.0,24.76556396484375,1.486981749534607,0.0,0.0,0.0,0.0,0.0,-0.0,1.0,0.0,0.0,0.0,-0.0072128614410758,0.0059850928373634,-0.0165287964046001,0.1154351101443171,0.0871010745316743,-9.799598388075829,1188161.0
39.2,0.2000000029802322,125.0,24.7580509185791,1.5028852224349976,0.0,0.0,0.0,0.0,0.0,-0.0,1.0,0.0,0.0,0.0,-0.0335598848760128,-0.0293343570083379,0.0109441373497247,0.068306040354073,0.0941921848151832,-9.800992949008943,1188161.0
39.4,0.2000000029802322,122.0,24.766815185546875,1.5028852224349976,0.0,0.0,0.0,0.0,0.0,-0.0,1.0,0.0,0.0,0.0,-0.0152065390720963,-0.0139893144369125,0.0184454768896102,0.1500056215189397,0.0407348927948623,-9.821936506032944,1188161.0
39.51,0.2000000029802322,113.0,24.77683067321777,1.5664994716644287,0.0,0.0,0.0,0.0,0.0,-0.0,1.0,0.0,0.0,0.0,0.0042053116485476,-0.0148232784122228,-0.0002913373755291,0.1063317628204822,0.0839100388158112,-9.806456587314608,1188161.0
39.6,0.2000000029802322,108.0,24.76931953430176,1.486981749534607,0.0,0.0,0.0,0.0,0.0,-0.0,1.0,0.0,0.0,0.0,-0.0014102873392403,0.0054673333652317,0.00037837374839,0.1041427205968648,0.0735838468372821,-9.792117460370063,1188161.0
39.8,0.2000000029802322,97.0,24.770570755004893,1.486981749534607,0.0,0.0,0.0,0.0,0.0,-0.0,1.0,0.0,0.0,0.0,0.0108765056356787,-0.0185962617397308,-0.0150574790313839,0.1078898539301008,0.1081900353636592,-9.802456507086754,1188161.0
39.9,0.2000000029802322,90.0,24.7580509185791,1.4949334859848022,0.0,0.0,0.0,0.0,0.0,-0.0,1.0,0.0,0.0,0.0,-0.0094699086621403,0.0152523601427674,0.0105883050709962,0.1178612478263676,0.0500679854443296,-9.818250421285631,1188161.0
40.1,0.3000000119209289,81.0,24.76431083679199,1.4790298938751218,0.0,0.0,0.0,0.0,0.0,-0.0,1.0,0.0,0.0,0.0,-0.0037018046714365,-0.0083038937300443,-0.0059704692102968,0.1242894757166504,0.0837278523668646,-9.80952520608902,1188161.0
40.31,0.3000000119209289,75.0,24.76305961608887,1.5108370780944824,0.0,0.0,0.0,0.0,0.0,-0.0,1.0,0.0,0.0,0.0,0.0131635824218392,-0.0084721483290195,-0.0084114167839288,0.1218457598425448,0.0579554682271555,-9.816918425559995,1188161.0
40.41,0.3000000119209289,66.0,24.76556396484375,1.4710781574249268,0.0,0.0,0.0,0.0,0.0,-0.0,1.0,0.0,0.0,0.0,0.0177418421953916,0.0007449148106388,-0.0188623294234275,0.1209319405350834,0.0726477898377925,-9.803847559690476,1188161.0
40.5,0.3000000119209289,63.0,24.76556396484375,1.5028852224349976,0.0,0.0,0.0,0.0,0.0,-0.0,1.0,0.0,0.0,0.0,-0.0049611064605414,0.0044672382064163,0.0021018425468355,0.1002054888010025,0.0448942822404205,-9.812184519767762,1188161.0
40.7,0.3000000119209289,54.0,24.76180648803711,1.4631264209747314,0.0,0.0,0.0,0.0,0.0,-0.0,1.0,0.0,0.0,0.0,0.0087837297469377,-0.0033665120135992,-0.0206891503185033,0.1020192494150251,0.0956479496508836,-9.803625950217247,1188161.0
40.91,0.3000000119209289,51.0,24.753042221069336,1.4631264209747314,0.0,0.0,0.0,0.0,0.0,-0.0,1.0,0.0,0.0,0.0,-0.025522232055664,-2.749314990069252e-05,-0.0104460855945944,0.0989383514877408,0.0427709298301488,-9.81163488149643,1188161.0
41.0,0.3000000119209289,45.0,24.75429534912109,1.486981749534607,0.0,0.0,0.0,0.0,0.0,-0.0,1.0,0.0,0.0,0.0,0.0182116385549306,0.0063599492423236,-0.0020690725650638,0.1220626093167811,0.0409683748567476,-9.801203448772432,1188161.0
41.1,0.3000000119209289,42.0,24.749286651611328,1.4631264209747314,0.0,0.0,0.0,0.0,0.0,-0.0,1.0,0.0,0.0,0.0,-0.0234406422823667,0.0018162531778216,0.009150618687272,0.0879233392328023,0.0494643791997805,-9.807067036628723,1188161.0
41.3,0.4000000059604645,41.0,24.75554656982422,1.5187888145446775,0.0,0.0,0.0,0.0,0.0,-0.0,1.0,0.0,0.0,0.0,-0.022895585745573,-0.0325728543102741,0.0093230083584785,0.1046653794497251,0.0657723869942128,-9.808677359819413,1188161.0
41.4,0.4000000059604645,40.0,24.7580509185791,1.4949334859848022,0.0,0.0,0.0,0.0,0.0,-0.0,1.0,0.0,0.0,0.0,0.0017204264877364,0.0257305838167667,0.0029935061465948,0.092473816042766,0.0456279342155903,-9.821695600748065,1188161.0
41.6,0.4000000059604645,37.0,24.753042221069336,1.455174684524536,0.0,0.0,0.0,0.0,0.0,-0.0,1.0,0.0,0.0,0.0,-0.0099884439259767,-0.011266803368926,0.0092600649222731,0.1380470696557313,0.0272031612647697,-9.817933502197269,1188161.0
41.8,0.4000000059604645,37.0,24.75554656982422,1.4710781574249268,0.0,0.0,0.0,0.0,0.0,-0.0,1.0,0.0,0.0,0.0,0.0058183916844427,0.0231955163180828,-0.0008939823601394,0.0996477009728551,0.0442227432271465,-9.820951834917071,1188161.0
41.9,0.4000000059604645,38.0,24.75554656982422,1.4631264209747314,0.0,0.0,0.0,0.0,0.0,-0.0,1.0,0.0,0.0,0.0,-0.0011671273969113,-0.0071814320981502,-0.0070773614570498,0.1308275398984551,0.0620571666676551,-9.818982492685318,1188161.0
42.1,0.4000000059604645,38.0,24.75554656982422,1.4631264209747314,0.0,0.0,0.0,0.0,0.0,-0.0,1.0,0.0,0.0,0.0,-0.0120016504079103,0.0109944911673665,0.0008352851727977,0.0934721093438565,0.0667580219870433,-9.810065488815306,1188161.0
42.2,0.4000000059604645,41.0,24.75554656982422,1.4631264209747314,0.0,0.0,0.0,0.0,0.0,-0.0,1.0,0.0,0.0,0.0,-0.0154500547796487,-0.0121653256937861,-0.0008508971659466,0.0980154689960181,0.0737572533264756,-9.811080565452576,1188161.0
42.31,0.4000000059604645,43.0,24.760555267333984,1.5028852224349976,0.0,0.0,0.0,0.0,0.0,-0.0,1.0,0.0,0.0,0.0,-0.0111506441608071,0.0117825055494904,0.0036491232458502,0.1213869178667664,0.084234577557072,-9.825914951562885,1188161.0
42.5,0.4000000059604645,45.0,24.76180648803711,1.5108370780944824,0.0,0.0,0.0,0.0,0.0,-0.0,1.0,0.0,0.0,0.0,0.0057487618178129,-0.0205225870013237,-0.0065928185358643,0.0968146153539419,0.0683818074781447,-9.804704761505128,1188161.0
42.7,0.4000000059604645,45.0,24.75554656982422,1.4790298938751218,0.0,0.0,0.0,0.0,0.0,-0.0,1.0,0.0,0.0,0.0,-0.0034123086370527,0.0152272600680589,-0.0077541903592646,0.1141728790104389,0.0479843712598085,-9.809877793192864,1188161.0
42.8,0.4000000059604645,47.0,24.75429534912109,1.5108370780944824,0.0,0.0,0.0,0.0,0.0,-0.0,1.0,0.0,0.0,0.0,-0.0057883830741047,-0.0227875709533691,-0.0085436096414923,0.0990954954084009,0.0615552837029099,-9.801753087043762,1188161.0
42.9,0.4000000059604645,50.0,24.75930213928223,1.4710781574249268,0.0,0.0,0.0,0.0,0.0,-0.0,1.0,0.0,0.0,0.0,0.0086857378482818,0.0015445138560608,0.0093237590044736,0.1176238600071519,0.0462111848406493,-9.807464647293092,1188161.0
43.1,0.4000000059604645,53.0,24.760555267333984,1.4790298938751218,0.0,0.0,0.0,0.0,0.0,-0.0,1.0,0.0,0.0,0.0,0.0096032535657286,-0.0083476016297936,0.0094225108623504,0.1019490554183721,0.0257919037900865,-9.813255729675292,1188161.0
43.2,0.4000000059604645,54.0,24.75179100036621,1.486981749534607,0.0,0.0,0.0,0.0,0.0,-0.0,1.0,0.0,0.0,0.0,-0.0030859443359076,0.0140358200296759,-0.0102956974878907,0.1061459127254784,0.0945674481522292,-9.799239369034767,1188161.0
43.41,0.4000000059604645,56.0,24.76305961608887,1.4949334859848022,0.0,0.0,0.0,0.0,0.0,-0.0,1.0,0.0,0.0,0.0,0.0091485772281885,0.000343238498317,-0.0148009276017546,0.1032748384773731,0.1067045959085226,-9.816467020511627,1188161.0
43.6,0.4000000059604645,56.0,24.7580509185791,1.4710781574249268,0.0,0.0,0.0,0.0,0.0,-0.0,1.0,0.0,0.0,0.0,0.0129667650908231,-0.0198632627725601,-0.0210980977863073,0.1265380864497274,0.0165088733565062,-9.808365118503572,1188161.0
43.71,0.4000000059604645,61.0,24.756797790527344,1.5108370780944824,0.0,0.0,0.0,0.0,0.0,-0.0,1.0,0.0,0.0,0.0,-0.0188667364418506,0.0038922524545341,0.0242093801498413,0.1120428388472646,0.0418549863388761,-9.820339046716688,1188161.0
43.8,0.4000000059604645,63.0,24.756797790527344,1.4710781574249268,0.0,0.0,0.0,0.0,0.0,-0.0,1.0,0.0,0.0,0.0,-0.0048384414985775,0.0254445280879736,-0.0024154027923941,0.1207587533164769,0.0915214233845472,-9.802345409989355,1188161.0
44.0,0.4000000059604645,69.0,24.76180648803711,1.4790298938751218,0.0,0.0,0.0,0.0,0.0,-0.0,1.0,0.0,0.0,0.0,0.0004067561239935,0.0483904853463172,0.0020332068670541,0.1155038788821548,0.0644979772064834,-9.824478875398636,1188161.0
44.2,0.4000000059604645,72.0,24.74803352355957,1.455174684524536,0.0,0.0,0.0,0.0,0.0,-0.0,1.0,0.0,0.0,0.0,-0.0062777497805655,-0.0016174401389434,-0.0134862223640084,0.1138979045581072,0.0475020262179896,-9.809944451451305,1188161.0
44.3,0.4000000059604645,79.0,24.75930213928223,1.4790298938751218,0.0,0.0,0.0,0.0,0.0,-0.0,1.0,0.0,0.0,0.0,-0.0179926268756389,0.0183325670659542,0.003204972948879,0.1073999212123453,0.0587014450365677,-9.81049818277359,1188161.0
44.4,0.4000000059604645,82.0,24.760555267333984,1.526740550994873,0.0,0.0,0.0,0.0,0.0,-0.0,1.0,0.0,0.0,0.0,0.012854877859354,-0.0135638238862156,-0.0123126497492194,0.1312857423350215,0.0896310002915561,-9.793667557239534,1188161.0
44.6,0.3000000119209289,89.0,24.74803352355957,1.486981749534607,0.0,0.0,0.0,0.0,0.0,-0.0,1.0,0.0,0.0,0.0,-0.0092169279232621,0.0055014682002365,0.0044329981319606,0.0883340695872902,0.0569832224445417,-9.802440719604492,1188161.0
44.7,0.3000000119209289,92.0,24.756797790527344,1.486981749534607,0.0,0.0,0.0,0.0,0.0,-0.0,1.0,0.0,0.0,0.0,0.0078306244686245,-0.0047035212628543,-0.0123123107478022,0.1525467118062079,0.0478431381611153,-9.811956478357317,1188161.0
44.91,0.3000000119209289,100.0,24.75930213928223,1.4710781574249268,0.0,0.0,0.0,0.0,0.0,-0.0,1.0,0.0,0.0,0.0,0.0135560892522335,0.0141189098358154,-0.0190324131399393,0.1262553735729307,0.0663394024595618,-9.811506242752076,1188161.0
45.1,0.3000000119209289,104.0,24.7580509185791,1.4710781574249268,0.0,0.0,0.0,0.0,0.0,-0.0,1.0,0.0,0.0,0.0,0.0278604980558156,-0.0102682085707783,-0.0001398971216985,0.1439316800795495,0.0208179903519339,-9.78549022614956,1188161.0
45.2,0.3000000119209289,115.0,24.753042221069336,1.4631264209747314,0.0,0.0,0.0,0.0,0.0,-0.0,1.0,0.0,0.0,0.0,-0.0124792577698826,0.0015650625573471,0.0045243585482239,0.1516885415464639,0.0537324537662789,-9.809041056632996,1188161.0
45.4,0.2000000029802322,119.0,24.76305961608887,1.486981749534607,0.0,0.0,0.0,0.0,0.0,-0.0,1.0,0.0,0.0,0.0,-0.0015071558300405,0.012700580060482,0.0197447091341018,0.1094445280730724,0.090598111487925,-9.793716673851014,1188161.0
45.5,0.2000000029802322,126.0,24.76180648803711,1.4949334859848022,0.0,0.0,0.0,0.0,0.0,-0.0,1.0,0.0,0.0,0.0,-0.0058296462520956,0.0081477826461195,-0.0106022702530026,0.1411389859300106,0.0248114536330103,-9.80183085501194,1188161.0
45.6,0.2000000029802322,130.0,24.75554656982422,1.4790298938751218,0.0,0.0,0.0,0.0,0.0,-0.0,1.0,0.0,0.0,0.0,-0.0056501701474189,-0.02764711715281,0.0080861384049057,0.0957451413385569,0.0592169501865282,-9.795846814513206,1188161.0
45.8,0.3000000119209289,136.0,24.75554656982422,1.4631264209747314,0.0,0.0,0.0,0.0,0.0,-0.0,1.0,0.0,0.0,0.0,0.0042825946584343,-0.0036779425572603,-0.007934552617371,0.1515230744797736,0.063217468955554,-9.814736244678498,1188161.0
46.0,0.3000000119209289,140.0,24.75930213928223,1.455174684524536,0.0,0.0,0.0,0.0,0.0,-0.0,1.0,0.0,0.0,0.0,0.0141161065548658,0.0311779491603374,-0.0220284443348646,0.126903327293694,0.0855947221443057,-9.831213698387147,1188161.0
46.11,0.3000000119209289,145.0,24.74553108215332,1.486981749534607,0.0,0.0,0.0,0.0,0.0,-0.0,1.0,0.0,0.0,0.0,0.0014702080516144,-0.0059268986806273,-0.0009559517493471,0.1328568800445646,0.0564298154599964,-9.792693995833398,1188161.0
46.2,0.3000000119209289,147.0,24.753042221069336,1.486981749534607,0.0,0.0,0.0,0.0,0.0,-0.0,1.0,0.0,0.0,0.0,-0.0007382801850326,0.0073046963661909,-0.0098201055079698,0.09697524019517,0.0731901693390682,-9.826560484170914,1188161.0
46.4,0.3000000119209289,149.0,24.749286651611328,1.486981749534607,0.0,0.0,0.0,0.0,0.0,-0.0,1.0,0.0,0.0,0.0,0.0065418002195656,0.0012573847780004,0.0153736118227243,0.1168942097201943,0.0300222089979797,-9.78622346699238,1188161.0
46.5,0.3000000119209289,148.0,24.756797790527344,1.5585477352142334,0.0,0.0,0.0,0.0,0.0,-0.0,1.0,0.0,0.0,0.0,0.0030494220554828,0.0058159562759101,0.0002916779776569,0.0980756222270429,0.0673278240161016,-9.817593194246294,1188161.0
46.7,0.3000000119209289,147.0,24.753042221069336,1.4790298938751218,0.0,0.0,0.0,0.0,0.0,-0.0,1.0,0.0,0.0,0.0,0.0028297656681388,0.0064597930759191,0.0149011136963963,0.1105536169745028,0.0322909355233423,-9.81002572774887,1188161.0
46.9,0.3000000119209289,147.0,24.746782302856445,1.4790298938751218,0.0,0.0,0.0,0.0,0.0,-0.0,1.0,0.0,0.0,0.0,0.0092221656814217,0.0216983370482921,0.0016438192687928,0.1088498022872954,0.0569636251358315,-9.831164581775663,1188161.0
47.0,0.3000000119209289,145.0,24.75429534912109,1.4790298938751218,0.0,0.0,0.0,0.0,0.0,-0.0,1.0,0.0,0.0,0.0,-0.0047158785164356,-0.0287385378032922,-0.0029787018429487,0.0741634977702051,0.0819885432533919,-9.783160695433615,1188161.0
47.11,0.3000000119209289,145.0,24.75179100036621,1.4631264209747314,0.0,0.0,0.0,0.0,0.0,-0.0,1.0,0.0,0.0,0.0,-0.0035233555827289,0.0048491554334759,0.0139336148276925,0.1039579942636192,0.027028489401564,-9.812667499780655,1188161.0
47.3,0.3000000119209289,143.0,24.7580509185791,1.455174684524536,0.0,0.0,0.0,0.0,0.0,-0.0,1.0,0.0,0.0,0.0,-0.0082140546292066,-0.0142508018761873,-0.009917109273374,0.1248732014279812,0.1064312385767698,-9.817628277540209,1188161.0
47.5,0.3000000119209289,142.0,24.7580509185791,1.486981749534607,0.0,0.0,0.0,0.0,0.0,-0.0,1.0,0.0,0.0,0.0,0.0091314045712351,0.0143166622146964,0.0010728077031672,0.1042726841010153,0.0636629399936646,-9.805382453799249,1188161.0
47.6,0.2000000029802322,139.0,24.75554656982422,1.4949334859848022,0.0,0.0,0.0,0.0,0.0,-0.0,1.0,0.0,0.0,0.0,-0.0226566307246685,-0.0207975916564464,-0.0043693608604371,0.1044393297471106,0.0968445001076907,-9.813322387933724,1188161.0
47.8,0.2000000029802322,138.0,24.753042221069336,1.4949334859848022,0.0,0.0,0.0,0.0,0.0,-0.0,1.0,0.0,0.0,0.0,-0.0284303575754165,-0.0153600582852959,-0.0048081502318382,0.0998213084600866,0.0579336736444383,-9.79698175907135,1188161.0
47.9,0.2000000029802322,134.0,24.75053787231445,1.4710781574249268,0.0,0.0,0.0,0.0,0.0,-0.0,1.0,0.0,0.0,0.0,0.0319499708712101,0.0164778064936399,-0.000823856506031,0.1177690628170967,0.0672793469438329,-9.820721454620363,1188161.0
48.0,0.2000000029802322,133.0,24.75429534912109,1.4790298938751218,0.0,0.0,0.0,0.0,0.0,-0.0,1.0,0.0,0.0,0.0,-0.019155753776431,-0.0168432369828224,0.0083971433341503,0.0910082297120243,0.0521232269285246,-9.7959462171793,1188161.0
48.2,0.2000000029802322,132.0,24.74177360534668,1.4710781574249268,0.0,0.0,0.0,0.0,0.0,-0.0,1.0,0.0,0.0,0.0,-0.0117547949776053,0.0083445720374584,-0.0083134798333048,0.1059731092303991,0.1120414592698216,-9.813856823444368,1188161.0
48.3,0.2000000029802322,131.0,24.746782302856445,1.4472228288650513,0.0,0.0,0.0,0.0,0.0,-0.0,1.0,0.0,0.0,0.0,-0.0107234008610248,0.0099796140566468,0.0175058972090482,0.0939528692420572,0.046164535023272,-9.80461705327034,1188161.0
48.5,0.2000000029802322,129.0,24.746782302856445,1.5028852224349976,0.0,0.0,0.0,0.0,0.0,-0.0,1.0,0.0,0.0,0.0,-0.0056100441142916,0.0265822187066078,0.0118697043508291,0.0954070717748254,0.0337684515444561,-9.812886185646056,1188161.0
48.7,0.2000000029802322,127.0,24.738018035888672,1.4631264209747314,0.0,0.0,0.0,0.0,0.0,-0.0,1.0,0.0,0.0,0.0,0.028105616569519,0.0005032640765421,-0.0032628700137138,0.1071803856734186,0.0821368067152798,-9.80864929318428,1188161.0
48.81,0.2000000029802322,120.0,24.75053787231445,1.5108370780944824,0.0,0.0,0.0,0.0,0.0,-0.0,1.0,0.0,0.0,0.0,-0.0030948433559387,0.0064220097847282,0.0196212884038686,0.0905382688902318,0.0658350801095366,-9.801218066811565,1188161.0
48.9,0.2000000029802322,120.0,24.74177360534668,1.455174684524536,0.0,0.0,0.0,0.0,0.0,-0.0,1.0,0.0,0.0,0.0,-0.0008506373269483,0.0077316523529589,-0.0198684204369783,0.1244062098953873,0.0797498453781008,-9.803747572302818,1188161.0
49.1,0.2000000029802322,114.0,24.73676681518555,1.5108370780944824,0.0,0.0,0.0,0.0,0.0,-0.0,1.0,0.0,0.0,0.0,-0.000859149498865,0.0288204085081815,-0.0073105562478303,0.1107479181233793,0.0553728992538526,-9.801066623926165,1188161.0
49.21,0.2000000029802322,110.0,24.75179100036621,1.486981749534607,0.0,0.0,0.0,0.0,0.0,-0.0,1.0,0.0,0.0,0.0,-0.0064292890019714,-0.0131409363821148,0.0002631514798849,0.138955178791657,0.0487438788916915,-9.803941115140915,1188161.0
49.4,0.2000000029802322,105.0,24.7580509185791,1.5028852224349976,0.0,0.0,0.0,0.0,0.0,-0.0,1.0,0.0,0.0,0.0,0.0062835766002535,0.0328774340450763,-0.0026734205894172,0.1249719280097633,0.0442761675920337,-9.821514337062837,1188161.0
49.6,0.2000000029802322,105.0,24.76180648803711,1.5028852224349976,0.0,0.0,0.0,0.0,0.0,-0.0,1.0,0.0,0.0,0.0,-0.018151992931962,-0.0116163762286305,0.0259469840675592,0.1530278006102889,0.1001342624053359,-9.79826112985611,1188161.0
49.7,0.2000000029802322,102.0,24.753042221069336,1.5187888145446775,0.0,0.0,0.0,0.0,0.0,-0.0,1.0,0.0,0.0,0.0,0.0001387977972626,0.0120030930265784,-0.0207933746278286,0.1086927588656544,0.0949851403478533,-9.8149818277359,1188161.0
49.9,0.2000000029802322,99.0,24.75179100036621,1.5028852224349976,0.0,0.0,0.0,0.0,0.0,-0.0,1.0,0.0,0.0,0.0,0.0162321515381336,-0.0102488100528717,0.0070587364025413,0.117351379757747,0.0724139286205172,-9.800215269327165,1188161.0
50.01,0.2000000029802322,91.0,24.74553108215332,1.526740550994873,0.0,0.0,0.0,0.0,0.0,-0.0,1.0,0.0,0.0,0.0,0.0145515063777565,0.0145477186888456,-0.0029946691356599,0.125716013610363,0.0627676718914881,-9.798089806437494,1188161.0
50.2,0.2000000029802322,87.0,24.74553108215332,1.526740550994873,0.0,0.0,0.0,0.0,0.0,-0.0,1.0,0.0,0.0,0.0,-0.0017391653964295,0.0076314769685268,0.005617934744805,0.1329146304354071,0.0769373346492648,-9.795641577243805,1188161.0
50.3,0.2000000029802322,78.0,24.74803352355957,1.5108370780944824,0.0,0.0,0.0,0.0,0.0,-0.0,1.0,0.0,0.0,0.0,-0.0067502469755709,-0.0055518122389912,-0.0040311077609658,0.1070279469341039,0.0652236851910129,-9.802591577768329,1188161.0
50.4,0.2000000029802322,73.0,24.753042221069336,1.4949334859848022,0.0,0.0,0.0,0.0,0.0,-0.0,1.0,0.0,0.0,0.0,-0.0057644145563244,-0.0268908701837062,0.0237291790544986,0.1260582127701491,0.0273188424878753,-9.805575996637344,1188161.0
50.6,0.2000000029802322,64.0,24.749286651611328,1.5187888145446775,0.0,0.0,0.0,0.0,0.0,-0.0,1.0,0.0,0.0,0.0,-0.0038245713803917,-0.0041809980757534,0.0165691785514354,0.1224001672491431,0.0481297156820073,-9.8083393907547,1188161.0
50.7,0.2000000029802322,60.0,24.7392692565918,1.5028852224349976,0.0,0.0,0.0,0.0,0.0,-0.0,1.0,0.0,0.0,0.0,-0.0128691252321004,0.0021726302802562,-0.0125310691073536,0.1081865361705422,0.098223291831091,-9.803485617041588,1188161.0
50.91,0.2000000029802322,56.0,24.74553108215332,1.5028852224349976,0.0,0.0,0.0,0.0,0.0,-0.0,1.0,0.0,0.0,0.0,-8.408119902014731e-05,-0.0209178086370229,0.0157916583120822,0.0830232902895659,0.0537568430509418,-9.785208390355107,1188161.0
51.1,0.2000000029802322,54.0,24.75053787231445,1.486981749534607,0.0,0.0,0.0,0.0,0.0,-0.0,1.0,0.0,0.0,0.0,0.0243484135717153,0.0153105929493904,0.0080832773819565,0.1147572990786284,0.0633234177622944,-9.791891757845884,1188161.0
51.2,0.2000000029802322,50.0,24.746782302856445,1.4790298938751218,0.0,0.0,0.0,0.0,0.0,-0.0,1.0,0.0,0.0,0.0,-0.0041327523067593,0.016254985705018,0.0126932701095938,0.1197888190113008,0.0406410632561892,-9.805118744373322,1188161.0
51.3,0.2000000029802322,48.0,24.75179100036621,1.4949334859848022,0.0,0.0,0.0,0.0,0.0,-0.0,1.0,0.0,0.0,0.0,-0.0149746844545006,-0.0156073812395334,-0.0113196298480033,0.1296508973836899,0.1085722879506647,-9.80662966489792,1188161.0
51.5,0.2000000029802322,48.0,24.74803352355957,1.5108370780944824,0.0,0.0,0.0,0.0,0.0,-0.0,1.0,0.0,0.0,0.0,-0.011799375526607,-0.0004204640281386,0.0015177010791376,0.1090852532163262,0.0644193778373301,-9.807651173472404,1188161.0
51.7,0.2000000029802322,49.0,24.73551368713379,1.486981749534607,0.0,0.0,0.0,0.0,0.0,-0.0,1.0,0.0,0.0,0.0,-0.0092075448483228,0.0299894586205482,0.0218889154493808,0.1331603505369276,0.0513453051354736,-9.799362160563469,1188161.0
51.8,0.2000000029802322,56.0,24.74427795410156,1.5028852224349976,0.0,0.0,0.0,0.0,0.0,-0.0,1.0,0.0,0.0,0.0,-0.002865235088393,-0.0049630892463028,-0.0155230928212404,0.0953136533685028,0.0779967953078448,-9.790206590294838,1188161.0
51.91,0.2000000029802322,59.0,24.74302673339844,1.5028852224349976,0.0,0.0,0.0,0.0,0.0,-0.0,1.0,0.0,0.0,0.0,0.0010201919358223,-0.0126219959929585,0.0051442333497107,0.1129998453240841,0.0908461796119809,-9.808445810079576,1188161.0
52.1,0.2000000029802322,68.0,24.738018035888672,1.4949334859848022,0.0,0.0,0.0,0.0,0.0,-0.0,1.0,0.0,0.0,0.0,-0.0145674692466855,0.0008178719435818,-0.0141283348202705,0.1261898938938975,0.0654853663640096,-9.814345650672912,1188161.0
52.2,0.2000000029802322,72.0,24.74427795410156,1.4710781574249268,0.0,0.0,0.0,0.0,0.0,-0.0,1.0,0.0,0.0,0.0,0.000380620767828,-0.0218076296150684,-0.0024920743890106,0.1175542598683387,0.0552523415442556,-9.804980750083924,1188161.0
52.4,0.2000000029802322,78.0,24.74803352355957,1.486981749534607,0.0,0.0,0.0,0.0,0.0,-0.0,1.0,0.0,0.0,0.0,-0.0129690319299697,-0.0318569019436836,0.0126852905377745,0.116089313076809,0.0354862904129549,-9.78999959886074,1188161.0
52.6,0.3000000119209289,80.0,24.74302673339844,1.5028852224349976,0.0,0.0,0.0,0.0,0.0,-0.0,1.0,0.0,0.0,0.0,0.007227202411741,-0.0050510079599916,0.0055370689369738,0.133691487852484,0.0535005614161491,-9.824918586015704,1188161.0
52.71,0.3000000119209289,80.0,24.74177360534668,1.4790298938751218,0.0,0.0,0.0,0.0,0.0,-0.0,1.0,0.0,0.0,0.0,0.0205009374767541,-0.0026092093903571,-0.0008519646944478,0.1511180177517235,0.0590987039543688,-9.800661996603012,1188161.0
52.8,0.3000000119209289,81.0,24.74427795410156,1.486981749534607,0.0,0.0,0.0,0.0,0.0,-0.0,1.0,0.0,0.0,0.0,-0.0130734872072935,-0.0034527347888797,-0.0080608343705534,0.1085569572821259,0.0585462380060926,-9.8140228843689,1188161.0
53.0,0.3000000119209289,81.0,24.746782302856445,1.5028852224349976,0.0,0.0,0.0,0.0,0.0,-0.0,1.0,0.0,0.0,0.0,0.0160206276923418,-0.0250066891312599,-0.0008776622125878,0.1337474840786308,0.0541904963180422,-9.791463741660117,1188161.0
53.1,0.3000000119209289,81.0,24.746782302856445,1.486981749534607,0.0,0.0,0.0,0.0,0.0,-0.0,1.0,0.0,0.0,0.0,-0.0080044427886605,0.0171865113079547,0.0026807528920471,0.1185683406516909,0.0512669570138678,-9.817652835845948,1188161.0
53.3,0.3000000119209289,79.0,24.74427795410156,1.486981749534607,0.0,0.0,0.0,0.0,0.0,-0.0,1.0,0.0,0.0,0.0,0.0080549158155918,-0.0161808039993047,0.0193130522966384,0.125341709582135,0.0600958643574267,-9.786769012212751,1188161.0
53.5,0.3000000119209289,78.0,24.756797790527344,1.5824030637741089,0.0,0.0,0.0,0.0,0.0,-0.0,1.0,0.0,0.0,0.0,0.0093907248228788,0.0200869534164667,-0.0011095352238044,0.1073941379506141,0.0998299970570951,-9.82766677737236,1188161.0
53.6,0.4000000059604645,75.0,24.7392692565918,1.4790298938751218,0.0,0.0,0.0,0.0,0.0,-0.0,1.0,0.0,0.0,0.0,-0.0094130430370569,-0.0141680408269166,-0.0031733855139464,0.1005601132940501,0.0887617385946214,-9.766194414496422,1188161.0
53.7,0.4000000059604645,74.0,24.74302673339844,1.4790298938751218,0.0,0.0,0.0,0.0,0.0,-0.0,1.0,0.0,0.0,0.0,-0.0342650078237056,0.0065551120787858,0.0025222965050488,0.1262781685777008,0.0673151063220575,-9.83347657084465,1188161.0
53.91,0.4000000059604645,73.0,24.73676681518555,1.4790298938751218,0.0,0.0,0.0,0.0,0.0,-0.0,1.0,0.0,0.0,0.0,-0.0325812213122844,-0.0078236581757664,0.0164792500436306,0.1575526044890284,0.0320439934451133,-9.807944118976591,1188161.0
54.1,0.4000000059604645,73.0,24.74427795410156,1.5108370780944824,0.0,0.0,0.0,0.0,0.0,-0.0,1.0,0.0,0.0,0.0,0.0020828016567975,0.0104615502059459,-0.0113579304888844,0.1255128959566354,0.1027444412000477,-9.8145023560524,1188161.0
54.21,0.4000000059604645,75.0,24.740522384643555,1.4790298938751218,0.0,0.0,0.0,0.0,0.0,-0.0,1.0,0.0,0.0,0.0,0.0106851952150464,-0.0205472707748413,0.0028708376921713,0.1178535733558237,0.0584638242423534,-9.787331514358518,1188161.0
54.4,0.4000000059604645,76.0,24.73551368713379,1.486981749534607,0.0,0.0,0.0,0.0,0.0,-0.0,1.0,0.0,0.0,0.0,-7.837433076929301e-05,0.005492371506989,0.0262097772210836,0.1257406084612012,0.046627387823537,-9.831653409004211,1188161.0
54.51,0.4000000059604645,77.0,24.746782302856445,1.486981749534607,0.0,0.0,0.0,0.0,0.0,-0.0,1.0,0.0,0.0,0.0,-0.0172618962824344,-0.0290542915463447,-0.0082753933966159,0.1298164101317525,0.0657566040800884,-9.814801733493804,1188161.0
54.6,0.4000000059604645,78.0,24.74553108215332,1.4790298938751218,0.0,0.0,0.0,0.0,0.0,-0.0,1.0,0.0,0.0,0.0,0.0141010163351893,0.0129707548767328,0.0068941628560423,0.1060691862925887,0.0728034719545394,-9.820902718305588,1188161.0
54.8,0.4000000059604645,79.0,24.73551368713379,1.4790298938751218,0.0,0.0,0.0,0.0,0.0,-0.0,1.0,0.0,0.0,0.0,0.0150108290836215,-0.0036770091392099,-0.001714686746709,0.1321381293330341,0.0760852217394858,-9.811744809150696,1188161.0
54.9,0.4000000059604645,78.0,24.73676681518555,1.486981749534607,0.0,0.0,0.0,0.0,0.0,-0.0,1.0,0.0,0.0,0.0,-0.0069828699342906,-0.0117817102000117,-0.0039580422453582,0.1043569205515086,0.0921467008721083,-9.824770066738129,1188161.0
55.1,0.4000000059604645,77.0,24.738018035888672,1.4233675003051758,0.0,0.0,0.0,0.0,0.0,-0.0,1.0,0.0,0.0,0.0,0.014068285934627,-0.0248775444924831,-0.014422308653593,0.090807715896517,0.0632064277678728,-9.789213148355485,1188161.0
55.3,0.4000000059604645,76.0,24.740522384643555,1.4472228288650513,0.0,0.0,0.0,0.0,0.0,-0.0,1.0,0.0,0.0,0.0,-0.0170928407460451,-0.0006130859837867,-0.005982459988445,0.0731258042855188,0.0761274039186537,-9.789725949168206,1188161.0
55.4,0.4000000059604645,73.0,24.72549819946289,1.4631264209747314,0.0,0.0,0.0,0.0,0.0,-0.0,1.0,0.0,0.0,0.0,0.0097584491595625,0.006490146741271,-0.0118960263207554,0.1289653570298105,0.0599054689658805,-9.79397044301033,1188161.0
55.5,0.4000000059604645,72.0,24.73676681518555,1.4790298938751218,0.0,0.0,0.0,0.0,0.0,-0.0,1.0,0.0,0.0,0.0,0.0064892661757767,0.0098000662401318,-0.0014310850529,0.096104772510007,0.0627324743941426,-9.809196592569352,1188161.0
55.7,0.4000000059604645,67.0,24.74177360534668,1.4710781574249268,0.0,0.0,0.0,0.0,0.0,-0.0,1.0,0.0,0.0,0.0,0.0179955828934907,-0.0254373829811811,-0.0075509445741772,0.0981288958434015,0.0437027567345648,-9.792605702877044,1188161.0
55.9,0.4000000059604645,64.0,24.738018035888672,1.455174684524536,0.0,0.0,0.0,0.0,0.0,-0.0,1.0,0.0,0.0,0.0,-0.0166062638163566,0.029101813212037,0.0026079970411956,0.1077312390692532,0.0238851084932684,-9.824516297578812,1188161.0
56.01,0.4000000059604645,63.0,24.730504989624023,1.4790298938751218,0.0,0.0,0.0,0.0,0.0,-0.0,1.0,0.0,0.0,0.0,-0.0030358359217643,-0.008393807336688,-0.0237972307950258,0.1327703138440847,0.0634971942706033,-9.805964251756668,1188161.0
56.2,0.4000000059604645,63.0,24.73551368713379,1.4710781574249268,0.0,0.0,0.0,0.0,0.0,-0.0,1.0,0.0,0.0,0.0,-0.0140480482950806,-0.0193729121237993,0.0099550681188702,0.0620899841655045,0.0580683240573853,-9.804277330040932,1188161.0
56.3,0.4000000059604645,61.0,24.74427795410156,1.4790298938751218,0.0,0.0,0.0,0.0,0.0,-0.0,1.0,0.0,0.0,0.0,-0.0225224569439888,0.0014576879329979,0.0175265744328498,0.1256856629066169,0.0535063538141548,-9.81386033177376,1188161.0
56.5,0.4000000059604645,61.0,24.746782302856445,1.4949334859848022,0.0,0.0,0.0,0.0,0.0,-0.0,1.0,0.0,0.0,0.0,-0.0207075532525777,-0.01017895527184,-0.0056633101776242,0.0920395963266492,0.0471591052925214,-9.818452734947208,1188161.0
56.61,0.4000000059604645,64.0,24.746782302856445,1.486981749534607,0.0,0.0,0.0,0.0,0.0,-0.0,1.0,0.0,0.0,0.0,-0.0072448700666427,0.0128008164465427,-0.015680918470025,0.1199689223896712,0.0706243151798844,-9.80742780983448,1188161.0
56.8,0.4000000059604645,65.0,24.74177360534668,1.4790298938751218,0.0,0.0,0.0,0.0,0.0,-0.0,1.0,0.0,0.0,0.0,-0.0018987964140251,-0.0086467862129211,-0.0072375368326902,0.097476839935407,0.036171506429091,-9.801154916882515,1188161.0
56.9,0.4000000059604645,66.0,24.74177360534668,1.486981749534607,0.0,0.0,0.0,0.0,0.0,-0.0,1.0,0.0,0.0,0.0,0.0079889241605997,0.0099214622750878,0.0062603000551462,0.0933460013475269,0.0758775450848043,-9.811222068071368,1188161.0
57.0,0.4000000059604645,68.0,24.74302673339844,1.486981749534607,0.0,0.0,0.0,0.0,0.0,-0.0,1.0,0.0,0.0,0.0,-0.0104485992342233,-0.0073467791080474,-0.0117460330948233,0.118392065372318,0.0829322381783276,-9.80448549091816,1188161.0
57.2,0.4000000059604645,73.0,24.73676681518555,1.486981749534607,0.0,0.0,0.0,0.0,0.0,-0.0,1.0,0.0,0.0,0.0,0.025402020663023,0.0296143181622028,-0.0300622917711734,0.1032847147900611,0.0983579148352146,-9.812655805349351,1188161.0
57.4,0.3000000119209289,76.0,24.74302673339844,1.5028852224349976,0.0,0.0,0.0,0.0,0.0,-0.0,1.0,0.0,0.0,0.0,-0.0198885835707187,-0.0073664407245814,0.0286713130772113,0.130032382523641,0.0215095949079841,-9.805602893829349,1188161.0
57.5,0.3000000119209289,79.0,24.74177360534668,1.4790298938751218,0.0,0.0,0.0,0.0,0.0,-0.0,1.0,0.0,0.0,0.0,0.0123784961178898,0.0052267233841121,0.0189266335219144,0.1034976813476532,0.0468978580925613,-9.803781486153603,1188161.0
57.7,0.3000000119209289,80.0,24.73551368713379,1.5028852224349976,0.0,0.0,0.0,0.0,0.0,-0.0,1.0,0.0,0.0,0.0,-0.0024681568611413,-0.0037485104985535,0.0098044266924262,0.1456374590657651,0.0724021656671538,-9.79717120885849,1188161.0
57.81,0.3000000119209289,84.0,24.740522384643555,1.4949334859848022,0.0,0.0,0.0,0.0,0.0,-0.0,1.0,0.0,0.0,0.0,0.0106345983222126,0.017189422622323,-0.0098648741841316,0.1139879790879786,0.0400464836508035,-9.81836853504181,1188161.0
58.0,0.3000000119209289,88.0,24.74302673339844,1.4790298938751218,0.0,0.0,0.0,0.0,0.0,-0.0,1.0,0.0,0.0,0.0,-0.0135895432904362,-0.0065945731475949,0.0148272309452295,0.1477692351210862,0.0370334796630777,-9.809849726557731,1188161.0
58.11,0.3000000119209289,93.0,24.72800064086914,1.5108370780944824,0.0,0.0,0.0,0.0,0.0,-0.0,1.0,0.0,0.0,0.0,-0.0248250793665647,0.0266943741589784,0.0072580138221383,0.1251002926658839,0.0888887510821223,-9.805701127052307,1188161.0
58.31,0.3000000119209289,94.0,24.74427795410156,1.486981749534607,0.0,0.0,0.0,0.0,0.0,-0.0,1.0,0.0,0.0,0.0,-0.0064545790664851,-0.0122612724080681,0.0036821393296122,0.0903537435550242,0.0728082684986293,-9.771934626102448,1188161.0
58.41,0.3000000119209289,97.0,24.74302673339844,1.5108370780944824,0.0,0.0,0.0,0.0,0.0,-0.0,1.0,0.0,0.0,0.0,0.0012040518922731,0.0129875987768173,-0.0023348724935203,0.100054274322465,0.073740707533434,-9.810298207998276,1188161.0
58.51,0.3000000119209289,94.0,24.74177360534668,1.5187888145446775,0.0,0.0,0.0,0.0,0.0,-0.0,1.0,0.0,0.0,0.0,-0.007353285793215,-0.0153959514573216,-0.0062944809906184,0.1197254680842161,0.0709180829487741,-9.798112025856971,1188161.0
58.71,0.3000000119209289,90.0,24.734262466430664,1.534692406654358,0.0,0.0,0.0,0.0,0.0,-0.0,1.0,0.0,0.0,0.0,-0.0290727447718381,0.0190460160374641,-0.0033827130682766,0.1081422252394259,0.0980249981302768,-9.821372834444048,1188161.0
58.9,0.3000000119209289,89.0,24.74177360534668,1.4949334859848022,0.0,0.0,0.0,0.0,0.0,-0.0,1.0,0.0,0.0,0.0,0.0196835920214653,-0.0065886541269719,0.0032266527414321,0.1171681791823357,0.0394436357170343,-9.815005216598507,1188161.0
59.01,0.3000000119209289,88.0,24.72174072265625,1.455174684524536,0.0,0.0,0.0,0.0,0.0,-0.0,1.0,0.0,0.0,0.0,0.0111195109784603,0.0100658014416694,-0.0172607898712158,0.1325317565817386,0.0811923808883875,-9.81087591290474,1188161.0
59.2,0.3000000119209289,86.0,24.738018035888672,1.5108370780944824,0.0,0.0,0.0,0.0,0.0,-0.0,1.0,0.0,0.0,0.0,0.0045862444676458,0.0036294509191066,0.0174068007618188,0.0891404280345887,0.0250280450074933,-9.826178076267244,1188161.0
59.3,0.3000000119209289,81.0,24.74427795410156,1.4949334859848022,0.0,0.0,0.0,0.0,0.0,-0.0,1.0,0.0,0.0,0.0,-0.03146593272686,-0.0017716356087476,-0.0053835865110158,0.1120337665267288,0.0626570772891864,-9.798019639849665,1188161.0
59.5,0.3000000119209289,76.0,24.74302673339844,1.4790298938751218,0.0,0.0,0.0,0.0,0.0,-0.0,1.0,0.0,0.0,0.0,0.0048750094138085,-0.0096810115501284,0.0150249730795621,0.1323339288309216,0.0439179525431245,-9.810290021896364,1188161.0
59.61,0.3000000119209289,65.0,24.740522384643555,1.5108370780944824,0.0,0.0,0.0,0.0,0.0,-0.0,1.0,0.0,0.0,0.0,-0.0101700611412525,-0.0079618105664849,0.0130907911807298,0.1398626483883708,0.0548248278535902,-9.80469482123852,1188161.0
59.8,0.3000000119209289,59.0,24.73551368713379,1.4631264209747314,0.0,0.0,0.0,0.0,0.0,-0.0,1.0,0.0,0.0,0.0,0.0082161799073219,0.0166131183505058,0.0009464921895414,0.1146232973411679,0.0622661361051723,-9.802928377389913,1188161.0
59.9,0.4000000059604645,52.0,24.7392692565918,1.455174684524536,0.0,0.0,0.0,0.0,0.0,-0.0,1.0,0.0,0.0,0.0,0.0010046468814834,0.0048262155614793,-0.0151088507845997,0.1222439004108309,0.0672636188473552,-9.788947684764864,1188161.0
60.01,0.3000000119209289,50.0,24.73676681518555,1.4790298938751218,0.0,0.0,0.0,0.0,0.0,-0.0,1.0,0.0,0.0,0.0,-0.0082972859963774,-0.0352778546512126,0.0275401230901479,0.0983410766813904,0.0315243746875785,-9.793665218353274,1188161.0
60.21,0.3000000119209289,50.0,24.73676681518555,1.4710781574249268,0.0,0.0,0.0,0.0,0.0,-0.0,1.0,0.0,0.0,0.0,0.0389573387801647,0.0028257879894226,-0.006423573475331,0.13754798239097,0.0511934922309592,-9.793448286652566,1188161.0
60.3,0.3000000119209289,50.0,24.734262466430664,1.4710781574249268,0.0,0.0,0.0,0.0,0.0,-0.0,1.0,0.0,0.0,0.0,0.0146084567531943,-0.0143962688744068,-0.0061648092232644,0.0695942550525069,0.0629767189873382,-9.793015007972718,1188161.0
60.51,0.3000000119209289,49.0,24.7392692565918,1.4790298938751218,0.0,0.0,0.0,0.0,0.0,-0.0,1.0,0.0,0.0,0.0,-0.0373674407601356,-0.0039679799228906,0.0099712423980236,0.1276158562023192,0.059921233607456,-9.798550567030906,1188161.0
60.7,0.3000000119209289,47.0,24.746782302856445,1.5187888145446775,0.0,0.0,0.0,0.0,0.0,-0.0,1.0,0.0,0.0,0.0,0.0071169720031321,-0.0109018171206116,0.0039341296069324,0.1105552158225327,0.0372833978827111,-9.80575492143631,1188161.0
60.8,0.4000000059604645,45.0,24.733009338378903,1.486981749534607,0.0,0.0,0.0,0.0,0.0,-0.0,1.0,0.0,0.0,0.0,0.0005406067939475,0.0062327086925506,0.0092263417318463,0.1092811258044094,0.0705057263374328,-9.768245617747306,1188161.0
60.9,0.4000000059604645,45.0,24.733009338378903,1.486981749534607,0.0,0.0,0.0,0.0,0.0,-0.0,1.0,0.0,0.0,0.0,-0.0059565659612417,-0.0192070920020341,0.0007611463661305,0.1127918763086199,0.0759503383515402,-9.822482635974882,1188161.0
61.11,0.4000000059604645,46.0,24.726749420166016,1.4710781574249268,0.0,0.0,0.0,0.0,0.0,-0.0,1.0,0.0,0.0,0.0,-0.0107738683000206,-0.0269418731331825,0.0112997386604547,0.1190867602732032,0.067150995992124,-9.797459476590156,1188161.0
61.2,0.4000000059604645,47.0,24.730504989624023,1.4790298938751218,0.0,0.0,0.0,0.0,0.0,-0.0,1.0,0.0,0.0,0.0,-0.0087610948830842,-0.0194969605654478,-0.006493005901575,0.1116870449110865,0.0678460746165365,-9.812708430290222,1188161.0
61.4,0.4000000059604645,49.0,24.738018035888672,1.4710781574249268,0.0,0.0,0.0,0.0,0.0,-0.0,1.0,0.0,0.0,0.0,-0.0158577617257833,0.004227040335536,0.016331335529685,0.1107327153626829,0.0368168837204575,-9.792089393734932,1188161.0
61.6,0.4000000059604645,49.0,24.73175811767578,1.5028852224349976,0.0,0.0,0.0,0.0,0.0,-0.0,1.0,0.0,0.0,0.0,0.0010098812635987,0.0185825712978839,0.0071259653195738,0.1068416857067495,0.0749444528063759,-9.80173262178898,1188161.0
61.71,0.4000000059604645,49.0,24.73175811767578,1.4710781574249268,0.0,0.0,0.0,0.0,0.0,-0.0,1.0,0.0,0.0,0.0,0.014577118679881,-0.0176638606935739,-0.01281722728163,0.1046812582947313,0.075703681781888,-9.802401543259624,1188161.0
61.8,0.4000000059604645,49.0,24.733009338378903,1.455174684524536,0.0,0.0,0.0,0.0,0.0,-0.0,1.0,0.0,0.0,0.0,-0.0100810574367642,-0.0123738497495651,0.0166522078216075,0.0966042252257466,0.0466172739677131,-9.8057046353817,1188161.0
62.01,0.4000000059604645,47.0,24.738018035888672,1.4949334859848022,0.0,0.0,0.0,0.0,0.0,-0.0,1.0,0.0,0.0,0.0,-0.0133554292842745,-0.0070023825392127,-0.004290189128369,0.1318438773415982,0.0486087625287473,-9.805284220576288,1188161.0
62.2,0.4000000059604645,48.0,24.7292537689209,1.4710781574249268,0.0,0.0,0.0,0.0,0.0,-0.0,1.0,0.0,0.0,0.0,0.0170046593993902,-0.0013246578164398,-0.0035566596779972,0.0992161125037819,0.0768233687616884,-9.809011820554732,1188161.0
62.3,0.4000000059604645,51.0,24.733009338378903,1.4790298938751218,0.0,0.0,0.0,0.0,0.0,-0.0,1.0,0.0,0.0,0.0,0.0144761679694056,-0.0138270556926727,-0.0027900654822587,0.1037015573121607,0.0566704740654677,-9.785438185930252,1188161.0
62.5,0.4000000059604645,52.0,24.72549819946289,1.455174684524536,0.0,0.0,0.0,0.0,0.0,-0.0,1.0,0.0,0.0,0.0,-0.0057654683478176,0.0068239788524806,0.0053847902454435,0.1052789899148047,0.0813697433844208,-9.826071656942368,1188161.0
62.6,0.4000000059604645,53.0,24.70546531677246,1.5108370780944824,0.0,0.0,0.0,0.0,0.0,-0.0,1.0,0.0,0.0,0.0,0.0157016366720199,-0.0141905229538679,-0.0224681179970502,0.1248385109938681,0.078990200702101,-9.79890841662884,1188161.0
62.7,0.4000000059604645,54.0,24.730504989624023,1.4949334859848022,0.0,0.0,0.0,0.0,0.0,-0.0,1.0,0.0,0.0,0.0,-0.0127574456855654,0.0234618503600358,0.0199338272213935,0.1003396367188543,0.0563053839700296,-9.822280322313311,1188161.0
62.9,0.4000000059604645,55.0,24.730504989624023,1.486981749534607,0.0,0.0,0.0,0.0,0.0,-0.0,1.0,0.0,0.0,0.0,-0.0101290810853242,-0.0130172790959477,0.0244680419564247,0.1410401223041117,0.0012370058801025,-9.80563680768013,1188161.0
63.1,0.4000000059604645,57.0,24.726749420166016,1.4313193559646606,0.0,0.0,0.0,0.0,0.0,-0.0,1.0,0.0,0.0,0.0,-0.0080308439210057,0.0042421645484864,-0.0138698853552341,0.0952493979502469,0.0692679895553737,-9.815223902463911,1188161.0
63.21,0.4000000059604645,61.0,24.720489501953125,1.455174684524536,0.0,0.0,0.0,0.0,0.0,-0.0,1.0,0.0,0.0,0.0,-0.0076542953029274,-0.0106131872162222,-0.0035729319788515,0.1006377990357578,0.1022740509733557,-9.804003680348396,1188161.0
63.4,0.4000000059604645,62.0,24.733009338378903,1.4790298938751218,0.0,0.0,0.0,0.0,0.0,-0.0,1.0,0.0,0.0,0.0,-0.0115962568670511,-0.02646354585886,0.0030806406866759,0.0937999188713729,0.049104359736666,-9.809847387671471,1188161.0
63.5,0.4000000059604645,66.0,24.733009338378903,1.4949334859848022,0.0,0.0,0.0,0.0,0.0,-0.0,1.0,0.0,0.0,0.0,-0.0027400199323892,0.019756082445383,0.0017219432629644,0.1225450868345797,0.0594280529441312,-9.79449961602688,1188161.0
63.7,0.4000000059604645,67.0,24.734262466430664,1.4790298938751218,0.0,0.0,0.0,0.0,0.0,-0.0,1.0,0.0,0.0,0.0,0.0016743298619985,-0.0034448264632374,-0.0163084659725427,0.1011333505623042,0.1024800922349095,-9.80636010825634,1188161.0
63.8,0.4000000059604645,69.0,24.73175811767578,1.486981749534607,0.0,0.0,0.0,0.0,0.0,-0.0,1.0,0.0,0.0,0.0,-0.0178853590041399,0.0028098290786147,-0.0086945164948701,0.1046906138397753,0.066510744150728,-9.807075807452202,1188161.0
64.0,0.4000000059604645,69.0,24.726749420166016,1.4790298938751218,0.0,0.0,0.0,0.0,0.0,-0.0,1.0,0.0,0.0,0.0,-0.0280224904417991,-0.0142418211326003,0.0116032194346189,0.1184288754221052,0.0326273354329168,-9.821036034822464,1188161.0
64.1,0.4000000059604645,70.0,24.733009338378903,1.4790298938751218,0.0,0.0,0.0,0.0,0.0,-0.0,1.0,0.0,0.0,0.0,0.0277184080332517,0.0203243475407362,-0.0057743317447602,0.1053851808328181,0.0670436813123524,-9.8159980738163,1188161.0
64.2,0.4000000059604645,71.0,24.72424507141113,1.4790298938751218,0.0,0.0,0.0,0.0,0.0,-0.0,1.0,0.0,0.0,0.0,-0.0245554614812135,-0.0291428752243518,0.0169091410934925,0.0913463723659515,0.0931167996302247,-9.803924742937088,1188161.0
64.4,0.4000000059604645,72.0,24.72800064086914,1.486981749534607,0.0,0.0,0.0,0.0,0.0,-0.0,1.0,0.0,0.0,0.0,-0.0079440539702773,-0.0387351140379905,-0.0035681603476405,0.0583314487617462,0.0883141616452485,-9.789593217372897,1188161.0
64.5,0.4000000059604645,72.0,24.73551368713379,1.4949334859848022,0.0,0.0,0.0,0.0,0.0,-0.0,1.0,0.0,0.0,0.0,-0.0246986262500286,-0.0056507070548832,0.0210407320410013,0.1356641100067645,0.0261320312996394,-9.815437910556794,1188161.0
64.7,0.4000000059604645,72.0,24.71923637390137,1.4790298938751218,0.0,0.0,0.0,0.0,0.0,-0.0,1.0,0.0,0.0,0.0,-0.0056780455633997,-0.0253383312374353,0.019611096009612,0.1181095169484615,0.0452393090771511,-9.802398619651797,1188161.0
64.9,0.4000000059604645,71.0,24.734262466430664,1.4710781574249268,0.0,0.0,0.0,0.0,0.0,-0.0,1.0,0.0,0.0,0.0,0.0056703402660787,0.0298236012458801,-0.0146261118352413,0.1280196978058666,0.0354148835758678,-9.798695577979087,1188161.0
65.0,0.4000000059604645,71.0,24.730504989624023,1.5108370780944824,0.0,0.0,0.0,0.0,0.0,-0.0,1.0,0.0,0.0,0.0,0.0071252258494496,-0.0099445655941963,-0.0117092309519648,0.1212638065684586,0.0471383705176413,-9.806011029481889,1188161.0
65.11,0.4000000059604645,70.0,24.720489501953125,1.4790298938751218,0.0,0.0,0.0,0.0,0.0,-0.0,1.0,0.0,0.0,0.0,0.004031010903418,0.0331266857683658,-0.0016422379994764,0.1228129624016583,0.0659323631599545,-9.81874860405922,1188161.0
65.3,0.4000000059604645,70.0,24.72424507141113,1.4790298938751218,0.0,0.0,0.0,0.0,0.0,-0.0,1.0,0.0,0.0,0.0,-0.0014414518373087,-0.0022290889173746,-0.0149706928059458,0.1283870308566838,0.1082072024233639,-9.798928881883624,1188161.0
65.5,0.4000000059604645,70.0,24.73175811767578,1.4790298938751218,0.0,0.0,0.0,0.0,0.0,-0.0,1.0,0.0,0.0,0.0,0.0093655232340097,0.0112692955881357,0.0004388215602375,0.0910680905822664,0.0794133746623993,-9.802792721986773,1188161.0
65.6,0.4000000059604645,70.0,24.73551368713379,1.4949334859848022,0.0,0.0,0.0,0.0,0.0,-0.0,1.0,0.0,0.0,0.0,0.0171212051063776,-0.0095831006765365,-0.003728030482307,0.1356391953863203,0.0603312284918502,-9.80072514653206,1188161.0
65.8,0.4000000059604645,71.0,24.73175811767578,1.5028852224349976,0.0,0.0,0.0,0.0,0.0,-0.0,1.0,0.0,0.0,0.0,0.055796630680561,0.0062705460004508,-0.0268705822527408,0.1031551350094378,0.0765883426694199,-9.805169030427932,1188161.0
65.9,0.4000000059604645,72.0,24.730504989624023,1.4949334859848022,0.0,0.0,0.0,0.0,0.0,-0.0,1.0,0.0,0.0,0.0,0.0012834169901907,0.0056135840713977,0.0123605318367481,0.1155389804486185,0.0591036695195362,-9.800467284321783,1188161.0
66.1,0.4000000059604645,72.0,24.730504989624023,1.4710781574249268,0.0,0.0,0.0,0.0,0.0,-0.0,1.0,0.0,0.0,0.0,0.0104861874133348,0.0106735182926058,-0.0082818148657679,0.0805429653637111,0.0536112656537443,-9.819597619771958,1188161.0
66.2,0.4000000059604645,73.0,24.726749420166016,1.4710781574249268,0.0,0.0,0.0,0.0,0.0,-0.0,1.0,0.0,0.0,0.0,0.0068843346089124,-0.014436881057918,0.00175423535984,0.1020395319443196,0.0561228731833398,-9.805819825530053,1188161.0
66.41,0.4000000059604645,73.0,24.7292537689209,1.4710781574249268,0.0,0.0,0.0,0.0,0.0,-0.0,1.0,0.0,0.0,0.0,0.0232098829001188,-0.0084187695756554,-0.0118106557056307,0.0965187279693782,0.0401981366705149,-9.808972644209865,1188161.0
66.5,0.5,75.0,24.73175811767578,1.4949334859848022,0.0,0.0,0.0,0.0,0.0,-0.0,1.0,0.0,0.0,0.0,-0.0251748971641063,0.0092368200421333,0.0001300065341638,0.1109565266780555,0.0723751359991729,-9.808719459772108,1188161.0
66.6,0.5,75.0,24.72549819946289,1.486981749534607,0.0,0.0,0.0,0.0,0.0,-0.0,1.0,0.0,0.0,0.0,0.0109404949471354,-0.0042997081764042,-0.0004382412007544,0.1107792372722178,0.0631202178820967,-9.79142924308777,1188161.0
66.81,0.5,75.0,24.73175811767578,1.4790298938751218,0.0,0.0,0.0,0.0,0.0,-0.0,1.0,0.0,0.0,0.0,-0.0007691723294556,-0.0077172578312456,8.541136048734188e-05,0.0928262021485716,0.0704542160220444,-9.812501438856128,1188161.0
66.91,0.5,76.0,24.730504989624023,1.5028852224349976,0.0,0.0,0.0,0.0,0.0,-0.0,1.0,0.0,0.0,0.0,0.0059945131652057,0.0032299023587256,-0.0177474431693553,0.1339504098705947,0.1021673484239727,-9.796651391386986,1188161.0
67.11,0.5,77.0,24.72800064086914,1.526740550994873,0.0,0.0,0.0,0.0,0.0,-0.0,1.0,0.0,0.0,0.0,0.0002661485341377,0.008976905606687,-0.0094704050570726,0.1036832938995212,0.0664962677238509,-9.81488359451294,1188161.0
67.3,0.5,77.0,24.726749420166016,1.5108370780944824,0.0,0.0,0.0,0.0,0.0,-0.0,1.0,0.0,0.0,0.0,0.0002129466593032,-0.0055832462385296,0.0125482585281133,0.1030306167248636,0.098264715699479,-9.775502012372018,1188161.0
67.4,0.5,76.0,24.726749420166016,1.5028852224349976,0.0,0.0,0.0,0.0,0.0,-0.0,1.0,0.0,0.0,0.0,0.0121232764795422,0.0014983747387304,-0.0042700418271124,0.1092003063205629,0.0693929600855335,-9.816178168058396,1188161.0
67.5,0.5,76.0,24.733009338378903,1.5108370780944824,0.0,0.0,0.0,0.0,0.0,-0.0,1.0,0.0,0.0,0.0,-0.0032879740465432,-0.0089747980237007,0.0044009489938616,0.1194072425086051,0.0700765498448163,-9.788812029361726,1188161.0
67.7,0.5,77.0,24.740522384643555,1.5187888145446775,0.0,0.0,0.0,0.0,0.0,-0.0,1.0,0.0,0.0,0.0,-0.0117018101736903,-0.0098210871219635,0.0173666588962078,0.1067276375927031,0.016787689612247,-9.826083351373674,1188161.0
67.8,0.5,77.0,24.72299385070801,1.4949334859848022,0.0,0.0,0.0,0.0,0.0,-0.0,1.0,0.0,0.0,0.0,0.0294910334050655,0.0180300790816545,-0.0154145592823624,0.1153567391820252,0.0903089118562638,-9.80695827841759,1188161.0
68.01,0.5,75.0,24.72800064086914,1.486981749534607,0.0,0.0,0.0,0.0,0.0,-0.0,1.0,0.0,0.0,0.0,-0.0119053842499852,0.0169957149773836,0.0097094308584928,0.1159083874337375,0.0711363759543746,-9.80261204302311,1188161.0
68.2,0.5,76.0,24.72800064086914,1.486981749534607,0.0,0.0,0.0,0.0,0.0,-0.0,1.0,0.0,0.0,0.0,-0.0132670374587178,-0.0195676889270544,0.0144438967108726,0.114583134278655,0.0783943328820169,-9.79550299823284,1188161.0
68.3,0.5,76.0,24.730504989624023,1.4949334859848022,0.0,0.0,0.0,0.0,0.0,-0.0,1.0,0.0,0.0,0.0,-0.0127241751179099,-0.0010585596319288,0.0164225287735462,0.1236313076410442,0.0638691731169819,-9.818904139995576,1188161.0
68.4,0.5,77.0,24.72549819946289,1.486981749534607,0.0,0.0,0.0,0.0,0.0,-0.0,1.0,0.0,0.0,0.0,0.0155037585645914,0.0219329614192247,-0.0124674150720238,0.1325407192669808,0.0657329411292448,-9.794432373046876,1188161.0
68.61,0.5,76.0,24.7292537689209,1.5028852224349976,0.0,0.0,0.0,0.0,0.0,-0.0,1.0,0.0,0.0,0.0,0.0034169270657002,0.0095276162028312,0.0065344870090484,0.0938227778300643,0.1046406566910445,-9.806596920490266,1188161.0
68.8,0.5,78.0,24.71798515319824,1.486981749534607,0.0,0.0,0.0,0.0,0.0,-0.0,1.0,0.0,0.0,0.0,-0.0313464105129241,-0.0177182089537382,0.0190666262060403,0.1363070935942232,0.0262289192061871,-9.806461265087126,1188161.0
68.9,0.5,79.0,24.72174072265625,1.5108370780944824,0.0,0.0,0.0,0.0,0.0,-0.0,1.0,0.0,0.0,0.0,0.0087291412055492,0.013183263130486,-0.0079125398769974,0.0650003809388727,0.098181365467608,-9.768464303612712,1188161.0
69.1,0.5,80.0,24.733009338378903,1.4949334859848022,0.0,0.0,0.0,0.0,0.0,-0.0,1.0,0.0,0.0,0.0,0.0024811804760247,0.0035446165129542,0.0091243693605065,0.1243925877101719,0.026186152305454,-9.785745749473572,1188161.0
69.2,0.5,79.0,24.714229583740234,1.486981749534607,0.0,0.0,0.0,0.0,0.0,-0.0,1.0,0.0,0.0,0.0,-0.002391270827502,0.0176734328269958,-0.0017631216906011,0.1385739129222929,0.0896686600148677,-9.805097109675408,1188161.0
69.31,0.5,79.0,24.72549819946289,1.4710781574249268,0.0,0.0,0.0,0.0,0.0,-0.0,1.0,0.0,0.0,0.0,-0.003514037001878,-0.0181074365973472,-0.0011125485179945,0.1143912176974117,0.066737744025886,-9.78622171282768,1188161.0
69.5,0.5,80.0,24.72299385070801,1.4233675003051758,0.0,0.0,0.0,0.0,0.0,-0.0,1.0,0.0,0.0,0.0,-0.0109136030077934,0.0184302721172571,0.0048195230774581,0.1165755912847817,0.0980783174280077,-9.78952012717724,1188161.0
69.7,0.5,80.0,24.72299385070801,1.4631264209747314,0.0,0.0,0.0,0.0,0.0,-0.0,1.0,0.0,0.0,0.0,0.0054172440432012,-0.0176035333424806,0.0035989836324006,0.1355228540673852,0.0495269398391246,-9.8001591360569,1188161.0
69.81,0.4000000059604645,83.0,24.720489501953125,1.4710781574249268,0.0,0.0,0.0,0.0,0.0,-0.0,1.0,0.0,0.0,0.0,-0.0018418892286717,-0.0039698178879916,0.0094185210764408,0.081709484886378,0.1079550321120768,-9.790580227375033,1188161.0
70.0,0.4000000059604645,86.0,24.730504989624023,1.4631264209747314,0.0,0.0,0.0,0.0,0.0,-0.0,1.0,0.0,0.0,0.0,0.0015080051962286,0.0004747362982016,0.0037104352377355,0.132642406001687,0.0633032631408423,-9.8068167757988,1188161.0
70.1,0.4000000059604645,90.0,24.720489501953125,1.4790298938751218,0.0,0.0,0.0,0.0,0.0,-0.0,1.0,0.0,0.0,0.0,-0.0092622963711619,0.0002518197870813,0.0021420763805508,0.11798285163939,0.0728416067641228,-9.781549202799797,1188161.0
70.3,0.4000000059604645,91.0,24.72174072265625,1.4790298938751218,0.0,0.0,0.0,0.0,0.0,-0.0,1.0,0.0,0.0,0.0,0.0091006997972726,-0.0111581580713391,-0.0072468458674848,0.1076837578509003,0.0662341023283079,-9.787188257575036,1188161.0
70.4,0.4000000059604645,90.0,24.72424507141113,1.486981749534607,0.0,0.0,0.0,0.0,0.0,-0.0,1.0,0.0,0.0,0.0,0.0137649681419134,0.0153571097180247,-0.0020663852337747,0.1259617885295301,0.0682256182981655,-9.785544020533562,1188161.0
70.6,0.4000000059604645,90.0,24.730504989624023,1.5187888145446775,0.0,0.0,0.0,0.0,0.0,-0.0,1.0,0.0,0.0,0.0,0.0019734397064894,0.0055965785868465,0.0020614056847989,0.1136236244626343,0.0567174116754904,-9.812193875312806,1188161.0
70.7,0.4000000059604645,91.0,24.72424507141113,1.4790298938751218,0.0,0.0,0.0,0.0,0.0,-0.0,1.0,0.0,0.0,0.0,-0.0200111139565706,-0.0171757992357015,0.0125992586836218,0.0988078763522207,0.0537511785607785,-9.789491475820542,1188161.0
70.8,0.4000000059604645,92.0,24.72800064086914,1.5187888145446775,0.0,0.0,0.0,0.0,0.0,-0.0,1.0,0.0,0.0,0.0,0.0032994097564369,-0.0251216385513544,-0.0012355020735412,0.0987810431141406,0.0791537582874298,-9.80037080526352,1188161.0
71.0,0.4000000059604645,93.0,24.72549819946289,1.4790298938751218,0.0,0.0,0.0,0.0,0.0,-0.0,1.0,0.0,0.0,0.0,0.0144732864573597,0.0083371456712484,0.0008753414731472,0.1221968211885541,0.0589759169938042,-9.797056018710135,1188161.0
71.1,0.4000000059604645,95.0,24.7292537689209,1.486981749534607,0.0,0.0,0.0,0.0,0.0,-0.0,1.0,0.0,0.0,0.0,-0.0028668786399066,-0.0098187066614627,0.0082661379128694,0.090500965481624,0.0584406866272911,-9.806282925009729,1188161.0
71.3,0.4000000059604645,98.0,24.72549819946289,1.526740550994873,0.0,0.0,0.0,0.0,0.0,-0.0,1.0,0.0,0.0,0.0,-0.0045062587596476,0.0050824182108044,-0.0017042664112523,0.1299109431635588,0.0829255321528762,-9.79965978384018,1188161.0
71.5,0.4000000059604645,98.0,24.72549819946289,1.486981749534607,0.0,0.0,0.0,0.0,0.0,-0.0,1.0,0.0,0.0,0.0,-0.0050145052373409,0.0206648930907249,0.0027760709635913,0.0861778539977967,0.0853922988474369,-9.790832242369651,1188161.0
71.6,0.4000000059604645,101.0,24.720489501953125,1.4790298938751218,0.0,0.0,0.0,0.0,0.0,-0.0,1.0,0.0,0.0,0.0,-0.0125868059694767,-0.0027133233379572,-0.0082692857831716,0.1206083976477384,0.1054468506854027,-9.800202405452728,1188161.0
71.7,0.4000000059604645,102.0,24.72549819946289,1.486981749534607,0.0,0.0,0.0,0.0,0.0,-0.0,1.0,0.0,0.0,0.0,-0.0114985704421997,-0.030884463340044,0.0071302442811429,0.1125969173479825,0.1037472021393478,-9.80470300734043,1188161.0
71.9,0.3000000119209289,104.0,24.726749420166016,1.4631264209747314,0.0,0.0,0.0,0.0,0.0,-0.0,1.0,0.0,0.0,0.0,0.0107660060748457,0.0105279292911291,0.005097712855786,0.1202365969587117,0.0810019261110574,-9.79217944085598,1188161.0
72.1,0.3000000119209289,105.0,24.72549819946289,1.4790298938751218,0.0,0.0,0.0,0.0,0.0,-0.0,1.0,0.0,0.0,0.0,-0.0198543164879083,0.0087563255801796,0.0047326129861176,0.0874721808638423,0.0519753060769289,-9.79480951845646,1188161.0
72.2,0.3000000119209289,105.0,24.72299385070801,1.4710781574249268,0.0,0.0,0.0,0.0,0.0,-0.0,1.0,0.0,0.0,0.0,0.0179637931287288,-0.0005404593539424,-0.0181514676660299,0.1284362479671836,0.0857005202025175,-9.809070877432823,1188161.0
72.3,0.3000000119209289,108.0,24.72299385070801,1.4949334859848022,0.0,0.0,0.0,0.0,0.0,-0.0,1.0,0.0,0.0,0.0,-0.0059640621766448,-0.0111042754724621,0.003363451687619,0.1087914671748876,0.0715952224982902,-9.80158000946045,1188161.0
72.51,0.3000000119209289,111.0,24.72424507141113,1.4949334859848022,0.0,0.0,0.0,0.0,0.0,-0.0,1.0,0.0,0.0,0.0,-0.0235455576330423,-0.0203179623931646,0.0333730950951576,0.1123706575110554,0.0402796276705339,-9.793929512500764,1188161.0
72.6,0.3000000119209289,113.0,24.730504989624023,1.4631264209747314,0.0,0.0,0.0,0.0,0.0,-0.0,1.0,0.0,0.0,0.0,0.0109166093170642,-0.0240666735917329,-0.0172481406480073,0.1123195766005665,0.1057511617150157,-9.808093807697295,1188161.0
72.8,0.3000000119209289,112.0,24.72800064086914,1.455174684524536,0.0,0.0,0.0,0.0,0.0,-0.0,1.0,0.0,0.0,0.0,0.0145294275134801,0.0058554289862513,-0.0003692018217407,0.1243823185376823,0.071706118597649,-9.79710864365101,1188161.0
73.0,0.3000000119209289,109.0,24.72299385070801,1.4949334859848022,0.0,0.0,0.0,0.0,0.0,-0.0,1.0,0.0,0.0,0.0,0.0019927525427192,0.0097243869677186,0.0003200285136699,0.1199920554365962,0.06134274198208,-9.830758785009383,1188161.0
73.1,0.3000000119209289,104.0,24.72549819946289,1.439271092414856,0.0,0.0,0.0,0.0,0.0,-0.0,1.0,0.0,0.0,0.0,-0.0034978119656443,-0.0094358073547482,0.0066969115287065,0.1158819836005568,0.0622192533127963,-9.792896894216538,1188161.0
73.2,0.3000000119209289,101.0,24.72549819946289,1.486981749534607,0.0,0.0,0.0,0.0,0.0,-0.0,1.0,0.0,0.0,0.0,-0.0142947416752576,0.0060346233658492,-0.0093400003388524,0.1405836466234177,0.08106623634696,-9.834453055858614,1188161.0
73.4,0.3000000119209289,96.0,24.72299385070801,1.4790298938751218,0.0,0.0,0.0,0.0,0.0,-0.0,1.0,0.0,0.0,0.0,-0.0135272732004523,-0.0221764203161001,0.0073350258171558,0.141453200681135,0.0794712072797119,-9.799682587981223,1188161.0
73.6,0.3000000119209289,94.0,24.71548080444336,1.4949334859848022,0.0,0.0,0.0,0.0,0.0,-0.0,1.0,0.0,0.0,0.0,0.0052289352752268,-0.0011026191059499,-0.0032655927352607,0.139915172830224,0.0475132821081206,-9.826328934431077,1188161.0
73.71,0.3000000119209289,91.0,24.71548080444336,1.5108370780944824,0.0,0.0,0.0,0.0,0.0,-0.0,1.0,0.0,0.0,0.0,0.0057845734991133,-0.0086014019325375,0.0072468784637749,0.1345057034958154,0.0393961956119164,-9.789909551739694,1188161.0
73.9,0.3000000119209289,89.0,24.72549819946289,1.4790298938751218,0.0,0.0,0.0,0.0,0.0,-0.0,1.0,0.0,0.0,0.0,-0.0151170743629336,0.0056628668680787,-0.0211575198918581,0.109549202369526,0.11192043104209,-9.830234874486925,1188161.0
74.0,0.3000000119209289,80.0,24.72549819946289,1.455174684524536,0.0,0.0,0.0,0.0,0.0,-0.0,1.0,0.0,0.0,0.0,-0.0090957432985305,-0.0233103744685649,-0.0135367698967456,0.1366684880666434,0.0826010208204388,-9.800064995884895,1188161.0
74.1,0.3000000119209289,77.0,24.72549819946289,1.4790298938751218,0.0,0.0,0.0,0.0,0.0,-0.0,1.0,0.0,0.0,0.0,-0.007999806664884,0.0032848846167325,0.0260977763682603,0.0921927933767438,0.0478892809152603,-9.808164559006691,1188161.0
74.31,0.4000000059604645,71.0,24.72174072265625,1.5028852224349976,0.0,0.0,0.0,0.0,0.0,-0.0,1.0,0.0,0.0,0.0,-0.0028855733107775,0.0053177117370069,0.0007130584563128,0.1669968444854021,0.054958555502817,-9.802854117751124,1188161.0
74.5,0.4000000059604645,69.0,24.72174072265625,1.486981749534607,0.0,0.0,0.0,0.0,0.0,-0.0,1.0,0.0,0.0,0.0,-0.003812089562416,-0.0018087840871885,-0.0115306777879595,0.0810337112098932,0.1041278924234211,-9.812064067125323,1188161.0
74.62,0.4000000059604645,66.0,24.72174072265625,1.5108370780944824,0.0,0.0,0.0,0.0,0.0,-0.0,1.0,0.0,0.0,0.0,0.0030375830829143,-0.014916400425136,-0.0078596100211143,0.1092359195183962,0.0724494367511943,-9.787424485087396,1188161.0
74.8,0.4000000059604645,67.0,24.7392692565918,1.574451208114624,0.0,0.0,0.0,0.0,0.0,-0.0,1.0,0.0,0.0,0.0,-0.0083852959796786,-0.0077149085700511,-0.0113587528467178,0.0974969397392124,0.0701839741598814,-9.816803820133211,1188161.0
74.91,0.4000000059604645,66.0,24.72299385070801,1.4710781574249268,0.0,0.0,0.0,0.0,0.0,-0.0,1.0,0.0,0.0,0.0,0.0090672057121992,0.0125124109908938,0.0088863112032413,0.1481599753070622,0.0457452211389318,-9.811171782016755,1188161.0
75.0,0.4000000059604645,65.0,24.72174072265625,1.486981749534607,0.0,0.0,0.0,0.0,0.0,-0.0,1.0,0.0,0.0,0.0,-0.0003092328843194,0.0139078591018915,-0.0134679907932877,0.105405691768974,0.0729841326456517,-9.826162873506547,1188161.0
75.21,0.4000000059604645,63.0,24.71172523498535,1.486981749534607,0.0,0.0,0.0,0.0,0.0,-0.0,1.0,0.0,0.0,0.0,-0.0109713599085807,-0.0078227464109659,0.0053139850497245,0.1277615158259868,0.0351381846517324,-9.80874284863472,1188161.0
75.4,0.4000000059604645,63.0,24.72424507141113,1.4949334859848022,0.0,0.0,0.0,0.0,0.0,-0.0,1.0,0.0,0.0,0.0,0.0319425202906131,0.0102419331669807,-0.0072680376470088,0.0928792930394411,0.0710179013153538,-9.815029774904252,1188161.0
75.5,0.4000000059604645,63.0,24.72424507141113,1.486981749534607,0.0,0.0,0.0,0.0,0.0,-0.0,1.0,0.0,0.0,0.0,0.0342831835150718,0.0071708960458636,-0.0053471950814127,0.1104681288544088,0.0512952474877238,-9.798480400443076,1188161.0
75.7,0.4000000059604645,64.0,24.71798515319824,1.4949334859848022,0.0,0.0,0.0,0.0,0.0,-0.0,1.0,0.0,0.0,0.0,0.0249520316720008,0.027883855625987,-0.0100384345278143,0.1209136771224439,0.0539433052763342,-9.813867348432543,1188161.0
75.8,0.4000000059604645,63.0,24.720489501953125,1.5028852224349976,0.0,0.0,0.0,0.0,0.0,-0.0,1.0,0.0,0.0,0.0,-0.0195494946092367,-0.023148164153099,0.0049485792405903,0.1024114057235419,0.0838223945349455,-9.816790956258776,1188161.0
76.0,0.4000000059604645,63.0,24.714229583740234,1.4710781574249268,0.0,0.0,0.0,0.0,0.0,-0.0,1.0,0.0,0.0,0.0,0.0253032688051462,0.008932888507843,0.0018441329011693,0.1301098215859383,0.0274315498536452,-9.82740716099739,1188161.0
76.1,0.4000000059604645,64.0,24.72299385070801,1.486981749534607,0.0,0.0,0.0,0.0,0.0,-0.0,1.0,0.0,0.0,0.0,0.0222286600619554,-0.0131885549053549,0.0028253975324332,0.0934830820094794,0.0742715296475216,-9.783089359402656,1188161.0
76.3,0.4000000059604645,64.0,24.720489501953125,1.4631264209747314,0.0,0.0,0.0,0.0,0.0,-0.0,1.0,0.0,0.0,0.0,-0.0158607903867959,0.0042082616128027,0.0144652677699923,0.100690305205062,0.0619919199636206,-9.805336260795594,1188161.0
76.41,0.4000000059604645,65.0,24.714229583740234,1.4313193559646606,0.0,0.0,0.0,0.0,0.0,-0.0,1.0,0.0,0.0,0.0,0.0313432402908802,-0.0036634730640798,-0.0250650197267532,0.1295530022028833,0.0539916453044861,-9.808894876241684,1188161.0
76.5,0.4000000059604645,63.0,24.714229583740234,1.4074640274047852,0.0,0.0,0.0,0.0,0.0,-0.0,1.0,0.0,0.0,0.0,0.0032524443231523,0.0181747544556856,0.022047558799386,0.0942447914835065,0.0345794694917276,-9.799842801690104,1188161.0
76.7,0.4000000059604645,63.0,24.70922088623047,1.4790298938751218,0.0,0.0,0.0,0.0,0.0,-0.0,1.0,0.0,0.0,0.0,-0.0099267493933439,-0.0211591385304927,0.0065001770853996,0.1198695105873048,0.0259440090553835,-9.802567019462586,1188161.0
76.9,0.4000000059604645,63.0,24.71673393249512,1.455174684524536,0.0,0.0,0.0,0.0,0.0,-0.0,1.0,0.0,0.0,0.0,0.0064396071247756,0.022412659600377,-0.0056992913596332,0.112462915610522,0.0686463665775954,-9.81644713997841,1188161.0
77.0,0.4000000059604645,62.0,24.71297645568848,1.4790298938751218,0.0,0.0,0.0,0.0,0.0,-0.0,1.0,0.0,0.0,0.0,0.0006935098208487,-0.0097183231264352,-0.0041940053924918,0.1177412245888263,0.0653260982595384,-9.820986918210984,1188161.0
77.2,0.4000000059604645,61.0,24.71297645568848,1.455174684524536,0.0,0.0,0.0,0.0,0.0,-0.0,1.0,0.0,0.0,0.0,0.0063801766373217,-0.0118509018793702,0.0072815269231796,0.1041169197577983,0.056589389629662,-9.823226401805876,1188161.0
77.31,0.4000000059604645,61.0,24.71548080444336,1.4949334859848022,0.0,0.0,0.0,0.0,0.0,-0.0,1.0,0.0,0.0,0.0,0.0164713766425848,0.0015267228009179,0.0008488195599056,0.113117420040071,0.046153978058137,-9.817708969116213,1188161.0
77.5,0.4000000059604645,62.0,24.720489501953125,1.439271092414856,0.0,0.0,0.0,0.0,0.0,-0.0,1.0,0.0,0.0,0.0,-0.018050942569971,0.0227406322956085,-0.0112045425921678,0.1113249378092587,0.0781633861362934,-9.824112839698794,1188161.0
