time,wind_speed,wind_angle,battery_voltage,battery_current,position_x,position_y,position_z,orientation_x,orientation_y,orientation_z,orientation_w,velocity_x,velocity_y,velocity_z,angular_x,angular_y,angular_z,linear_acceleration_x,linear_acceleration_y,linear_acceleration_z,node_ids
0.0,0.3000000119209289,147.0,24.45630645751953,1.439271092414856,0.0,0.0,0.0,0.0,0.0,-0.0,1.0,0.0,0.0,0.0,-0.0063302856869995,-0.0196259878575801,0.0068621532991528,0.0815802614204585,0.1151794223673641,-9.78930962741375,1188161.0
0.1,0.3000000119209289,137.0,24.45881080627441,1.4710781574249268,0.0,0.0,0.0,0.0,0.0,-0.0,1.0,0.0,0.0,0.0,-0.0048338137567043,-0.0019487336976453,0.0003857902192976,0.1234389342460781,0.0754570937342941,-9.810847846269608,1188161.0
0.3,0.3000000119209289,120.0,24.461315155029297,1.4472228288650513,0.0,0.0,0.0,0.0,0.0,-0.0,1.0,0.0,0.0,0.0,-0.0168704837560653,-0.0252284780144691,0.0293283034116029,0.1253429338429123,0.0298611273430287,-9.80825811445713,1188161.0
0.4,0.3000000119209289,113.0,24.46381950378418,1.455174684524536,0.0,0.0,0.0,0.0,0.0,-0.0,1.0,0.0,0.0,0.0,-0.0005261682672426,0.0173442866653203,0.0044388785026967,0.1125898001901805,0.0658577517746016,-9.813019502162934,1188161.0
0.6,0.3000000119209289,100.0,24.461315155029297,1.4710781574249268,0.0,0.0,0.0,0.0,0.0,-0.0,1.0,0.0,0.0,0.0,-0.0289476439356803,-0.0147355105727911,-0.0018159091705456,0.1189531148504466,0.0944817042164504,-9.792824388742448,1188161.0
0.7,0.3000000119209289,94.0,24.44378662109375,1.4631264209747314,0.0,0.0,0.0,0.0,0.0,-0.0,1.0,0.0,0.0,0.0,-0.0065330993384122,-0.0034541587810963,0.0023855087347328,0.1041834318358451,0.028908634185791,-9.80933575630188,1188161.0
0.91,0.3000000119209289,85.0,24.45881080627441,1.4710781574249268,0.0,0.0,0.0,0.0,0.0,-0.0,1.0,0.0,0.0,0.0,0.0114178955554962,0.0014824622776359,-0.0021341489627957,0.1394754804857075,0.0496066949469968,-9.798689146041871,1188161.0
1.01,0.3000000119209289,81.0,24.457557678222656,1.4710781574249268,0.0,0.0,0.0,0.0,0.0,-0.0,1.0,0.0,0.0,0.0,0.0097965812310576,0.0189415700733661,0.0078034652397036,0.1143313385546207,0.0800168621353805,-9.802586899995806,1188161.0
1.21,0.3000000119209289,76.0,24.46381950378418,1.5505958795547483,0.0,0.0,0.0,0.0,0.0,-0.0,1.0,0.0,0.0,0.0,-0.0056358054280281,-0.0070924344472587,-0.0143537754192948,0.1313946558628231,0.0996801987010985,-9.794059905409814,1188161.0
1.31,0.3000000119209289,73.0,24.465070724487305,1.4631264209747314,0.0,0.0,0.0,0.0,0.0,-0.0,1.0,0.0,0.0,0.0,-0.0103877801448106,-0.0109759550541639,0.0078999297693371,0.1062992559559643,0.0196114882081747,-9.797172963023186,1188161.0
1.51,0.3000000119209289,70.0,24.45630645751953,1.4631264209747314,0.0,0.0,0.0,0.0,0.0,-0.0,1.0,0.0,0.0,0.0,0.0125894797965884,0.0206513479351997,-0.0029828536789864,0.1265639969240874,0.062044969741255,-9.800975407361983,1188161.0
1.61,0.3000000119209289,69.0,24.46006202697754,1.4631264209747314,0.0,0.0,0.0,0.0,0.0,-0.0,1.0,0.0,0.0,0.0,0.0277488995343446,0.0065336558036506,-0.015021814033389,0.1311590222083032,0.0838028154987841,-9.788032010793687,1188161.0
1.8,0.3000000119209289,67.0,24.45881080627441,1.455174684524536,0.0,0.0,0.0,0.0,0.0,-0.0,1.0,0.0,0.0,0.0,-0.0048340898938477,0.0010328559437766,0.0009646817925386,0.0941337126586586,0.0762024310044944,-9.799322984218598,1188161.0
1.9,0.3000000119209289,65.0,24.46006202697754,1.455174684524536,0.0,0.0,0.0,0.0,0.0,-0.0,1.0,0.0,0.0,0.0,-0.0057110195048153,-0.000847578223329,0.0053554503247141,0.1471360547561198,0.0620510362274944,-9.805332167744636,1188161.0
2.1,0.3000000119209289,62.0,24.45630645751953,1.4710781574249268,0.0,0.0,0.0,0.0,0.0,-0.0,1.0,0.0,0.0,0.0,0.0089491214603185,0.0090866796672344,-0.0022760431747883,0.1219352222420275,0.0580708091240376,-9.823052154779432,1188161.0
2.2,0.3000000119209289,61.0,24.457557678222656,1.4631264209747314,0.0,0.0,0.0,0.0,0.0,-0.0,1.0,0.0,0.0,0.0,-0.0047887428663671,0.0110585503280162,-0.0036370062734931,0.1617903009429574,0.0533526177238673,-9.809636887907985,1188161.0
2.4,0.3000000119209289,59.0,24.44378662109375,1.4710781574249268,0.0,0.0,0.0,0.0,0.0,-0.0,1.0,0.0,0.0,0.0,-0.0038671435322612,0.0131826978176832,-0.0035526908468455,0.147497887769714,0.0404980166070163,-9.813966751098633,1188161.0
2.5,0.3000000119209289,58.0,24.44754219055176,1.4710781574249268,0.0,0.0,0.0,0.0,0.0,-0.0,1.0,0.0,0.0,0.0,-0.0173063930124044,-0.0096106119453907,0.0129818217828869,0.1105181225482374,0.0718029494024813,-9.796934981346132,1188161.0
2.7,0.3000000119209289,59.0,24.446290969848643,1.4631264209747314,0.0,0.0,0.0,0.0,0.0,-0.0,1.0,0.0,0.0,0.0,0.0072444970719516,0.0003284451377112,-0.0089627848938107,0.1304168186802417,0.0761529169650748,-9.8214476788044,1188161.0
2.8,0.3000000119209289,59.0,24.45004653930664,1.439271092414856,0.0,0.0,0.0,0.0,0.0,-0.0,1.0,0.0,0.0,0.0,0.0067444634623825,-0.0021352958865463,-0.011608893983066,0.1075973561033606,0.0480826638685539,-9.813453365564348,1188161.0
3.0,0.3000000119209289,59.0,24.45129776000977,1.4472228288650513,0.0,0.0,0.0,0.0,0.0,-0.0,1.0,0.0,0.0,0.0,0.0507730431854724,0.0130898989737033,-0.0081774201244115,0.0861012189276516,0.0655183802917599,-9.7979500579834,1188161.0
3.11,0.3000000119209289,59.0,24.44378662109375,1.439271092414856,0.0,0.0,0.0,0.0,0.0,-0.0,1.0,0.0,0.0,0.0,0.0123418038710951,0.0231755059212446,0.0151802506297826,0.0995747021399438,0.0983298025187105,-9.800149780511855,1188161.0
3.3,0.3000000119209289,59.0,24.435022354125977,1.455174684524536,0.0,0.0,0.0,0.0,0.0,-0.0,1.0,0.0,0.0,0.0,-0.0115343621000647,-0.0107089914381504,-0.0093250088393688,0.149088357836008,0.0817591770831495,-9.812776257991793,1188161.0
3.4,0.3000000119209289,59.0,24.45129776000977,1.455174684524536,0.0,0.0,0.0,0.0,0.0,-0.0,1.0,0.0,0.0,0.0,0.0021916839759796,0.005627647973597,-0.0103303091600537,0.1054676539823413,0.0707158241048455,-9.798823047280314,1188161.0
3.6,0.3000000119209289,66.0,24.45129776000977,1.4472228288650513,0.0,0.0,0.0,0.0,0.0,-0.0,1.0,0.0,0.0,0.0,0.0156243816018104,-0.0152099784463644,-0.0012767645530402,0.1335102424398064,0.0676431351201608,-9.790852707624436,1188161.0
3.81,0.2000000029802322,76.0,24.445037841796875,1.4074640274047852,0.0,0.0,0.0,0.0,0.0,-0.0,1.0,0.0,0.0,0.0,0.0049559301696717,0.0083420034497976,0.0073496331460773,0.122686562044546,0.054396377694793,-9.81414801478386,1188161.0
3.93,0.2000000029802322,81.0,24.44002914428711,1.4472228288650513,0.0,0.0,0.0,0.0,0.0,-0.0,1.0,0.0,0.0,0.0,0.0137728378176689,0.0170373432338237,0.0038053686730563,0.1221633093338459,0.103084584698081,-9.80618820011616,1188161.0
4.1,0.2000000029802322,91.0,24.457557678222656,1.4074640274047852,0.0,0.0,0.0,0.0,0.0,-0.0,1.0,0.0,0.0,0.0,0.0137600395828485,0.0144201563671231,-0.0031796311959624,0.1132392339874059,0.0928239089436829,-9.807622522115707,1188161.0
4.2,0.2000000029802322,95.0,24.45004653930664,1.4313193559646606,0.0,0.0,0.0,0.0,0.0,-0.0,1.0,0.0,0.0,0.0,-0.0244869068264961,-0.0046870219521224,0.0003116150037385,0.1148463320732116,0.0233397071692161,-9.791932688355448,1188161.0
4.4,0.2000000029802322,98.0,24.45881080627441,1.455174684524536,0.0,0.0,0.0,0.0,0.0,-0.0,1.0,0.0,0.0,0.0,-0.0160158593207597,0.012257027439773,-0.0013094808673486,0.1327100783865898,0.0430060792621225,-9.826112587451936,1188161.0
4.51,0.2000000029802322,100.0,24.45505523681641,1.4631264209747314,0.0,0.0,0.0,0.0,0.0,-0.0,1.0,0.0,0.0,0.0,0.0104641048237681,-0.0258240643888712,0.0031409841030836,0.149750518463552,0.0380550567596219,-9.804024730324748,1188161.0
4.7,0.2000000029802322,102.0,24.457557678222656,1.455174684524536,0.0,0.0,0.0,0.0,0.0,-0.0,1.0,0.0,0.0,0.0,-0.0233588460832834,-0.0036943219602108,0.0064579164609313,0.1102627728134393,0.0665791383013129,-9.803392646312712,1188161.0
4.8,0.2000000029802322,103.0,24.45129776000977,1.486981749534607,0.0,0.0,0.0,0.0,0.0,-0.0,1.0,0.0,0.0,0.0,-0.0169796999543905,-0.0064404918812215,-0.0054217651486396,0.1291014052927494,0.0727173854084685,-9.810154366493226,1188161.0
5.0,0.2000000029802322,106.0,24.45129776000977,1.4472228288650513,0.0,0.0,0.0,0.0,0.0,-0.0,1.0,0.0,0.0,0.0,0.0156800616532564,0.0168611109256744,0.0017833998426795,0.1239291410520672,0.0417957147583365,-9.829591680765152,1188161.0
5.11,0.2000000029802322,105.0,24.45129776000977,1.4631264209747314,0.0,0.0,0.0,0.0,0.0,-0.0,1.0,0.0,0.0,0.0,0.0108191659674048,0.0257810354232788,-0.0071862414479255,0.1364635979756712,0.0628385419724509,-9.806630249619484,1188161.0
5.3,0.2000000029802322,98.0,24.44128227233887,1.439271092414856,0.0,0.0,0.0,0.0,0.0,-0.0,1.0,0.0,0.0,0.0,-0.0149731952697038,-0.0219958741217851,-0.0037102892529219,0.1127438012324273,0.0891301679983735,-9.81433980345726,1188161.0
5.41,0.2000000029802322,95.0,24.45380210876465,1.455174684524536,0.0,0.0,0.0,0.0,0.0,-0.0,1.0,0.0,0.0,0.0,-0.0099110817536711,0.0061065885238349,-0.0186551306396722,0.1202317090518772,0.0391036292631179,-9.801815652251245,1188161.0
5.6,0.2000000029802322,90.0,24.452550888061523,1.4472228288650513,0.0,0.0,0.0,0.0,0.0,-0.0,1.0,0.0,0.0,0.0,0.028491573408246,0.0212696716189384,-0.003052293555811,0.1597106107883155,0.0624027508171275,-9.816112679243089,1188161.0
5.7,0.2000000029802322,89.0,24.44002914428711,1.4631264209747314,0.0,0.0,0.0,0.0,0.0,-0.0,1.0,0.0,0.0,0.0,0.0132702887058258,0.0004521048394963,0.0118642104789614,0.1040019580163061,0.0826875322032719,-9.808084452152253,1188161.0
5.9,0.2000000029802322,91.0,24.45380210876465,1.439271092414856,0.0,0.0,0.0,0.0,0.0,-0.0,1.0,0.0,0.0,0.0,-0.0185732785612344,0.0022462678607553,0.0098067373037338,0.1324471729528158,0.0668178051989525,-9.814764311313631,1188161.0
6.01,0.2000000029802322,92.0,24.45505523681641,1.4472228288650513,0.0,0.0,0.0,0.0,0.0,-0.0,1.0,0.0,0.0,0.0,-0.0261811409145593,-0.0222331304103136,0.0068539078347384,0.1225716733932495,0.0440134905651211,-9.810635007619858,1188161.0
6.2,0.2000000029802322,95.0,24.45004653930664,1.4472228288650513,0.0,0.0,0.0,0.0,0.0,-0.0,1.0,0.0,0.0,0.0,0.0020093624480068,-0.0147170517593622,0.0053780409507453,0.0816985213570296,0.0751000344241038,-9.797347210049631,1188161.0
6.3,0.2000000029802322,97.0,24.44378662109375,1.439271092414856,0.0,0.0,0.0,0.0,0.0,-0.0,1.0,0.0,0.0,0.0,0.0004142017569392,-0.0045231003314256,0.0035213746596127,0.1039847726840526,0.0766839857585728,-9.809236353635788,1188161.0
6.5,0.2000000029802322,100.0,24.44128227233887,1.455174684524536,0.0,0.0,0.0,0.0,0.0,-0.0,1.0,0.0,0.0,0.0,0.0188368093222379,-0.0060586049221456,0.003186160698533,0.12138954911381,0.0282038733945228,-9.793744740486146,1188161.0
6.6,0.2000000029802322,104.0,24.431264877319336,1.3995121717453003,0.0,0.0,0.0,0.0,0.0,-0.0,1.0,0.0,0.0,0.0,-0.021645214408636,0.0257966723293066,6.355521691148167e-07,0.1129751042928546,0.061738899978809,-9.81142321228981,1188161.0
6.8,0.2000000029802322,113.0,24.45380210876465,1.439271092414856,0.0,0.0,0.0,0.0,0.0,-0.0,1.0,0.0,0.0,0.0,0.0232012532651424,-0.014070451259613,-0.0056098951026797,0.12683315156959,0.076975725274533,-9.788965811133382,1188161.0
6.9,0.2000000029802322,116.0,24.44253349304199,1.455174684524536,0.0,0.0,0.0,0.0,0.0,-0.0,1.0,0.0,0.0,0.0,0.0346248410642147,0.0168418437242507,-0.0139906499534845,0.111300333822146,0.0682553705759346,-9.799831691980364,1188161.0
7.1,0.2000000029802322,119.0,24.45129776000977,1.455174684524536,0.0,0.0,0.0,0.0,0.0,-0.0,1.0,0.0,0.0,0.0,0.0028579293284565,-0.0190824121236801,0.0008948923205025,0.1458208697754889,0.0583949824143201,-9.791591795682908,1188161.0
7.2,0.2000000029802322,119.0,24.45129776000977,1.455174684524536,0.0,0.0,0.0,0.0,0.0,-0.0,1.0,0.0,0.0,0.0,0.002676774514839,0.0136056570336222,0.0064521897584199,0.1139672397449612,0.0631268919305876,-9.801675319075583,1188161.0
7.4,0.2000000029802322,117.0,24.448793411254893,1.4631264209747314,0.0,0.0,0.0,0.0,0.0,-0.0,1.0,0.0,0.0,0.0,0.0062356977723538,0.0010253788204863,-0.0152517445385456,0.1581126032955944,0.0750109694525599,-9.79983578503132,1188161.0
7.5,0.2000000029802322,115.0,24.44378662109375,1.4472228288650513,0.0,0.0,0.0,0.0,0.0,-0.0,1.0,0.0,0.0,0.0,0.0085148038342595,0.0044522667303681,-0.0164253078401088,0.0939724208693951,0.0206059260014444,-9.802122631073,1188161.0
7.7,0.2000000029802322,110.0,24.45004653930664,1.4790298938751218,0.0,0.0,0.0,0.0,0.0,-0.0,1.0,0.0,0.0,0.0,-0.0109777534380555,0.0146730057895183,0.0127739338204264,0.1442021503485739,0.0615546989813447,-9.793575755953787,1188161.0
7.8,0.2000000029802322,108.0,24.43251800537109,1.4710781574249268,0.0,0.0,0.0,0.0,0.0,-0.0,1.0,0.0,0.0,0.0,-0.0246360637247562,0.0039876662194728,0.023307554423809,0.1117536666244268,0.0919570774957537,-9.79978023648262,1188161.0
8.0,0.2000000029802322,103.0,24.45004653930664,1.4631264209747314,0.0,0.0,0.0,0.0,0.0,-0.0,1.0,0.0,0.0,0.0,-0.0126490872353315,0.0131664387881755,-0.0044548008590936,0.1292188977822661,0.0951295757107436,-9.807375769615174,1188161.0
8.11,0.2000000029802322,99.0,24.44128227233887,1.4472228288650513,0.0,0.0,0.0,0.0,0.0,-0.0,1.0,0.0,0.0,0.0,-0.0254994891583919,-0.0210945978760719,0.0015296258497983,0.1673406424932182,0.0473117404617369,-9.796888203620911,1188161.0
8.3,0.2000000029802322,86.0,24.448793411254893,1.4710781574249268,0.0,0.0,0.0,0.0,0.0,-0.0,1.0,0.0,0.0,0.0,-0.0025700416881591,0.0029242427553981,0.0182750523090362,0.1034016499668359,0.0208354246476665,-9.805348539948463,1188161.0
8.4,0.2000000029802322,79.0,24.43752479553223,1.486981749534607,0.0,0.0,0.0,0.0,0.0,-0.0,1.0,0.0,0.0,0.0,0.0149765163660049,-0.0058425515890121,-0.0124216200783848,0.1641878055408597,0.0699906825693324,-9.792947764992713,1188161.0
8.6,0.2000000029802322,70.0,24.46006202697754,1.526740550994873,0.0,0.0,0.0,0.0,0.0,-0.0,1.0,0.0,0.0,0.0,-0.0077889515087008,0.0045421812683343,0.0055476049892604,0.1214549100212752,0.0768910228740424,-9.818021210432056,1188161.0
8.7,0.2000000029802322,70.0,24.446290969848643,1.4790298938751218,0.0,0.0,0.0,0.0,0.0,-0.0,1.0,0.0,0.0,0.0,0.0022115809842944,-0.0058555142022669,-0.0120020071044564,0.1507622786331922,0.0740263896994292,-9.800176092982293,1188161.0
8.91,0.2000000029802322,69.0,24.44754219055176,1.4631264209747314,0.0,0.0,0.0,0.0,0.0,-0.0,1.0,0.0,0.0,0.0,0.0268210824579,0.0184148885309696,-0.0066486936993896,0.1128595212846994,0.0373664557537995,-9.821299159526824,1188161.0
9.0,0.2000000029802322,68.0,24.44378662109375,1.439271092414856,0.0,0.0,0.0,0.0,0.0,-0.0,1.0,0.0,0.0,0.0,0.0042230025865137,0.0064322487451136,-0.0069660232402384,0.1369186209887266,0.0913258797023445,-9.797091102004051,1188161.0
9.2,0.2000000029802322,66.0,24.44754219055176,1.4790298938751218,0.0,0.0,0.0,0.0,0.0,-0.0,1.0,0.0,0.0,0.0,-0.0011862026294693,-0.0020417752675712,-0.0210436917841434,0.11714539331384,0.1181371724512428,-9.809860251545906,1188161.0
9.3,0.2000000029802322,66.0,24.43752479553223,1.455174684524536,0.0,0.0,0.0,0.0,0.0,-0.0,1.0,0.0,0.0,0.0,-0.0344832092523574,-0.0343040823936462,0.0038274459075182,0.0916477871965616,0.0557330511929467,-9.784813118577004,1188161.0
9.5,0.2000000029802322,68.0,24.43376922607422,1.4790298938751218,0.0,0.0,0.0,0.0,0.0,-0.0,1.0,0.0,0.0,0.0,0.0137313893064856,0.0152420038357377,0.0088660530745983,0.1010416771844029,0.0399214811436832,-9.80992632508278,1188161.0
9.6,0.2000000029802322,69.0,24.44128227233887,1.486981749534607,0.0,0.0,0.0,0.0,0.0,-0.0,1.0,0.0,0.0,0.0,0.0429060496389865,0.0218564309179782,-0.0123561704531312,0.1173831648565828,0.0756212543137371,-9.80282371222973,1188161.0
9.8,0.3000000119209289,72.0,24.4362735748291,1.4631264209747314,0.0,0.0,0.0,0.0,0.0,-0.0,1.0,0.0,0.0,0.0,-0.0003762108390219,-0.0273415669798851,-0.0058884392492473,0.0831629565171897,0.0500386397307738,-9.817166347503663,1188161.0
9.91,0.3000000119209289,73.0,24.446290969848643,1.4631264209747314,0.0,0.0,0.0,0.0,0.0,-0.0,1.0,0.0,0.0,0.0,-0.005175897385925,-0.0187686346471309,-0.0028228580486029,0.1187101630400866,0.0433961707726121,-9.814162048101426,1188161.0
10.1,0.3000000119209289,75.0,24.445037841796875,1.486981749534607,0.0,0.0,0.0,0.0,0.0,-0.0,1.0,0.0,0.0,0.0,0.0129418140277266,-0.0250255148857831,0.017609741538763,0.0951005040854215,0.0432058347668498,-9.798123135566712,1188161.0
10.2,0.3000000119209289,73.0,24.43752479553223,1.4710781574249268,0.0,0.0,0.0,0.0,0.0,-0.0,1.0,0.0,0.0,0.0,0.0092282583937048,-0.0069016213528811,0.0121381115168333,0.1041598328389227,0.0497830022033304,-9.816689214706422,1188161.0
10.41,0.3000000119209289,68.0,24.44002914428711,1.4154157638549805,0.0,0.0,0.0,0.0,0.0,-0.0,1.0,0.0,0.0,0.0,0.0072095803916454,-0.0032099070958793,-0.0165363438427448,0.1305838389135897,0.0603855025302618,-9.807283968329427,1188161.0
10.5,0.3000000119209289,65.0,24.431264877319336,1.4472228288650513,0.0,0.0,0.0,0.0,0.0,-0.0,1.0,0.0,0.0,0.0,-0.0280260574072599,-0.0004615612269844,-0.0085314800962805,0.0801518505904823,0.0332293839426711,-9.806288187503815,1188161.0
10.7,0.3000000119209289,61.0,24.446290969848643,1.455174684524536,0.0,0.0,0.0,0.0,0.0,-0.0,1.0,0.0,0.0,0.0,-0.0041512199677526,-0.0019435525173321,-0.0068382462486624,0.1414446948096156,0.0440965895494446,-9.800228717923163,1188161.0
10.8,0.3000000119209289,59.0,24.43376922607422,1.439271092414856,0.0,0.0,0.0,0.0,0.0,-0.0,1.0,0.0,0.0,0.0,0.0143568590283393,-0.0092270793393254,0.0092995669692754,0.1117789375595748,0.0283171883225441,-9.801084750294685,1188161.0
11.0,0.3000000119209289,54.0,24.445037841796875,1.4313193559646606,0.0,0.0,0.0,0.0,0.0,-0.0,1.0,0.0,0.0,0.0,0.0170021206140518,0.0011595370015129,-0.0051130051724612,0.1202169996500015,0.0881403622962534,-9.785127114057538,1188161.0
11.1,0.3000000119209289,49.0,24.426258087158203,1.4631264209747314,0.0,0.0,0.0,0.0,0.0,-0.0,1.0,0.0,0.0,0.0,-0.016514241695404,0.0365260913968086,-0.009403652511537,0.0935824572667479,0.0854481580294668,-9.812364614009857,1188161.0
11.3,0.3000000119209289,44.0,24.43251800537109,1.4631264209747314,0.0,0.0,0.0,0.0,0.0,-0.0,1.0,0.0,0.0,0.0,-0.0081868711858987,0.0027800246607512,0.0125930840149521,0.11887137260288,0.047478582537733,-9.795238704085351,1188161.0
11.4,0.3000000119209289,42.0,24.44253349304199,1.4472228288650513,0.0,0.0,0.0,0.0,0.0,-0.0,1.0,0.0,0.0,0.0,0.0003915245761163,0.0286529958248138,0.0147078614681959,0.1517021911405027,0.0433642394933849,-9.81680031180382,1188161.0
11.6,0.3000000119209289,39.0,24.44378662109375,1.486981749534607,0.0,0.0,0.0,0.0,0.0,-0.0,1.0,0.0,0.0,0.0,-0.0048441910184919,-0.0002119034470524,-0.0064748460426926,0.1184272400289774,0.0810886659007519,-9.787427993416788,1188161.0
11.7,0.3000000119209289,37.0,24.448793411254893,1.4472228288650513,0.0,0.0,0.0,0.0,0.0,-0.0,1.0,0.0,0.0,0.0,0.0006046787602826,-0.0033967490307986,0.0133915478363633,0.099816119056195,0.0891637346707284,-9.786122310161591,1188161.0
11.9,0.2000000029802322,32.0,24.44253349304199,1.4710781574249268,0.0,0.0,0.0,0.0,0.0,-0.0,1.0,0.0,0.0,0.0,-0.0067161642946302,0.002515644300729,-0.0011876843636855,0.1530875244364142,0.0698761730734258,-9.812020797729495,1188161.0
12.01,0.2000000029802322,29.0,24.446290969848643,1.4313193559646606,0.0,0.0,0.0,0.0,0.0,-0.0,1.0,0.0,0.0,0.0,0.0063793309964239,0.0186896082013845,-0.005370850674808,0.1101492637395858,0.0846600538585335,-9.786411162614822,1188161.0
12.2,0.2000000029802322,20.0,24.44253349304199,1.455174684524536,0.0,0.0,0.0,0.0,0.0,-0.0,1.0,0.0,0.0,0.0,-0.0003149645926896,0.013487453572452,-0.0098732830956578,0.1353551394771784,0.0437206501280888,-9.80579409778118,1188161.0
12.3,0.2000000029802322,15.0,24.43752479553223,1.4472228288650513,0.0,0.0,0.0,0.0,0.0,-0.0,1.0,0.0,0.0,0.0,0.0008628772338852,0.0005951491766609,0.0036150563973933,0.1375928506348282,0.0188541687140241,-9.80342012822628,1188161.0
12.5,0.1000000014901161,4.0,24.43251800537109,1.4790298938751218,0.0,0.0,0.0,0.0,0.0,-0.0,1.0,0.0,0.0,0.0,0.0129720065742731,0.0183224808424711,-0.0128410495817661,0.0944001172855496,0.0760510703455656,-9.79132457792759,1188161.0
12.6,0.1000000014901161,356.0,24.44128227233887,1.455174684524536,0.0,0.0,0.0,0.0,0.0,-0.0,1.0,0.0,0.0,0.0,-0.0161359384655952,-0.0279426220804452,0.0041623297147452,0.1266281335707754,0.0656402627611532,-9.78859743654728,1188161.0
12.8,0.1000000014901161,339.0,24.44128227233887,1.4790298938751218,0.0,0.0,0.0,0.0,0.0,-0.0,1.0,0.0,0.0,0.0,0.0100575638934969,0.0198332257568836,0.0079271346330642,0.1382955306395888,-0.0016295367758721,-9.81205705046654,1188161.0
12.9,0.1000000014901161,329.0,24.44378662109375,1.455174684524536,0.0,0.0,0.0,0.0,0.0,-0.0,1.0,0.0,0.0,0.0,0.0004943553358316,0.0273048728704452,0.0008521302952431,0.1011110123712569,0.0839544045645743,-9.786107107400897,1188161.0
13.1,0.0,320.0,24.44002914428711,1.4472228288650513,0.0,0.0,0.0,0.0,0.0,-0.0,1.0,0.0,0.0,0.0,-0.0298533141613006,-0.0097563276067376,0.0019452936248853,0.1086488590668886,0.0756718235928565,-9.822938718795776,1188161.0
13.21,0.0,311.0,24.44128227233887,1.4790298938751218,0.0,0.0,0.0,0.0,0.0,-0.0,1.0,0.0,0.0,0.0,-0.0037393176462501,-0.0009369770414195,0.004821159876883,0.1385164640285074,0.0312706489255651,-9.798475722670556,1188161.0
13.4,0.0,283.0,24.43376922607422,1.455174684524536,0.0,0.0,0.0,0.0,0.0,-0.0,1.0,0.0,0.0,0.0,-0.0078396229073405,0.0126437973231077,0.0109240598976612,0.1342208435945213,0.0364566449867561,-9.809884225130082,1188161.0
13.5,0.0,237.0,24.43251800537109,1.4472228288650513,0.0,0.0,0.0,0.0,0.0,-0.0,1.0,0.0,0.0,0.0,-0.0006962503539398,-0.0076597286388278,0.0057888273149728,0.1314170123264193,0.069400068107061,-9.793127859234811,1188161.0
13.7,0.0,173.0,24.44378662109375,1.4631264209747314,0.0,0.0,0.0,0.0,0.0,-0.0,1.0,0.0,0.0,0.0,0.0032796550076454,0.0002718848700169,0.0010854287538677,0.1023347249720245,0.0455113873304799,-9.794199069142342,1188161.0
13.81,0.0,126.0,24.43752479553223,1.455174684524536,0.0,0.0,0.0,0.0,0.0,-0.0,1.0,0.0,0.0,0.0,-0.0243355687707662,-0.0080546671524643,-0.012601688504219,0.129874279294163,0.0693833121797069,-9.79814944803715,1188161.0
14.0,0.0,98.0,24.44128227233887,1.439271092414856,0.0,0.0,0.0,0.0,0.0,-0.0,1.0,0.0,0.0,0.0,0.0165755935013294,0.0336468257009983,-0.0136902248486876,0.1156264694128185,0.1031734166946262,-9.803701379299165,1188161.0
14.1,0.0,94.0,24.43251800537109,1.4154157638549805,0.0,0.0,0.0,0.0,0.0,-0.0,1.0,0.0,0.0,0.0,0.0097263166680932,0.0105655780062079,0.0214086957275867,0.1009696011152118,0.1111764002591371,-9.786361461281777,1188161.0
14.3,0.1000000014901161,90.0,24.44002914428711,1.4233675003051758,0.0,0.0,0.0,0.0,0.0,-0.0,1.0,0.0,0.0,0.0,-0.0224336069077253,-0.0157588329166173,0.0096640978008508,0.1074421764817089,0.0596303483331576,-9.804343988299369,1188161.0
14.41,0.1000000014901161,91.0,24.44378662109375,1.455174684524536,0.0,0.0,0.0,0.0,0.0,-0.0,1.0,0.0,0.0,0.0,-0.0090815713629126,-0.0095513714477419,-0.0135528501123189,0.1394420599937439,0.0556918146181851,-9.797879891395567,1188161.0
14.6,0.1000000014901161,83.0,24.44253349304199,1.4472228288650513,0.0,0.0,0.0,0.0,0.0,-0.0,1.0,0.0,0.0,0.0,0.0073499190621078,-0.0097914673388004,0.014612453058362,0.0940075041633099,0.0660825817845761,-9.804270898103717,1188161.0
14.7,0.1000000014901161,77.0,24.438777923583984,1.4233675003051758,0.0,0.0,0.0,0.0,0.0,-0.0,1.0,0.0,0.0,0.0,-0.0005714638973586,-0.00317311915569,0.002583363559097,0.1388934267126023,0.0417815078515559,-9.806891620159153,1188161.0
14.9,0.1000000014901161,67.0,24.44128227233887,1.439271092414856,0.0,0.0,0.0,0.0,0.0,-0.0,1.0,0.0,0.0,0.0,0.0127875190228223,0.0075653777457773,-0.0095950476825237,0.1440481493063271,0.0282801247411407,-9.815683493614197,1188161.0
15.0,0.2000000029802322,65.0,24.44378662109375,1.4631264209747314,0.0,0.0,0.0,0.0,0.0,-0.0,1.0,0.0,0.0,0.0,-0.0145330773666501,0.0101891262456774,0.0047693578526377,0.119878391046077,0.0643622030317783,-9.796688813567162,1188161.0
15.2,0.2000000029802322,66.0,24.431264877319336,1.439271092414856,0.0,0.0,0.0,0.0,0.0,-0.0,1.0,0.0,0.0,0.0,-0.0168497394770383,-0.019558185711503,-0.0105806337669491,0.1393654157873243,0.0668726411182433,-9.813047568798066,1188161.0
15.3,0.2000000029802322,68.0,24.44002914428711,1.439271092414856,0.0,0.0,0.0,0.0,0.0,-0.0,1.0,0.0,0.0,0.0,-0.0006152664427645,-0.0022554975003004,-0.0208082161843776,0.1179456395935267,0.1384993517864495,-9.785207805633542,1188161.0
15.5,0.2000000029802322,73.0,24.44002914428711,1.4233675003051758,0.0,0.0,0.0,0.0,0.0,-0.0,1.0,0.0,0.0,0.0,0.0113753220066428,0.0123855751007795,0.0027455736417323,0.1442294769454747,0.0557140294695272,-9.80069298684597,1188161.0
15.61,0.2000000029802322,74.0,24.448793411254893,1.4631264209747314,0.0,0.0,0.0,0.0,0.0,-0.0,1.0,0.0,0.0,0.0,-0.0045289495028555,0.0087241725996136,0.0151583971455693,0.1018605157826096,0.088241738397628,-9.823132846355437,1188161.0
15.8,0.2000000029802322,84.0,24.435022354125977,1.4949334859848022,0.0,0.0,0.0,0.0,0.0,-0.0,1.0,0.0,0.0,0.0,0.0098373442888259,-0.0124221788719296,-0.0054372027516365,0.1048811508435756,0.0846552847232669,-9.7976202750206,1188161.0
15.9,0.2000000029802322,91.0,24.438777923583984,1.4472228288650513,0.0,0.0,0.0,0.0,0.0,-0.0,1.0,0.0,0.0,0.0,-0.0173021201044321,0.0023505371063947,0.0060716499574482,0.1187678220681846,0.0658987599425017,-9.807438919544222,1188161.0
16.1,0.2000000029802322,111.0,24.42375373840332,1.4233675003051758,0.0,0.0,0.0,0.0,0.0,-0.0,1.0,0.0,0.0,0.0,-0.0049507827498018,-0.0010859664762392,0.0186477024108171,0.1405142383463681,0.0160490629356354,-9.817836438417435,1188161.0
16.2,0.2000000029802322,125.0,24.44253349304199,1.4233675003051758,0.0,0.0,0.0,0.0,0.0,-0.0,1.0,0.0,0.0,0.0,-4.358165824669413e-06,-0.0024067505728453,0.0131894722580909,0.1282991307601332,0.0753102920763194,-9.805326905250553,1188161.0
16.4,0.1000000014901161,154.0,24.438777923583984,1.4472228288650513,0.0,0.0,0.0,0.0,0.0,-0.0,1.0,0.0,0.0,0.0,-0.0069972202181816,0.0037442429456859,-0.0113914357498288,0.1386327048484236,0.0997002619598061,-9.796970649361612,1188161.0
16.5,0.1000000014901161,160.0,24.438777923583984,1.4472228288650513,0.0,0.0,0.0,0.0,0.0,-0.0,1.0,0.0,0.0,0.0,0.0038298300933092,0.0219593904912471,-0.0096351122483611,0.1135947172902524,0.0561678693350404,-9.802985680103305,1188161.0
16.7,0.1000000014901161,170.0,24.43376922607422,1.455174684524536,0.0,0.0,0.0,0.0,0.0,-0.0,1.0,0.0,0.0,0.0,-0.0040566879324615,-0.0092651722952723,0.0022838863078504,0.1218284191936254,0.0770473902113735,-9.80040881216526,1188161.0
16.81,0.1000000014901161,174.0,24.43752479553223,1.4313193559646606,0.0,0.0,0.0,0.0,0.0,-0.0,1.0,0.0,0.0,0.0,0.0215961206704378,0.0392986163496971,-0.0104069113731384,0.1191991912666708,0.0502301862929016,-9.815891654491423,1188161.0
17.0,0.2000000029802322,181.0,24.43752479553223,1.439271092414856,0.0,0.0,0.0,0.0,0.0,-0.0,1.0,0.0,0.0,0.0,-0.0140831619501113,-0.0019477353198453,0.0003687596181407,0.1193622920382768,0.0708627491025254,-9.77545757353306,1188161.0
17.1,0.2000000029802322,184.0,24.44002914428711,1.455174684524536,0.0,0.0,0.0,0.0,0.0,-0.0,1.0,0.0,0.0,0.0,-0.0347359888255596,-0.0172104071825742,0.0099077280610799,0.1352832552697509,0.0181978096207603,-9.798538872599602,1188161.0
17.3,0.2000000029802322,191.0,24.43251800537109,1.4154157638549805,0.0,0.0,0.0,0.0,0.0,-0.0,1.0,0.0,0.0,0.0,0.0056925448589026,0.0403186902403831,-0.0046744588762521,0.1532909709960222,0.0265836533345282,-9.816295112371446,1188161.0
17.4,0.2000000029802322,194.0,24.427509307861328,1.4154157638549805,0.0,0.0,0.0,0.0,0.0,-0.0,1.0,0.0,0.0,0.0,-0.0012147352099418,-0.0018238864140585,0.0127280056476593,0.117370931385085,0.0998363833129406,-9.778209857940674,1188161.0
17.6,0.1000000014901161,197.0,24.4362735748291,1.4313193559646606,0.0,0.0,0.0,0.0,0.0,-0.0,1.0,0.0,0.0,0.0,-0.0055400058627128,0.01056694611907,-0.0091927368193864,0.1113089219201356,0.0553631051676347,-9.816578117609025,1188161.0
17.7,0.1000000014901161,194.0,24.41999626159668,1.4790298938751218,0.0,0.0,0.0,0.0,0.0,-0.0,1.0,0.0,0.0,0.0,-0.00439128652215,-0.0060130939818918,0.0031724027357995,0.1467793654650449,0.0632478653406724,-9.789683849215509,1188161.0
17.9,0.2000000029802322,186.0,24.43376922607422,1.4710781574249268,0.0,0.0,0.0,0.0,0.0,-0.0,1.0,0.0,0.0,0.0,0.0101698413491249,0.0074151656590402,0.0097523713484406,0.1155668917670846,0.0601294904155656,-9.803810722231868,1188161.0
18.0,0.1000000014901161,184.0,24.43752479553223,1.4472228288650513,0.0,0.0,0.0,0.0,0.0,-0.0,1.0,0.0,0.0,0.0,-0.0075090448372066,-0.006818117108196,0.0132238902151584,0.1595258022285998,0.0294333624048158,-9.792485834956173,1188161.0
18.21,0.2000000029802322,184.0,24.42375373840332,1.4313193559646606,0.0,0.0,0.0,0.0,0.0,-0.0,1.0,0.0,0.0,0.0,-0.0058220038190484,0.0092477593570947,-0.0094391359016299,0.1117152029089629,0.0950335351936519,-9.816340720653534,1188161.0
18.3,0.2000000029802322,186.0,24.42250061035156,1.4631264209747314,0.0,0.0,0.0,0.0,0.0,-0.0,1.0,0.0,0.0,0.0,-0.0070728543214499,-0.0034317318350076,0.0001061553266481,0.1340211520437151,0.0446113226842135,-9.800090723633769,1188161.0
18.5,0.2000000029802322,186.0,24.435022354125977,1.4631264209747314,0.0,0.0,0.0,0.0,0.0,-0.0,1.0,0.0,0.0,0.0,-0.000224650153541,0.0099559761583805,0.0066453204490244,0.0893156343698501,0.0567431668331846,-9.821492117643356,1188161.0
18.6,0.2000000029802322,184.0,24.426258087158203,1.486981749534607,0.0,0.0,0.0,0.0,0.0,-0.0,1.0,0.0,0.0,0.0,0.0268599689006805,-0.0018581065814942,-0.0047509614378213,0.1402705099526792,0.0482741556130349,-9.8045234978199,1188161.0
18.8,0.2000000029802322,176.0,24.43001365661621,1.455174684524536,0.0,0.0,0.0,0.0,0.0,-0.0,1.0,0.0,0.0,0.0,-0.0213964879512786,-0.0054184272885322,0.02139887586236,0.1068461442086845,0.0345918856887146,-9.826593228578568,1188161.0
18.9,0.2000000029802322,173.0,24.4362735748291,1.439271092414856,0.0,0.0,0.0,0.0,0.0,-0.0,1.0,0.0,0.0,0.0,0.0025282576680183,-0.0042267735116183,0.0024999033194035,0.1368584860302508,0.0977622114680707,-9.80815461874008,1188161.0
19.11,0.2000000029802322,166.0,24.431264877319336,1.455174684524536,0.0,0.0,0.0,0.0,0.0,-0.0,1.0,0.0,0.0,0.0,0.03081557713449,-0.0023077046498656,-0.0148777309805154,0.1210593002010136,0.0669378238683566,-9.804574953317642,1188161.0
19.2,0.2000000029802322,164.0,24.4362735748291,1.4710781574249268,0.0,0.0,0.0,0.0,0.0,-0.0,1.0,0.0,0.0,0.0,-0.0189709439873695,-0.0068740551359951,-0.0056442585773766,0.0950086571183055,0.0597337846644222,-9.806045528054238,1188161.0
19.4,0.2000000029802322,160.0,24.43251800537109,1.4631264209747314,0.0,0.0,0.0,0.0,0.0,-0.0,1.0,0.0,0.0,0.0,0.0213649943470954,-0.0168598964810371,0.0047808433882892,0.108511814950034,0.0559143605595454,-9.799313628673554,1188161.0
19.5,0.2000000029802322,159.0,24.425004959106445,1.4631264209747314,0.0,0.0,0.0,0.0,0.0,-0.0,1.0,0.0,0.0,0.0,0.0163009334355592,0.0267095249146223,-0.006623366381973,0.1027485707961022,0.0555265439813956,-9.810867726802826,1188161.0
19.7,0.2000000029802322,155.0,24.43376922607422,1.455174684524536,0.0,0.0,0.0,0.0,0.0,-0.0,1.0,0.0,0.0,0.0,0.0225980971008539,-0.0247424431145191,-0.0212405733764171,0.121471519768238,0.0694023384712636,-9.776760917901994,1188161.0
19.8,0.2000000029802322,153.0,24.43376922607422,1.439271092414856,0.0,0.0,0.0,0.0,0.0,-0.0,1.0,0.0,0.0,0.0,-0.0038079265505075,0.0168600399047136,-0.0232125092297792,0.0866362757049501,0.0489417477557435,-9.804093727469445,1188161.0
20.0,0.2000000029802322,149.0,24.4362735748291,1.4472228288650513,0.0,0.0,0.0,0.0,0.0,-0.0,1.0,0.0,0.0,0.0,0.0250758621841669,0.0035815977025777,-0.0065788421779871,0.1447366132680326,0.0719669089838862,-9.784537129998206,1188161.0
20.1,0.2000000029802322,147.0,24.426258087158203,1.439271092414856,0.0,0.0,0.0,0.0,0.0,-0.0,1.0,0.0,0.0,0.0,0.0264051482081413,0.0201442819088697,0.0052285855636,0.1013978182990104,0.0470962385879829,-9.81806214094162,1188161.0
20.3,0.2000000029802322,145.0,24.43251800537109,1.4710781574249268,0.0,0.0,0.0,0.0,0.0,-0.0,1.0,0.0,0.0,0.0,-0.0181291289627552,-0.0106251053512096,0.0111552821472287,0.0900426442734897,0.0715889047645032,-9.77713630914688,1188161.0
20.4,0.2000000029802322,144.0,24.43251800537109,1.4710781574249268,0.0,0.0,0.0,0.0,0.0,-0.0,1.0,0.0,0.0,0.0,-0.0098353903740644,0.0009724721894599,0.0080317249521613,0.1529209336079657,0.0573483673576265,-9.8318370115757,1188161.0
20.6,0.2000000029802322,143.0,24.42876052856445,1.455174684524536,0.0,0.0,0.0,0.0,0.0,-0.0,1.0,0.0,0.0,0.0,-0.0015998991439118,-0.0106870625168085,-0.0015447039622813,0.1268994352407753,0.0332532250508666,-9.79400260269642,1188161.0
20.7,0.2000000029802322,143.0,24.43001365661621,1.4710781574249268,0.0,0.0,0.0,0.0,0.0,-0.0,1.0,0.0,0.0,0.0,-0.0033133283723145,0.000735234003514,-0.0093862377107143,0.1402250478509813,0.0619989229179918,-9.791329255700118,1188161.0
20.9,0.2000000029802322,145.0,24.41999626159668,1.4710781574249268,0.0,0.0,0.0,0.0,0.0,-0.0,1.0,0.0,0.0,0.0,-0.0075970157049596,-0.0055333422496914,-0.0075471024028956,0.1293194881640374,0.0639022053172811,-9.797829605340956,1188161.0
21.0,0.2000000029802322,145.0,24.42876052856445,1.455174684524536,0.0,0.0,0.0,0.0,0.0,-0.0,1.0,0.0,0.0,0.0,-0.0152310319244861,-0.0199524518102407,0.0073580630123615,0.127780071599409,0.0562804282363504,-9.80477726697922,1188161.0
21.21,0.2000000029802322,143.0,24.435022354125977,1.486981749534607,0.0,0.0,0.0,0.0,0.0,-0.0,1.0,0.0,0.0,0.0,-0.0044034738093614,0.0175716616213321,-0.0090716686099767,0.133898735102266,0.0631158690154552,-9.803589112758637,1188161.0
21.31,0.2000000029802322,143.0,24.426258087158203,1.4472228288650513,0.0,0.0,0.0,0.0,0.0,-0.0,1.0,0.0,0.0,0.0,0.0055109444074332,0.0009613496949896,0.0031960089690983,0.1518999001197517,0.0321618125564418,-9.79350441992283,1188161.0
21.5,0.2000000029802322,143.0,24.435022354125977,1.455174684524536,0.0,0.0,0.0,0.0,0.0,-0.0,1.0,0.0,0.0,0.0,-0.0046123848296701,0.0092858159914612,0.0246724858880043,0.1265637136995792,0.0359611985273659,-9.806848935484886,1188161.0
21.6,0.2000000029802322,143.0,24.43251800537109,1.4790298938751218,0.0,0.0,0.0,0.0,0.0,-0.0,1.0,0.0,0.0,0.0,-0.011340020224452,-0.0122485803440213,0.0116796474903821,0.1258624315448105,0.0550006554555147,-9.800089554190636,1188161.0
21.8,0.2000000029802322,142.0,24.41498947143555,1.3199944496154783,0.0,0.0,0.0,0.0,0.0,-0.0,1.0,0.0,0.0,0.0,0.0076396586373448,0.0158389266580343,-0.0042554573155939,0.0948030635342002,0.0907512719929218,-9.79870902657509,1188161.0
21.91,0.2000000029802322,139.0,24.416240692138672,1.3756568431854248,0.0,0.0,0.0,0.0,0.0,-0.0,1.0,0.0,0.0,0.0,-0.0188120771199464,-0.0194903388619422,0.0067393705248832,0.1073562132753431,0.0323875287850387,-9.798191547989845,1188161.0
22.1,0.2000000029802322,134.0,24.435022354125977,1.4710781574249268,0.0,0.0,0.0,0.0,0.0,-0.0,1.0,0.0,0.0,0.0,0.0230663064867258,0.0175661668181419,-0.0111001348122954,0.1094662815425545,0.0108008442772552,-9.819687666893008,1188161.0
22.2,0.2000000029802322,131.0,24.425004959106445,1.4472228288650513,0.0,0.0,0.0,0.0,0.0,-0.0,1.0,0.0,0.0,0.0,0.0054820654913783,0.0232681613415479,-0.000444193923613,0.1549348243139684,0.0478308909852057,-9.803373350501063,1188161.0
22.4,0.2000000029802322,127.0,24.42876052856445,1.455174684524536,0.0,0.0,0.0,0.0,0.0,-0.0,1.0,0.0,0.0,0.0,-0.0085162715986371,0.0026027273852378,-0.0086912186816334,0.1044912055134773,0.08851452014409,-9.834842480421068,1188161.0
22.5,0.2000000029802322,125.0,24.431264877319336,1.4313193559646606,0.0,0.0,0.0,0.0,0.0,-0.0,1.0,0.0,0.0,0.0,0.0054470309987664,0.0113903908059,0.009851548820734,0.1214944883622229,0.067514683669433,-9.79809389948845,1188161.0
22.7,0.2000000029802322,123.0,24.431264877319336,1.4472228288650513,0.0,0.0,0.0,0.0,0.0,-0.0,1.0,0.0,0.0,0.0,0.0179048534482717,0.0078940177336335,0.0069854324683547,0.1018930317834019,0.1113178297877311,-9.800770754814147,1188161.0
22.8,0.2000000029802322,122.0,24.44378662109375,1.5108370780944824,0.0,0.0,0.0,0.0,0.0,-0.0,1.0,0.0,0.0,0.0,-0.0352763235569,0.0155238499864935,-0.0080286115407943,0.1230258558690548,0.084625317743048,-9.818920512199403,1188161.0
23.01,0.2000000029802322,118.0,24.431264877319336,1.4313193559646606,0.0,0.0,0.0,0.0,0.0,-0.0,1.0,0.0,0.0,0.0,-0.0131092611700296,-0.0287058316171169,0.008385238237679,0.0797587441094219,0.06339390411973,-9.791757271885873,1188161.0
23.1,0.2000000029802322,113.0,24.426258087158203,1.4472228288650513,0.0,0.0,0.0,0.0,0.0,-0.0,1.0,0.0,0.0,0.0,0.0161475334316492,-0.0050302874296903,-0.0139472680166363,0.112087031006813,0.021599411338102,-9.819015237092971,1188161.0
23.3,0.2000000029802322,104.0,24.418745040893555,1.4631264209747314,0.0,0.0,0.0,0.0,0.0,-0.0,1.0,0.0,0.0,0.0,0.0132329128682613,0.0033154778648167,-0.0093398736789822,0.143189476551488,0.0525442401599139,-9.824241478443149,1188161.0
23.4,0.2000000029802322,100.0,24.43251800537109,1.4313193559646606,0.0,0.0,0.0,0.0,0.0,-0.0,1.0,0.0,0.0,0.0,0.0135867334902286,0.0119358254596591,-0.000218328248593,0.1003740896098315,0.0894408926926553,-9.813926990032195,1188161.0
23.6,0.2000000029802322,95.0,24.43376922607422,1.4472228288650513,0.0,0.0,0.0,0.0,0.0,-0.0,1.0,0.0,0.0,0.0,-0.0005549248890019,-0.019495204091072,-0.0093825841322541,0.1299058268498629,0.0467792692501097,-9.806195801496504,1188161.0
23.7,0.2000000029802322,93.0,24.43251800537109,1.4233675003051758,0.0,0.0,0.0,0.0,0.0,-0.0,1.0,0.0,0.0,0.0,0.003258520271629,0.0136712845414876,-0.0138951372355222,0.1138908787630498,0.079352591028437,-9.806035587787626,1188161.0
23.9,0.3000000119209289,85.0,24.43251800537109,1.4313193559646606,0.0,0.0,0.0,0.0,0.0,-0.0,1.0,0.0,0.0,0.0,-0.0124702006578445,-0.0372757129371166,-0.0132205402478575,0.1107681732438504,0.0887050936929881,-9.801248472332952,1188161.0
24.0,0.3000000119209289,80.0,24.425004959106445,1.439271092414856,0.0,0.0,0.0,0.0,0.0,-0.0,1.0,0.0,0.0,0.0,-0.0135453809052705,-0.0167126357555389,0.0112766455858945,0.1031271323282271,0.0344490811508148,-9.806048451662065,1188161.0
24.2,0.3000000119209289,72.0,24.42250061035156,1.4313193559646606,0.0,0.0,0.0,0.0,0.0,-0.0,1.0,0.0,0.0,0.0,0.000806909520179,-0.0273723173886537,0.0169873852282762,0.1146223106235265,0.0232501602591946,-9.793530732393265,1188161.0
24.3,0.3000000119209289,68.0,24.42375373840332,1.351801514625549,0.0,0.0,0.0,0.0,0.0,-0.0,1.0,0.0,0.0,0.0,-0.0196485165506601,0.0012728894362226,0.0154722444713115,0.0846312197763472,0.0299952021706849,-9.793819584846498,1188161.0
24.51,0.3000000119209289,67.0,24.426258087158203,1.439271092414856,0.0,0.0,0.0,0.0,0.0,-0.0,1.0,0.0,0.0,0.0,-0.0057761366479098,-0.0229446124285459,0.0036874418146908,0.0942356095276773,0.0668782507907599,-9.79533576786518,1188161.0
24.6,0.3000000119209289,69.0,24.425004959106445,1.4154157638549805,0.0,0.0,0.0,0.0,0.0,-0.0,1.0,0.0,0.0,0.0,0.0061154933646321,0.0073739704675972,-0.0049240905791521,0.1330757669080048,0.0479810456559062,-9.834951238632204,1188161.0
24.81,0.3000000119209289,74.0,24.426258087158203,1.4233675003051758,0.0,0.0,0.0,0.0,0.0,-0.0,1.0,0.0,0.0,0.0,0.0046369745396077,-0.0041173147037625,0.0021780477836728,0.1122687789145857,0.0503400499932468,-9.78711633682251,1188161.0
24.92,0.3000000119209289,77.0,24.41999626159668,1.4472228288650513,0.0,0.0,0.0,0.0,0.0,-0.0,1.0,0.0,0.0,0.0,-0.0330855511128902,0.0054903756827116,0.0134928934276103,0.1049504494853317,0.0712284604646265,-9.815386455059052,1188161.0
25.1,0.4000000059604645,84.0,24.41999626159668,1.4631264209747314,0.0,0.0,0.0,0.0,0.0,-0.0,1.0,0.0,0.0,0.0,0.0059324819594621,-0.0118719665333628,-0.003070656908676,0.1072890159767121,0.0357288425113074,-9.789267527461051,1188161.0
25.2,0.4000000059604645,87.0,24.42124938964844,1.3995121717453003,0.0,0.0,0.0,0.0,0.0,-0.0,1.0,0.0,0.0,0.0,0.0322770178318023,0.0097821140661835,-0.0107881426811218,0.131339353993535,0.0588066675094887,-9.811651253700257,1188161.0
25.31,0.4000000059604645,91.0,24.42375373840332,1.4233675003051758,0.0,0.0,0.0,0.0,0.0,-0.0,1.0,0.0,0.0,0.0,0.0189691092818975,0.0127409575507044,-0.0060069542378187,0.1517044203914702,0.075903830146417,-9.818195457458495,1188161.0
25.51,0.4000000059604645,95.0,24.426258087158203,1.4313193559646606,0.0,0.0,0.0,0.0,0.0,-0.0,1.0,0.0,0.0,0.0,-0.0057134879752993,0.0079115163534879,0.0177159998565912,0.1111117702536284,0.0805029667541384,-9.794663338065147,1188161.0
25.7,0.4000000059604645,101.0,24.42124938964844,1.4790298938751218,0.0,0.0,0.0,0.0,0.0,-0.0,1.0,0.0,0.0,0.0,0.0171231944113969,0.0073421630077064,-0.0295336153358221,0.1248656548652798,0.0696639602584764,-9.792209846377371,1188161.0
25.8,0.4000000059604645,103.0,24.42375373840332,1.4710781574249268,0.0,0.0,0.0,0.0,0.0,-0.0,1.0,0.0,0.0,0.0,0.0123191531747579,0.0010285745374858,0.0082172788679599,0.1123246198240667,0.0453426357731223,-9.78741162121296,1188161.0
26.0,0.4000000059604645,104.0,24.412485122680664,1.4472228288650513,0.0,0.0,0.0,0.0,0.0,-0.0,1.0,0.0,0.0,0.0,0.021817872300744,0.0020221399608999,-0.0098609672859311,0.1174807950854301,0.0825681393686682,-9.788361793756485,1188161.0
26.1,0.4000000059604645,103.0,24.431264877319336,1.4631264209747314,0.0,0.0,0.0,0.0,0.0,-0.0,1.0,0.0,0.0,0.0,-0.0265903789550066,-0.0248252246528863,0.0303523391485214,0.1002193759381771,0.0387051826296374,-9.799528806209564,1188161.0
26.3,0.4000000059604645,101.0,24.427509307861328,1.4710781574249268,0.0,0.0,0.0,0.0,0.0,-0.0,1.0,0.0,0.0,0.0,0.003159005427733,0.004128651227802,-0.0111256269738078,0.1238420723564922,0.0852973820921033,-9.80411653161049,1188161.0
26.4,0.4000000059604645,98.0,24.418745040893555,1.486981749534607,0.0,0.0,0.0,0.0,0.0,-0.0,1.0,0.0,0.0,0.0,-0.0097165405750274,-0.0012091777753084,-0.0121969459578394,0.1379697402287274,0.0471062336722388,-9.79747994184494,1188161.0
26.6,0.4000000059604645,94.0,24.42876052856445,1.455174684524536,0.0,0.0,0.0,0.0,0.0,-0.0,1.0,0.0,0.0,0.0,-0.0215788036584854,-0.0104378266260027,0.0212290603667497,0.1181256424728781,0.0346560223354026,-9.813564462661745,1188161.0
26.7,0.4000000059604645,91.0,24.418745040893555,1.391560435295105,0.0,0.0,0.0,0.0,0.0,-0.0,1.0,0.0,0.0,0.0,0.0082070101052522,-0.0124314650893211,-0.0035471722949296,0.1178838601056486,0.0518466673325747,-9.79050772190094,1188161.0
26.9,0.4000000059604645,87.0,24.431264877319336,1.4472228288650513,0.0,0.0,0.0,0.0,0.0,-0.0,1.0,0.0,0.0,0.0,-0.0203332211822271,0.0028401287272572,0.0047344993799924,0.1211855269689113,0.034417556435801,-9.801894589662552,1188161.0
27.01,0.4000000059604645,86.0,24.43251800537109,1.4631264209747314,0.0,0.0,0.0,0.0,0.0,-0.0,1.0,0.0,0.0,0.0,-0.0070073110982775,-0.0257310830056667,-0.0106533616781234,0.1246162711177021,0.0775220927596092,-9.788368225693702,1188161.0
27.2,0.4000000059604645,81.0,24.41498947143555,1.4790298938751218,0.0,0.0,0.0,0.0,0.0,-0.0,1.0,0.0,0.0,0.0,-0.0113851502537727,0.0025280942209064,0.0157176088541746,0.1281032216269522,0.0406238596513867,-9.823381937742235,1188161.0
27.31,0.4000000059604645,81.0,24.42250061035156,1.4790298938751218,0.0,0.0,0.0,0.0,0.0,-0.0,1.0,0.0,0.0,0.0,0.0156335271894931,0.0165488924831151,-0.0327446348965168,0.1292303638067096,0.0812135496363043,-9.812510794401168,1188161.0
27.5,0.3000000119209289,83.0,24.425004959106445,1.4710781574249268,0.0,0.0,0.0,0.0,0.0,-0.0,1.0,0.0,0.0,0.0,0.0127749647945165,-0.0007123039104044,-0.0174384322017431,0.1039446004852652,0.0961981178261339,-9.809254480004313,1188161.0
27.61,0.3000000119209289,84.0,24.427509307861328,1.4790298938751218,0.0,0.0,0.0,0.0,0.0,-0.0,1.0,0.0,0.0,0.0,-0.0181560553610324,0.0096781244501471,0.0046719028614461,0.1322350469324738,0.0265898934099823,-9.815373591184615,1188161.0
27.8,0.3000000119209289,88.0,24.41373634338379,1.4631264209747314,0.0,0.0,0.0,0.0,0.0,-0.0,1.0,0.0,0.0,0.0,0.0081105576828122,-0.0042044138535857,0.0073365317657589,0.0990698133409023,0.0478051541000604,-9.806038511395457,1188161.0
27.9,0.3000000119209289,89.0,24.426258087158203,1.4949334859848022,0.0,0.0,0.0,0.0,0.0,-0.0,1.0,0.0,0.0,0.0,-0.029859060421586,0.0170991998165845,-0.0106411073356866,0.1143665588926524,0.0080520316539332,-9.814443883895876,1188161.0
28.1,0.3000000119209289,94.0,24.42375373840332,1.4631264209747314,0.0,0.0,0.0,0.0,0.0,-0.0,1.0,0.0,0.0,0.0,0.024311376735568,-0.010163078084588,-0.0028154246974736,0.0951973485946655,0.0630056033190339,-9.786128742098809,1188161.0
28.2,0.3000000119209289,96.0,24.427509307861328,1.455174684524536,0.0,0.0,0.0,0.0,0.0,-0.0,1.0,0.0,0.0,0.0,-0.0066875875927507,-0.0059473179280757,-0.0001152138429461,0.0916991696041077,0.0696323624532669,-9.797592793107032,1188161.0
28.4,0.3000000119209289,100.0,24.427509307861328,1.4710781574249268,0.0,0.0,0.0,0.0,0.0,-0.0,1.0,0.0,0.0,0.0,-0.0180712454020977,-0.0047881896607577,0.004431118723005,0.1093504061736166,0.0598296104790642,-9.801089428067208,1188161.0
28.51,0.3000000119209289,102.0,24.41749382019043,1.4710781574249268,0.0,0.0,0.0,0.0,0.0,-0.0,1.0,0.0,0.0,0.0,-0.0204243808984756,0.0098411021754145,0.0146076260134577,0.1398232801817357,0.0621644448023289,-9.83664459228516,1188161.0
28.7,0.3000000119209289,105.0,24.41749382019043,1.4790298938751218,0.0,0.0,0.0,0.0,0.0,-0.0,1.0,0.0,0.0,0.0,0.0226321667432785,-0.0127554582431912,0.0149032641202211,0.1358342274371534,0.0332904256763868,-9.78554051220417,1188161.0
28.8,0.3000000119209289,109.0,24.418745040893555,1.4710781574249268,0.0,0.0,0.0,0.0,0.0,-0.0,1.0,0.0,0.0,0.0,-0.0136643704026937,0.0070795053616166,0.0133319571614265,0.1018483371287584,0.0320167993241921,-9.811698031425475,1188161.0
29.01,0.3000000119209289,115.0,24.42250061035156,1.4631264209747314,0.0,0.0,0.0,0.0,0.0,-0.0,1.0,0.0,0.0,0.0,-0.0317341834306716,0.0150267826393246,-0.014460364356637,0.1475465384311974,0.0871822960115969,-9.811186984777454,1188161.0
29.11,0.3000000119209289,115.0,24.42124938964844,1.4710781574249268,0.0,0.0,0.0,0.0,0.0,-0.0,1.0,0.0,0.0,0.0,0.0013823648914694,-0.021816024556756,0.0044038114137947,0.0915179516002535,0.0905881164036691,-9.803746402859687,1188161.0
29.3,0.3000000119209289,116.0,24.41749382019043,1.391560435295105,0.0,0.0,0.0,0.0,0.0,-0.0,1.0,0.0,0.0,0.0,-0.0020512919872999,-0.0094005865976214,0.0003848222258966,0.1166470278147608,0.0418608746677637,-9.78851265192032,1188161.0
29.4,0.3000000119209289,116.0,24.42124938964844,1.455174684524536,0.0,0.0,0.0,0.0,0.0,-0.0,1.0,0.0,0.0,0.0,0.0114257894456386,0.0128654725849628,-0.0085118748247623,0.1197773803956806,0.0392896529473364,-9.78123637676239,1188161.0
29.6,0.3000000119209289,114.0,24.42124938964844,1.4631264209747314,0.0,0.0,0.0,0.0,0.0,-0.0,1.0,0.0,0.0,0.0,-0.0040455097332596,-0.0118245901539921,0.0034482041373848,0.1275109991803765,0.0578399354685098,-9.800129899978636,1188161.0
29.7,0.3000000119209289,114.0,24.426258087158203,1.4710781574249268,0.0,0.0,0.0,0.0,0.0,-0.0,1.0,0.0,0.0,0.0,-0.0071421954780817,-0.017257472500205,0.0197256412357091,0.1155800936836749,0.0865315191820264,-9.783447793722154,1188161.0
29.9,0.3000000119209289,112.0,24.427509307861328,1.5187888145446775,0.0,0.0,0.0,0.0,0.0,-0.0,1.0,0.0,0.0,0.0,-0.0286736376583576,0.0056448383256793,0.0082548977807164,0.133700505355373,0.0463087876606732,-9.809626362919806,1188161.0
30.0,0.3000000119209289,112.0,24.42124938964844,1.4790298938751218,0.0,0.0,0.0,0.0,0.0,-0.0,1.0,0.0,0.0,0.0,-0.0141522074118256,0.0115351928398013,-0.0044974870979785,0.1126334989909082,0.0659021312277764,-9.80028602063656,1188161.0
30.2,0.3000000119209289,112.0,24.42124938964844,1.455174684524536,0.0,0.0,0.0,0.0,0.0,-0.0,1.0,0.0,0.0,0.0,-0.0211931150406599,0.0005901274853385,0.0101240007206797,0.1132613803166896,0.0186163058085367,-9.814554980993274,1188161.0
30.3,0.3000000119209289,111.0,24.418745040893555,1.4472228288650513,0.0,0.0,0.0,0.0,0.0,-0.0,1.0,0.0,0.0,0.0,-0.0017699978780001,-6.345005385810512e-05,-0.003693654667586,0.1225707597658038,0.0723332370445132,-9.800598846673967,1188161.0
30.5,0.3000000119209289,110.0,24.42250061035156,1.4631264209747314,0.0,0.0,0.0,0.0,0.0,-0.0,1.0,0.0,0.0,0.0,0.0316823720932006,0.023350641131401,-0.008729800581932,0.1101039386820048,0.0818145520426333,-9.802864642739298,1188161.0
30.6,0.3000000119209289,112.0,24.40998077392578,1.455174684524536,0.0,0.0,0.0,0.0,0.0,-0.0,1.0,0.0,0.0,0.0,-0.0040228050202131,-0.0087722986936569,0.0083680879324674,0.1094482922181487,0.0412691090349108,-9.787464246153831,1188161.0
30.8,0.3000000119209289,116.0,24.418745040893555,1.439271092414856,0.0,0.0,0.0,0.0,0.0,-0.0,1.0,0.0,0.0,0.0,-0.0244374256581068,0.0039215399883687,-0.0091759199276566,0.1155405975691974,0.076679271440953,-9.81509526371956,1188161.0
30.9,0.3000000119209289,121.0,24.42250061035156,1.4710781574249268,0.0,0.0,0.0,0.0,0.0,-0.0,1.0,0.0,0.0,0.0,-0.0274713970720768,-0.0052571515552699,0.0143168754875659,0.1146497834008187,0.0645485967351123,-9.788544811606409,1188161.0
31.1,0.3000000119209289,127.0,24.426258087158203,1.4472228288650513,0.0,0.0,0.0,0.0,0.0,-0.0,1.0,0.0,0.0,0.0,0.0023335278965532,-0.0153148313984274,0.0117624839767813,0.085412115426734,0.051441418742761,-9.808438208699226,1188161.0
31.2,0.2000000029802322,131.0,24.42375373840332,1.455174684524536,0.0,0.0,0.0,0.0,0.0,-0.0,1.0,0.0,0.0,0.0,-0.0359528809785842,-0.0172410290688276,0.0138089330866932,0.112779240841046,0.0767330658249557,-9.798115534186364,1188161.0
31.4,0.2000000029802322,138.0,24.42250061035156,1.4313193559646606,0.0,0.0,0.0,0.0,0.0,-0.0,1.0,0.0,0.0,0.0,0.00255609722808,-0.0144992293789982,-0.0101955290883779,0.1300436475500464,0.0612687701359391,-9.797198106050493,1188161.0
31.5,0.2000000029802322,142.0,24.40372085571289,1.4074640274047852,0.0,0.0,0.0,0.0,0.0,-0.0,1.0,0.0,0.0,0.0,-0.007934158667922,0.0149299884214997,0.0104145528748631,0.1255985211208462,0.0668640438839793,-9.803024271726606,1188161.0
31.7,0.2000000029802322,148.0,24.416240692138672,1.439271092414856,0.0,0.0,0.0,0.0,0.0,-0.0,1.0,0.0,0.0,0.0,0.0078500686213374,0.0196895841509103,-0.0154216457158327,0.1384150057006627,0.0433332857955247,-9.806781107783316,1188161.0
31.8,0.2000000029802322,150.0,24.404972076416016,1.439271092414856,0.0,0.0,0.0,0.0,0.0,-0.0,1.0,0.0,0.0,0.0,-0.0072171064093708,0.0231037884950637,0.0044943704269826,0.1054706232715398,0.0532457781303674,-9.806553066372873,1188161.0
32.0,0.2000000029802322,152.0,24.412485122680664,1.4631264209747314,0.0,0.0,0.0,0.0,0.0,-0.0,1.0,0.0,0.0,0.0,-0.0031189273577183,-0.0288379117846488,0.0002906979643739,0.1088374409079551,0.0526977295707911,-9.799560381174087,1188161.0
32.1,0.2000000029802322,153.0,24.416240692138672,1.4631264209747314,0.0,0.0,0.0,0.0,0.0,-0.0,1.0,0.0,0.0,0.0,-0.0044488776475191,0.0151001308113336,-0.0078406175598502,0.0920873973146081,0.0618443645630031,-9.818567340373994,1188161.0
32.3,0.2000000029802322,150.0,24.39620780944824,1.4710781574249268,0.0,0.0,0.0,0.0,0.0,-0.0,1.0,0.0,0.0,0.0,-0.0081211179494857,-0.0009835773380473,0.0088502690196037,0.1176376192364841,0.0847129437513649,-9.784478657841683,1188161.0
32.4,0.2000000029802322,148.0,24.41749382019043,1.4313193559646606,0.0,0.0,0.0,0.0,0.0,-0.0,1.0,0.0,0.0,0.0,0.0093007646501064,0.0083750272169709,0.0003675098705571,0.1158687451388686,0.0409956146590411,-9.827340502738952,1188161.0
32.6,0.2000000029802322,143.0,24.41999626159668,1.439271092414856,0.0,0.0,0.0,0.0,0.0,-0.0,1.0,0.0,0.0,0.0,0.0049705039709806,0.0162327867001295,0.0091302506625652,0.1534335699677467,0.0232048192131333,-9.792494605779648,1188161.0
32.7,0.2000000029802322,141.0,24.41999626159668,1.4472228288650513,0.0,0.0,0.0,0.0,0.0,-0.0,1.0,0.0,0.0,0.0,0.0004717370029538,-0.0152200190350413,-0.0273711998015642,0.11722312473692,0.0806530574709177,-9.819998738765715,1188161.0
32.9,0.2000000029802322,137.0,24.42124938964844,1.455174684524536,0.0,0.0,0.0,0.0,0.0,-0.0,1.0,0.0,0.0,0.0,0.0076742377132177,0.0057075046934187,-0.02646548114717,0.1323375285230577,0.0786159240826964,-9.804670262932778,1188161.0
33.01,0.2000000029802322,133.0,24.426258087158203,1.439271092414856,0.0,0.0,0.0,0.0,0.0,-0.0,1.0,0.0,0.0,0.0,0.009536444209516,-0.0026447584386914,-0.0002592260425444,0.123490992737934,0.0549825016781687,-9.820920259952546,1188161.0
33.2,0.2000000029802322,128.0,24.42375373840332,1.455174684524536,0.0,0.0,0.0,0.0,0.0,-0.0,1.0,0.0,0.0,0.0,-0.0205344315618276,-0.0102149946615099,0.0113869486376643,0.1536712044663727,0.0725677743460983,-9.808232971429826,1188161.0
33.3,0.2000000029802322,128.0,24.42124938964844,1.4790298938751218,0.0,0.0,0.0,0.0,0.0,-0.0,1.0,0.0,0.0,0.0,-0.0037518804892897,0.0021496154367923,-0.0133728310465812,0.1148210245929658,0.0710939516639337,-9.791816913485526,1188161.0
33.51,0.3000000119209289,125.0,24.42375373840332,1.4710781574249268,0.0,0.0,0.0,0.0,0.0,-0.0,1.0,0.0,0.0,0.0,0.0177449751645326,0.0228727962821722,-0.0158105269074439,0.1378881624341011,0.0354278593696653,-9.809356221556664,1188161.0
33.6,0.3000000119209289,126.0,24.42250061035156,1.4313193559646606,0.0,0.0,0.0,0.0,0.0,-0.0,1.0,0.0,0.0,0.0,-0.0076771327294409,-0.0063799992203712,0.0055519971065223,0.141734999930486,0.0723213690239936,-9.804964377880095,1188161.0
33.8,0.3000000119209289,127.0,24.41999626159668,1.455174684524536,0.0,0.0,0.0,0.0,0.0,-0.0,1.0,0.0,0.0,0.0,-0.0177524760365486,0.0174536854028701,0.0009262381936423,0.1323626898229122,0.0546417003683745,-9.809695944786071,1188161.0
33.91,0.3000000119209289,128.0,24.408727645874023,1.455174684524536,0.0,0.0,0.0,0.0,0.0,-0.0,1.0,0.0,0.0,0.0,-0.0120924487709999,-0.0336442217230796,0.0084990132600069,0.1016339818574488,0.0895135443471372,-9.790737517476082,1188161.0
34.11,0.3000000119209289,131.0,24.41373634338379,1.4790298938751218,0.0,0.0,0.0,0.0,0.0,-0.0,1.0,0.0,0.0,0.0,-0.0334064736962318,-0.0023362613283097,0.0214582085609436,0.1191157039906829,0.0505018808227032,-9.813567970991135,1188161.0
34.3,0.3000000119209289,133.0,24.416240692138672,1.4472228288650513,0.0,0.0,0.0,0.0,0.0,-0.0,1.0,0.0,0.0,0.0,0.0063411425799131,0.0078942971304059,-0.0150363240391016,0.1227888609096408,0.061714647738263,-9.814036917686462,1188161.0
34.4,0.3000000119209289,134.0,24.4074764251709,1.439271092414856,0.0,0.0,0.0,0.0,0.0,-0.0,1.0,0.0,0.0,0.0,0.0219563115388155,0.0186092592775821,-0.0040440778248012,0.0896806376706808,0.0680982997454702,-9.808186193704604,1188161.0
34.61,0.2000000029802322,138.0,24.416240692138672,1.4631264209747314,0.0,0.0,0.0,0.0,0.0,-0.0,1.0,0.0,0.0,0.0,0.0154250999912619,-0.0166180506348609,-0.0025894923601299,0.1439751413371414,0.0700072237942367,-9.797828435897827,1188161.0
34.7,0.2000000029802322,142.0,24.42124938964844,1.455174684524536,0.0,0.0,0.0,0.0,0.0,-0.0,1.0,0.0,0.0,0.0,-0.0071826842613518,-0.0026206853799521,0.0030257611069828,0.0918927307147532,0.067913641934283,-9.816498595476151,1188161.0
34.9,0.2000000029802322,146.0,24.41749382019043,1.455174684524536,0.0,0.0,0.0,0.0,0.0,-0.0,1.0,0.0,0.0,0.0,-0.0071198386140167,-0.0101116141304373,-0.0040169483982026,0.1372823908925056,0.0703993618302047,-9.801591119170189,1188161.0
35.0,0.2000000029802322,150.0,24.416240692138672,1.4631264209747314,0.0,0.0,0.0,0.0,0.0,-0.0,1.0,0.0,0.0,0.0,-0.0138666313141584,-0.0253396425396204,0.0047193327918648,0.1321596087142825,0.0716459242533892,-9.812873321771622,1188161.0
35.2,0.2000000029802322,156.0,24.42124938964844,1.4313193559646606,0.0,0.0,0.0,0.0,0.0,-0.0,1.0,0.0,0.0,0.0,0.0267301779240369,0.0153842056170105,-0.0198969673365354,0.1299024921096861,0.1043560800142586,-9.79325825214386,1188161.0
35.3,0.2000000029802322,156.0,24.42124938964844,1.4154157638549805,0.0,0.0,0.0,0.0,0.0,-0.0,1.0,0.0,0.0,0.0,0.0092425337061285,-0.0046918685548007,-0.0148175749927759,0.1331655673496425,0.0966634648293256,-9.79299863576889,1188161.0
35.51,0.1000000014901161,160.0,24.416240692138672,1.486981749534607,0.0,0.0,0.0,0.0,0.0,-0.0,1.0,0.0,0.0,0.0,0.0023322054184973,0.0055505726486444,-0.0051014511846005,0.1466479767020792,0.0645604738919064,-9.783310968875886,1188161.0
35.6,0.1000000014901161,163.0,24.42250061035156,1.4472228288650513,0.0,0.0,0.0,0.0,0.0,-0.0,1.0,0.0,0.0,0.0,0.0224367957562208,0.0126519994810223,-0.0019916913006454,0.104916626997292,0.0788414530176669,-9.80688284933567,1188161.0
35.8,0.1000000014901161,166.0,24.411231994628903,1.4472228288650513,0.0,0.0,0.0,0.0,0.0,-0.0,1.0,0.0,0.0,0.0,-0.0067821610718965,0.0099263153970241,0.0005696961889043,0.1203411433473229,0.0538407460274174,-9.800194219350816,1188161.0
35.9,0.1000000014901161,167.0,24.42250061035156,1.4313193559646606,0.0,0.0,0.0,0.0,0.0,-0.0,1.0,0.0,0.0,0.0,0.0010592708131298,0.0033872537314891,0.0029288183432072,0.0968585060164332,0.064965800140053,-9.776731681823732,1188161.0
36.1,0.1000000014901161,170.0,24.42250061035156,1.4313193559646606,0.0,0.0,0.0,0.0,0.0,-0.0,1.0,0.0,0.0,0.0,-0.0203015599399805,0.0082625206559896,0.0077678756788372,0.1397807965055108,0.0267730391677469,-9.814904644489287,1188161.0
36.2,0.1000000014901161,170.0,24.42124938964844,1.4313193559646606,0.0,0.0,0.0,0.0,0.0,-0.0,1.0,0.0,0.0,0.0,-0.0079330522567033,-0.0043892199173569,-0.0151316514238715,0.1498389576002955,0.1083430222794413,-9.79083633542061,1188161.0
36.4,0.1000000014901161,172.0,24.408727645874023,1.439271092414856,0.0,0.0,0.0,0.0,0.0,-0.0,1.0,0.0,0.0,0.0,-0.0036744179669767,0.0051998035050928,0.0204556640237569,0.0756595261674374,0.0319282825291156,-9.803621857166291,1188161.0
36.5,0.1000000014901161,172.0,24.41749382019043,1.455174684524536,0.0,0.0,0.0,0.0,0.0,-0.0,1.0,0.0,0.0,0.0,-0.0182741805911064,-0.0150228785350918,0.0077768331393599,0.1321048367489129,0.0480293582752347,-9.795042822360992,1188161.0
36.7,0.1000000014901161,170.0,24.42250061035156,1.4233675003051758,0.0,0.0,0.0,0.0,0.0,-0.0,1.0,0.0,0.0,0.0,-0.0157861933112144,0.0002328667324036,0.0225639548152685,0.1035437921248376,0.0161592372693121,-9.82918354511261,1188161.0
36.8,0.1000000014901161,170.0,24.41999626159668,1.4233675003051758,0.0,0.0,0.0,0.0,0.0,-0.0,1.0,0.0,0.0,0.0,-0.0024039838463068,-0.0045216283760964,-0.0182331372052431,0.1159633147157728,0.0726915343198925,-9.783230862021446,1188161.0
37.01,0.2000000029802322,168.0,24.43251800537109,1.534692406654358,0.0,0.0,0.0,0.0,0.0,-0.0,1.0,0.0,0.0,0.0,0.0189779289066791,0.0020822018850594,-0.0173814743757247,0.1020331548247486,0.0577363438205793,-9.818949748277667,1188161.0
37.1,0.2000000029802322,166.0,24.42250061035156,1.4233675003051758,0.0,0.0,0.0,0.0,0.0,-0.0,1.0,0.0,0.0,0.0,-0.0219555832445621,0.0038781594485044,0.0062245642766356,0.1595967728085816,0.0731016434077173,-9.827705368995668,1188161.0
37.31,0.2000000029802322,165.0,24.418745040893555,1.4313193559646606,0.0,0.0,0.0,0.0,0.0,-0.0,1.0,0.0,0.0,0.0,-0.0064399284310638,-0.019398745149374,0.0172632783651351,0.0770780332759022,0.0833174417819827,-9.772653248906137,1188161.0
37.4,0.2000000029802322,164.0,24.42250061035156,1.4313193559646606,0.0,0.0,0.0,0.0,0.0,-0.0,1.0,0.0,0.0,0.0,-0.0014137028483673,0.0173964835703372,0.0057987626641988,0.1000965661369264,0.0400551265664398,-9.803446440696716,1188161.0
37.61,0.2000000029802322,161.0,24.41749382019043,1.439271092414856,0.0,0.0,0.0,0.0,0.0,-0.0,1.0,0.0,0.0,0.0,-0.000320835824823,-0.0268293377012014,-0.0047340407036244,0.0825197627954185,0.0871681073773652,-9.79026915550232,1188161.0
37.7,0.2000000029802322,160.0,24.418745040893555,1.439271092414856,0.0,0.0,0.0,0.0,0.0,-0.0,1.0,0.0,0.0,0.0,-0.0229482967406511,-0.0150074530392885,0.0108488835394382,0.1054935096390545,0.0506689878506586,-9.79986151278019,1188161.0
37.9,0.2000000029802322,156.0,24.41373634338379,1.4313193559646606,0.0,0.0,0.0,0.0,0.0,-0.0,1.0,0.0,0.0,0.0,0.0091718509793281,0.0074734617955982,-0.0123351253569126,0.1274782913178205,0.0673578869272023,-9.819307597875596,1188161.0
38.0,0.2000000029802322,155.0,24.42124938964844,1.4154157638549805,0.0,0.0,0.0,0.0,0.0,-0.0,1.0,0.0,0.0,0.0,-0.0124427517876029,-0.0240722186863422,-0.0048423805274069,0.0959855532646179,0.1236631841026246,-9.798688561320306,1188161.0
38.2,0.3000000119209289,152.0,24.41749382019043,1.439271092414856,0.0,0.0,0.0,0.0,0.0,-0.0,1.0,0.0,0.0,0.0,-0.0003688865690492,-0.0412678383290767,-0.0033215074799954,0.0862341882660985,0.0650472545949742,-9.78626615166664,1188161.0
38.3,0.3000000119209289,153.0,24.404972076416016,1.4313193559646606,0.0,0.0,0.0,0.0,0.0,-0.0,1.0,0.0,0.0,0.0,0.0177791453897953,0.0195154845714569,-0.0024125634226948,0.143477232651785,0.0090345740178599,-9.818484309911726,1188161.0
38.5,0.3000000119209289,151.0,24.41373634338379,1.439271092414856,0.0,0.0,0.0,0.0,0.0,-0.0,1.0,0.0,0.0,0.0,0.0092116221785545,-0.0139460889622569,-0.0020110220648348,0.1017965527251362,0.1046643744595348,-9.786926887035367,1188161.0
38.6,0.3000000119209289,150.0,24.40246772766113,1.439271092414856,0.0,0.0,0.0,0.0,0.0,-0.0,1.0,0.0,0.0,0.0,-0.0110766589641571,-0.0233951471745967,0.0134057980030775,0.1155100550036877,0.0570180910360068,-9.815627360343932,1188161.0
38.81,0.3000000119209289,151.0,24.40998077392578,1.3995121717453003,0.0,0.0,0.0,0.0,0.0,-0.0,1.0,0.0,0.0,0.0,0.0071505540981888,-6.666451372439042e-05,0.008898451924324,0.0979394186474383,0.0507371444581076,-9.787665975093844,1188161.0
38.91,0.3000000119209289,151.0,24.412485122680664,1.4472228288650513,0.0,0.0,0.0,0.0,0.0,-0.0,1.0,0.0,0.0,0.0,-0.0078654820099473,-0.0139512922614812,-0.0060556470416486,0.112771063875407,0.1018610000051558,-9.799938111305238,1188161.0
39.1,0.3000000119209289,151.0,24.41749382019043,1.4233675003051758,0.0,0.0,0.0,0.0,0.0,-0.0,1.0,0.0,0.0,0.0,-0.0112919053062796,-0.0204153154045343,0.0030814355704933,0.0994412394426763,0.0874542189482599,-9.780589089989665,1188161.0
39.2,0.3000000119209289,151.0,24.41498947143555,1.4074640274047852,0.0,0.0,0.0,0.0,0.0,-0.0,1.0,0.0,0.0,0.0,0.0016231943154707,0.0082783242687582,-0.014096176251769,0.1145964184217155,0.0459101765742525,-9.794806594848632,1188161.0
39.4,0.3000000119209289,151.0,24.404972076416016,1.4313193559646606,0.0,0.0,0.0,0.0,0.0,-0.0,1.0,0.0,0.0,0.0,0.0077772089280188,0.0091347098350524,0.0103509416803717,0.1276834554970264,0.0512526176311075,-9.79368392944336,1188161.0
39.5,0.3000000119209289,152.0,24.412485122680664,1.4154157638549805,0.0,0.0,0.0,0.0,0.0,-0.0,1.0,0.0,0.0,0.0,-0.0010774825932458,0.0079142469912767,-0.0109804347157478,0.1148532756417989,0.0660977982496842,-9.806398115158082,1188161.0
39.7,0.3000000119209289,149.0,24.418745040893555,1.4313193559646606,0.0,0.0,0.0,0.0,0.0,-0.0,1.0,0.0,0.0,0.0,-0.0191940497606992,0.0244114324450492,0.0046078842133283,0.1454788167960941,0.0194807207118719,-9.819992891550063,1188161.0
39.81,0.3000000119209289,146.0,24.4074764251709,1.455174684524536,0.0,0.0,0.0,0.0,0.0,-0.0,1.0,0.0,0.0,0.0,0.0027684587985277,0.0154509404674172,-0.010256272740662,0.1461303884815424,0.0742829454224556,-9.806932550668716,1188161.0
40.0,0.3000000119209289,142.0,24.408727645874023,1.4472228288650513,0.0,0.0,0.0,0.0,0.0,-0.0,1.0,0.0,0.0,0.0,0.0055271340534091,-0.0013442796189337,0.0054924506694078,0.1179563929885626,0.0538058774359524,-9.807395650148392,1188161.0
40.1,0.3000000119209289,141.0,24.40998077392578,1.439271092414856,0.0,0.0,0.0,0.0,0.0,-0.0,1.0,0.0,0.0,0.0,0.0043651196174323,0.0035278850700706,0.0045893159694969,0.1404732164740562,0.0776121216081082,-9.795309455394746,1188161.0
40.3,0.3000000119209289,139.0,24.408727645874023,1.439271092414856,0.0,0.0,0.0,0.0,0.0,-0.0,1.0,0.0,0.0,0.0,-0.02173344604671,0.0044891624711453,0.0073251128196716,0.1268843329790979,0.071253781649284,-9.812193875312806,1188161.0
40.4,0.3000000119209289,136.0,24.42124938964844,1.455174684524536,0.0,0.0,0.0,0.0,0.0,-0.0,1.0,0.0,0.0,0.0,0.0008231871761381,0.0086114341393113,0.0154090840369462,0.1259049609024077,0.0576124513708055,-9.808928790092471,1188161.0
40.6,0.3000000119209289,131.0,24.41373634338379,1.455174684524536,0.0,0.0,0.0,0.0,0.0,-0.0,1.0,0.0,0.0,0.0,-0.0025720363482832,-0.0014012564206495,0.0067250886932015,0.1188528259657323,0.0671489448985084,-9.811369417905809,1188161.0
40.7,0.3000000119209289,128.0,24.41373634338379,1.4313193559646606,0.0,0.0,0.0,0.0,0.0,-0.0,1.0,0.0,0.0,0.0,-0.0036626998335123,0.0126825999468565,0.0061390371993184,0.133091143257916,0.0422702163085341,-9.801745485663414,1188161.0
40.91,0.3000000119209289,126.0,24.416240692138672,1.4154157638549805,0.0,0.0,0.0,0.0,0.0,-0.0,1.0,0.0,0.0,0.0,0.0145776476711034,0.0227417610585689,-0.0311822425574064,0.1457692406885326,0.069631704641506,-9.817829421758653,1188161.0
41.0,0.4000000059604645,126.0,24.41999626159668,1.4472228288650513,0.0,0.0,0.0,0.0,0.0,-0.0,1.0,0.0,0.0,0.0,-0.001796803670004,-0.0004977718926966,0.0152671886608004,0.0848830885905772,0.1119034284353256,-9.782318111658094,1188161.0
41.2,0.4000000059604645,127.0,24.408727645874023,1.455174684524536,0.0,0.0,0.0,0.0,0.0,-0.0,1.0,0.0,0.0,0.0,-0.0252995081245899,-0.0009235861361958,0.0077467788942158,0.1244144690874964,0.0599041670467704,-9.815377099514007,1188161.0
41.31,0.4000000059604645,129.0,24.411231994628903,1.4472228288650513,0.0,0.0,0.0,0.0,0.0,-0.0,1.0,0.0,0.0,0.0,0.0066399876959621,-0.0051097301766276,0.0003556408046279,0.1059949631989002,0.0768356296420097,-9.807620183229448,1188161.0
41.5,0.3000000119209289,131.0,24.412485122680664,1.4472228288650513,0.0,0.0,0.0,0.0,0.0,-0.0,1.0,0.0,0.0,0.0,-0.0122185880318284,-0.00189313525334,0.0131453936919569,0.1445779435895383,0.053048562509939,-9.80822127699852,1188161.0
41.6,0.3000000119209289,130.0,24.41749382019043,1.4472228288650513,0.0,0.0,0.0,0.0,0.0,-0.0,1.0,0.0,0.0,0.0,-0.0271487031131982,0.002145875012502,0.01811851747334,0.1034636944066733,0.0607305978890508,-9.80383235692978,1188161.0
41.8,0.3000000119209289,130.0,24.411231994628903,1.455174684524536,0.0,0.0,0.0,0.0,0.0,-0.0,1.0,0.0,0.0,0.0,0.0027044389862567,-0.0105537381023168,-0.0091827912256121,0.085554842306301,0.0861790599860251,-9.789671570062636,1188161.0
41.9,0.3000000119209289,129.0,24.416240692138672,1.4472228288650513,0.0,0.0,0.0,0.0,0.0,-0.0,1.0,0.0,0.0,0.0,0.0367614813148975,0.0016483031213283,-0.0023758802562952,0.1299248942546546,0.0457009695935994,-9.796894635558129,1188161.0
42.1,0.3000000119209289,131.0,24.41373634338379,1.4154157638549805,0.0,0.0,0.0,0.0,0.0,-0.0,1.0,0.0,0.0,0.0,0.0026103674899786,0.0024658082984387,0.005578591953963,0.1283280379325151,0.0275116886850446,-9.796156132221222,1188161.0
42.21,0.3000000119209289,133.0,24.41498947143555,1.4233675003051758,0.0,0.0,0.0,0.0,0.0,-0.0,1.0,0.0,0.0,0.0,-0.026709796860814,0.0101659446954727,0.0035042627714574,0.1165000525675714,0.0544075376540422,-9.807220818400385,1188161.0
42.4,0.3000000119209289,133.0,24.41373634338379,1.455174684524536,0.0,0.0,0.0,0.0,0.0,-0.0,1.0,0.0,0.0,0.0,0.0021742084063589,-0.0207977443933486,-0.0037072175182402,0.1213577731512487,0.0486085615307092,-9.783293427228928,1188161.0
42.5,0.3000000119209289,133.0,24.41999626159668,1.439271092414856,0.0,0.0,0.0,0.0,0.0,-0.0,1.0,0.0,0.0,0.0,-0.0056256228126585,0.01958286203444,-0.0200015902519226,0.0978364162892103,0.0228376391949132,-9.806378234624864,1188161.0
42.7,0.3000000119209289,133.0,24.40121650695801,1.4710781574249268,0.0,0.0,0.0,0.0,0.0,-0.0,1.0,0.0,0.0,0.0,-0.0044437814503908,0.0297943819314241,0.0012708014110103,0.1161005232855677,0.0612835069466382,-9.797773472070697,1188161.0
42.8,0.3000000119209289,133.0,24.40622520446777,1.439271092414856,0.0,0.0,0.0,0.0,0.0,-0.0,1.0,0.0,0.0,0.0,-0.0054762857034802,-0.0191218089312315,0.0052673607133328,0.1098288454581052,0.0559869848052039,-9.811250134706498,1188161.0
43.0,0.3000000119209289,134.0,24.411231994628903,1.4631264209747314,0.0,0.0,0.0,0.0,0.0,-0.0,1.0,0.0,0.0,0.0,-0.014726985245943,0.0173748936504125,0.0056045963428914,0.1238952728826552,0.0339942248747684,-9.805466653704643,1188161.0
43.11,0.3000000119209289,135.0,24.411231994628903,1.439271092414856,0.0,0.0,0.0,0.0,0.0,-0.0,1.0,0.0,0.0,0.0,-0.0198852904140949,-0.0091994497925043,0.0163639076054096,0.123509347513318,0.0915039731003344,-9.792751298546792,1188161.0
43.3,0.3000000119209289,139.0,24.40998077392578,1.4074640274047852,0.0,0.0,0.0,0.0,0.0,-0.0,1.0,0.0,0.0,0.0,0.0148420631885528,-0.0088395634666085,-0.0145011860877275,0.0974331045895815,0.0711664982512593,-9.791678919196132,1188161.0
43.4,0.3000000119209289,141.0,24.40622520446777,1.4313193559646606,0.0,0.0,0.0,0.0,0.0,-0.0,1.0,0.0,0.0,0.0,0.0023289390373975,-0.0078610200434923,0.0258321557193994,0.090672343717888,0.0673160473583266,-9.772235172986983,1188161.0
43.6,0.3000000119209289,146.0,24.411231994628903,1.455174684524536,0.0,0.0,0.0,0.0,0.0,-0.0,1.0,0.0,0.0,0.0,0.028504429385066,0.0134151196107268,0.0031486744992434,0.1202129248715937,0.0627500799950212,-9.809649751782418,1188161.0
43.71,0.3000000119209289,148.0,24.408727645874023,1.439271092414856,0.0,0.0,0.0,0.0,0.0,-0.0,1.0,0.0,0.0,0.0,0.0005755667225457,-1.3000089893466793e-06,-0.0171376187354326,0.1162854323443025,0.0830275660660117,-9.795241042971613,1188161.0
43.9,0.3000000119209289,152.0,24.416240692138672,1.439271092414856,0.0,0.0,0.0,0.0,0.0,-0.0,1.0,0.0,0.0,0.0,-0.0169782303273677,0.0043756738305091,0.0007673734799027,0.1344775911793113,0.0517712062736973,-9.829257220029833,1188161.0
44.0,0.3000000119209289,154.0,24.40372085571289,1.4313193559646606,0.0,0.0,0.0,0.0,0.0,-0.0,1.0,0.0,0.0,0.0,-0.0156452897936105,0.0241518970578908,-0.0042548212222754,0.1478250668942928,0.0892768234759569,-9.817715985774994,1188161.0
44.2,0.3000000119209289,155.0,24.41373634338379,1.439271092414856,0.0,0.0,0.0,0.0,0.0,-0.0,1.0,0.0,0.0,0.0,0.0135395796969532,0.0065664150752127,-0.0033972749952226,0.1244844255410134,0.0836811477318406,-9.818967289924624,1188161.0
44.3,0.3000000119209289,155.0,24.412485122680664,1.4313193559646606,0.0,0.0,0.0,0.0,0.0,-0.0,1.0,0.0,0.0,0.0,-0.0046807997860014,0.0026583366561681,0.0043626027181744,0.101269417097792,0.0222105664294213,-9.822024214267731,1188161.0
44.5,0.3000000119209289,155.0,24.411231994628903,1.455174684524536,0.0,0.0,0.0,0.0,0.0,-0.0,1.0,0.0,0.0,0.0,-0.00544188125059,0.0073849968612194,0.008491008542478,0.1083024754934013,0.0535367776080966,-9.8050854152441,1188161.0
44.6,0.3000000119209289,156.0,24.408727645874023,1.4631264209747314,0.0,0.0,0.0,0.0,0.0,-0.0,1.0,0.0,0.0,0.0,0.010573910549283,0.0068572955206036,-0.0223090332001447,0.1103689911402762,0.1171724275499582,-9.802644787430763,1188161.0
44.81,0.3000000119209289,154.0,24.40372085571289,1.4472228288650513,0.0,0.0,0.0,0.0,0.0,-0.0,1.0,0.0,0.0,0.0,-0.0234274715185165,-0.0241157412528991,0.0011162902228534,0.0813904918637126,0.047702343603596,-9.796070762872697,1188161.0
44.9,0.3000000119209289,154.0,24.39996337890625,1.439271092414856,0.0,0.0,0.0,0.0,0.0,-0.0,1.0,0.0,0.0,0.0,0.016423812136054,0.0148442536592483,0.0122655555605888,0.1144376299716532,0.0489336164714768,-9.810677107572555,1188161.0
45.11,0.3000000119209289,154.0,24.3974609375,1.4790298938751218,0.0,0.0,0.0,0.0,0.0,-0.0,1.0,0.0,0.0,0.0,0.0112773869186639,-0.0107331331819295,0.0008885072311386,0.1369380995258689,0.0570834153983742,-9.794357528686524,1188161.0
45.2,0.3000000119209289,154.0,24.411231994628903,1.4790298938751218,0.0,0.0,0.0,0.0,0.0,-0.0,1.0,0.0,0.0,0.0,0.017442425712943,0.0260042659938335,-0.0176646765321493,0.0931680998113006,0.0432208228250965,-9.806467697024344,1188161.0
45.4,0.3000000119209289,155.0,24.404972076416016,1.455174684524536,0.0,0.0,0.0,0.0,0.0,-0.0,1.0,0.0,0.0,0.0,-0.0112068550661206,-0.0055080018937587,-0.0019828719086945,0.1335520865768194,0.0670384279545396,-9.794134749770166,1188161.0
45.5,0.3000000119209289,154.0,24.408727645874023,1.439271092414856,0.0,0.0,0.0,0.0,0.0,-0.0,1.0,0.0,0.0,0.0,0.0116821825504302,-0.0067996834404766,0.0022362624295055,0.120074720447883,0.0787013665214181,-9.810038591623304,1188161.0
45.7,0.3000000119209289,153.0,24.40998077392578,1.4313193559646606,0.0,0.0,0.0,0.0,0.0,-0.0,1.0,0.0,0.0,0.0,-0.0122345462441444,0.0050425576046109,0.0082203624770045,0.1238467135839164,0.0516407311381772,-9.791944382786747,1188161.0
45.8,0.3000000119209289,153.0,24.398712158203125,1.4313193559646606,0.0,0.0,0.0,0.0,0.0,-0.0,1.0,0.0,0.0,0.0,-0.001242866856046,0.012959798797965,0.0083725862205028,0.1300419116578996,0.048467068048194,-9.80023164153099,1188161.0
46.0,0.3000000119209289,151.0,24.4074764251709,1.4233675003051758,0.0,0.0,0.0,0.0,0.0,-0.0,1.0,0.0,0.0,0.0,0.0147982714697718,0.017672099173069,-0.0165403336286544,0.1093636811804026,0.0794366264808923,-9.79032061100006,1188161.0
46.1,0.3000000119209289,150.0,24.408727645874023,1.4472228288650513,0.0,0.0,0.0,0.0,0.0,-0.0,1.0,0.0,0.0,0.0,-0.0143126621842384,-0.0344756953418254,0.0165792983025312,0.1074442138709128,0.0451248772395774,-9.778263067603111,1188161.0
46.31,0.3000000119209289,147.0,24.398712158203125,1.455174684524536,0.0,0.0,0.0,0.0,0.0,-0.0,1.0,0.0,0.0,0.0,-0.0281407050788402,0.0185483377426862,-0.0059574772603809,0.125424539046362,0.1106999709550291,-9.8102607858181,1188161.0
46.4,0.3000000119209289,146.0,24.39495658874512,1.4472228288650513,0.0,0.0,0.0,0.0,0.0,-0.0,1.0,0.0,0.0,0.0,0.0350263081490993,0.0089874668046832,-0.0088540203869342,0.1472733638249337,0.0654495430318638,-9.796346166729927,1188161.0
46.6,0.3000000119209289,142.0,24.40121650695801,1.4074640274047852,0.0,0.0,0.0,0.0,0.0,-0.0,1.0,0.0,0.0,0.0,0.0110703464597463,0.0084232920780777,0.0206703729927539,0.0886673974245786,0.0662531286198645,-9.81396090388298,1188161.0
46.7,0.3000000119209289,141.0,24.4074764251709,1.4472228288650513,0.0,0.0,0.0,0.0,0.0,-0.0,1.0,0.0,0.0,0.0,0.0109601067379117,0.02203319221735,-0.0064223227091133,0.1488093725591898,0.0858636027015745,-9.791658453941343,1188161.0
46.9,0.3000000119209289,136.0,24.3974609375,1.4233675003051758,0.0,0.0,0.0,0.0,0.0,-0.0,1.0,0.0,0.0,0.0,-0.0057340851053595,-7.697978435317054e-05,-0.0066241538152098,0.0839518464077264,0.092866575345397,-9.819859575033188,1188161.0
47.01,0.3000000119209289,134.0,24.411231994628903,1.4631264209747314,0.0,0.0,0.0,0.0,0.0,-0.0,1.0,0.0,0.0,0.0,0.0259420033544302,0.0118904374539852,-0.0026723176706582,0.1626344561576843,0.0401197794126346,-9.78947334945202,1188161.0
47.2,0.3000000119209289,129.0,24.412485122680664,1.4472228288650513,0.0,0.0,0.0,0.0,0.0,-0.0,1.0,0.0,0.0,0.0,0.0101861543953418,0.0141862854361534,-0.0030782294925302,0.1387522164545953,0.0617834256123751,-9.827031769752503,1188161.0
47.3,0.3000000119209289,127.0,24.398712158203125,1.455174684524536,0.0,0.0,0.0,0.0,0.0,-0.0,1.0,0.0,0.0,0.0,0.0100857894867658,-0.0308744702488184,0.0218309368938207,0.1200115887913852,0.0870274544321,-9.814269636869431,1188161.0
47.5,0.3000000119209289,125.0,24.408727645874023,1.4154157638549805,0.0,0.0,0.0,0.0,0.0,-0.0,1.0,0.0,0.0,0.0,-0.0027788763400167,0.0066772154532372,-0.0002433046902297,0.1070273896213621,0.0588014232879504,-9.807704967856408,1188161.0
47.6,0.3000000119209289,124.0,24.408727645874023,1.455174684524536,0.0,0.0,0.0,0.0,0.0,-0.0,1.0,0.0,0.0,0.0,0.0071993088349699,0.0398228503763675,0.0074003399349749,0.1291807721089571,0.055866988976486,-9.825614404678346,1188161.0
47.81,0.3000000119209289,120.0,24.40121650695801,1.4631264209747314,0.0,0.0,0.0,0.0,0.0,-0.0,1.0,0.0,0.0,0.0,0.0030311811715364,-0.0093295248225331,0.0066288625821471,0.1288675714842975,0.0746134684234857,-9.808911248445511,1188161.0
47.9,0.4000000059604645,119.0,24.412485122680664,1.455174684524536,0.0,0.0,0.0,0.0,0.0,-0.0,1.0,0.0,0.0,0.0,0.01715749502182,0.030723687261343,-0.0226931255310773,0.1241949335485696,0.0339389389939606,-9.825472902059555,1188161.0
48.1,0.4000000059604645,117.0,24.412485122680664,1.4472228288650513,0.0,0.0,0.0,0.0,0.0,-0.0,1.0,0.0,0.0,0.0,0.0272330474108457,0.0048397807404398,-0.0118955112993717,0.1136955543514341,0.0671596754528582,-9.798374565839769,1188161.0
48.2,0.4000000059604645,116.0,24.411231994628903,1.4472228288650513,0.0,0.0,0.0,0.0,0.0,-0.0,1.0,0.0,0.0,0.0,0.0026356833986938,0.0061457511037588,0.0145510341972112,0.1059210416022688,0.0466786788683384,-9.801732037067412,1188161.0
48.4,0.4000000059604645,114.0,24.39996337890625,1.455174684524536,0.0,0.0,0.0,0.0,0.0,-0.0,1.0,0.0,0.0,0.0,0.0155267547816038,0.0083831576630473,-0.0139659726992249,0.0954740772116929,0.0552696319436654,-9.800928629636765,1188161.0
48.53,0.4000000059604645,113.0,24.40246772766113,1.439271092414856,0.0,0.0,0.0,0.0,0.0,-0.0,1.0,0.0,0.0,0.0,0.0240588933229446,0.0102552063763141,-0.0245765410363674,0.1221595086436718,0.0682921029673889,-9.808687300086024,1188161.0
48.7,0.4000000059604645,111.0,24.4074764251709,1.4790298938751218,0.0,0.0,0.0,0.0,0.0,-0.0,1.0,0.0,0.0,0.0,0.0013367349747568,0.0071705849841237,-0.0155970314517617,0.144255853369832,0.0490346819395199,-9.80709685742855,1188161.0
48.8,0.4000000059604645,111.0,24.40622520446777,1.455174684524536,0.0,0.0,0.0,0.0,0.0,-0.0,1.0,0.0,0.0,0.0,0.0107576055452227,-0.0078628323972225,-0.001633470528759,0.0673228036332875,0.0828569461405277,-9.784592678546908,1188161.0
49.0,0.4000000059604645,109.0,24.4074764251709,1.4472228288650513,0.0,0.0,0.0,0.0,0.0,-0.0,1.0,0.0,0.0,0.0,-0.0151903675869107,0.0069277714937925,-0.0045282547362148,0.1430167096015066,0.0694143983535468,-9.802645372152329,1188161.0
49.1,0.4000000059604645,108.0,24.408727645874023,1.4472228288650513,0.0,0.0,0.0,0.0,0.0,-0.0,1.0,0.0,0.0,0.0,-0.0075242519378662,-0.0134455198422074,-0.0019122954690828,0.0998119620513171,0.0792234315164387,-9.813812384605408,1188161.0
49.3,0.4000000059604645,107.0,24.392452239990234,1.439271092414856,0.0,0.0,0.0,0.0,0.0,-0.0,1.0,0.0,0.0,0.0,-0.0100996475666761,-0.0178654678165912,0.0295008160173892,0.1063034860510379,0.0259621080150827,-9.797526134848596,1188161.0
49.4,0.4000000059604645,107.0,24.4074764251709,1.455174684524536,0.0,0.0,0.0,0.0,0.0,-0.0,1.0,0.0,0.0,0.0,0.0068436716683208,0.0106876101344823,-0.0078386878594756,0.1200696132704615,0.0425031638983637,-9.833014640808106,1188161.0
49.6,0.4000000059604645,107.0,24.404972076416016,1.455174684524536,0.0,0.0,0.0,0.0,0.0,-0.0,1.0,0.0,0.0,0.0,0.0058467700146138,-0.0155105022713541,-0.0070924870669841,0.120180143918842,0.0877218752447515,-9.790573210716248,1188161.0
49.7,0.4000000059604645,108.0,24.404972076416016,1.4472228288650513,0.0,0.0,0.0,0.0,0.0,-0.0,1.0,0.0,0.0,0.0,-0.0010752896778285,-0.0044069653376936,0.0136371199041605,0.113087252061814,0.0617496213968843,-9.817047064304353,1188161.0
49.9,0.3000000119209289,110.0,24.39495658874512,1.455174684524536,0.0,0.0,0.0,0.0,0.0,-0.0,1.0,0.0,0.0,0.0,0.0182521808892488,0.0004397427255753,0.0137878656387329,0.1218080361653119,0.0568303771410137,-9.781135219931604,1188161.0
50.0,0.3000000119209289,113.0,24.408727645874023,1.4233675003051758,0.0,0.0,0.0,0.0,0.0,-0.0,1.0,0.0,0.0,0.0,0.014859146438539,0.0289736557751894,0.0023508789017796,0.1241572007350623,0.0835007794015109,-9.80800609946251,1188161.0
50.2,0.3000000119209289,118.0,24.40372085571289,1.4472228288650513,0.0,0.0,0.0,0.0,0.0,-0.0,1.0,0.0,0.0,0.0,-0.0134261064231395,0.0005581323639489,-0.0164905898272991,0.1257453319150954,0.0608711686078459,-9.783840726614,1188161.0
50.3,0.3000000119209289,118.0,24.404972076416016,1.455174684524536,0.0,0.0,0.0,0.0,0.0,-0.0,1.0,0.0,0.0,0.0,0.0217788778245449,0.0012626006500795,-0.002656243275851,0.107124654399231,0.0629077127063647,-9.787398757338524,1188161.0
50.5,0.3000000119209289,120.0,24.40246772766113,1.4790298938751218,0.0,0.0,0.0,0.0,0.0,-0.0,1.0,0.0,0.0,0.0,0.0030623362399637,0.0035061012022197,-0.0104943066835403,0.1501947058551013,0.0821169718634337,-9.797476433515548,1188161.0
50.6,0.3000000119209289,121.0,24.40622520446777,1.4472228288650513,0.0,0.0,0.0,0.0,0.0,-0.0,1.0,0.0,0.0,0.0,-0.0141324223950505,-0.0071196528151631,-0.0040973182767629,0.1448735020682215,0.0809172145742923,-9.811298081874847,1188161.0
50.8,0.3000000119209289,124.0,24.404972076416016,1.455174684524536,0.0,0.0,0.0,0.0,0.0,-0.0,1.0,0.0,0.0,0.0,-0.0074898088350892,0.0331933237612247,-0.0083804698660969,0.1265309875644743,0.0783927066251635,-9.801981713175774,1188161.0
50.9,0.3000000119209289,126.0,24.40622520446777,1.4154157638549805,0.0,0.0,0.0,0.0,0.0,-0.0,1.0,0.0,0.0,0.0,-0.0265671219676733,-0.0407540388405323,-0.011400886811316,0.1182191522419452,0.0406834875466302,-9.799459809064862,1188161.0
51.1,0.3000000119209289,130.0,24.40372085571289,1.4313193559646606,0.0,0.0,0.0,0.0,0.0,-0.0,1.0,0.0,0.0,0.0,0.003854177892208,0.0317902155220508,-0.003312763525173,0.0796138245239854,0.1039942652732133,-9.79548954963684,1188161.0
51.2,0.3000000119209289,133.0,24.416240692138672,1.5028852224349976,0.0,0.0,0.0,0.0,0.0,-0.0,1.0,0.0,0.0,0.0,0.0033723283559083,0.0036832625046372,-0.0129458419978618,0.136531708901748,0.0658633157657459,-9.805746150612832,1188161.0
51.4,0.3000000119209289,136.0,24.4074764251709,1.439271092414856,0.0,0.0,0.0,0.0,0.0,-0.0,1.0,0.0,0.0,0.0,-0.0281556788831949,-0.0150912888348102,0.0071792928501963,0.0950022982712835,0.0291478309873491,-9.821326056718826,1188161.0
51.5,0.3000000119209289,138.0,24.404972076416016,1.455174684524536,0.0,0.0,0.0,0.0,0.0,-0.0,1.0,0.0,0.0,0.0,-0.0227459128946065,-0.0062195337377488,-0.0071303332224488,0.1376115525886416,0.090196955949068,-9.764698696732523,1188161.0
51.7,0.3000000119209289,138.0,24.40121650695801,1.4313193559646606,0.0,0.0,0.0,0.0,0.0,-0.0,1.0,0.0,0.0,0.0,0.017559053376317,0.0156527385115623,-0.0168484896421432,0.0852463011816144,0.09425053820014,-9.810059641599656,1188161.0
51.8,0.3000000119209289,139.0,24.40121650695801,1.4313193559646606,0.0,0.0,0.0,0.0,0.0,-0.0,1.0,0.0,0.0,0.0,-0.0166683997958898,0.0008375996258109,-0.0009649482672102,0.1284105110820383,0.0807244665920734,-9.795395409464836,1188161.0
52.0,0.3000000119209289,141.0,24.40622520446777,1.439271092414856,0.0,0.0,0.0,0.0,0.0,-0.0,1.0,0.0,0.0,0.0,-0.0205648336559534,-0.007455164566636,0.0012074001133441,0.1188307892717421,0.0837498890608549,-9.825256555080417,1188161.0
52.1,0.3000000119209289,143.0,24.40622520446777,1.4313193559646606,0.0,0.0,0.0,0.0,0.0,-0.0,1.0,0.0,0.0,0.0,0.0060077183879911,0.0025277747772634,-0.0016635740175843,0.1331831729505211,0.0888153228443116,-9.810174247026444,1188161.0
52.3,0.2000000029802322,146.0,24.40372085571289,1.4472228288650513,0.0,0.0,0.0,0.0,0.0,-0.0,1.0,0.0,0.0,0.0,0.0003082935581915,-0.000217431836063,-0.0171390082687139,0.1343533469829708,0.0637109237071126,-9.835428371429444,1188161.0
52.4,0.2000000029802322,147.0,24.40622520446777,1.4233675003051758,0.0,0.0,0.0,0.0,0.0,-0.0,1.0,0.0,0.0,0.0,0.0210981871932744,-0.0111844884231686,-0.0167336538434028,0.144101148834452,0.043628026577644,-9.826817761659624,1188161.0
52.6,0.2000000029802322,146.0,24.40372085571289,1.4233675003051758,0.0,0.0,0.0,0.0,0.0,-0.0,1.0,0.0,0.0,0.0,-0.0336090438067913,-0.029158653691411,0.0205639656633138,0.1231670752633363,0.0920384634286165,-9.805750243663786,1188161.0
52.71,0.2000000029802322,145.0,24.4074764251709,1.455174684524536,0.0,0.0,0.0,0.0,0.0,-0.0,1.0,0.0,0.0,0.0,-0.0052594626322388,-0.0032874995376914,-0.0036038912367075,0.1142546578031033,0.0679681078344583,-9.815805115699767,1188161.0
52.91,0.2000000029802322,142.0,24.40121650695801,1.4233675003051758,0.0,0.0,0.0,0.0,0.0,-0.0,1.0,0.0,0.0,0.0,0.0045146797783672,-0.0113780852407217,-0.0048879515379667,0.090065941773355,0.0686225346056744,-9.789612513184547,1188161.0
53.0,0.2000000029802322,141.0,24.39996337890625,1.4790298938751218,0.0,0.0,0.0,0.0,0.0,-0.0,1.0,0.0,0.0,0.0,-0.027543244883418,0.0023282770998775,-0.0016890005208551,0.130143223805353,0.0742651251191273,-9.817945196628571,1188161.0
53.2,0.2000000029802322,139.0,24.398712158203125,1.4710781574249268,0.0,0.0,0.0,0.0,0.0,-0.0,1.0,0.0,0.0,0.0,0.0174650568515062,0.0133481603115797,-0.002006942871958,0.138346236962825,0.0715344023192301,-9.81044789671898,1188161.0
53.3,0.2000000029802322,137.0,24.3974609375,1.4233675003051758,0.0,0.0,0.0,0.0,0.0,-0.0,1.0,0.0,0.0,0.0,0.0002569529460743,0.0128267966210842,-0.0061630182899534,0.1343401450663805,0.078752566203475,-9.811989222764971,1188161.0
53.5,0.3000000119209289,134.0,24.40998077392578,1.455174684524536,0.0,0.0,0.0,0.0,0.0,-0.0,1.0,0.0,0.0,0.0,-0.0269451532512903,-0.0124543718993663,0.0092195058241486,0.1344393924158066,0.0598622087063267,-9.807557033300402,1188161.0
53.61,0.3000000119209289,132.0,24.39996337890625,1.4710781574249268,0.0,0.0,0.0,0.0,0.0,-0.0,1.0,0.0,0.0,0.0,-0.0264072902500629,-0.0095883393660187,0.0322933755815029,0.1101396066974848,0.0502919657807797,-9.805384207963945,1188161.0
53.8,0.3000000119209289,129.0,24.39620780944824,1.4233675003051758,0.0,0.0,0.0,0.0,0.0,-0.0,1.0,0.0,0.0,0.0,-0.0184549707919359,-0.0285521112382412,0.0094111366197466,0.1114181643538177,0.0521823431923985,-9.799451622962954,1188161.0
53.9,0.3000000119209289,126.0,24.3974609375,1.4233675003051758,0.0,0.0,0.0,0.0,0.0,-0.0,1.0,0.0,0.0,0.0,-0.0218003988265991,0.0028404651675373,-0.0206200703978538,0.1489776718709617,0.0729754805937409,-9.8300805079937,1188161.0
54.1,0.3000000119209289,124.0,24.40121650695801,1.439271092414856,0.0,0.0,0.0,0.0,0.0,-0.0,1.0,0.0,0.0,0.0,0.0143080167472362,0.0007038197363726,0.0038752672262489,0.1384931025747209,0.0490589707251638,-9.794662168622017,1188161.0
54.2,0.3000000119209289,125.0,24.40372085571289,1.455174684524536,0.0,0.0,0.0,0.0,0.0,-0.0,1.0,0.0,0.0,0.0,0.0336522422730922,0.0189967229962348,-0.0053031286224722,0.1103947371616959,0.0748943677498027,-9.806469451189043,1188161.0
54.4,0.3000000119209289,129.0,24.40622520446777,1.4710781574249268,0.0,0.0,0.0,0.0,0.0,-0.0,1.0,0.0,0.0,0.0,-0.0083707459270954,0.0131472935900092,0.0079569965600967,0.1628761471621692,0.0609187411889433,-9.80574264228344,1188161.0
54.5,0.3000000119209289,131.0,24.40246772766113,1.4472228288650513,0.0,0.0,0.0,0.0,0.0,-0.0,1.0,0.0,0.0,0.0,-0.019215602427721,-0.0290981587022542,0.0120928222313523,0.0736202229140326,0.0564177966909483,-9.808490248918536,1188161.0
54.71,0.3000000119209289,135.0,24.40246772766113,1.4313193559646606,0.0,0.0,0.0,0.0,0.0,-0.0,1.0,0.0,0.0,0.0,-0.017637301236391,0.0002857285144273,0.000528282194864,0.1027344278432429,0.0908207990415394,-9.780540558099748,1188161.0
54.8,0.2000000029802322,136.0,24.40246772766113,1.4154157638549805,0.0,0.0,0.0,0.0,0.0,-0.0,1.0,0.0,0.0,0.0,0.0038242167793214,0.0092675043269991,-0.0247526410967111,0.1508032365515828,0.0522221956215798,-9.827104275226594,1188161.0
55.0,0.2000000029802322,138.0,24.404972076416016,1.4710781574249268,0.0,0.0,0.0,0.0,0.0,-0.0,1.0,0.0,0.0,0.0,-0.0057396693155169,-0.0108286887407302,0.0115990908816456,0.1077474833652377,0.0765604039421305,-9.795817578434942,1188161.0
55.11,0.2000000029802322,138.0,24.40121650695801,1.4710781574249268,0.0,0.0,0.0,0.0,0.0,-0.0,1.0,0.0,0.0,0.0,-0.0162887908518314,-0.0102325296029448,-0.014824722893536,0.141783102415502,0.0610041927639395,-9.809350374341012,1188161.0
55.3,0.2000000029802322,137.0,24.39996337890625,1.4472228288650513,0.0,0.0,0.0,0.0,0.0,-0.0,1.0,0.0,0.0,0.0,-0.0137802753597497,0.0073384689167141,-0.0108157852664589,0.1384151336085051,0.0811819289904087,-9.795170876383782,1188161.0
55.4,0.2000000029802322,137.0,24.40121650695801,1.455174684524536,0.0,0.0,0.0,0.0,0.0,-0.0,1.0,0.0,0.0,0.0,0.0001248068729182,-0.03506451100111,0.0117944544181227,0.1238027589675039,0.0724981879116967,-9.783433760404588,1188161.0
55.6,0.2000000029802322,137.0,24.3974609375,1.4710781574249268,0.0,0.0,0.0,0.0,0.0,-0.0,1.0,0.0,0.0,0.0,0.0328577123582363,0.0197716858237981,-0.0248683933168649,0.1145307286083698,0.101615873761475,-9.800210591554643,1188161.0
55.7,0.3000000119209289,134.0,24.40121650695801,1.4313193559646606,0.0,0.0,0.0,0.0,0.0,-0.0,1.0,0.0,0.0,0.0,0.0031074883881956,-0.0094789406284689,0.0101596470922231,0.1388309894129634,0.0715353387873619,-9.803586773872375,1188161.0
55.9,0.3000000119209289,127.0,24.39620780944824,1.4154157638549805,0.0,0.0,0.0,0.0,0.0,-0.0,1.0,0.0,0.0,0.0,-0.0044573941268026,0.0085985818877816,-0.0173928681761026,0.1554459988698363,0.0797129531018436,-9.821707295179367,1188161.0
56.0,0.3000000119209289,124.0,24.39996337890625,1.4472228288650513,0.0,0.0,0.0,0.0,0.0,-0.0,1.0,0.0,0.0,0.0,0.0327625088393688,0.0101191950961947,-2.800550282699988e-05,0.1014720231201499,0.061926851416938,-9.783981059789658,1188161.0
56.2,0.3000000119209289,116.0,24.38869667053223,1.4631264209747314,0.0,0.0,0.0,0.0,0.0,-0.0,1.0,0.0,0.0,0.0,-0.0026228222995996,0.0238134618848562,-0.0053286580368876,0.1189511505514383,0.0888299134746194,-9.803152325749398,1188161.0
56.3,0.3000000119209289,113.0,24.40246772766113,1.4472228288650513,0.0,0.0,0.0,0.0,0.0,-0.0,1.0,0.0,0.0,0.0,0.0082857944071292,-0.0087458621710538,-0.0049220086075365,0.1146914722211659,0.0585267046513035,-9.799590201973915,1188161.0
56.51,0.3000000119209289,107.0,24.39620780944824,1.4631264209747314,0.0,0.0,0.0,0.0,0.0,-0.0,1.0,0.0,0.0,0.0,-0.019151022657752,0.0152833685278892,-0.0007700900314375,0.1427650966029614,0.0548264404060319,-9.815696357488632,1188161.0
56.6,0.3000000119209289,103.0,24.40121650695801,1.4472228288650513,0.0,0.0,0.0,0.0,0.0,-0.0,1.0,0.0,0.0,0.0,0.0086575662717223,-0.0117649603635072,-0.0269809700548648,0.1562401786632836,0.0577396648563444,-9.806979328393934,1188161.0
56.8,0.3000000119209289,95.0,24.39370346069336,1.455174684524536,0.0,0.0,0.0,0.0,0.0,-0.0,1.0,0.0,0.0,0.0,0.0074117663316428,0.0032984716817736,0.0203036963939666,0.0983167924638837,0.0395289365435019,-9.801205202937128,1188161.0
56.9,0.3000000119209289,95.0,24.40372085571289,1.455174684524536,0.0,0.0,0.0,0.0,0.0,-0.0,1.0,0.0,0.0,0.0,-0.0033970589283853,-0.0136349545791745,-0.0121150771155953,0.117506522834301,0.1083540771715343,-9.78900966525078,1188161.0
57.1,0.4000000059604645,92.0,24.398712158203125,1.4472228288650513,0.0,0.0,0.0,0.0,0.0,-0.0,1.0,0.0,0.0,0.0,0.0166314132511615,-0.0039743934758007,-0.0106147341430187,0.0843991492688655,0.066008806368336,-9.792647802829745,1188161.0
57.2,0.4000000059604645,91.0,24.404972076416016,1.4472228288650513,0.0,0.0,0.0,0.0,0.0,-0.0,1.0,0.0,0.0,0.0,0.015590600669384,0.0208155550062656,-0.0261263865977525,0.1703548821620643,0.0449412883725017,-9.803080404996871,1188161.0
57.4,0.3000000119209289,90.0,24.39996337890625,1.4233675003051758,0.0,0.0,0.0,0.0,0.0,-0.0,1.0,0.0,0.0,0.0,0.0215070527046918,0.0109934080392122,0.0153208654373884,0.1160871477797627,0.0738639193307608,-9.816337212324145,1188161.0
57.51,0.3000000119209289,90.0,24.39996337890625,1.4472228288650513,0.0,0.0,0.0,0.0,0.0,-0.0,1.0,0.0,0.0,0.0,-0.0047084498219192,-0.0037752939388155,-0.0007263161242008,0.1330348546709865,0.0564258731575682,-9.797377615571024,1188161.0
57.7,0.3000000119209289,97.0,24.38869667053223,1.455174684524536,0.0,0.0,0.0,0.0,0.0,-0.0,1.0,0.0,0.0,0.0,0.0055450992658734,0.019982237368822,-0.0214299205690622,0.1203096323367208,0.1103140181768685,-9.815342016220091,1188161.0
57.8,0.3000000119209289,101.0,24.39620780944824,1.4233675003051758,0.0,0.0,0.0,0.0,0.0,-0.0,1.0,0.0,0.0,0.0,0.0118898637592792,0.0048822425305843,0.0068063265644013,0.1199440899956971,0.0537809262704104,-9.788103346824649,1188161.0
58.0,0.3000000119209289,110.0,24.40121650695801,1.4233675003051758,0.0,0.0,0.0,0.0,0.0,-0.0,1.0,0.0,0.0,0.0,0.032430350780487,0.0148511156439781,-0.0128501877188682,0.1137330770306289,0.0640580747276544,-9.815698696374891,1188161.0
58.1,0.3000000119209289,115.0,24.39996337890625,1.439271092414856,0.0,0.0,0.0,0.0,0.0,-0.0,1.0,0.0,0.0,0.0,-0.0081408293917775,0.0187795180827379,-0.0081146173179149,0.1260022987704724,0.0975076383166015,-9.802412068247795,1188161.0
58.3,0.3000000119209289,126.0,24.3974609375,1.4074640274047852,0.0,0.0,0.0,0.0,0.0,-0.0,1.0,0.0,0.0,0.0,-0.045672383159399,-0.0215103756636381,0.0085913846269249,0.1168261444754898,0.1265130987390876,-9.813013654947284,1188161.0
58.4,0.3000000119209289,132.0,24.408727645874023,1.455174684524536,0.0,0.0,0.0,0.0,0.0,-0.0,1.0,0.0,0.0,0.0,0.0040041119791567,-0.0187514647841453,-0.0205605048686266,0.1070037814881652,0.0685503351967781,-9.798084543943403,1188161.0
58.6,0.3000000119209289,142.0,24.398712158203125,1.4631264209747314,0.0,0.0,0.0,0.0,0.0,-0.0,1.0,0.0,0.0,0.0,0.0190584957599639,0.0207753591239452,0.0055768811143934,0.1095814077369868,0.05727798149921,-9.815531466007233,1188161.0
58.71,0.2000000029802322,146.0,24.40246772766113,1.455174684524536,0.0,0.0,0.0,0.0,0.0,-0.0,1.0,0.0,0.0,0.0,-0.0011696042492985,-0.0158885885030031,-0.0147916562855243,0.1256940774153918,0.1014628959819674,-9.812280414104462,1188161.0
58.91,0.2000000029802322,153.0,24.40246772766113,1.439271092414856,0.0,0.0,0.0,0.0,0.0,-0.0,1.0,0.0,0.0,0.0,-0.0022481924388557,-0.0172233805060386,-0.0090696439146995,0.1023412574082613,0.0828527251817286,-9.809096020460132,1188161.0
59.01,0.2000000029802322,155.0,24.39620780944824,1.439271092414856,0.0,0.0,0.0,0.0,0.0,-0.0,1.0,0.0,0.0,0.0,-0.0082785375416278,0.0015329986345022,-0.0139875011518597,0.1308117889612913,0.0680450169928371,-9.801857752203944,1188161.0
59.2,0.2000000029802322,157.0,24.40121650695801,1.4154157638549805,0.0,0.0,0.0,0.0,0.0,-0.0,1.0,0.0,0.0,0.0,0.0180022027343511,0.0032504945993423,-0.0008777297916822,0.1065187732223421,0.0608106956072151,-9.797233774065973,1188161.0
59.3,0.3000000119209289,157.0,24.38869667053223,1.4074640274047852,0.0,0.0,0.0,0.0,0.0,-0.0,1.0,0.0,0.0,0.0,0.0161082725971937,0.0142252817749977,-0.0249174311757087,0.0986033973935991,0.0882123013213277,-9.777654957175256,1188161.0
59.5,0.3000000119209289,155.0,24.39996337890625,1.4472228288650513,0.0,0.0,0.0,0.0,0.0,-0.0,1.0,0.0,0.0,0.0,-0.0194333866238594,-0.0012367081362754,-0.0051782522350549,0.0919289560429752,0.0733790481090545,-9.806744855046274,1188161.0
59.61,0.3000000119209289,155.0,24.39996337890625,1.4710781574249268,0.0,0.0,0.0,0.0,0.0,-0.0,1.0,0.0,0.0,0.0,0.0158701315522193,0.0362451262772083,0.0081438906490802,0.1543692341074347,0.0461405203258618,-9.81585072398186,1188161.0
59.8,0.3000000119209289,154.0,24.3974609375,1.4313193559646606,0.0,0.0,0.0,0.0,0.0,-0.0,1.0,0.0,0.0,0.0,0.0194796193391084,0.0151423783972859,-0.0048707602545619,0.1372721582651138,0.0522101357392966,-9.820370621681214,1188161.0
59.9,0.3000000119209289,154.0,24.38744354248047,1.4313193559646606,0.0,0.0,0.0,0.0,0.0,-0.0,1.0,0.0,0.0,0.0,0.0007866999367251,-0.0197078678756952,0.0182004477828741,0.1262371284328401,0.0855919447168707,-9.795472007989884,1188161.0
60.1,0.3000000119209289,152.0,24.392452239990234,1.4074640274047852,0.0,0.0,0.0,0.0,0.0,-0.0,1.0,0.0,0.0,0.0,-0.0016679594991728,-0.0214907675981521,0.0113140251487493,0.0812441287469118,0.0929085291177034,-9.797965260744096,1188161.0
60.2,0.3000000119209289,151.0,24.38994789123535,1.3995121717453003,0.0,0.0,0.0,0.0,0.0,-0.0,1.0,0.0,0.0,0.0,-0.0050782272592186,0.0189312435686588,-0.0002935255179181,0.1065850568935275,0.0521892045345157,-9.80805521607399,1188161.0
60.4,0.3000000119209289,152.0,24.38869667053223,1.439271092414856,0.0,0.0,0.0,0.0,0.0,-0.0,1.0,0.0,0.0,0.0,-0.0120705598965287,0.000970997614786,0.0036110000219196,0.1169189324788749,0.0277894222922623,-9.823210029602054,1188161.0
60.5,0.3000000119209289,152.0,24.39370346069336,1.3995121717453003,0.0,0.0,0.0,0.0,0.0,-0.0,1.0,0.0,0.0,0.0,-0.0107394773513078,-0.0147472154349088,0.0086380373686552,0.1053837373014539,0.0996605831198394,-9.80858789741993,1188161.0
60.7,0.4000000059604645,153.0,24.392452239990234,1.4154157638549805,0.0,0.0,0.0,0.0,0.0,-0.0,1.0,0.0,0.0,0.0,0.0144885098561644,-0.0200082287192344,-0.0038738818839192,0.1158443238772452,0.0218178116949275,-9.807161176800726,1188161.0
60.8,0.4000000059604645,152.0,24.39620780944824,1.4154157638549805,0.0,0.0,0.0,0.0,0.0,-0.0,1.0,0.0,0.0,0.0,0.0011598428245633,0.0166679136455059,0.0031358590349555,0.0900360204745084,0.053842696622014,-9.806497517824171,1188161.0
61.0,0.4000000059604645,152.0,24.3974609375,1.4313193559646606,0.0,0.0,0.0,0.0,0.0,-0.0,1.0,0.0,0.0,0.0,0.0092644365504384,-0.0259000100195407,0.005009118001908,0.0830390046816319,0.0333720331639051,-9.773047935962678,1188161.0
61.11,0.4000000059604645,152.0,24.3974609375,1.4631264209747314,0.0,0.0,0.0,0.0,0.0,-0.0,1.0,0.0,0.0,0.0,-0.0108052985742688,-0.0069453543983399,0.0059447670355439,0.1197896869573742,0.0619599475711584,-9.80024275124073,1188161.0
61.3,0.4000000059604645,152.0,24.3974609375,1.4472228288650513,0.0,0.0,0.0,0.0,0.0,-0.0,1.0,0.0,0.0,0.0,-0.0123838381841778,-0.02285229973495,0.0215360205620527,0.125833012741059,0.0364964129053987,-9.805737964510918,1188161.0
61.4,0.4000000059604645,152.0,24.398712158203125,1.455174684524536,0.0,0.0,0.0,0.0,0.0,-0.0,1.0,0.0,0.0,0.0,-0.0138933425769209,-0.0119614778086543,0.0200913902372121,0.134618335487321,0.0607356091355905,-9.814766650199893,1188161.0
61.6,0.4000000059604645,152.0,24.39495658874512,1.4710781574249268,0.0,0.0,0.0,0.0,0.0,-0.0,1.0,0.0,0.0,0.0,-0.0089144986122846,-0.0018088510259985,-0.0073201707564294,0.1604012400470674,0.0276367414416745,-9.805445603728296,1188161.0
61.7,0.4000000059604645,153.0,24.398712158203125,1.439271092414856,0.0,0.0,0.0,0.0,0.0,-0.0,1.0,0.0,0.0,0.0,-0.0120365349575877,0.0049481834284961,0.0228634625673294,0.1089467838406562,0.0456236949842423,-9.797023859024046,1188161.0
61.9,0.3000000119209289,156.0,24.386192321777344,1.4472228288650513,0.0,0.0,0.0,0.0,0.0,-0.0,1.0,0.0,0.0,0.0,-0.0109861381351947,-0.0125731527805328,0.0243584923446178,0.1166215558815747,0.0583313482627272,-9.789527143836024,1188161.0
62.0,0.3000000119209289,156.0,24.398712158203125,1.455174684524536,0.0,0.0,0.0,0.0,0.0,-0.0,1.0,0.0,0.0,0.0,-0.0052802679128944,0.0076950071379542,0.0113116996362805,0.1439611902460456,0.0459673194028437,-9.8115378177166,1188161.0
62.2,0.3000000119209289,156.0,24.3974609375,1.439271092414856,0.0,0.0,0.0,0.0,0.0,-0.0,1.0,0.0,0.0,0.0,-0.025466613471508,-0.0043967152014374,-0.0025919056497514,0.1383506406471133,0.0600637549208477,-9.804906490445138,1188161.0
62.3,0.3000000119209289,155.0,24.39119911193848,1.439271092414856,0.0,0.0,0.0,0.0,0.0,-0.0,1.0,0.0,0.0,0.0,0.0060418797656893,-0.0023205603938549,0.0087020527571439,0.1078647748567164,0.0338098525721579,-9.81265346646309,1188161.0
62.5,0.3000000119209289,155.0,24.392452239990234,1.4631264209747314,0.0,0.0,0.0,0.0,0.0,-0.0,1.0,0.0,0.0,0.0,0.0140752615407109,-0.007933123037219,0.002847081515938,0.1435702307894826,0.0635047088563442,-9.80380779862404,1188161.0
62.6,0.3000000119209289,155.0,24.398712158203125,1.4313193559646606,0.0,0.0,0.0,0.0,0.0,-0.0,1.0,0.0,0.0,0.0,-0.0289708841592073,-0.0060168015770614,0.0010734493844211,0.1303078503347933,0.0551756790652871,-9.821323717832566,1188161.0
62.8,0.3000000119209289,155.0,24.3974609375,1.455174684524536,0.0,0.0,0.0,0.0,0.0,-0.0,1.0,0.0,0.0,0.0,0.0076657058671116,-0.0139181185513734,0.0114685175940394,0.1045594443473965,0.0697441493393853,-9.785966774225235,1188161.0
62.9,0.3000000119209289,154.0,24.38994789123535,1.4472228288650513,0.0,0.0,0.0,0.0,0.0,-0.0,1.0,0.0,0.0,0.0,0.0131633691489696,-0.0086721573024988,-0.0175415240228176,0.1425129811093211,0.0780270363762974,-9.816309145689011,1188161.0
63.1,0.3000000119209289,151.0,24.398712158203125,1.4631264209747314,0.0,0.0,0.0,0.0,0.0,-0.0,1.0,0.0,0.0,0.0,0.0068523562513291,-0.0034012277610599,-0.0022290630731731,0.1260006359685212,0.0663800862897187,-9.788083466291427,1188161.0
63.2,0.3000000119209289,148.0,24.39620780944824,1.4313193559646606,0.0,0.0,0.0,0.0,0.0,-0.0,1.0,0.0,0.0,0.0,0.0130918389186263,-0.0095745241269469,-0.0140562858432531,0.1400402392912656,0.0592554961284622,-9.803104378581049,1188161.0
63.4,0.3000000119209289,141.0,24.398712158203125,1.455174684524536,0.0,0.0,0.0,0.0,0.0,-0.0,1.0,0.0,0.0,0.0,0.0038059207145124,-0.0006676818593405,0.000886675203219,0.1158960077818483,0.059504103292711,-9.777174900770188,1188161.0
63.5,0.3000000119209289,137.0,24.40246772766113,1.4472228288650513,0.0,0.0,0.0,0.0,0.0,-0.0,1.0,0.0,0.0,0.0,0.0070301773957908,-0.0124276168644428,-0.017598932608962,0.1296929973363876,0.0857163076847791,-9.788469967246057,1188161.0
63.7,0.3000000119209289,133.0,24.39620780944824,1.4233675003051758,0.0,0.0,0.0,0.0,0.0,-0.0,1.0,0.0,0.0,0.0,0.0061367657035589,0.0007598844822496,-0.00174193282146,0.1166587953362614,0.0624738218961283,-9.788039612174035,1188161.0
63.8,0.3000000119209289,131.0,24.38994789123535,1.4313193559646606,0.0,0.0,0.0,0.0,0.0,-0.0,1.0,0.0,0.0,0.0,-0.0022689648903906,-0.0122226784005761,0.0134700452908873,0.1394270308222621,0.0179529620334506,-9.809474335312844,1188161.0
64.0,0.3000000119209289,127.0,24.39495658874512,1.4313193559646606,0.0,0.0,0.0,0.0,0.0,-0.0,1.0,0.0,0.0,0.0,-0.0116354618221521,0.0082370517775416,-0.0050865923985838,0.1281416944786906,0.0683924101246521,-9.793303860425947,1188161.0
64.11,0.3000000119209289,125.0,24.398712158203125,1.4233675003051758,0.0,0.0,0.0,0.0,0.0,-0.0,1.0,0.0,0.0,0.0,0.0082261255010962,-0.0051171393133699,0.0056483619846403,0.1244935069978237,0.0594500256842002,-9.805007647275923,1188161.0
64.3,0.3000000119209289,120.0,24.38744354248047,1.3358980417251587,0.0,0.0,0.0,0.0,0.0,-0.0,1.0,0.0,0.0,0.0,0.0207265466451644,-0.0247674472630024,-0.0103601729497313,0.1294734709337353,0.039396186475642,-9.820797468423844,1188161.0
64.5,0.3000000119209289,117.0,24.37492370605469,1.439271092414856,0.0,0.0,0.0,0.0,0.0,-0.0,1.0,0.0,0.0,0.0,-0.0118598695844411,-0.0030656401067972,0.0089274924248456,0.1103499602805823,0.0492297870805487,-9.807074053287506,1188161.0
64.6,0.3000000119209289,116.0,24.39495658874512,1.439271092414856,0.0,0.0,0.0,0.0,0.0,-0.0,1.0,0.0,0.0,0.0,-0.0215322040021419,0.0185432936996221,-0.0140599785372614,0.1151552112400531,0.0489363162405788,-9.82048054933548,1188161.0
64.8,0.3000000119209289,117.0,24.392452239990234,1.439271092414856,0.0,0.0,0.0,0.0,0.0,-0.0,1.0,0.0,0.0,0.0,-0.0269433204084634,-0.0002521716814953,0.0029081718530505,0.0946080223470926,0.0910104132816195,-9.813355132341382,1188161.0
64.91,0.3000000119209289,117.0,24.382434844970703,1.4233675003051758,0.0,0.0,0.0,0.0,0.0,-0.0,1.0,0.0,0.0,0.0,0.0025055347941815,-0.0118286805227398,0.0111755607649683,0.1112201447412371,0.0743807857856154,-9.803292074203492,1188161.0
65.1,0.3000000119209289,119.0,24.392452239990234,1.4631264209747314,0.0,0.0,0.0,0.0,0.0,-0.0,1.0,0.0,0.0,0.0,-0.0216391030699014,-0.0188177078962326,0.021100228652358,0.0962737753149122,0.0688374608941376,-9.823835681676863,1188161.0
65.21,0.3000000119209289,120.0,24.39620780944824,1.4631264209747314,0.0,0.0,0.0,0.0,0.0,-0.0,1.0,0.0,0.0,0.0,-0.0067143104970455,-0.0066464683040976,0.0058667389675974,0.1223929404560476,0.0503767595440149,-9.798436546325684,1188161.0
65.4,0.3000000119209289,120.0,24.39370346069336,1.439271092414856,0.0,0.0,0.0,0.0,0.0,-0.0,1.0,0.0,0.0,0.0,0.0056909881532192,0.0196511056274175,-0.0094498032703995,0.1121477324143052,0.0644368007127195,-9.81787269115448,1188161.0
65.5,0.3000000119209289,121.0,24.38368797302246,1.4313193559646606,0.0,0.0,0.0,0.0,0.0,-0.0,1.0,0.0,0.0,0.0,0.0201209057122468,-0.0007904375088401,0.0044489512220025,0.1249776838626712,0.0468266956508159,-9.795786588191987,1188161.0
65.7,0.3000000119209289,124.0,24.38744354248047,1.455174684524536,0.0,0.0,0.0,0.0,0.0,-0.0,1.0,0.0,0.0,0.0,-0.0053574270568788,0.0018594769062474,-0.0053005809895694,0.106573490370065,0.0686289254296571,-9.821092168092726,1188161.0
65.81,0.3000000119209289,126.0,24.40372085571289,1.5028852224349976,0.0,0.0,0.0,0.0,0.0,-0.0,1.0,0.0,0.0,0.0,-0.0241505894809961,0.0072720656171441,-0.0033449777401983,0.1201767817698419,0.1038135680370032,-9.797880476117133,1188161.0
66.0,0.3000000119209289,130.0,24.386192321777344,1.4710781574249268,0.0,0.0,0.0,0.0,0.0,-0.0,1.0,0.0,0.0,0.0,-0.0207514055073261,-0.0231400858610868,-0.0007015262381173,0.1095677398703992,0.0922731469105929,-9.818525240421296,1188161.0
66.11,0.3000000119209289,132.0,24.38994789123535,1.4790298938751218,0.0,0.0,0.0,0.0,0.0,-0.0,1.0,0.0,0.0,0.0,-0.0203742738813161,-0.0129416370764374,-0.0024699298664927,0.0828228678368032,0.0431542376568541,-9.804450992345812,1188161.0
66.31,0.3000000119209289,135.0,24.384939193725582,1.4631264209747314,0.0,0.0,0.0,0.0,0.0,-0.0,1.0,0.0,0.0,0.0,0.0061445333994925,0.0024119648151099,0.0016115888720378,0.1472110909782349,0.0383901136368513,-9.820224441289904,1188161.0
66.4,0.3000000119209289,137.0,24.39119911193848,1.4154157638549805,0.0,0.0,0.0,0.0,0.0,-0.0,1.0,0.0,0.0,0.0,0.0079865716397762,-0.001108425669372,-0.0042642238549888,0.0727015476766973,0.0683883490506559,-9.804074431657794,1188161.0
66.6,0.3000000119209289,139.0,24.39370346069336,1.439271092414856,0.0,0.0,0.0,0.0,0.0,-0.0,1.0,0.0,0.0,0.0,-0.0369064323604106,-0.0072766006924211,0.0038837385363876,0.1304059556499123,0.0490434847399592,-9.80633438050747,1188161.0
66.7,0.3000000119209289,142.0,24.381183624267567,1.391560435295105,0.0,0.0,0.0,0.0,0.0,-0.0,1.0,0.0,0.0,0.0,0.0116862272843718,-0.0027144621126353,0.0047801947221159,0.1082944355718791,0.0748008031630888,-9.825684571266176,1188161.0
66.9,0.3000000119209289,148.0,24.382434844970703,1.4631264209747314,0.0,0.0,0.0,0.0,0.0,-0.0,1.0,0.0,0.0,0.0,0.014575551263988,-0.0073454864323139,0.0052371006458997,0.1217204832471907,0.0412670259643346,-9.789316059350966,1188161.0
67.0,0.3000000119209289,151.0,24.38869667053223,1.4313193559646606,0.0,0.0,0.0,0.0,0.0,-0.0,1.0,0.0,0.0,0.0,-0.0179647747427225,-0.0166639126837253,-0.0047572250477969,0.08807143824175,0.1167069343663752,-9.796709278821943,1188161.0
67.2,0.3000000119209289,155.0,24.38744354248047,1.4233675003051758,0.0,0.0,0.0,0.0,0.0,-0.0,1.0,0.0,0.0,0.0,-0.0153858736157417,-0.0230201687663793,0.0063328053802251,0.1086043471377343,0.09402138216421,-9.795380791425703,1188161.0
67.3,0.3000000119209289,156.0,24.38869667053223,1.4233675003051758,0.0,0.0,0.0,0.0,0.0,-0.0,1.0,0.0,0.0,0.0,0.0326624549925327,0.0048492169007658,-7.638202077941969e-05,0.1199535277672112,0.0426911701541394,-9.797888662219046,1188161.0
67.5,0.3000000119209289,160.0,24.39119911193848,1.4154157638549805,0.0,0.0,0.0,0.0,0.0,-0.0,1.0,0.0,0.0,0.0,-0.0034452059771865,-0.0133830765262246,0.0164277479052543,0.1055680799111724,0.0474019794445484,-9.78896522641182,1188161.0
67.6,0.3000000119209289,161.0,24.386192321777344,1.4313193559646606,0.0,0.0,0.0,0.0,0.0,-0.0,1.0,0.0,0.0,0.0,0.0176986996084451,0.0006285437848418,-0.0018913308158516,0.1235594325698912,0.0708793451450765,-9.809548010230063,1188161.0
67.8,0.3000000119209289,166.0,24.38744354248047,1.4233675003051758,0.0,0.0,0.0,0.0,0.0,-0.0,1.0,0.0,0.0,0.0,-0.0100029176101088,-0.0100783528760075,-0.0034889602102339,0.1189736440591514,0.0765535426000133,-9.788072356581688,1188161.0
67.9,0.3000000119209289,167.0,24.39119911193848,1.391560435295105,0.0,0.0,0.0,0.0,0.0,-0.0,1.0,0.0,0.0,0.0,-0.0120361894369125,-0.0079759331420063,0.0080576781183481,0.1113425708189606,0.0459259229432791,-9.7960000115633,1188161.0
68.11,0.3000000119209289,169.0,24.386192321777344,1.4074640274047852,0.0,0.0,0.0,0.0,0.0,-0.0,1.0,0.0,0.0,0.0,-0.0151331350207328,0.00488563766703,0.0211260430514812,0.1097233032155782,0.0593298562662676,-9.79424233853817,1188161.0
68.2,0.3000000119209289,170.0,24.37742805480957,1.4074640274047852,0.0,0.0,0.0,0.0,0.0,-0.0,1.0,0.0,0.0,0.0,-0.0153146786615252,-0.0155204301699996,0.0138640711084008,0.0781040551699698,0.0660431267833337,-9.791508180499076,1188161.0
68.4,0.3000000119209289,170.0,24.392452239990234,1.4313193559646606,0.0,0.0,0.0,0.0,0.0,-0.0,1.0,0.0,0.0,0.0,-0.0064581651240587,0.0031416548881679,-0.0069049405865371,0.1430494083277881,0.0426102181943133,-9.809695944786071,1188161.0
68.51,0.3000000119209289,169.0,24.38744354248047,1.4233675003051758,0.0,0.0,0.0,0.0,0.0,-0.0,1.0,0.0,0.0,0.0,0.0247855931520462,0.0164973083883523,-0.0185969322919845,0.1171309031825512,0.070420261058025,-9.815962990522385,1188161.0
68.7,0.3000000119209289,168.0,24.38368797302246,1.455174684524536,0.0,0.0,0.0,0.0,0.0,-0.0,1.0,0.0,0.0,0.0,0.0079410299658775,-0.0100140292197465,0.0065104030072689,0.1300082901678979,0.0567976829828694,-9.7898235976696,1188161.0
68.81,0.3000000119209289,168.0,24.38994789123535,1.4313193559646606,0.0,0.0,0.0,0.0,0.0,-0.0,1.0,0.0,0.0,0.0,-0.0108751188963651,-0.0265743248164653,-0.0072562978602945,0.1230555853061378,0.0517810140643268,-9.799295502305034,1188161.0
69.0,0.3000000119209289,169.0,24.38994789123535,1.455174684524536,0.0,0.0,0.0,0.0,0.0,-0.0,1.0,0.0,0.0,0.0,-0.0114076705649495,-0.0312965027987957,-0.0070396279916167,0.1096948619931936,0.0839943118114024,-9.775965111851692,1188161.0
69.1,0.3000000119209289,168.0,24.37993049621582,1.4631264209747314,0.0,0.0,0.0,0.0,0.0,-0.0,1.0,0.0,0.0,0.0,0.005393935367465,-0.0017241248860955,0.0160038378089666,0.1234603496734053,0.0284063903382048,-9.792071852087975,1188161.0
69.3,0.3000000119209289,166.0,24.38994789123535,1.391560435295105,0.0,0.0,0.0,0.0,0.0,-0.0,1.0,0.0,0.0,0.0,-0.0022137335035949,-0.0063313576392829,0.004537156317383,0.1210970786958933,0.0535818057367578,-9.786019399166108,1188161.0
69.4,0.3000000119209289,164.0,24.39119911193848,1.4233675003051758,0.0,0.0,0.0,0.0,0.0,-0.0,1.0,0.0,0.0,0.0,-0.0027788935694843,-0.0048991059884428,0.0227749459445476,0.1261398545186966,0.1026276430673897,-9.80183845639229,1188161.0
69.6,0.3000000119209289,161.0,24.38368797302246,1.4472228288650513,0.0,0.0,0.0,0.0,0.0,-0.0,1.0,0.0,0.0,0.0,0.005404929164797,0.0085671572014689,-0.0238342229276895,0.1192757258377969,0.052208842956461,-9.80174723982811,1188161.0
69.71,0.3000000119209289,159.0,24.382434844970703,1.439271092414856,0.0,0.0,0.0,0.0,0.0,-0.0,1.0,0.0,0.0,0.0,0.0116844484582543,-0.0111613245680928,0.0170872546732425,0.1207667566929012,0.0533570625213906,-9.783247234225271,1188161.0
69.9,0.3000000119209289,155.0,24.38744354248047,1.4313193559646606,0.0,0.0,0.0,0.0,0.0,-0.0,1.0,0.0,0.0,0.0,0.0084514888003468,0.0397591553628444,0.0078398277983069,0.1311423759162426,0.0812414883635938,-9.809273775815962,1188161.0
70.0,0.3000000119209289,153.0,24.38994789123535,1.4313193559646606,0.0,0.0,0.0,0.0,0.0,-0.0,1.0,0.0,0.0,0.0,0.0004858881875406,-0.0028912131674587,-0.0005424076225608,0.093819114184007,0.0845526386797428,-9.779832460284233,1188161.0
70.2,0.3000000119209289,147.0,24.38744354248047,1.4472228288650513,0.0,0.0,0.0,0.0,0.0,-0.0,1.0,0.0,0.0,0.0,-0.0221679452806711,0.0445092841982841,-0.0080982996150851,0.1307587072066962,0.043746364172548,-9.831511906385424,1188161.0
70.3,0.3000000119209289,145.0,24.37993049621582,1.391560435295105,0.0,0.0,0.0,0.0,0.0,-0.0,1.0,0.0,0.0,0.0,0.0363503992557525,0.0051442235708236,-0.0108475442975759,0.1212496270705014,0.0792182329762727,-9.787041492462158,1188161.0
70.5,0.3000000119209289,141.0,24.39119911193848,1.439271092414856,0.0,0.0,0.0,0.0,0.0,-0.0,1.0,0.0,0.0,0.0,-0.0145725365728139,0.0041146157309412,0.0271903071552515,0.086071516899392,0.0064437047392129,-9.8212675845623,1188161.0
70.6,0.3000000119209289,140.0,24.381183624267567,1.455174684524536,0.0,0.0,0.0,0.0,0.0,-0.0,1.0,0.0,0.0,0.0,0.0085979122668504,0.0057783708907663,-0.0238077901303768,0.1446600786969066,0.0717040126863867,-9.791955492496491,1188161.0
70.8,0.3000000119209289,140.0,24.384939193725582,1.4154157638549805,0.0,0.0,0.0,0.0,0.0,-0.0,1.0,0.0,0.0,0.0,0.0075337048619985,-0.0029481628444045,-0.0004047627444379,0.115750275067985,0.0599920945521444,-9.820872312784196,1188161.0
70.9,0.3000000119209289,140.0,24.392452239990234,1.4233675003051758,0.0,0.0,0.0,0.0,0.0,-0.0,1.0,0.0,0.0,0.0,-0.0246274974197149,-0.0329670682549476,-0.0033479563426226,0.1086471323110163,0.0554576427675783,-9.787933777570723,1188161.0
71.1,0.3000000119209289,143.0,24.37993049621582,1.4233675003051758,0.0,0.0,0.0,0.0,0.0,-0.0,1.0,0.0,0.0,0.0,0.0118350023403763,0.0065674195066094,-0.013143484480679,0.1353838456515222,0.0767226504720747,-9.817849302291869,1188161.0
71.2,0.3000000119209289,144.0,24.39370346069336,1.4472228288650513,0.0,0.0,0.0,0.0,0.0,-0.0,1.0,0.0,0.0,0.0,0.0064215431921184,0.0022172471508383,-0.0199136976152658,0.1104693805240094,0.1078232048079371,-9.79684025645256,1188161.0
71.4,0.3000000119209289,147.0,24.37993049621582,1.439271092414856,0.0,0.0,0.0,0.0,0.0,-0.0,1.0,0.0,0.0,0.0,-0.0211240760982036,-0.0250895135104656,0.0062562311068177,0.0927310295775532,0.0955401416122913,-9.796840841174124,1188161.0
71.51,0.3000000119209289,147.0,24.39370346069336,1.4472228288650513,0.0,0.0,0.0,0.0,0.0,-0.0,1.0,0.0,0.0,0.0,0.0271111484616994,-0.0008594411774538,-0.0207592528313398,0.1202784502319991,0.0528615612443536,-9.817935841083528,1188161.0
71.7,0.3000000119209289,151.0,24.38744354248047,1.4233675003051758,0.0,0.0,0.0,0.0,0.0,-0.0,1.0,0.0,0.0,0.0,-0.0131107745692133,-0.0016697107348591,0.0103201763704419,0.1154242288414389,0.0749904539482668,-9.804337556362151,1188161.0
71.8,0.3000000119209289,153.0,24.38869667053223,1.4472228288650513,0.0,0.0,0.0,0.0,0.0,-0.0,1.0,0.0,0.0,0.0,-0.0095621002838015,0.0099177351221442,-0.0009776622755452,0.1130635342933237,0.0513550398359075,-9.811484023332596,1188161.0
72.01,0.3000000119209289,154.0,24.386192321777344,1.4949334859848022,0.0,0.0,0.0,0.0,0.0,-0.0,1.0,0.0,0.0,0.0,-0.0129406172782182,-0.0135493092238903,0.0013554642209783,0.1031435958947986,0.0918186994828283,-9.80068947851658,1188161.0
72.1,0.3000000119209289,155.0,24.37492370605469,1.4710781574249268,0.0,0.0,0.0,0.0,0.0,-0.0,1.0,0.0,0.0,0.0,0.0170456543564796,0.0096165919676423,0.0012859206181019,0.1294582773093134,0.0693998305639252,-9.812158792018892,1188161.0
72.31,0.3000000119209289,151.0,24.382434844970703,1.4472228288650513,0.0,0.0,0.0,0.0,0.0,-0.0,1.0,0.0,0.0,0.0,-0.0019501950591802,-0.0181461814790964,0.0042540691792964,0.1381825971510261,0.0361490015010349,-9.804250432848931,1188161.0
72.41,0.3000000119209289,149.0,24.39370346069336,1.4233675003051758,0.0,0.0,0.0,0.0,0.0,-0.0,1.0,0.0,0.0,0.0,-0.0058044902980327,0.0211007595062255,0.013081313110888,0.1242969400528818,0.0672991772275418,-9.81217750310898,1188161.0
72.6,0.3000000119209289,143.0,24.38994789123535,1.439271092414856,0.0,0.0,0.0,0.0,0.0,-0.0,1.0,0.0,0.0,0.0,-0.0140973608940839,-0.0095539083704352,0.0061140311881899,0.1412313719373196,0.1059911899175495,-9.800652056336403,1188161.0
72.71,0.3000000119209289,139.0,24.384939193725582,1.4472228288650513,0.0,0.0,0.0,0.0,0.0,-0.0,1.0,0.0,0.0,0.0,-0.0043060714378952,0.0150313507765531,0.0080568920820951,0.1212018352188169,0.0755873176222667,-9.82965950846672,1188161.0
72.9,0.3000000119209289,133.0,24.39620780944824,1.4790298938751218,0.0,0.0,0.0,0.0,0.0,-0.0,1.0,0.0,0.0,0.0,0.01983586512506,0.0172461289912462,-0.0078985607251524,0.1259103421680629,0.0827209526952356,-9.781500086188316,1188161.0
73.01,0.3000000119209289,131.0,24.372419357299805,1.4472228288650513,0.0,0.0,0.0,0.0,0.0,-0.0,1.0,0.0,0.0,0.0,0.0042941235005855,0.0084775779396295,0.0277052856981754,0.0839111260324716,0.0907761226594448,-9.800599431395533,1188161.0
73.2,0.3000000119209289,129.0,24.37867927551269,1.439271092414856,0.0,0.0,0.0,0.0,0.0,-0.0,1.0,0.0,0.0,0.0,-0.0054738554172217,0.0071802362799644,-0.0102944057434797,0.1188276372570544,0.058037068862468,-9.800736840963364,1188161.0
73.3,0.3000000119209289,127.0,24.384939193725582,1.4233675003051758,0.0,0.0,0.0,0.0,0.0,-0.0,1.0,0.0,0.0,0.0,-0.0099112428724765,-0.0002418693911749,0.015100966207683,0.1425917997490614,0.0497792289219796,-9.796232730746269,1188161.0
73.5,0.3000000119209289,309.0,24.382434844970703,1.4233675003051758,0.0,0.0,0.0,0.0,0.0,-0.0,1.0,0.0,0.0,0.0,-0.0081144887953996,-0.011762966401875,0.0064004198648035,0.1167624737787991,0.0829763937927782,-9.788086389899254,1188161.0
73.61,0.2000000029802322,305.0,24.37492370605469,1.4472228288650513,0.0,0.0,0.0,0.0,0.0,-0.0,1.0,0.0,0.0,0.0,-0.0048609101213514,-0.0166958346962928,-0.0032101285178214,0.1215608816687017,0.045899409474805,-9.79585733950138,1188161.0
73.8,0.2000000029802322,304.0,24.38744354248047,1.4233675003051758,0.0,0.0,0.0,0.0,0.0,-0.0,1.0,0.0,0.0,0.0,-0.009779161773622,-0.0016187677392736,-0.0062144892290234,0.1078703114390373,0.083738075857982,-9.78827876329422,1188161.0
73.9,0.2000000029802322,304.0,24.38744354248047,1.4472228288650513,0.0,0.0,0.0,0.0,0.0,-0.0,1.0,0.0,0.0,0.0,0.0065890522673726,-0.0066394391469657,0.0011202460154891,0.1016314054280519,0.0793220484629273,-9.78379745721817,1188161.0
74.11,0.2000000029802322,307.0,24.382434844970703,1.4790298938751218,0.0,0.0,0.0,0.0,0.0,-0.0,1.0,0.0,0.0,0.0,0.0005426404532045,0.0372210852801799,0.003077691886574,0.1192895581573248,0.0637977365870028,-9.805048577785492,1188161.0
74.2,0.2000000029802322,305.0,24.382434844970703,1.4710781574249268,0.0,0.0,0.0,0.0,0.0,-0.0,1.0,0.0,0.0,0.0,-0.0005736941820941,-0.0083894319832324,-0.0038706979248672,0.1516434540320188,0.0611925416300073,-9.81550106048584,1188161.0
74.4,0.2000000029802322,299.0,24.37116622924805,1.4472228288650513,0.0,0.0,0.0,0.0,0.0,-0.0,1.0,0.0,0.0,0.0,-0.0012638372136279,0.011654770001769,0.0109019391238689,0.1141017713863402,0.0327167201740667,-9.82937065601349,1188161.0
74.5,0.2000000029802322,297.0,24.37617492675781,1.4631264209747314,0.0,0.0,0.0,0.0,0.0,-0.0,1.0,0.0,0.0,0.0,-0.0118181956931948,-0.0061782635748386,-0.0012873376253992,0.102513750270009,0.1027289095334708,-9.79866575717926,1188161.0
74.7,0.2000000029802322,293.0,24.37993049621582,1.455174684524536,0.0,0.0,0.0,0.0,0.0,-0.0,1.0,0.0,0.0,0.0,0.0037219424266368,0.002719443058595,-0.0065615782514214,0.120183661384508,0.0765525239054113,-9.829408078193666,1188161.0
74.8,0.2000000029802322,291.0,24.372419357299805,1.4154157638549805,0.0,0.0,0.0,0.0,0.0,-0.0,1.0,0.0,0.0,0.0,-0.0292304102331399,-0.0086412420496344,0.0228747092187404,0.1274933661706745,0.0397028135508298,-9.786040449142456,1188161.0
75.0,0.2000000029802322,282.0,24.382434844970703,1.4233675003051758,0.0,0.0,0.0,0.0,0.0,-0.0,1.0,0.0,0.0,0.0,0.0068061910569667,0.0074579706415534,-0.004665708169341,0.0944005192816257,0.0584792005922645,-9.801899267435074,1188161.0
75.1,0.2000000029802322,277.0,24.382434844970703,1.4472228288650513,0.0,0.0,0.0,0.0,0.0,-0.0,1.0,0.0,0.0,0.0,-0.0059906640090048,0.0182848908007144,0.0064619658514857,0.1294653944671154,0.0207685014372691,-9.811650084257128,1188161.0
75.3,0.2000000029802322,268.0,24.36991500854492,1.4710781574249268,0.0,0.0,0.0,0.0,0.0,-0.0,1.0,0.0,0.0,0.0,-0.0056966273114085,-0.0355326384305954,0.0024807574227452,0.1065645094122737,0.0933234804309904,-9.803456965684893,1188161.0
75.4,0.2000000029802322,263.0,24.381183624267567,1.3995121717453003,0.0,0.0,0.0,0.0,0.0,-0.0,1.0,0.0,0.0,0.0,-0.0103660160675644,0.0088208224624395,0.0239408835768699,0.0997414391487837,0.0450050047505646,-9.813801859617234,1188161.0
75.6,0.2000000029802322,251.0,24.384939193725582,1.4472228288650513,0.0,0.0,0.0,0.0,0.0,-0.0,1.0,0.0,0.0,0.0,-0.0084384521469473,0.0022762201260775,0.0041197040118277,0.1525520473904907,0.0413608280941844,-9.814664908647536,1188161.0
75.71,0.2000000029802322,245.0,24.38368797302246,1.455174684524536,0.0,0.0,0.0,0.0,0.0,-0.0,1.0,0.0,0.0,0.0,-0.0329600758850574,-0.0196945592761039,0.0248800814151763,0.0727365761529654,0.0749050206458196,-9.814561997652056,1188161.0
75.9,0.2000000029802322,235.0,24.38368797302246,1.455174684524536,0.0,0.0,0.0,0.0,0.0,-0.0,1.0,0.0,0.0,0.0,0.0216641221195459,0.003013711888343,0.0002968264161609,0.1096390759013593,0.0197304950351826,-9.784541807770731,1188161.0
76.0,0.2000000029802322,230.0,24.38869667053223,1.455174684524536,0.0,0.0,0.0,0.0,0.0,-0.0,1.0,0.0,0.0,0.0,0.0025762275326997,0.0176751911640167,-0.00119679805357,0.1331797559838742,0.0576091623120009,-9.837575469017027,1188161.0
76.2,0.2000000029802322,220.0,24.382434844970703,1.4472228288650513,0.0,0.0,0.0,0.0,0.0,-0.0,1.0,0.0,0.0,0.0,-0.0006475049303844,-0.0272451024502515,0.0298787057399749,0.0877007978595793,0.0452972604660317,-9.783627887964249,1188161.0
76.3,0.2000000029802322,215.0,24.386192321777344,1.4233675003051758,0.0,0.0,0.0,0.0,0.0,-0.0,1.0,0.0,0.0,0.0,-0.019696120172739,-0.0197143089026212,-0.0133059211075305,0.1469395426288247,0.0437642118846997,-9.821569300889973,1188161.0
76.5,0.2000000029802322,208.0,24.382434844970703,1.4710781574249268,0.0,0.0,0.0,0.0,0.0,-0.0,1.0,0.0,0.0,0.0,0.0130654126405715,0.0121005680412054,-0.0208383053541183,0.1328169179800898,0.0852316465973854,-9.800944417119029,1188161.0
76.6,0.2000000029802322,205.0,24.386192321777344,1.4472228288650513,0.0,0.0,0.0,0.0,0.0,-0.0,1.0,0.0,0.0,0.0,0.004681346938014,0.0013916847528889,-0.0100876605138182,0.1126924188248813,0.0772109112516045,-9.801311622262002,1188161.0
76.8,0.2000000029802322,201.0,24.381183624267567,1.4790298938751218,0.0,0.0,0.0,0.0,0.0,-0.0,1.0,0.0,0.0,0.0,0.0225961431860923,0.0108969779685139,0.0031369822099804,0.1343134488724172,0.0572561640758067,-9.787164868712424,1188161.0
76.9,0.2000000029802322,199.0,24.386192321777344,1.455174684524536,0.0,0.0,0.0,0.0,0.0,-0.0,1.0,0.0,0.0,0.0,-0.0038197701796889,-0.0106328716501593,-0.0029565901495516,0.110982647286728,0.095144677972421,-9.807479265332224,1188161.0
77.1,0.2000000029802322,194.0,24.37993049621582,1.4472228288650513,0.0,0.0,0.0,0.0,0.0,-0.0,1.0,0.0,0.0,0.0,-0.020831424742937,-0.0101178865879774,-0.0070781377144157,0.1061792418546974,0.1131464825291186,-9.792909758090971,1188161.0
77.2,0.2000000029802322,192.0,24.38368797302246,1.439271092414856,0.0,0.0,0.0,0.0,0.0,-0.0,1.0,0.0,0.0,0.0,-0.0080279391258955,-0.004336214158684,-0.0193625725805759,0.1108051568828523,0.054328422085382,-9.78875121831894,1188161.0
