time,wind_speed,wind_angle,battery_voltage,battery_current,position_x,position_y,position_z,orientation_x,orientation_y,orientation_z,orientation_w,velocity_x,velocity_y,velocity_z,angular_x,angular_y,angular_z,linear_acceleration_x,linear_acceleration_y,linear_acceleration_z,node_ids
0.0,2.200000047683716,7.0,22.206371307373047,23.09990310668945,-79.9465086002059,40.44343337823164,252.39386479187013,0.003966873511672,-0.0033468955662101,0.2502493262290954,0.9681675434112548,-0.0091623072485708,-0.0075470604018093,0.3033476954580645,0.064678318798542,0.0135354055091738,-0.071247398853302,0.0820388201717287,0.0238514390378259,-10.111916302442554,14917.0
0.2,2.0999999046325684,10.0,22.151281356811523,24.594837188720703,-79.94650829193003,40.443433718374216,252.4181944541932,0.0038629691116511,-0.0023526353761553,0.2491191774606705,0.968462347984314,0.0205546609296577,-0.0211552388197981,0.3183864801642817,-0.0038751494139432,0.0341131351888179,0.0085523221641778,0.1032538067735731,0.0421147260535508,-10.2540469121933,14917.0
0.31,2.0999999046325684,11.0,22.1888427734375,22.84544563293457,-79.94650798568316,40.44343397883008,252.471000831604,0.0078543089330196,-0.0050445781089365,0.2486246526241302,0.9685549736022948,0.0184031711665305,-0.0316109731617008,0.4281700384986635,-0.1149755269289016,0.0415516681969165,-0.0680513381958007,0.0057558597601018,0.0184959856420755,-10.459528595209123,14917.0
0.5,2.0999999046325684,14.0,22.23516845703125,22.51942443847656,-79.94650794160863,40.44343395452513,252.51700178909303,0.0089530516415834,-0.0056538712233304,0.2480167597532273,0.9686979055404664,0.0223432723252394,-0.0381645299355497,0.4859803220825873,-0.0609769970178604,-0.0420447550714016,-0.0030945960897952,0.056879845499061,0.1798656525090337,-10.42571063876152,14917.0
0.6,2.0999999046325684,13.0,22.27523422241211,20.746177673339844,-79.94650765584986,40.44343416146072,252.6055337600708,0.0059666889719665,-0.0022648174781352,0.2468848675489425,0.969023823738098,0.041764817366997,-0.0347617131325583,0.5194404279102177,0.0868620127439498,-0.0682415589690208,0.1072228327393531,0.080609879437834,0.1365970424003899,-10.233760582208632,14917.0
0.81,2.0999999046325684,17.0,22.44300842285156,18.010766983032227,-79.94650760270804,40.44343413971938,252.65746657180787,0.0037620582152158,-0.0023198209237307,0.2475329488515854,0.96886944770813,0.0373911163755821,-0.0422258828021035,0.510796107836965,0.0156347174197435,-0.0202736966311931,0.0009837836259976,-0.026058098282665,0.0519586963299661,-9.75504728257656,14917.0
0.91,2.0999999046325684,15.0,22.243932723999023,21.70039176940918,-79.94650735514621,40.443434531638815,252.72378651428227,0.0043683494441211,-0.0034117181785404,0.2532710433006286,0.9673795700073242,0.0544201717023421,-0.0103587463620986,0.3533314108404993,-0.0040133716538548,-0.0011163970921188,-0.1050937995314598,-0.0323439647443592,0.148778327498585,-9.36509354710579,14917.0
1.1,2.0,14.0,22.21138000488281,21.58906555175781,-79.94650729767238,40.44343454202424,252.75782601165773,0.0054391934536397,-0.0056712385267019,0.2568329870700836,0.9664238691329956,0.0467206142421813,-0.0093229599639861,0.3384443563151879,-0.1061537340283394,-0.0139285875484347,-0.1792733073234558,-0.0271812433423474,0.2746933839842677,-9.557691475152971,14917.0
1.2,2.0,11.0,22.262714385986328,20.809791564941406,-79.9465069918653,40.44343521573505,252.8311220817566,0.0119011476635932,-0.0051168035715818,0.2617526948451996,0.96504807472229,0.101519952829744,0.0012952217530228,0.3677525345808421,0.0824069753289222,0.0659408345818519,0.1113730818033218,0.0875651059113443,0.2337800140678882,-9.908885772228242,14917.0
1.4,2.0,13.0,22.22890853881836,21.072200775146484,-79.94650683351621,40.44343546129876,252.8738013916016,0.0147539172321558,-0.0025503169745206,0.2617872655391693,0.9650095105171204,0.0890752306202134,-0.0040982369591011,0.3829160759973578,-0.0230775251984596,0.0365251041948795,-0.0316723063588142,0.0242624480486847,0.2674654579907656,-9.88588165640831,14917.0
1.5,2.0,13.0,22.27523422241211,20.698467254638672,-79.94650661407653,40.44343549082755,252.95117966461183,0.00722740823403,-0.004974122159183,0.258918285369873,0.9658594131469728,0.1023276269118695,-0.0542651326929788,0.3855915722308017,-0.0112381540238857,-0.0320110544562339,0.041832111775875,0.1022998883575201,0.2423943331651389,-9.853707937002184,14917.0
1.71,2.0,9.0,22.197607040405277,21.71629524230957,-79.94650657136917,40.443436016239545,253.01243321228029,0.0065342187881469,-0.0093117412179708,0.2552738785743713,0.966801941394806,0.095679225666491,-0.0294166477707427,0.3763703604550625,-0.0238342974334955,-0.005568447522819,0.1398417949676513,-0.1646878703869879,0.0401392168365418,-9.662005217671394,14918.0
1.8,2.0,5.0,22.11246681213379,24.03821182250977,-79.94650651712294,40.44343614252436,253.1096111946106,-0.000130278756842,-0.0116665558889508,0.2469583749771118,0.9689558744430542,0.068952117593317,-0.026588097199269,0.3868670487426343,0.1520936638116836,-0.1149081513285636,0.0610385537147522,-0.0324161595851182,0.0448408624436706,-9.637897732257844,14918.0
2.0,2.0,1.0,22.140012741088867,22.6227970123291,-79.9465064418153,40.44343614487112,253.1495100669861,-0.0044197468087077,-0.007116257213056,0.2440521270036697,0.9697259068489076,0.0692400976483238,-0.0268515509122123,0.4121520182849523,0.1713341921567917,-0.006604510359466,0.0064053735695779,0.0192653832910582,0.1427322882413864,-10.024123867750168,14918.0
2.11,2.0999999046325684,357.0,22.17381858825684,23.0203857421875,-79.9465062010416,40.4434363649726,253.2451988868713,0.0011468329466879,-0.0048029059544205,0.2445401847362518,0.9696266055107116,0.0800248558094421,-0.0001026877187324,0.4741586197157578,-0.021044623106718,0.0701483935117721,-0.071121908724308,-0.0395641386089846,0.1812548778578639,-10.105290237665177,14918.0
2.3,2.299999952316284,355.0,22.044857025146484,24.09387588500977,-79.94650612723039,40.44343640682993,253.29356924819947,0.0037130657583475,-0.0036314805038273,0.2478339821100235,0.9687886834144592,0.089827432715198,0.0167961154545341,0.4915762938845726,0.0388071984052658,-0.0034655381459742,-0.1153836622834205,0.1788910678401589,0.1759578851982951,-10.006872242689132,14918.0
2.41,2.400000095367432,354.0,22.163801193237305,22.17749786376953,-79.94650591477837,40.44343664260939,253.3980094604493,0.0055895620025694,-0.005208155605942,0.2578797042369842,0.9661468863487244,0.1087915921478469,0.0166621923724839,0.5549195782814033,-0.0694577619433403,0.0959514379501342,-0.1078118160367012,0.1755673094652593,0.3311462045833469,-10.14030102610588,14918.0
2.61,2.5,357.0,22.710947036743164,8.77875804901123,-79.94650580509438,40.44343670324293,253.45437351989747,0.0073656039312481,-0.005856298841536,0.2626414895057678,0.9648476243019104,0.1309817697605146,0.0101874984946492,0.556125233709559,-0.0348341837525367,0.114556722342968,0.004566682036966,0.0416008014790713,0.2550532809644937,-9.874276102781296,14918.0
2.7,2.5999999046325684,353.0,22.525644302368164,17.088361740112305,-79.94650560671188,40.44343717356085,253.5270106010437,0.0054960120469331,-0.00663927430287,0.2694671452045441,0.9629710912704468,0.1449467212813405,0.0251262002522273,0.1598747467009436,-0.0448900908231735,-0.0213787052780389,-0.0242364946752786,0.059309212854132,0.211015487909317,-8.735001681447027,14918.0
2.91,2.700000047683716,349.0,22.33157730102539,18.38450050354004,-79.94650539643219,40.44343742888733,253.5526706390381,0.0043250219896435,-0.0089042130857706,0.2715688943862915,0.9623681902885436,0.1410821752827744,0.007021331292111,0.0072382137467343,-0.1175285279750824,-0.0046236086636781,-0.0227291267365217,-0.0033120822161436,0.2296917139738798,-8.017263561487196,14918.0
3.0,2.700000047683716,345.0,22.24894142150879,20.475818634033203,-79.94650509659971,40.443437577566186,253.5326010398865,0.0060936962254345,-0.0141295855864882,0.2750296890735626,0.9613126516342164,0.1507917292629212,-0.0035999357668341,-0.1854612992733596,-0.0017311506671831,0.0645748749375343,-0.0660668015480041,-0.0802484758291393,0.1990834769234061,-8.481029039025309,14918.0
3.2,2.900000095367432,343.0,22.20762252807617,20.29292678833008,-79.94650488828157,40.44343782605422,253.52711836624147,0.0071943025104701,-0.0134645588696002,0.2763478457927704,0.9609364867210388,0.1463151958029273,-0.008614504950967,-0.1918477131347993,0.0565574578940868,0.0207823570817708,-0.0082369986921548,0.0500352912861853,0.1869666573777794,-9.417575231194496,14918.0
3.31,3.0,342.0,22.3641300201416,17.501853942871097,-79.94650457967127,40.44343812220528,253.52406136322023,0.0005553180817514,-0.0116900093853473,0.2760836184024811,0.9610623717308044,0.1394661408043001,-0.0145849509111158,-0.1626726920037455,0.0945472717285156,-0.0077074458822607,0.0662528574466705,0.0344168689311482,0.3163774169236422,-9.721708797812465,14918.0
3.51,3.0,342.0,22.299022674560547,19.704496383666992,-79.9465044376736,40.44343817545287,253.5064956359864,-0.0021690046414732,-0.0115537485107779,0.2737869024276733,0.9617185592651368,0.1197759109684802,-0.0097191327815401,-0.1980156533452533,-0.1110603883862495,-0.05276370793581,0.0049795117229223,-0.0684959286823868,0.270886517688632,-9.451721801161767,14918.0
3.61,3.0999999046325684,340.0,22.153785705566406,21.45388603210449,-79.94650431243906,40.443438425748745,253.53356758880616,-0.0076846252195537,-0.0149462912231683,0.2703812420368194,0.96260666847229,0.1108003906980701,0.0273122473120773,-0.203174811409822,-0.0040406486950814,-0.0928418934345245,-0.0238366052508354,0.0449533573910594,0.1526345936302095,-9.32220071196556,14918.0
3.8,3.0999999046325684,339.0,22.15879440307617,21.604969024658203,-79.94650421260216,40.44343850357181,253.51390377807616,-0.0095536960288882,-0.0133273433893919,0.2702891826629639,0.9626396298408508,0.1170020023579333,0.0459961487669837,-0.1908656813989316,0.0559032037854194,-0.0124619221314787,-0.0720229148864746,-0.0647176132444292,0.3119842941686511,-9.81057068824768,14918.0
3.91,3.0999999046325684,336.0,22.177574157714844,21.469789505004886,-79.9465041083602,40.44343871922669,253.59361140060423,-0.0063553689979016,-0.0110520264133811,0.2740685939788818,0.961625635623932,0.1001908569734421,0.0769544244230007,-0.0648233851382859,-0.0755060836672782,0.0214756354689598,-0.0185224395245313,-0.0303048350801691,0.3047103396244347,-9.960445350408555,14918.0
4.1,3.0,334.0,22.13625717163086,21.38232040405273,-79.94650405906845,40.443438833436325,253.5882388763428,-0.0028459313325583,-0.011729983612895,0.2766507267951965,0.9608948230743408,0.0906725474278246,0.0974505549167652,-0.0419720308328631,-0.1080402806401252,0.0463622920215129,-0.0445335134863853,0.1560112784430384,0.3584776985272765,-10.103959411382675,14918.0
4.2,3.0,336.0,22.1350040435791,21.104007720947266,-79.94650389976806,40.44343877022628,253.71230046081544,0.0011142377043142,-0.0121716689318418,0.2815615534782409,0.9594653248786926,0.0801763706979247,0.0830403557899205,0.1180236808546259,0.0134570272639393,0.051007442176342,-0.0291036069393158,0.1381522738561034,0.2065416187606752,-10.089848910570144,14918.0
4.4,2.900000095367432,342.0,22.250192642211918,20.078229904174805,-79.94650366236948,40.44343852092451,253.72375027465824,0.0037673392798751,-0.0138751314952969,0.2833577692508697,0.9589065313339232,0.0373060614773856,0.0387321580224602,0.1396699116132469,-0.1512447744607925,-0.0099766450002789,-0.0102595519274473,0.0098363666119985,0.2561497435346246,-10.00095836877823,14918.0
4.5,2.900000095367432,346.0,22.220144271850582,20.30883026123047,-79.94650364972054,40.44343861029457,253.753438156128,0.003608840284869,-0.0171066839247941,0.2820329070091248,0.9592454433441162,0.0247092818932302,0.0412215389459669,0.1510996731755225,-0.0582831092178821,-0.0500692203640937,0.1362964212894439,0.072143641076982,0.2217158925533295,-9.953033419847491,14918.0
4.7,2.900000095367432,350.0,22.30778694152832,18.9013671875,-79.94650321280695,40.44343907399519,253.7139412574768,0.0029407320544123,-0.0170017629861831,0.2777581214904785,0.9604961276054382,0.0523993356663721,0.0549135314750608,0.1297594282550731,0.0219465363770723,0.0258681271225214,0.1805489808320999,0.0460551372729241,0.1915838564001024,-9.94134132742882,14918.0
4.81,2.799999952316284,351.0,22.26772117614746,18.853656768798828,-79.94650285541351,40.44343938968253,253.6864558868409,0.0032899533398449,-0.0175892356783151,0.2694556415081024,0.9628465175628662,0.0226738754874147,0.0546077521580784,0.0804370533828152,-0.0754406303167343,-0.1454369276762008,0.0436443760991096,-0.0093050716957077,0.1388956285547465,-9.837248024940491,14918.0
4.9,2.700000047683716,357.0,22.220144271850582,19.609073638916016,-79.94650286372624,40.44343943577605,253.69281260299684,0.0014051685575395,-0.0176692251116037,0.2676457762718201,0.9633544087409972,0.017767860106736,0.043704461376774,0.0433377688887508,0.0632261484861373,-0.020063990727067,0.0014150684000924,-0.0062463463644962,0.1061582101508975,-9.482480494379995,14918.0
5.1,2.799999952316284,0.0,22.166305541992188,21.23123550415039,-79.94650273587817,40.44343988160436,253.68163887786855,0.0023797815665602,-0.0143547486513853,0.2691234946250915,0.9629958271980286,-0.0143605165032728,0.046152584022065,0.0192178306423185,0.0177944563329219,0.0037399660795927,0.0342983864247798,-0.1270016610156744,0.1038904132414609,-9.611322137117387,14918.0
5.3,2.700000047683716,6.0,22.171314239501957,20.467866897583008,-79.9465027698316,40.44343992176336,253.683659236908,0.0039168642833828,-0.0130571564659476,0.2722346782684326,0.9621343612670898,-0.0217665085057088,0.0384879085383854,0.0270144823604416,0.0569191128015518,-0.0049884663894772,-0.0056077176705002,-0.091320251757279,0.0031009429134428,-9.859020717144013,14918.0
5.41,2.700000047683716,10.0,22.193851470947266,20.181602478027344,-79.94650275759999,40.44344029765053,253.67754141616825,0.0023581262212246,-0.0092948880046606,0.279251366853714,0.9601701498031616,-0.0163437139252867,0.050811724441294,0.0021151827920471,0.0743917599320411,-0.0242596212774515,-0.0855702310800552,-0.0475712928827852,0.1077569211367517,-9.788736015558245,14918.0
5.51,2.700000047683716,15.0,22.131248474121094,21.604969024658203,-79.94650281169027,40.44344032041817,253.6766297035217,0.0010751837398856,-0.0098627284169197,0.282377153635025,0.9592522382736206,-0.0280985468242011,0.042457414820775,-0.0175639588478436,-0.0061373561620712,0.0054777325130999,-0.0200143735855817,-0.1733708029054105,-0.0216848469246178,-9.60281911611557,14918.0
5.7,2.700000047683716,15.0,22.117475509643555,20.77003288269043,-79.94650276937213,40.44344062270344,253.6775805168152,0.0110519407317042,-0.015593041665852,0.2887682020664215,0.9572083353996276,-0.0479219120979286,0.0232076195419736,-0.0063913530874612,-0.1075057759881019,0.1551966816186905,-0.1391952931880951,-0.1801099199429154,0.0298266470432281,-9.716636338233949,14918.0
5.81,2.5999999046325684,22.0,22.170061111450195,20.467866897583008,-79.94650292617841,40.44344069761721,253.68016640472413,0.0161920767277479,-0.0199533309787511,0.2906592190265655,0.9564815163612366,-0.0906675276334546,0.0155769884421424,0.0086309365767283,-0.0829394459724426,-0.028578145429492,-0.1334829628467559,0.0164057887718081,0.2980107461102307,-9.790155719518662,14918.0
6.01,2.5999999046325684,23.0,22.15503692626953,20.603046417236328,-79.94650312671074,40.44344057236514,253.6804196052552,0.0115439845249056,-0.0150300962850451,0.2866315543651581,0.9578534364700316,-0.1224250631071361,-0.0363394334194739,0.0069321310152387,0.2423108369112015,-0.0476287715137004,0.1379388123750686,0.0759468665672466,0.1656342056952417,-9.763979489207268,14918.0
6.2,2.700000047683716,31.0,22.13625717163086,21.827619552612305,-79.94650342380322,40.44344080416607,253.66330782699583,0.0075034783221781,-0.0070870020426809,0.2828974425792694,0.9590947031974792,-0.1633412628400132,-0.0436685105247233,0.0268540222901491,0.1863333135843277,-0.0282916463911533,0.0882837325334549,-0.1861414873413741,-0.0383883229270577,-10.024480547904966,14918.0
6.31,2.799999952316284,27.0,22.17882537841797,20.642805099487305,-79.94650365038096,40.44344085799766,253.6499625854493,0.0063774604350328,-0.0006643330561928,0.2802268862724304,0.9599124193191528,-0.1709527080536768,-0.0915251831701029,0.0802532672864154,0.0917738899588584,0.0422201640903949,0.0465166717767715,-0.106279676919803,-0.2228414450213312,-10.13007892370224,14918.0
6.5,2.900000095367432,28.0,22.230159759521484,17.61318016052246,-79.94650375080658,40.44344069208204,253.65906540679933,0.0041934056207537,-0.0001275119429919,0.2815198004245758,0.9595462679862976,-0.1690226562630329,-0.1269912640731191,0.0983220021080973,0.0643930807709693,-0.0523972623050212,-0.0577572248876094,-0.1604321389272809,-0.0493157000374048,-10.02083539366722,14918.0
6.61,3.0,28.0,22.099946975708008,21.38232040405273,-79.94650386892559,40.44344073830224,253.64960209655763,0.000837247876916,-0.0007926812395453,0.2886490225791931,0.9574342966079712,-0.146565196517425,-0.1553811763064004,0.0200952392163287,-0.0040680733509361,0.0515873469412326,-0.0941791385412216,-0.1790084141492843,0.107350731510669,-9.669122448563575,14918.0
6.81,3.299999952316284,26.0,22.163801193237305,19.632930755615234,-79.94650391085028,40.44344054222229,253.65065209198,0.0044068056158721,-0.0024241448845714,0.2936835289001465,0.9558895230293274,-0.1478834108118199,-0.1714390662770869,0.0012935912373352,-0.045823972672224,0.0222576465457677,-0.0456224307417869,-0.2315779343806207,-0.0166931702848523,-9.519647735953331,14918.0
6.92,3.2000000476837163,27.0,22.07740974426269,21.34256172180176,-79.94650410352376,40.44344080886173,253.61687342453004,0.0037566763348877,0.0002976082614623,0.2993383407592773,0.9541396498680116,-0.1257801174213135,-0.1484068665022619,-0.0350927855642528,0.0852616429328918,0.0100454157218337,-0.0122213419526815,-0.1716903679445386,0.0086923428811132,-9.5122773206234,14918.0
7.1,3.2000000476837163,29.0,22.14251708984375,20.65870857238769,-79.94650411893656,40.44344062924343,253.6138941459656,0.0029134838841855,0.0030726918485015,0.3008080124855041,0.9536754488945008,-0.1255527973243221,-0.1679227184239305,-0.0160321703651544,0.0512925721704959,-0.019554128870368,-0.0169416423887014,-0.0991224200092256,0.074199302829802,-10.017373842000962,14918.0
7.21,3.2000000476837163,30.0,22.07240104675293,21.98665428161621,-79.94650438398239,40.44344097103928,253.5951873474121,-0.0022396796848624,0.0050122365355491,0.3012244999408722,0.9535374641418456,-0.0959540730216804,-0.1343409392269321,0.0511356880728081,0.0231865178793668,-0.1242366805672645,-0.0239937528967857,-0.0916256591398269,-0.223561620991677,-10.151511307954786,14918.0
7.4,3.0999999046325684,28.0,21.952205657958984,24.761823654174805,-79.94650485983763,40.44344151623017,253.557806175232,-0.005841891746968,0.0056164343841373,0.2993000745773315,0.9541246891021729,-0.097856783767799,-0.0735926632300364,0.0504404681919486,-0.0835991948843002,-0.1058448106050491,0.0959121510386467,-0.2647972090356052,0.0046177289262413,-10.095770970582963,14918.0
7.51,3.0,27.0,22.004791259765625,23.13966178894043,-79.94650489001549,40.443441302488345,253.5756155662537,-0.0018114395206794,0.0044241719879209,0.2978943586349487,0.9545868635177612,-0.0622194453382106,-0.0966710500315716,0.1289749829151744,-0.0431444682180881,0.0927781090140342,0.0877663642168045,-0.2368915367871523,0.0814402571506798,-10.159726645946504,14918.0
7.7,2.799999952316284,28.0,22.21012687683105,17.652938842773438,-79.9465052688806,40.44344194338535,253.5274683647156,-0.0007365298806689,0.0036624842323362,0.2974042892456055,0.9547443389892578,-0.078623705474607,-0.036364626287428,0.128672722390468,-0.1310195624828338,-0.0275968182832002,-0.0772054642438888,-0.1131385887879878,0.1247562662512064,-10.167485901117326,14918.0
7.8,2.799999952316284,29.0,22.237672805786133,18.750282287597656,-79.94650567351009,40.443442294812975,253.4803973846436,0.0044960947707295,0.0081460839137434,0.2987323403358459,0.9542916417121888,-0.0622040228382359,-0.0305721648640044,0.0339222615159129,0.1241291314363479,0.1015329733490944,-0.0128461681306362,-0.0739433044195175,-0.067819195697084,-9.945810939073564,14918.0
8.0,2.5999999046325684,33.0,22.14627265930176,20.01461410522461,-79.94650571253742,40.4434422343512,253.48090664672853,0.0062181381508708,0.0099511407315731,0.2998066544532776,0.9539278745651244,-0.0656061994054853,-0.0429398506777349,-0.0196772932876021,-0.0043208873830735,-0.0051038954406976,-0.0771911144256591,-0.0937129049934446,0.0712538044899702,-9.312879665493966,14918.0
8.1,2.5999999046325684,39.0,22.277738571166992,17.95510482788086,-79.94650611560299,40.44344247511618,253.4491635971069,0.0001903780357679,0.0101582566276192,0.2991615831851959,0.9541483521461488,-0.0509603682243653,-0.0420415135849089,-0.0807533411857569,0.1078308373689651,-0.0536438338458538,-0.0267043858766555,-0.0601517144031822,-0.101021065749228,-9.469567503333092,14918.0
8.21,2.299999952316284,44.0,22.177574157714844,19.33076286315918,-79.94650613162703,40.443442415371536,253.43979851531984,-0.004361021798104,0.0127235651016235,0.2979640960693359,0.9544823169708252,-0.0447636189595416,-0.0512335691413924,-0.1102800694066434,0.0119696175679564,-0.1060623452067375,0.0880087912082672,-0.1720916148461401,-0.1514954189769923,-9.467322757244109,14918.0
8.41,2.200000047683716,48.0,22.14251708984375,20.420154571533203,-79.94650615421862,40.44344245749939,253.3989807777405,-0.0085606463253498,0.0117053929716348,0.2952292561531067,0.955316424369812,-0.0257590840354856,-0.0599512173923682,-0.1501552568334856,-0.0198199748992919,-0.0327157527208328,0.0692489221692085,-0.1008263443317264,-0.1479420112073421,-9.52622643828392,14918.0
8.61,2.299999952316284,48.0,22.124988555908203,20.85750389099121,-79.94650614279216,40.4434424024096,253.38286606597904,-0.0105720879510045,0.0135173499584198,0.2951334714889526,0.9553019404411316,-0.0006584285700241,-0.0620015645148268,-0.1680785232425483,0.0854110866785049,0.0615168698132038,-0.0189286563545465,-0.081869506733492,-0.0917288716323673,-9.689864861369132,14918.0
8.7,2.200000047683716,50.0,22.087427139282227,21.263044357299805,-79.94650610539334,40.44344232787372,253.34654585647584,-0.0131686571985483,0.0167655702680349,0.2963144779205322,0.9548525214195251,0.0227785941260143,-0.0638486278743272,-0.1397757653391816,0.0357250124216079,0.04248783364892,-0.0037004477344453,-0.1692301519587636,-0.1905370768904686,-9.782923883199691,14918.0
8.9,1.8999999761581416,53.0,22.01981544494629,22.63870048522949,-79.94650609051308,40.44344226553324,253.3249990158081,-0.0122021995484828,0.0159776322543621,0.2975929379463196,0.9544811844825744,0.0097058369964447,-0.0626920253500787,-0.1056001002816971,-0.097297228872776,-0.0079991230741143,-0.0514528341591358,-0.17497169746086,-0.1804530966840684,-9.941095744371417,14918.0
9.0,1.7999999523162842,57.0,22.03609275817871,21.445934295654297,-79.9465059555059,40.443442198683904,253.3059722595215,-0.0109822833910584,0.0101881688460707,0.3030150234699249,0.952868103981018,0.0564821692402421,-0.0621663591384765,-0.0809798429249242,0.1102484613656997,0.1029918417334556,0.0484460443258285,-0.1472057462576776,-0.1200726921949535,-9.891517202854155,14918.0
9.2,1.8999999761581416,55.0,21.962221145629886,23.43387794494629,-79.94650586740883,40.44344214762205,253.2857133560181,-0.0112132867798209,0.0125719448551535,0.3056424260139465,0.9519973993301392,0.0511741572769417,-0.0495962393277491,-0.0587605117650352,0.0360747762024402,-0.1126860007643699,-0.1425680369138717,0.0291684561269357,0.1037345392629504,-9.955168823003769,14918.0
9.31,2.0,58.0,22.07991409301757,20.58714294433593,-79.94650570521672,40.4434419699254,253.2513634376526,-0.0147190280258655,0.0138510186225175,0.3076858520507812,0.9512733817100524,0.0525157550741336,-0.0670058360317538,-0.021515662841259,-0.2368989288806916,-0.0719074159860611,-0.072022870182991,-0.0238217804068699,-0.0990334052871912,-10.060990562438963,14918.0
9.5,1.8999999761581416,58.0,21.988513946533203,23.012434005737305,-79.9465055890382,40.44344196296456,253.24916283416752,-0.0137628614902496,0.0099198026582598,0.3076721727848053,0.951341152191162,0.0930826969103897,-0.0683171666786277,-0.0158381130856834,0.0495499223470687,0.1732117831707,0.0520390979945659,-0.2100962142460049,-0.2113622277975082,-9.931588171720506,14918.0
9.6,1.8999999761581416,57.0,22.05988121032715,21.565210342407227,-79.94650492326775,40.44344169775722,253.2149526290894,-0.0132561856880784,0.0026779838372021,0.3096231818199157,0.95076322555542,0.0707815069976595,-0.0853788100130519,0.0164112353056724,-0.1643573641777038,-0.1791896969079971,-0.1226149424910545,-0.0277317746845074,-0.1707050024718046,-10.0292027592659,14918.0
9.8,2.0,57.0,22.071149826049805,20.865455627441406,-79.94650478262183,40.44344168368955,253.21765152740485,-0.0153369670733809,0.0015542862238362,0.3106874227523804,0.9503871202468872,0.0998954898998788,-0.0822352568066677,0.0312904711991476,0.1997533887624741,0.0779953449964523,0.0562006458640098,-0.1672601519152522,-0.1490394787676632,-9.959709770679476,14918.0
9.91,2.0,56.0,22.07740974426269,20.730274200439453,-79.94650446655734,40.44344164103136,253.1792990379334,-0.0213391445577144,0.0063809282146394,0.3097274601459503,0.9505645036697388,0.0847404212495528,-0.053382696767787,-0.0359327101403962,0.0476400665938854,-0.0309135802090168,-0.0664888769388198,-0.06942889762111,-0.1948273251950741,-9.730293095111849,14918.0
10.1,2.0,52.0,22.017311096191406,21.0483455657959,-79.94650434114295,40.443441640185405,253.1744510345459,-0.0221242997795343,0.0051108309999108,0.3089933693408966,0.9507931470870972,0.0791244089989072,-0.0427213369875807,-0.0560115968612921,-0.1214358136057853,0.0144813321530818,0.0427956692874431,-0.1484126846585423,-0.3135246334969997,-9.654920146465304,14918.0
10.21,2.0,52.0,22.052370071411133,20.865455627441406,-79.94650397232589,40.443441557550734,253.13350025939943,-0.013311231508851,0.0015281635569408,0.3057662844657898,0.952012300491333,0.0628635082172952,-0.0265227223994546,-0.0734729816130436,-0.1570965349674224,-0.0951007828116417,-0.0704798996448516,-0.1434774427860975,-0.1861583529040216,-9.763481891155244,14918.0
10.31,2.200000047683716,48.0,22.028579711914062,22.16159439086914,-79.94650355966611,40.443441631541255,253.1012584381104,-0.0137789063155651,0.0020189080387353,0.3039681613445282,0.952580451965332,0.1057394138269411,-0.0380364924282754,-0.0892706462430878,0.1214834749698638,0.0687770545482635,0.0055477251298725,0.0932661411724984,-0.1155710030905902,-9.731809278130534,14918.0
10.5,2.299999952316284,48.0,22.07240104675293,21.18352508544922,-79.9465033577427,40.44344169583773,253.0828401260376,-0.0155885852873325,-0.0007796389982104,0.3062126040458679,0.9518352150917052,0.0815468545538827,-0.0058136458850309,-0.1097058271003317,-0.1231124848127365,0.002568888477981,-0.047559980303049,-0.1259798966255039,-0.191651263833046,-9.780883204936982,14918.0
10.7,2.5,51.0,22.08993148803711,19.82377243041992,-79.946503055662,40.44344184329919,253.0495912246704,-0.0073582441546022,-0.0039406921714544,0.3081908822059631,0.9512879252433776,0.0885617707951973,-0.0092442723941717,-0.1046074867044943,-0.0891067907214164,0.2449530512094497,-0.1259326636791229,-0.1464460559003055,-0.0637641973234713,-9.773883503079414,14918.0
10.82,2.5,52.0,22.061134338378903,20.905214309692383,-79.94650271422098,40.443442104676144,253.01145331192015,-0.0017053156625479,-0.0102952346205711,0.3157608211040497,0.9487815499305724,0.0599091668180144,0.0047568173536642,-0.1261393456766974,-0.0099115194752812,-0.0776050388813018,-0.0332081280648708,0.0313260147487744,-0.3505418939888478,-9.77859168112278,14918.0
11.01,2.5999999046325684,58.0,22.06989860534668,19.815820693969727,-79.94650268360614,40.44344212749961,252.9984723739624,-0.0066825365647673,-0.0115019055083394,0.3177715837955475,0.9480739831924438,0.0155826802027029,0.00691804164132,-0.1276500828119167,0.0240453258156776,-0.1271704882383346,0.0183350965380668,-0.2216017804853618,-0.4064289964735508,-9.680463123321534,14917.0
11.1,2.700000047683716,58.0,22.140012741088867,18.941125869750977,-79.94650243347431,40.44344241710637,252.9600345306397,-0.0132065517827868,-0.0044141430407762,0.3144522607326508,0.949171245098114,-0.0157400910865694,0.0249294131562615,-0.0902497808440871,-0.0304432306438684,-0.0892674997448921,-0.0028567886911332,-0.1707900977320969,-0.420422333702445,-9.938844566345216,14917.0
11.31,2.799999952316284,58.0,22.033588409423828,21.565210342407227,-79.94650246632472,40.443442425456354,252.9507123641968,-0.0167561415582895,-0.0005578006384894,0.3093496263027191,0.9508005380630492,-0.022660603357661,0.0305062526364979,-0.091675680765837,0.1663771271705627,0.059269830584526,0.0429048985242843,-0.2176793220452964,-0.0933570105582475,-9.813939853906632,14917.0
11.4,2.799999952316284,57.0,22.044857025146484,20.66666030883789,-79.94650230361974,40.44344268728206,252.91478602218632,-0.0121595067903399,0.0058145760558545,0.2903556525707245,0.9568238854408264,-0.015213247096022,0.0600329181905081,-0.0645742250883483,0.0561438612639904,0.1098935380578041,0.1508291363716125,-0.2229015068896115,-0.4416145070269704,-9.955761730670927,14917.0
11.6,2.900000095367432,57.0,22.038597106933597,20.72232246398925,-79.94650236256751,40.44344272274967,252.9083959274292,-0.0096458559855818,0.0077663036063313,0.2798548638820648,0.9599624872207642,-0.0162202691143692,0.0633501437614943,-0.0621004887423504,0.0276573244482278,0.0460825636982917,0.3274791240692139,-0.0604286942677572,-0.261381612829864,-9.917619173526765,14917.0
11.71,2.900000095367432,63.0,21.99352264404297,21.978702545166016,-79.94650217257781,40.443443099250906,252.8702017478944,-0.0014461758546531,0.0070980479940772,0.260640561580658,0.965408742427826,0.0127991720954808,0.0564135118763664,-0.0489530402137833,0.0359953343868255,0.1171643063426017,0.287056028842926,-0.1405799281597137,-0.2373586562275887,-9.908665916919707,14917.0
11.9,3.0999999046325684,67.0,22.09243392944336,19.48979759216309,-79.94650188830006,40.443443471709216,252.8335115127564,0.0031693466007709,0.0065093073062598,0.2515915334224701,0.9678064584732056,0.047302704913201,0.0649666674363888,-0.0261665870070766,0.0663985460996627,0.1313593834638595,0.1680256128311157,-0.2285704190097749,-0.19461304301396,-10.019730269908903,14917.0
12.01,3.0999999046325684,68.0,22.124988555908203,18.98883628845215,-79.94650185284034,40.44344357614533,252.828329246521,0.0036508908960968,0.0079694744199514,0.238222524523735,0.9711710810661316,0.0456090807730488,0.0218994389275216,-0.0335889888426019,0.056586030870676,-0.0539532266557216,0.0431810840964317,-0.1258938146475702,-0.0965425736457109,-9.824644936323166,14917.0
12.2,3.0,74.0,22.06363677978516,20.348588943481445,-79.94650173221744,40.44344403444604,252.7997724227905,0.003233948489651,0.0058780401013791,0.2327511906623841,0.9725131988525392,0.0601528816757997,0.0288021436942241,-0.0500144415740874,-0.0399415343999862,0.0072382045909762,0.0360648594796657,-0.1375286957155913,-0.0020496774930506,-9.70480742096901,14917.0
12.3,3.0,75.0,22.04110145568848,21.55725860595703,-79.94650170090986,40.443444395821096,252.76555458831788,0.0064565800130367,-0.0004427324456628,0.2270063161849976,0.9738718271255492,0.0556890789545436,0.0102800350950124,-0.0426444605258107,-0.1301711499691009,-0.032239269465208,0.0290406309068202,-0.1270499827712774,0.120747378654778,-9.68609750032425,14917.0
12.5,3.0999999046325684,73.0,22.03734397888184,21.28689956665039,-79.94650163722119,40.44344441868751,252.76207796859745,0.0074287564493715,-0.0025110505521297,0.2261103540658951,0.9740701913833618,0.0525312812455523,-0.0117519808660455,-0.0258109342156488,-0.0772232413291931,-0.0559242516756057,-0.0035267870407551,-0.0716192646045237,0.0551640120428055,-9.99536492228508,14917.0
12.6,3.0,73.0,22.12749290466309,19.704496383666992,-79.94650172331457,40.44344479098263,252.7277728729248,0.0059026451781392,-0.0030250078998506,0.2266542315483093,0.9739527702331544,0.0481539584156628,-0.013031735077167,-0.0163377055602809,0.0705009624361991,0.0301905646920204,0.0865822434425354,-0.0921118185762316,0.1166081438306719,-9.954865937232972,14917.0
12.81,2.799999952316284,72.0,22.07991409301757,20.11798858642578,-79.94650167534644,40.44344479287636,252.72705618667604,0.0062573393806815,-0.0020076257642358,0.2276273220777512,0.9737261533737184,0.0370698096593414,-0.0232002230154063,-0.0006204199383681,0.0733327940106391,0.0175124891102314,-0.0674689784646034,-0.0125164401903748,0.0292721254331991,-9.932455898523331,14917.0
12.9,2.799999952316284,71.0,22.02607536315918,20.52352905273437,-79.94650190311852,40.44344519081189,252.68629376220704,0.0039082467555999,-0.0024042502045631,0.2306326627731323,0.9730300903320312,0.0065231294142093,-0.0077851498067822,0.0133808423761562,0.0122322170063853,-0.0129297906532883,-0.0052196295000612,-0.1290636542066932,-0.0370882493443787,-9.898770089149476,14917.0
13.1,2.5999999046325684,71.0,22.11622428894043,19.092208862304688,-79.94650189598048,40.44344518212481,252.68858019638063,0.0043504158966243,-0.0021956313867121,0.2313883751630783,0.9728493094444276,-0.0062976153936614,-0.0138846308942874,0.0273170363699758,-0.0276140850037336,-0.0269108936190605,-0.017538022249937,-0.1076884630322456,0.0216283756121993,-9.869005422592164,14917.0
13.22,2.5999999046325684,69.0,22.091182708740234,19.704496383666992,-79.94650228376953,40.44344568360544,252.641627948761,0.0084377182647585,0.0009123181807808,0.2320036590099335,0.9726779460906982,-0.0182365119028965,0.0124150061888789,0.0097879257645516,0.0583151094615459,0.0600060708820819,-0.1072243228554725,-0.0293028141791001,0.0840670091472566,-9.894209260940553,14917.0
13.41,2.400000095367432,61.0,22.054872512817383,20.937021255493164,-79.94650264776985,40.443445937493365,252.60972515869145,0.0096681779250502,0.0040905736386775,0.2325426936149597,0.9725295901298524,-0.0413303986540384,0.0294358829866236,-0.0175701739284476,0.0442489460110664,0.0358823873102664,-0.1728718876838684,0.0152442508027888,0.113619220778346,-9.58307599246502,14917.0
13.5,2.299999952316284,64.0,22.16254997253418,19.00473976135254,-79.94650272692894,40.44344592884494,252.60113684463505,0.0079235574230551,0.0101519459858536,0.2350838482379913,0.971889853477478,-0.0195565958010609,-0.0121599140821547,-0.0592280654784743,0.0451545007526874,0.0439983420073986,-0.0982268825173378,0.0625579441431909,-0.0564383898535743,-9.538089854121209,14917.0
13.7,2.200000047683716,59.0,22.0673942565918,20.937021255493164,-79.94650288457547,40.4434462360277,252.58094898986815,0.0086428960785269,0.0114893168210983,0.2359526306390762,0.9716582298278807,-0.0017125365630417,0.0003341844135138,-0.0761346090442032,-0.0045083542354404,0.0380816422402858,0.0076409289613366,-0.0152535789390094,-0.0394311281573027,-9.602600430250169,14917.0
13.8,2.200000047683716,59.0,22.081167221069336,19.64088249206543,-79.94650356843128,40.44344627739335,252.5720760040284,0.0122018055990338,0.0090390052646398,0.2342566549777985,0.9720562696456908,-0.0118761614350603,-0.0050684318678293,-0.067738534382421,0.0061884233728051,0.0382565222680568,0.0283061787486076,-0.0046461747167632,-0.1068742017075419,-9.667664152979851,14917.0
14.0,2.0999999046325684,52.0,22.043603897094727,19.95895195007324,-79.94650356198879,40.44344626023817,252.5652357749939,0.0139797152951359,0.0086722830310463,0.2327941954135895,0.97238689661026,0.0043633054246698,-0.035521863841128,-0.0643560515186894,-0.0540748797357082,0.0737008526921272,-0.0339363925158977,-0.0049615132296457,0.1934059767052531,-9.829709794521332,14917.0
14.1,2.0,50.0,21.93467712402344,22.44785690307617,-79.94650399431188,40.44344641114356,252.54140106964115,0.01234070956707,0.0049461149610579,0.2284535765647888,0.9734640717506408,-0.0016371370326353,-0.0420481078324291,-0.0421373983428155,0.0047852019779384,-0.1066316440701484,0.1108952164649963,0.1518275225535035,0.0560386824142187,-9.869530502557756,14917.0
14.3,1.8999999761581416,39.0,22.073654174804688,19.31485939025879,-79.94650398722723,40.44344638310269,252.53834358978284,0.0081080859526991,0.0033921338617801,0.2271320819854737,0.973824381828308,0.0167075079274879,-0.051466020526174,-0.0159538648170194,0.0572105720639228,-0.1132078766822815,0.0208653975278139,0.0372530517471022,0.1461461028736085,-10.01506536126137,14917.0
14.4,1.8999999761581416,35.0,22.05362129211425,20.67461204528809,-79.9465040418964,40.44344628636813,252.50382248687745,0.0002590622752904,0.0025036123115569,0.2281481474637985,0.9736232161521912,0.0109141983858566,-0.0688976247680938,-0.0419594767640645,-0.0693477690219879,-0.1294967234134674,-0.0327195674180984,0.0467266443092376,0.0076602819096297,-9.871143164634708,14917.0
14.6,1.7999999523162842,30.0,22.06363677978516,20.01461410522461,-79.94650398631529,40.44344623842385,252.4987470321656,0.0006815051310695,0.002539011882618,0.2306505739688873,0.9730331301689148,0.0380873994186776,-0.0760345834120305,-0.0515000130780244,-0.0210316181182861,0.0572342798113822,-0.0993242338299751,-0.0618753593740984,0.209396868981421,-9.711597207784653,14917.0
14.7,1.7999999523162842,23.0,22.032337188720703,20.165699005126957,-79.94650393466856,40.44344608088397,252.46184889602665,0.0014831509906798,0.0033668205142021,0.2360305488109589,0.9717386960983276,0.045564947129881,-0.0825553407282056,-0.077074123853144,-0.0474299080669879,0.0157138835638761,-0.0730077624320983,0.0236277053807862,0.1098506080638617,-9.678833504319194,14917.0
14.9,1.7999999523162842,21.0,21.92716407775879,22.92496490478516,-79.94650394893056,40.44344598326912,252.43267170715333,-0.0010009522084146,-0.0004418396856635,0.2382600456476211,0.9712007641792296,0.0373419245821869,-0.0848721642222947,-0.0727263159091389,-0.0291764698922634,-0.0568239465355873,-0.0236082337796688,0.1142316983453929,-0.0500118110608309,-9.825921968221666,14917.0
15.01,1.7999999523162842,19.0,21.99352264404297,21.104007720947266,-79.94650377651335,40.44344590067524,252.4245526008606,-0.003692107507959,-0.0024940203875303,0.2402669638395309,0.9706966280937196,0.0541060880384077,-0.0635604419916801,-0.0060217934841803,0.0811033695936203,-0.0448314771056175,0.0252026543021202,0.0476897903624922,0.1669255449995398,-10.051435042619708,14917.0
15.2,1.8999999761581416,18.0,22.06614112854004,19.442087173461918,-79.94650383337873,40.44344576435283,252.39804570007323,-0.0054684760980308,0.0030434052459895,0.2405581772327423,0.9706146121025084,0.0412126497303334,-0.0571550169811381,0.007600102729664,0.0317133851349353,-0.0485821291804313,-0.058809507638216,0.0603126133326441,0.1772966052219271,-9.905571570396424,14917.0
15.31,1.8999999761581416,15.0,22.008546829223643,20.261119842529297,-79.94650363340145,40.44344561855321,252.36579958724977,-0.0084969699382781,0.0074338405393064,0.2437704801559448,0.9697673320770264,0.072745041620239,-0.0553949226629626,-0.0407186090745977,-0.0118939960375428,0.050585713237524,0.0223355609923601,0.0041420579329133,0.0822599454224109,-9.69012740135193,14917.0
15.5,2.0999999046325684,13.0,22.032337188720703,20.61894989013672,-79.94650352829672,40.44344561528964,252.36023251342772,-0.0067029232159256,0.0027598240412771,0.2467504739761352,0.969051957130432,0.0844091455412219,-0.0373129983430384,-0.0733115079127367,-0.1240968033671379,0.0042561804875731,-0.1175677329301834,-0.0109664849331602,0.0914317143056541,-9.471498838663102,14917.0
15.6,2.0999999046325684,12.0,22.0035400390625,20.730274200439453,-79.94650322606991,40.44344539974856,252.33541981506352,-0.0004955822369083,-0.0060034790076315,0.2511763870716095,0.967922568321228,0.0874336764879027,-0.0531075877373489,-0.1235175569507819,-0.1077592074871063,-0.025749571621418,-0.089614450931549,-0.0443267414392903,0.0648863967787474,-9.454226163625718,14917.0
15.8,2.0999999046325684,21.0,22.038597106933597,19.855579376220703,-79.94650309860965,40.44344540043562,252.3219892196656,-0.0007268356275744,-0.0058296006172895,0.2525467276573181,0.9675669074058532,0.0988309089480111,-0.0517167729559467,-0.1424149059989756,0.0654167234897613,0.0799919962882995,0.0088289305567741,0.1292659678682685,0.0181663305871188,-9.689691199064256,14917.0
15.9,2.200000047683716,24.0,22.06614112854004,20.388347625732425,-79.94650270287883,40.443445129783285,252.29641215133668,-0.0027794111520051,-0.0046544685028493,0.2538715898990631,0.9672228097915648,0.069209320484484,-0.0727957250069399,-0.137630025020508,0.0304182861000299,0.0615760721266269,-0.0096756620332598,0.0046788917155936,0.0953561553172767,-9.672051903605462,14917.0
16.1,2.299999952316284,26.0,21.950952529907227,21.62882423400879,-79.94650260286349,40.44344510185408,252.2820278816224,-0.0029681252781301,-0.0048558805137872,0.2550287842750549,0.9669166803359984,0.0435755036385368,-0.0576736320741232,-0.1485574387405675,-0.0611157678067684,-0.0909961983561515,-0.1184817180037498,0.1084367970004677,0.1159657997824251,-9.709657101631166,14917.0
16.21,2.299999952316284,29.0,22.017311096191406,20.579191207885746,-79.94650224300406,40.44344480338845,252.24036328125,-0.0075701414607465,-0.0039454153738915,0.2590216100215912,0.9658339023590088,0.0200585180992413,-0.0659491957765513,-0.0887999658852322,-0.0292021036148071,-0.0923546105623245,-0.0516613386571407,0.0725342168100178,-0.1349807440862059,-9.93012987613678,14917.0
16.41,2.400000095367432,34.0,22.033588409423828,20.01461410522461,-79.94650212985644,40.4434447429052,252.2116810493469,-0.0087302029132843,-0.0053146774880588,0.2610421776771545,0.9652733802795408,0.010931936614426,-0.0669301173282787,-0.0568188526999181,0.0704925060272216,0.045071043074131,0.1034344881772995,0.0354786113742739,-0.4739269150793553,-10.04283729672432,14917.0
16.5,2.400000095367432,37.0,21.91714859008789,22.43195343017578,-79.94650210760345,40.443444647132544,252.2018691711426,-0.0047104437835514,-0.005220319610089,0.2598143219947815,0.9656330943107604,-0.0477951711015068,-0.0398690009152678,-0.0502910422294316,0.0139313600957393,-0.0044778464362025,0.0540479458868503,-0.0655007746908813,-0.0932408428285271,-9.906952682733538,14917.0
16.7,2.400000095367432,41.0,21.98726272583008,20.937021255493164,-79.94650189506433,40.443444655123976,252.170900505066,-0.005267109721899,-0.0027897804975509,0.2557215988636017,0.9667322039604188,-0.0244680084436472,-0.0325682539144016,-0.0303760620625504,0.1350226104259491,0.0954831168055534,0.0909233763813972,-0.0473443569615483,-0.1873432180657983,-9.878020659685138,14917.0
16.81,2.400000095367432,44.0,22.06989860534668,19.919193267822266,-79.94650192774472,40.44344466704028,252.1295696907044,-0.0103388605639338,0.0050027812831103,0.2458726912736893,0.9692341089248656,-0.0378589423601919,-0.009328867718822,-0.0263501144442174,0.1326558738946914,0.0359141565859317,0.0327038280665874,-0.0365156173543073,-0.2530290845409036,-9.977429172992707,14917.0
17.01,2.5,50.0,21.94719696044922,22.55918312072754,-79.94650197178977,40.4434446409876,252.12614933776857,-0.0092425625771284,0.0062210876494646,0.2431329041719437,0.969929039478302,-0.0566545977068157,-0.0092407789814281,-0.0385074465747698,-0.0794218853116035,0.1238085031509399,-0.0756762847304344,-0.1590188851766288,-0.1569209042005241,-9.734242304563525,14917.0
17.1,2.400000095367432,51.0,21.984758377075195,20.475818634033203,-79.94650195039814,40.443444714632456,252.0788866691589,0.002389112021774,0.0056697782129049,0.2372796833515167,0.9714219570159912,-0.0354723136842862,0.0009188335347471,-0.0384472241756886,-0.0432595759630203,-0.019878014922142,0.0448693819344043,-0.0853207800909876,-0.2757994213700294,-9.771236468553544,14917.0
17.31,2.400000095367432,52.0,21.90087127685547,22.84544563293457,-79.94650196611586,40.44344470594965,252.07493464279176,0.0014180850703269,0.0104207238182425,0.232933908700943,0.9724357128143308,-0.0034354913245166,-0.0063221266174125,-0.0367824553087553,0.1095628514885902,0.0142755918204784,0.119034320116043,0.0563207603199407,-0.0645129332877695,-9.896545808315278,14917.0
17.4,2.400000095367432,49.0,21.915895462036133,21.946895599365234,-79.94650187974989,40.44344480212597,252.03814856338505,-0.0039097932167351,0.0155260441824793,0.2287095934152603,0.9733631014823914,0.0513630030724257,-0.0171122360106624,-0.002938110605009,-0.0021067310590296,-0.0412645190954208,0.0320043861865997,-0.0463440125668421,-0.085292037371546,-9.991393493413923,14917.0
17.6,2.400000095367432,44.0,21.864561080932614,23.95869445800781,-79.94650183046795,40.44344480752802,252.03749100494383,-0.0052320826798677,0.0126646095886826,0.2303277254104614,0.9730166792869568,0.0729422196949536,-0.0243227296141707,-0.0039861935403007,-0.0574169643223285,0.0212885979562997,-0.1375334709882736,-0.1626074858754873,0.2035293342545628,-9.806060730814934,14917.0
17.71,2.400000095367432,44.0,21.895862579345703,21.86737823486328,-79.94650155835296,40.44344499191068,251.9932190589905,-0.000655387644656,0.0012720372760668,0.2381471991539001,0.9712280631065368,0.1395294785710356,-0.0183506465635538,0.0176188915603134,-0.0272866282612085,-0.0177950467914342,-0.0908510610461235,-0.1141407558694482,0.0229260006733238,-9.898763072490691,14916.0
17.9,2.5,39.0,21.962221145629886,20.730274200439453,-79.94650127153474,40.44344488097534,251.94625107574464,-0.000545778661035,-0.0032318048179149,0.2439408153295517,0.969784677028656,0.1396593215203894,-0.0443066876606792,0.0029148065284584,-0.0557072833180427,-0.0337814055383205,-0.1690145283937454,-0.0216213954985141,0.2143030118197202,-9.880023915767673,14916.0
18.0,2.400000095367432,33.0,22.004791259765625,20.75412940979004,-79.94650092456735,40.44344492641185,251.9444319419861,-0.0007731132791377,-0.0088689662516117,0.2566216588020325,0.9664710164070128,0.1405679011634663,-0.0521615978659917,-0.0278366332103533,0.0017976954113692,0.0427408181130886,-0.142434611916542,-0.041867699464783,0.2075820942409336,-9.723275851607324,14916.0
18.2,2.400000095367432,31.0,21.94719696044922,21.6129207611084,-79.94650054130278,40.44344507961031,251.902481716156,0.001976151484996,-0.0100952126085758,0.2626194059848785,0.9648447036743164,0.141001991144871,-0.0588919888854253,-0.049600851108471,-0.0961254611611366,-0.0006171399145387,-0.157557874917984,-0.1340095763839781,0.1409405551850796,-9.575814335346225,14916.0
18.31,2.400000095367432,30.0,21.96973419189453,20.420154571533203,-79.94650011608543,40.44344503765208,251.8690625839233,0.0033144005574285,-0.0148743642494082,0.2686877250671387,0.9631068110466005,0.1183050052660097,-0.0789524264184197,-0.0813730240070517,0.0377048328518867,-0.0089962258934974,-0.10895636677742,0.0324982901243493,0.0462599497055634,-9.513184223771097,14916.0
18.5,2.200000047683716,24.0,21.952205657958984,21.15171813964844,-79.9464999594913,40.443445025456654,251.86050764846803,-0.0016080918721854,-0.0158976130187511,0.2686598300933838,0.963102638721466,0.0974481727686976,-0.0788629384451423,-0.0955915412159124,0.0290428511798381,-0.1083534285426139,0.0091303326189517,0.0148678979650139,0.135235235011205,-9.669280908107758,14916.0
18.6,2.200000047683716,18.0,21.93342399597168,22.654603958129893,-79.94649967051483,40.44344507621364,251.8216540031433,-0.0038472465239465,-0.0149071794003248,0.2624660134315491,0.9648184776306152,0.074410496286865,-0.0593419283252854,-0.1078874378603063,0.0028054416179656,0.0650653690099716,0.0839563682675361,-0.0834359758067876,0.1780090519040823,-9.623329394459724,14916.0
18.8,2.0999999046325684,8.0,22.007295608520508,19.22739028930664,-79.94649956525976,40.44344506753943,251.8122464828492,0.0004141414829064,-0.0139171099290251,0.2585084140300751,0.9659086465835572,0.0634897350928677,-0.0502911699122055,-0.0806336481082846,0.0136766573414206,0.1261556446552276,0.0216886028647422,-0.0038499027164652,0.2466687757149339,-9.995311127901076,14916.0
18.9,2.0999999046325684,7.0,21.96722984313965,21.207380294799805,-79.94649944957587,40.443444983876304,251.76971928405763,0.0077504864893853,-0.0123211639001965,0.2547993659973144,0.966884434223175,0.0345313150538461,-0.0349858730933159,-0.0780050718490634,0.0439027473330497,-0.0269875805824995,0.0354722626507282,0.0494940446829423,0.1837570476159453,-9.859753957986833,14916.0
19.1,2.200000047683716,10.0,22.01605987548828,20.14979553222656,-79.94649939867945,40.44344496987734,251.7613603286744,0.0062836240977048,-0.0124576948583126,0.2553617656230926,0.9667449593544006,0.0179224337241516,-0.0324865779788924,-0.0921140751628206,-0.0459308214485645,-0.0715865567326545,-0.1438203155994415,0.100781092364341,0.2675602377019823,-9.634601656794551,14916.0
19.2,2.200000047683716,10.0,21.9209041595459,21.787860870361328,-79.9464993930168,40.44344494461051,251.7107712440491,0.0065765627659857,-0.0168622266501188,0.2597398459911346,0.9655090570449828,-0.0062543520980794,-0.0484637535286826,-0.1214526998231625,-0.0324313007295131,0.0806464329361915,-0.1287326514720916,-0.0185050077131018,0.2500323134288192,-9.580049473643305,14916.0
19.3,2.299999952316284,10.0,21.940937042236328,21.597017288208008,-79.94649941024925,40.44344501341154,251.66647068786625,0.0102854426950216,-0.0137218898162245,0.2638016939163208,0.96442449092865,-0.0105087870299893,-0.0409385982518213,-0.1184100481817067,0.0246702507138252,0.0696761906147003,-0.108013853430748,-0.018698582528159,0.2474553724005818,-9.766261657476424,14916.0
19.5,2.400000095367432,10.0,22.06989860534668,18.38450050354004,-79.94649938089759,40.4434449232084,251.6412936859131,0.0087449820712208,-0.0126699050888419,0.2747434973716736,0.9613943696022034,-0.039028897734647,-0.0709032147397723,-0.1440653018689445,-0.0025024390779435,0.0195105876773595,-0.1116766780614852,-0.0669687547255307,0.0603561476804316,-9.739535204172135,14916.0
19.71,2.5999999046325684,12.0,21.918399810791016,21.74810218811035,-79.94649952170793,40.443444990244544,251.5953404121399,0.006332173012197,-0.0152599699795246,0.2783557772636413,0.9603359699249268,-0.0642025650877437,-0.0639791036064711,-0.1793851720804132,-0.1075135692954063,-0.0415345355868339,-0.1128533780574798,-0.0423213246278464,0.185856307670474,-9.480014138817786,14916.0
19.8,2.700000047683716,12.0,21.95721244812012,21.18352508544922,-79.9464995001983,40.44344502495424,251.53040615844728,0.0067853955551981,-0.0165944658219814,0.2828446328639984,0.958998203277588,-0.0956512511711183,-0.0756769506854589,-0.1918303167786178,-0.0801048725843429,-0.0758656114339828,-0.0567178279161453,-0.0596837635617703,-0.0975565173849463,-9.601474841237067,14916.0
20.0,2.799999952316284,10.0,21.918399810791016,20.33268547058105,-79.94649954718143,40.44344491539733,251.51154629516603,0.0063956566154956,-0.0146946627646684,0.2820789813995361,0.959257423877716,-0.1284893057620284,-0.0886252965061799,-0.1744404063059131,0.0298325214534997,-0.0756205394864082,-0.0737803950905799,-0.151714433748275,0.2851829051412642,-9.891965099573136,14916.0
20.1,2.900000095367432,9.0,21.905879974365234,21.97075080871582,-79.9464996658737,40.443445041963415,251.45353428649904,-0.0004292301891837,-0.0074463905766606,0.27457395195961,0.9615371227264404,-0.1318846736686061,-0.0593078505513114,-0.1373451053275579,0.1915567219257354,-0.0470908768475055,0.1573115736246109,-0.0011399375321343,0.1242565485835075,-10.069128717184068,14916.0
20.3,2.900000095367432,15.0,21.93968391418457,21.040393829345703,-79.94649976534387,40.44344492647626,251.43962160873411,-0.0048616034910082,-0.0028139508794993,0.2709879875183105,0.9625663161277772,-0.1424895416827983,-0.0675388087320636,-0.14091275126031,0.12677001953125,0.0141488416120409,0.0955388993024826,-0.0820901020802557,-0.0915532633010298,-9.812169317007063,14916.0
20.41,2.900000095367432,18.0,21.751876831054688,24.04616355895996,-79.94650034011846,40.44344492055462,251.37723795700077,-0.0061237318441271,0.0027224482037127,0.2681243717670441,0.9633610844612122,-0.1834518169869387,-0.0407471974251731,-0.1555153742616913,0.0965410768985748,0.1446564495563507,-0.1063636392354965,-0.1888550522178412,0.1152900078333914,-9.700918437838554,14916.0
20.6,3.0,23.0,21.929668426513672,21.98665428161621,-79.94650050157429,40.44344479955807,251.3623878173828,-0.0020380292553454,0.0051211882382631,0.2707616686820984,0.9626306295394896,-0.1841045960842789,-0.0475688468039277,-0.1464208664564487,0.0910663679242134,0.1370581239461898,-0.040298718959093,-0.1292778267525136,-0.1221439404319971,-9.860707054138183,14916.0
20.7,2.799999952316284,26.0,21.843276977539062,22.805686950683597,-79.94650083040996,40.44344507216424,251.30425230789183,0.0008298800676129,0.0077560665085911,0.2727473676204681,0.9620541334152222,-0.1696983527221841,-0.0018893616499411,-0.1462392604472538,-0.0481297522783279,0.0545059219002723,-0.1953928172588348,-0.0883853423595428,-0.0140990439243614,-9.808090884089472,14916.0
20.9,2.799999952316284,33.0,21.86205673217773,22.12978744506836,-79.9465014872368,40.4434452417664,251.22947232055665,0.0019030437106266,0.0039896611124277,0.2731457054615021,0.9619625806808472,-0.1707246945249091,0.0347063534208302,-0.1699578312880062,-0.0057975063100457,-0.0713111460208892,0.0107974372804164,-0.1110752708371728,-0.1799558823555708,-9.629764840006828,14916.0
21.0,2.700000047683716,35.0,21.753129959106445,24.96857070922852,-79.94650167890559,40.44344518184568,251.2112037353516,0.0001953336468432,0.0044645387679338,0.2692308127880096,0.9630653858184814,-0.1667479064589944,0.0215663264317585,-0.1957657799424483,0.0256983917206525,0.0303964093327522,0.1480860710144043,-0.082464534016326,-0.205219910480082,-9.596145688891411,14916.0
21.1,2.5,37.0,21.801958084106445,24.133634567260746,-79.94650231084628,40.44344537819188,251.1651207618713,-0.0061636893078684,0.0142543148249387,0.2510626018047333,0.9678463339805604,-0.1513659104385568,0.0281568352554575,-0.1180046249072544,0.1473740190267563,-0.0060416115447878,0.1732731759548187,-0.1555629431828856,-0.2125425430946052,-10.243269324302672,14916.0
21.3,2.299999952316284,34.0,21.845781326293945,22.90906143188477,-79.94650271207958,40.44344539101424,251.1012727432251,-0.0094732642173767,0.0227311365306377,0.2368975132703781,0.971222460269928,-0.0836275338416277,0.0322968138916147,-0.0334777399524753,0.1747570931911468,-0.0553797855973243,0.141041487455368,-0.1314305340126156,-0.0219078245549462,-10.35587500333786,14916.0
21.4,2.0999999046325684,34.0,21.91965103149414,21.207380294799805,-79.94650280102115,40.44344538616184,251.10058895874025,-0.0124247930943965,0.0239613614976406,0.2344990223646164,0.9717416167259216,-0.046484074484374,0.0270138784879097,0.0123343855156087,0.0289882998913526,-0.0331887453794479,0.0380446389317512,-0.1532590671256184,-0.0548377830907702,-10.221605390310287,14916.0
21.6,2.0999999046325684,33.0,21.929668426513672,21.28689956665039,-79.94650283282192,40.44344539266319,251.10324255752565,-0.0093714278191328,0.0264695659279823,0.2346354275941849,0.971677839756012,0.0021241379741788,0.00988650444569,0.038100581768072,0.0600569806993007,0.1218435242772102,-0.0581946559250354,-0.2093141126073897,0.0123705692903604,-10.096042281389236,14916.0
21.8,2.0,34.0,21.884593963623047,21.85942649841309,-79.94650298360584,40.44344538632072,251.04551235961915,-0.0006287051946856,0.0243783816695213,0.2445880770683289,0.9693204164505004,0.0763402583827252,-0.0017867226525069,-0.0212831152612572,0.0279042515903711,0.0124021517112851,-0.1613477319478988,-0.032093151169829,0.0525795335881412,-9.660125922560692,14916.0
21.9,2.0,36.0,21.819488525390625,23.56905746459961,-79.94650297776754,40.443445267879184,250.99564043807985,-1.8906242985394783e-05,0.0231183525174856,0.2512349486351013,0.9676499962806702,0.1032655677646658,-0.0198555330062048,-0.0472245838029721,0.0329864770174026,0.058197621256113,-0.1051213890314102,0.0235223412956111,-0.0051928939484059,-9.761230713129043,14915.0
22.01,2.0,34.0,21.78818702697754,23.489540100097656,-79.94650266830573,40.44344534976882,250.9898735694885,-0.0026996464002877,0.0143450871109962,0.2633807361125946,0.9645816087722778,0.1668349252200907,-0.0354288634924219,0.0222513257123219,-0.1634145826101303,-0.1264028251171112,-0.1986685246229172,-0.0308162768720649,0.0587502647191286,-10.238044252395632,14915.0
22.2,2.0,30.0,21.838268280029297,22.535327911376957,-79.94650228457608,40.4434451001364,250.9543039016724,-0.0032818161416798,-0.0001135644706664,0.274505227804184,0.9615800976753236,0.1807307078565412,-0.0638400592384777,0.083287501152628,-0.1348880678415298,-0.0869649350643158,-0.1650977730751037,0.0284362294105812,0.1246252429392188,-10.260318635702133,14915.0
22.3,2.0999999046325684,23.0,21.849536895751957,22.83749389648437,-79.94650197163098,40.44344494860407,250.9166561775208,-0.00330909807235,-0.0039718113839626,0.2783561050891876,0.9604640603065492,0.1624934003137739,-0.0780108916772725,0.087179787509457,-0.1255000531673431,-0.079937145113945,-0.1215742006897926,-0.0952716539148241,0.1947676287777722,-10.08025713801384,14915.0
22.5,2.200000047683716,18.0,21.8670654296875,20.8813591003418,-79.94650174961288,40.44344497436904,250.9263507537842,-0.0051550138741731,-0.0072585260495543,0.2804662883281708,0.9598225951194764,0.1903674000891636,-0.0753326277300899,0.1063238172113448,0.1259306073188781,0.0382399447262287,0.0921618640422821,-0.0106505297217518,-0.0881382426805794,-10.05388853430748,14915.0
22.7,2.299999952316284,12.0,21.954710006713867,20.388347625732425,-79.94650131982466,40.443444809743816,250.8832132034302,-0.0101292785257101,-0.0076932213269174,0.2774710357189178,0.960649847984314,0.173921481784039,-0.0631893422002951,0.0969251528975634,0.072244644165039,0.0465916469693183,0.0128598744049668,-0.0045585898216813,0.1665930942445993,-9.89259075164795,14915.0
22.8,2.400000095367432,9.0,21.91339111328125,21.167621612548828,-79.9465011049502,40.4434448298963,250.8918339424133,-0.0107493810355663,-0.0096065532416105,0.2752664089202881,0.9612599611282348,0.171111281744973,-0.0451680150827037,0.0618420097124507,-0.080701895058155,-0.1045286804437637,0.0802306160330772,-0.0725081327464431,0.2094820921495556,-9.559535102248192,14915.0
22.9,2.5999999046325684,3.0,21.89461135864257,22.320629119873047,-79.94650084768456,40.44344455787413,250.82650105285649,-0.0051144957542419,-0.0096518816426396,0.2732133269309997,0.9618915319442748,0.1502176142526113,-0.0459293043285022,-0.0494492986843391,-0.0219712071120739,0.139939084649086,-0.0224376879632473,0.0414969403110444,0.0412576795555651,-9.550487705469132,14915.0
23.1,2.5999999046325684,2.0,21.98726272583008,19.6965446472168,-79.94650003874034,40.44344487430222,250.77262369918824,-0.0014042304828763,-0.0148705691099166,0.2790848016738892,0.9601503014564514,0.1837675284257023,-0.0293225968682895,-0.08399888150925,0.0444041937589645,0.031172227114439,0.0458842366933822,0.1017461935803294,0.3346846105903387,-9.675550877451895,14915.0
23.3,2.799999952316284,359.0,21.89210700988769,22.48761749267578,-79.94649986078555,40.44344492354335,250.76321617889408,0.002855798928067,-0.0179748106747865,0.2840620577335357,0.9586331844329834,0.1256037735958175,-0.0360011425138702,-0.1140953780842412,-0.2418877482414245,-0.0439484044909477,-0.2267981469631195,-0.1449436869286,0.1118776641413569,-9.51471151649952,14915.0
23.41,2.799999952316284,354.0,21.92716407775879,21.501596450805664,-79.94649931643471,40.44344490477358,250.723662059784,0.0046058720909059,-0.0211760215461254,0.2860683500766754,0.9579641222953796,0.1133203341765959,-0.0716698126992779,-0.1160235292279128,-0.1722847074270248,-0.0723216608166694,-0.0743830651044845,-0.067521362286061,0.0333359814248979,-9.680333315134051,14915.0
23.5,2.799999952316284,350.0,21.87833404541016,21.49364471435547,-79.94649904395858,40.443444881516406,250.6956826858521,-0.003406916745007,-0.0250546354800462,0.2768929004669189,0.9605681300163268,0.042698976072802,-0.0630399514211369,-0.172323440405348,-0.0057514645159244,-0.2020913809537888,0.0993254631757736,-0.1050630723405629,0.274922046661377,-9.487081083655358,14915.0
23.7,2.799999952316284,350.0,21.912139892578125,22.04231643676757,-79.9464988715428,40.44344474573935,250.6531769447327,-0.0126269748434424,-0.0162503942847251,0.2616950571537018,0.9649312496185304,0.0093574563340706,-0.0433012132483492,-0.184488280680733,0.1668296009302139,-0.0618896931409835,0.1834430843591689,-0.1058641226124018,0.1978180115483701,-9.505118574500084,14915.0
23.8,2.799999952316284,350.0,21.86831855773925,22.757976531982425,-79.94649874620991,40.44344477315328,250.62666432189943,-0.0150209497660398,-0.0120529532432556,0.2593909800052643,0.965580403804779,-0.0056114981371895,-0.0142999141352228,-0.1434112676711076,0.0593879036605358,0.0133770974352955,-0.0397879555821418,-0.1998742762953043,0.1095077419560402,-9.802357104420665,14915.0
24.0,2.900000095367432,350.0,21.82574844360352,22.654603958129893,-79.94649873833698,40.44344477053383,250.61393467712404,-0.0168182477355003,-0.006572910118848,0.2606659233570099,0.9652602672576904,0.0101205806629755,0.0097095196501882,-0.1074292761339234,0.1255677193403244,-0.0238572433590888,-0.1403866857290268,-0.0457113940827548,0.2012858489714563,-10.124093713760375,14915.0
24.2,2.799999952316284,346.0,21.88083839416504,22.034364700317383,-79.94649872609695,40.44344479879799,250.56987730789183,-0.015404182486236,-0.0058848168700933,0.2633975744247436,0.9645465016365052,0.0342791616048832,0.0552399326044535,-0.0211264848657544,-0.170823335647583,-0.0171778984367847,0.0776817426085472,-0.1636560743674636,0.1587561259232461,-10.157591242790224,14915.0
24.3,2.799999952316284,344.0,22.001035690307614,19.322811126708984,-79.94649871172534,40.44344487089696,250.56792465972904,-0.0092297410592436,-0.0111705148592591,0.2624865174293518,0.9648269414901732,0.060428029195992,0.0764304207698496,-0.01405860676371,-0.1631283164024353,0.1052464991807937,-0.0892202854156494,-0.0056612833309918,0.3764138863608241,-9.945962966680527,14915.0
24.4,2.700000047683716,344.0,21.93342399597168,20.626901626586918,-79.9464986473341,40.44344499236156,250.5298897438049,-0.0022530225105583,-0.0154064260423183,0.262473464012146,0.9648135900497437,0.0702092262409786,0.0973625964786971,-0.035497548212647,-0.1058249473571777,0.1071885526180267,-0.0477181635797023,0.0199077775888145,0.2209015033207834,-9.716015363931657,14915.0
24.61,2.700000047683716,346.0,21.948448181152344,20.603046417236328,-79.94649858552269,40.443445021291325,250.49547163772584,0.0039000322576612,-0.0213638041168451,0.2686925828456879,0.9629812240600586,0.0439322161462896,0.0986944582502392,-0.0528482397511088,-0.0521792434155941,0.0780543014407157,-0.1375887989997863,0.0316112263966351,0.1541362408362329,-9.702871992588044,14915.0
24.7,2.799999952316284,348.0,21.90337562561035,20.30883026123047,-79.94649860760279,40.44344511230176,250.48963515090944,0.0069257956929504,-0.022284135222435,0.2710595726966858,0.9622796773910522,0.021107815244216,0.0932045005827219,-0.061133507692906,-0.0663561299443245,0.0649964660406112,-0.0045633516274392,-0.0480845276685431,0.2957283220253885,-9.728104482293132,14915.0
24.9,2.700000047683716,349.0,21.858301162719727,20.706418991088867,-79.9464985955342,40.44344513258308,250.4555389099121,0.0102134235203266,-0.02127998881042,0.2712436616420746,0.9622213244438172,0.0079749862564985,0.0826226165974017,-0.0667090238797886,0.0031522859353572,0.0443259328603744,0.0101137608289718,-0.0129016232374124,0.2918956366181374,-9.676417434811592,14915.0
25.1,2.700000047683716,352.0,21.89335823059082,21.85147476196289,-79.94649870132041,40.44344525693767,250.4401971511841,0.0081169549375772,-0.0199975222349166,0.2698809802532196,0.9626518487930298,-0.037946636399013,0.0668394094353667,-0.0962989436668676,0.0277798864990472,0.0518381260335445,0.053563755005598,0.0182728572632186,0.0622389328479766,-9.609478510022164,14915.0
25.2,2.700000047683716,355.0,21.87457847595215,21.756053924560547,-79.94649869377206,40.44344534635067,250.3927373104096,0.0060574645176529,-0.0183189362287521,0.2700747549533844,0.9626460671424866,-0.0747431862184961,0.0535274931787088,-0.1443166817582757,-0.0004503584932535,0.0501370094716548,0.0314164981245994,-0.0147005122806876,0.072157217580825,-9.514391089081764,14915.0
25.3,2.700000047683716,353.0,21.844528198242188,22.535327911376957,-79.94649876648725,40.44344539528692,250.3706447296143,0.0095049673691391,-0.01670553535223,0.2732268869876861,0.9617576003074646,-0.0893495377508232,0.0497711722803827,-0.1172301741202655,0.072980873286724,0.1523675918579101,-0.0665785521268844,-0.0010728293121792,0.0509359497902914,-9.841349261999133,14915.0
25.5,2.700000047683716,355.0,21.858301162719727,21.501596450805664,-79.94649889738022,40.44344538053219,250.3594788722992,0.0143465241417288,-0.0151175772771239,0.2791366279125213,0.960025191307068,-0.1298906162200161,0.0368303393495205,-0.0984217794111004,-0.0625120103359222,0.0315772332251071,-0.1317145973443985,0.0293785995757207,0.1387156348116696,-9.957794222831726,14915.0
25.7,2.700000047683716,1.0,21.83075523376465,21.787860870361328,-79.94649924089802,40.443445532571225,250.3172632865906,0.0219368375837802,-0.0148664899170398,0.2926639318466186,0.9558481574058532,-0.1514830301555432,0.0192137805816158,-0.0565677622162303,0.1335636228322982,0.0568297877907753,-0.1148397773504257,0.0172468741983175,0.0320279455790296,-9.934219418764116,14915.0
25.81,2.700000047683716,5.0,22.04986572265625,18.18570709228516,-79.9464994206837,40.443445448869454,250.3122715168,0.0200826097279787,-0.0118492022156715,0.2972679734230041,0.9545093178749084,-0.1889069332723987,-0.0069177291752917,-0.0295803847622854,0.2222291678190232,-0.0140240797773003,-0.0154929906129837,0.0839840243663638,-0.0311921043740585,-10.03880622625351,14915.0
25.9,2.799999952316284,13.0,22.00979995727539,19.847627639770508,-79.94649993437612,40.44344567265533,250.28391901779176,0.0085745323449373,-0.0021103685721755,0.2958396375179291,0.9551967978477478,-0.201298921581413,-0.0045347044167454,-0.0681126740219823,0.2231886237859726,-0.0154333058744668,0.1200093403458595,-0.0253553086426109,-0.182336850296706,-9.532975879311564,14915.0
26.11,2.799999952316284,14.0,21.955961227416992,20.75412940979004,-79.94650014341369,40.4434455494301,250.2758485488892,0.0037635604385286,0.0008662046748213,0.2925590574741363,0.9562397003173828,-0.2370940227972227,-0.0218588537447859,-0.0822016430481613,-0.0279187709093093,-0.1110298335552215,0.0372836999595165,-0.0288183495216071,-0.1422810659185052,-9.70345554471016,14915.0
26.2,2.700000047683716,21.0,21.945945739746094,19.89533805847168,-79.946500564396,40.44344585002133,250.2525948696137,0.0009602209902368,0.0038874512538313,0.2850831151008606,0.9584944844245912,-0.2241437010914722,0.0138547773133463,-0.0840680289902002,0.0773353725671768,-0.013975434936583,0.0797793120145797,-0.1139205168373882,0.1001037655211985,-9.672231413125992,14915.0
26.3,2.700000047683716,28.0,21.84703254699707,22.59894180297852,-79.9465010536519,40.44344605217322,250.2114412002564,-0.0021053024102002,0.0167452730238437,0.2681332528591156,0.9632340669631958,-0.1872526703070185,0.0347615987313136,-0.0820671651407044,0.0860048532485961,-0.0308837257325649,0.2255147695541381,-0.1712495244294405,-0.1236593560036272,-9.833884706497194,14915.0
26.51,2.5999999046325684,24.0,21.888351440429688,21.692440032958984,-79.94650139603156,40.44344593317345,250.19970289993287,-0.002141952747479,0.020810792222619,0.2573736011981964,0.9660854935646056,-0.1211846911699107,-0.0023105868099943,-0.0385832536534613,0.0084975035861134,0.0819769278168678,0.0606987066566944,-0.1476346943434328,0.0767098505515605,-9.99970004796982,14915.0
26.61,2.700000047683716,29.0,21.90963554382324,20.30883026123047,-79.94650213469565,40.44344613262432,250.17711583900453,0.0001407542586093,0.0211775675415992,0.255044162273407,0.9666975140571594,-0.117461308791299,0.0296034879476284,-0.0073273545449661,0.0377697832882404,0.0690119788050651,0.0699490159749984,-0.1453823560103774,-0.1391241541877389,-10.052120336294175,14915.0
26.8,2.700000047683716,32.0,21.93968391418457,20.91316604614257,-79.94650225313362,40.443446105579696,250.1779953651429,0.0025714156217873,0.0203225165605545,0.2557520866394043,0.9665254354476928,-0.0774489956998659,0.0134328413097876,0.0127857350730228,0.0446808151900768,0.023764094337821,0.0075329816900193,-0.0564750126097351,-0.1826382925361395,-9.99109528541565,14915.0
27.01,2.5999999046325684,36.0,21.844528198242188,22.535327911376957,-79.94650284890358,40.44344608703751,250.128997247696,0.0016455792356282,0.015556520782411,0.2593905627727508,0.9656458497047424,-0.0382055956251362,-0.0011799647778786,-0.0104679169640663,-0.0397067405283451,-0.0198428370058536,-0.064791589975357,-0.1177681400533765,0.0783099593874067,-9.798535364270212,14915.0
27.11,2.5,42.0,21.954710006713867,19.4659423828125,-79.946503177565,40.44344608449536,250.08403746414183,0.0015105518978089,0.0123560214415192,0.2662401795387268,0.9638263583183287,0.0147063082573856,-0.0159246544473395,-0.0066059277573348,-0.0591110773384571,-0.1018988266587257,-0.1044877097010612,-0.1812586968205869,0.164530068654567,-9.84606562614441,14915.0
27.21,2.400000095367432,38.0,21.958465576171875,20.436058044433597,-79.94650312035114,40.44344608289794,250.0829667263031,0.0005555888055823,0.0116668073460459,0.2697069048881531,0.9628716707229614,0.0599877098214126,-0.0341621889780455,-0.0146482890574586,-0.0415866076946258,0.0383380204439163,-0.1116104423999786,0.00201359834522,0.1173128520883619,-9.776926394104958,14915.0
27.41,2.400000095367432,35.0,21.88960266113281,21.167621612548828,-79.94650311540089,40.44344601397237,250.04937068748475,0.0006506369682028,0.0093490416184067,0.2728108763694763,0.962022066116333,0.085828056587771,-0.0539106174954408,-0.0233378798061578,0.0108742266893386,0.0133005073294043,-0.0210236273705959,-0.0587281732074916,0.0137552459165453,-9.729725915193557,14915.0
27.6,2.200000047683716,27.0,21.821990966796875,22.209304809570312,-79.94650281579322,40.44344602664873,250.0427083187104,0.0012881649890914,0.0040279803797602,0.2774170637130737,0.9607403874397278,0.1336019742798792,-0.0654305244512108,-0.0389521204919225,-0.074614442884922,-0.0895080268383026,-0.0754715800285339,-0.0163315302750561,0.1538564698398113,-9.699540249109267,14915.0
27.71,2.0999999046325684,23.0,21.83576393127441,22.14569091796875,-79.94650283768787,40.4434458789425,250.0133825950623,9.566330118104815e-05,-0.0024422747083008,0.2783543169498444,0.9604753851890564,0.1166875517488667,-0.0700933915308548,-0.0337176433394232,-0.1794118881225586,-0.1452157348394394,-0.0398049317300319,0.013530710551422,0.1327082602679729,-9.755330872535708,14915.0
27.8,2.0999999046325684,14.0,21.859554290771484,21.25509262084961,-79.94650264077092,40.44344567968058,249.9878307991028,-0.0048377304337918,-0.0117462379857897,0.278165340423584,0.9604492783546448,0.1127253165605731,-0.0761958189542686,0.0157952476097148,-0.0560685098171234,-0.1051947996020317,0.0391492471098899,-0.0017365590948611,0.1868490187078714,-9.971419404745102,14914.0
28.01,2.0,13.0,21.87708282470703,21.366416931152344,-79.94650233298545,40.44344571236343,249.99374787139888,-0.0111639192327857,-0.0105378292500972,0.276133269071579,0.9609968066215516,0.1234141202014069,-0.0340724376310794,0.0346155022780313,0.0226871185004711,0.0790994688868522,-0.0383455343544483,-0.0050429585482925,0.1883250752091408,-9.964856489896777,14914.0
28.11,2.0999999046325684,7.0,21.8132266998291,22.17749786376953,-79.94650230812738,40.44344545588182,249.96073500442503,-0.0094423498958349,-0.008831855840981,0.2748584747314453,0.9613977670669556,0.0944560261909544,-0.0380407524672702,0.0336891369352889,-0.0219044275581836,0.0499026849865913,-0.0269574467092752,0.0737342664599418,0.1538613851554691,-9.879445041418077,14914.0
28.3,2.0,4.0,21.89085388183593,21.135814666748047,-79.94650219397926,40.443445490213634,249.9651147537232,-0.0079075712710618,-0.0081046996638178,0.2756753265857696,0.9611841440200806,0.1050040268067482,-0.0038308174762683,0.0474894278241335,0.0210981667041778,0.0004158413503319,-0.0296316966414451,0.1615978727303445,0.1702176918648183,-9.945796905755998,14914.0
28.5,2.0,0.0,21.875829696655277,20.61894989013672,-79.94650173421272,40.44344530690022,249.9423376731873,-0.0058460882864892,-0.0086911041289567,0.2775265574455261,0.9606608748435974,0.1374615779595447,-0.0170635171796992,0.0680799979310501,0.0731881037354469,0.0573087818920612,0.0282576736062765,0.0102759561734274,0.0976032402925193,-10.000566605329514,14914.0
28.61,2.200000047683716,357.0,21.97974967956543,18.957029342651367,-79.94650139833456,40.44344511383048,249.92565051841737,-0.0024506754707545,-0.0062965131364762,0.2815231680870056,0.9595307111740112,0.1569706109166192,-0.0200388706332506,0.0311762479934164,-0.0186420790851116,0.0011396794579923,-0.1493056416511535,0.0247028507385402,0.216530526895076,-9.893136881589893,14914.0
28.71,2.5,352.0,21.98350715637207,18.686668395996094,-79.94650122103876,40.443445173184365,249.9258243255616,-0.0033828094601631,-0.0054321559146046,0.2847262620925903,0.9585875272750854,0.1846739768855539,-0.0059295066214503,-0.0379320685721815,-0.0354604423046112,-0.0147548587992787,-0.1837173700332641,0.105516350325197,0.4458582699671388,-9.153337801694873,14914.0
28.9,2.5999999046325684,349.0,21.90087127685547,20.086181640625,-79.94650101580629,40.44344499581836,249.892704170227,-0.0022233214695006,-0.008231833577156,0.2891247272491455,0.9572535157203674,0.1907291670722755,-0.0315960585066012,-0.1257623503245141,-0.0335170328617095,0.0540659055113792,-0.2266105711460113,0.1529573964793235,0.4511969240382314,-8.943731492757797,14914.0
29.1,2.900000095367432,343.0,21.918399810791016,20.91316604614257,-79.94650062613015,40.4434451469814,249.8525988273621,0.0003080004535149,-0.0202684048563242,0.3014582097530365,0.9532639384269714,0.1640428965990813,-0.0063924365993782,-0.2692427531638584,-0.2855228185653686,-0.0377202071249485,-0.1917809545993805,0.0701727913599461,0.2095486773177981,-9.179118175506591,14914.0
29.21,2.799999952316284,345.0,21.910886764526367,20.730274200439453,-79.94650040305963,40.443445075762746,249.80766145515443,0.000348552071955,-0.028237959370017,0.3083994388580322,0.9508376717567444,0.1489386602135669,-0.0200185533385874,-0.29258688790794,-0.0491137132048606,0.0260748714208602,-0.0187735799700021,0.0625465420726686,0.1159473810531199,-9.39938161969185,14914.0
29.4,3.0999999046325684,349.0,21.970985412597656,19.6965446472168,-79.9465001284758,40.44344504816847,249.7336167507172,-0.0017481445102021,-0.0397734977304935,0.3142377138137817,0.9485092163085938,0.0554463907503547,-0.0061508771249418,-0.2319496953191815,-0.0003687467542476,0.0322780460119247,-0.0447424314916133,-0.135609118770808,0.2756232922710479,-9.99379903793335,14914.0
29.51,3.299999952316284,351.0,21.938432693481445,19.89533805847168,-79.94650004945582,40.44344508467742,249.6890572719574,0.0012571959523484,-0.034239325672388,0.2974445223808289,0.9541242122650146,-0.0095644215287948,0.0029900997753744,-0.2284629669190061,0.0856277793645858,0.0097219441086053,0.2237974852323532,-0.2208893155306577,0.5946025557070971,-9.859777346849445,14914.0
29.7,3.299999952316284,352.0,21.89335823059082,20.30883026123047,-79.94649987708358,40.44344482952271,249.6929823570252,0.0039844694547355,-0.0230414289981126,0.2853523194789886,0.9581373929977416,0.0025546455827657,-0.0266899319507427,-0.1703173439714646,0.2761300206184387,0.1531885266304016,0.3301538527011871,-0.0879173367004841,0.285294221509248,-9.759672430157664,14914.0
29.9,3.5,358.0,21.90087127685547,20.610998153686523,-79.94649978153792,40.44344454728903,249.6451009922028,0.0004307574708946,-0.0245461277663707,0.2730050384998321,0.9616994261741638,-0.0454667483586006,-0.0477882321258449,-0.1669481653413675,-0.1332106441259384,-0.1136504560708999,0.1096705198287964,-0.016972893315833,0.1187638386525213,-9.74500585913658,14914.0
30.0,3.5,0.0,21.8670654296875,21.175573348999023,-79.94649980989193,40.44344448836456,249.6284674816132,-0.0034956797026097,-0.0335732698440551,0.2710756957530975,0.9619659781455994,-0.0681294304125022,-0.0504648620590748,-0.1630744448125349,-0.0716818645596504,0.0223497655242681,0.0402210168540477,-0.2031073845550418,0.2768546976149082,-9.818422329425813,14914.0
30.1,3.5,1.0,21.82449531555176,22.32858085632324,-79.9464998347795,40.44344444166985,249.5713566951752,0.0055151470005512,-0.0221840906888246,0.2737474143505096,0.9615299701690674,-0.1071270485684356,-0.0510913373593912,-0.1572963395359853,0.1464760154485702,0.1377291679382324,-0.1139617562294006,-0.19921834660694,0.3775739374011755,-9.809762018322946,14914.0
30.31,3.400000095367432,1.0,21.86205673217773,21.207380294799805,-79.9465000173417,40.4434442461825,249.5422069244385,0.0023786888923496,-0.0146485855802893,0.2791621685028076,0.9601293802261353,-0.150721213405496,-0.0559346071853854,-0.1199630981842711,-0.0358993932604789,-0.016269339248538,-0.0249908193945884,0.0240323486924171,0.1625816119462251,-9.957108929157258,14914.0
30.5,3.299999952316284,6.0,21.908382415771484,20.40425109863281,-79.94650011952236,40.44344428636296,249.49879686164857,0.0023779743351042,-0.0166236795485019,0.2776415944099426,0.9605379700660706,-0.1459715527968372,-0.0531897683914514,-0.0923927704330298,-0.0147917550057172,0.0650988817214965,0.0266454182565212,0.0075176098477095,0.1658029892295599,-10.100948095321655,14914.0
30.6,3.0999999046325684,8.0,21.87833404541016,20.97677993774414,-79.94650023506432,40.44344417312809,249.4899048023224,0.0023510421160608,-0.0172321368008852,0.2745885848999023,0.96140456199646,-0.1585548233416772,-0.0541782007492787,-0.0782760790318104,0.0440745986998081,-0.0399203263223171,0.0154490275308489,-0.0969781546667218,0.2321052253246307,-9.968743718862534,14914.0
30.7,3.2000000476837163,8.0,21.859554290771484,21.430030822753903,-79.9465004830154,40.443444260688175,249.4232343845368,0.0005578519194386,-0.0145460395142436,0.2684662640094757,0.9631791710853576,-0.1623756140621105,-0.0370350109892425,-0.0542649219099956,-0.0088751809671521,-0.0089816423133015,-0.0460976921021938,-0.1176490943972021,0.1647192260809243,-10.07122085094452,14914.0
30.91,3.0999999046325684,6.0,21.86205673217773,20.921117782592773,-79.94650084064348,40.44344433269265,249.36280695724489,0.0021782426629215,-0.0133235668763518,0.2694926559925079,0.96290785074234,-0.1665185499189138,-0.0141630785000419,-0.0208699051306835,0.0125858392566442,-0.0325343646109104,-0.0460394993424415,-0.1658451257273555,0.1835366441309452,-10.049941663742066,14914.0
31.0,3.0,4.0,21.872074127197266,20.72232246398925,-79.94650099576498,40.44344423917013,249.3611315898896,0.0022461656481027,-0.0094750020653009,0.2728196084499359,0.962015986442566,-0.1704558640210121,-0.0180464244852425,-0.0031822109628195,0.0593693330883979,-0.0225285161286592,-0.1256032735109329,-0.1255107397958636,0.287497488912195,-9.970279197692872,14914.0
31.21,2.900000095367432,5.0,21.864561080932614,21.167621612548828,-79.94650124947708,40.4434444281046,249.30342094230653,0.0008818578789941,-0.0054316287860274,0.2768550515174866,0.9608960151672364,-0.1472129705491556,0.0094940168689655,-0.0260101290222594,0.0636150985956192,-0.0540615171194076,-0.2014527320861816,-0.0387503432342782,0.2626151560619473,-9.94445555448532,14914.0
31.4,2.799999952316284,5.0,21.8670654296875,21.072200775146484,-79.94650160268884,40.44344459906801,249.2429351024628,0.0006394067313522,-0.0062405304051935,0.2900642156600952,0.9569867253303528,-0.1230029955552488,0.0301948510387052,-0.0424932443633723,-0.0181599128991365,-0.0033316707704216,-0.2398961037397385,-0.0320820071990601,0.074942036261782,-9.879600577354427,14914.0
31.5,2.700000047683716,4.0,21.859554290771484,21.533403396606445,-79.9465017442425,40.44344455615217,249.2398969345093,0.0025017312727868,-0.0071542588993906,0.2969792485237121,0.9548539519309998,-0.1237430589690874,0.0279506578576888,-0.017526634013512,0.0541975572705268,0.0610451437532901,-0.2350261509418487,-0.1114894638396799,0.3944953044131399,-9.9334019780159,14914.0
31.6,2.5999999046325684,7.0,21.86831855773925,19.855579376220703,-79.94650220691204,40.443444674774064,249.190314453125,0.0026216635014861,-0.0010900541674345,0.303666740655899,0.952774167060852,-0.1105728201168486,0.0397471145133925,-0.012574742714987,0.0499672070145607,0.1181676462292671,-0.0766383036971092,-0.0797060917597264,0.0873902376182377,-9.854471583366395,14914.0
31.81,2.5,9.0,21.86581420898437,21.21533203125,-79.94650251183107,40.44344485075304,249.13476197052003,0.0084178885444998,-0.0007203402929008,0.2997527420520782,0.9539796113967896,-0.0924960139979151,0.0402865166816722,-0.0268591461614835,0.0380258485674858,0.1376543492078781,0.1882754266262054,-0.0964249075669795,-0.0126449510268867,-9.82759310245514,14914.0
31.9,2.5,15.0,21.82449531555176,21.827619552612305,-79.9465026253314,40.44344482345506,249.13333193588255,0.011808393523097,0.0003915681736543,0.2955209910869598,0.9552632570266724,-0.1069784893448224,0.020038467762669,0.0013658083333689,-0.0676228404045105,-0.012545695528388,0.0930518954992294,-0.11967888222076,0.1489557630848139,-10.033868837356568,14914.0
32.1,2.400000095367432,17.0,21.84077262878418,20.36449241638184,-79.94650272380113,40.443444778091546,249.1346601657868,0.0127015961334109,0.0015710365260019,0.2903695106506348,0.9568290114402772,-0.0913634385074158,-0.0058183873271491,0.0253897527116787,0.0928266644477844,-0.0107318023219704,0.1072673127055168,0.0524471763800829,-0.0305999047681689,-10.072122491598131,14914.0
32.3,2.299999952316284,19.0,21.937179565429688,19.577266693115234,-79.94650324274592,40.443444835087945,249.08402292060853,0.0059632733464241,0.0035151811316609,0.2800612449645996,0.959957242012024,-0.1040975391411719,-0.0226959941814713,0.0164707648662454,0.0654492750763893,0.0185563936829566,0.089831918478012,-0.0117068566381931,-0.0391878702817484,-9.894586991071698,14914.0
32.4,2.299999952316284,22.0,21.90337562561035,20.22136116027832,-79.94650354690056,40.443444897868574,249.03105680274965,0.0065285093151032,0.0064947470091283,0.2652159929275513,0.9641451239585876,-0.0912491986198655,-0.0295496281562345,-0.041940702447805,-0.0362416617572307,-0.0157777946442365,0.183682769536972,-0.0593379190284758,0.034333406779915,-9.699892836213111,14914.0
32.5,2.200000047683716,26.0,21.829504013061523,21.50954818725586,-79.94650362534446,40.44344484187272,249.0261346511841,0.0066709425300359,0.0071277315728366,0.2538487613201141,0.9671947360038756,-0.0753400422670442,-0.0477083677830718,-0.0551450537383374,-0.046257097274065,-0.0130403693765401,0.181850790977478,-0.0029001504415646,0.0811605957895517,-9.689564899206164,14914.0
32.71,2.200000047683716,29.0,21.872074127197266,21.15171813964844,-79.94650396017998,40.443444918128414,248.98932902145387,0.0065908655524253,0.0073933093808591,0.2414926588535309,0.9703521132469176,-0.0778568088345015,-0.045439462152588,-0.0647680645579523,0.0418111719191074,0.0667215958237648,0.2417429834604264,0.0061918033770052,-0.0587040991242975,-9.745461357235907,14913.0
32.91,2.200000047683716,34.0,21.859554290771484,21.42207908630371,-79.94650439213632,40.44344470019549,248.94596711921693,0.0017249427037313,0.0088291820138692,0.2286525666713714,0.9734665751457214,-0.0914480650718995,-0.064700057246881,-0.0527986970966992,-0.0258706323802471,-0.0641236901283264,0.1277272552251815,-0.0824391991272568,-0.0551966513833031,-9.852460141181949,14913.0
33.0,2.0999999046325684,37.0,21.815731048583984,20.610998153686523,-79.94650444255221,40.44344460614908,248.9417049102784,0.000166094629094,0.0066870865412056,0.2261466234922409,0.9740703701972958,-0.0757963340978031,-0.0847046104957496,-0.0330816963732542,-0.0100476322695612,0.0194618441164493,0.044306430965662,-0.0802193950675427,-0.0504503065533936,-10.001026196479796,14913.0
33.11,2.0999999046325684,38.0,21.90337562561035,20.22136116027832,-79.9465047727705,40.44344424659045,248.9103182964325,-0.0023129798937588,0.005024813581258,0.2262349128723144,0.9740570783615112,-0.0771420095472273,-0.09495576066915,-0.0104578564298135,0.1130418926477432,0.035758975893259,0.0644080191850662,0.0101395287550985,-0.1938886460848152,-9.894054894447327,14913.0
33.3,2.0999999046325684,43.0,21.90087127685547,20.952924728393555,-79.94650515642849,40.44344377325803,248.87493912506105,-0.0064874184317886,0.0053656194359064,0.2258887588977813,0.9741167426109314,-0.109578340046535,-0.0990598554268891,-0.0203512292739249,-0.0693742036819458,-0.0528296530246734,0.0352747663855552,-0.0833499121014028,-0.074028463633731,-9.784526605010033,14913.0
33.4,2.0,48.0,21.838268280029297,21.223283767700195,-79.9465052104218,40.44344365640104,248.87275330352784,-0.0077310227788984,0.0049496446736156,0.224659577012062,0.974394142627716,-0.0891455681087197,-0.0945159867350315,-0.025680690490134,0.0274707302451133,-0.0661140158772468,0.0268351212143898,-0.0646939685661345,-0.0336155103100463,-9.76827719271183,14913.0
33.61,2.0,50.0,21.870820999145508,20.451963424682614,-79.94650525299286,40.44344355306853,248.8704995326996,-0.0094401193782687,0.0050901668146252,0.2224099338054657,0.9748942255973816,-0.0736703427989779,-0.0810483727295585,-0.0242340833549117,0.0396057926118373,0.0196425411850214,0.0109303165227174,-0.0299378012423403,0.0289747579721733,-9.782760745882989,14913.0
33.8,2.0,50.0,21.86581420898437,20.571239471435547,-79.94650542174831,40.44344323688949,248.8372565917969,-0.0121374111622571,0.0075660375878214,0.2167015224695205,0.976133108139038,-0.0550639382757288,-0.0639240865283228,-0.0350897623035937,-0.0327367335557937,-0.0666414648294448,0.0370415076613426,-0.1752474119514227,0.0698631356097757,-9.662412183880807,14913.0
33.9,2.0,50.0,21.796951293945312,21.64472770690918,-79.94650563030251,40.44344293187528,248.8046919517517,-0.012473439797759,0.0076407706364989,0.2139696180820465,0.9767308235168456,-0.0267733531179271,-0.0442103040698374,-0.0322810739614549,-0.0150694129988551,-0.0441819205880165,0.0281752608716487,-0.0067562201432883,-0.1132149040885269,-9.731560771465302,14913.0
34.0,2.0,51.0,21.86205673217773,20.85750389099121,-79.94650563365795,40.443442896242345,248.8019658737183,-0.0121887326240539,0.0049829613417387,0.2152732908725738,0.976465106010437,-0.0116994098112199,-0.0251392521004172,-0.0257676829580665,-0.0895056277513504,-0.0342915579676628,-0.0126751512289047,-0.0720196572644636,-0.0055898193921893,-9.807359397411345,14913.0
34.2,2.0,52.0,21.87958526611328,20.73822593688965,-79.94650570660639,40.44344266778872,248.7749585323334,-0.012074046768248,0.0023879604414105,0.217371180653572,0.9760114550590516,-0.0074663905202222,-0.0249280861714687,-0.0269775317369178,-0.0116806039586663,0.0278838481754064,0.0182827208191156,-0.0069250185240525,-0.2097540973126888,-9.802412068247795,14913.0
34.3,1.8999999761581416,58.0,21.855796813964844,21.74810218811035,-79.94650572156253,40.44344229772227,248.7512144260406,-0.0130053181201219,-0.0016101014334708,0.2231060266494751,0.9747061133384703,-0.0034790994332343,-0.01936515310456,-0.0354256974719295,0.047004584223032,-0.0065488400869071,-0.0276503786444664,-0.0727037312462925,-0.1532580529991537,-9.69533317744732,14913.0
34.51,2.0,58.0,21.870820999145508,20.8734073638916,-79.94650573392201,40.443442286531685,248.7477747612,-0.0135918222367763,-0.0028334879316389,0.2248812764883041,0.9742873311042786,-0.0217372941706149,0.0054823315738716,-0.029327643410589,-0.0730656236410141,0.0318324938416481,-0.0759472623467445,-0.0648675212357193,0.0389058106485754,-9.837617568969726,14913.0
34.7,2.0999999046325684,57.0,21.855796813964844,21.19147682189941,-79.94650579995302,40.443441969790136,248.7273279838562,-0.0154930222779512,-0.0014377755578607,0.2217883169651031,0.9749707579612732,-0.0241981054732284,0.019116906161894,-0.0129875476059299,0.1246946677565574,0.0830393806099891,-0.0677577629685401,-0.1211245057918131,0.2270624769106508,-9.767078513503074,14913.0
34.81,2.0999999046325684,57.0,21.783178329467773,22.026412963867188,-79.9465058155794,40.44344196305044,248.725651424408,-0.0152072869241237,0.0022507323883473,0.2191755175590515,0.975564420223236,-0.0261193726034358,0.0336987017258684,-0.0199406676699245,0.0487971119582653,-0.0153459794819355,-0.0175480283796787,-0.0745477694738656,-0.0147351296246051,-9.764475917816162,14913.0
34.9,2.200000047683716,54.0,21.842023849487305,20.72232246398925,-79.94650569677192,40.44344172693175,248.70462052154545,-0.0150089971721172,0.0052052000537514,0.2176665216684341,0.9758939743041992,-0.0131856929526143,0.0472337120018251,-0.0093662717864409,-0.0295811854302883,-0.0432507246732711,0.0758241936564445,-0.0520329376962035,-0.2124193130247295,-9.847195308208466,14913.0
35.1,2.400000095367432,52.0,21.85454559326172,20.833646774291992,-79.94650523343915,40.44344145329281,248.6883055381775,-0.0116144977509975,0.0001441469794372,0.2189173102378844,0.975674331188202,0.0218744981152739,0.0361900936950855,0.0084310446867227,-0.1074944585561752,-0.0581372193992137,0.0588600412011146,-0.0502015669131651,-0.2235338467173278,-9.826076334714893,14913.0
35.3,2.5,45.0,21.82073974609375,21.310754776000977,-79.9465052200708,40.44344150019364,248.6897427253724,-0.0093453908339142,-0.0003821823920588,0.2188812494277954,0.9757067561149596,0.0330078142359267,0.0478493876571746,0.0191742097853519,-0.0305174421519041,0.0337524302303791,0.0044739735312759,0.0369954362162388,-0.0468760315328836,-9.929601287841797,14913.0
35.41,2.400000095367432,44.0,21.87958526611328,19.8635311126709,-79.9465048263001,40.44344133693609,248.670110862732,-0.0074525382369756,-0.0032372621353715,0.2164758443832396,0.9762542247772216,0.0677254518128002,0.037881944456905,0.0279618406325069,-0.0090384548529982,0.0305084642022848,0.0531546846032142,0.0519236495811492,0.01737747724168,-9.854572155475616,14913.0
35.51,2.200000047683716,43.0,21.77190971374512,22.272918701171875,-79.94650472163099,40.443441469589146,248.67608277130128,-0.0106399897485971,-0.0023385738022625,0.2113048732280731,0.9773594737052916,0.0801823380181974,0.0693319134147403,0.0278446197435704,0.0395964868366718,0.032338298857212,0.1533337533473968,0.0074802516214549,-0.1565494598262012,-9.8123201751709,14913.0
35.7,2.0999999046325684,50.0,21.83075523376465,21.4379825592041,-79.94650458456951,40.44344142862716,248.662215631485,-0.00251423753798,-0.008686595596373,0.208556666970253,0.9779685139656068,0.0791358688729019,0.0722714349893055,0.021198269439624,0.0348886176943779,0.1490627229213714,0.1560634970664978,-0.0405994932074099,-0.1170558121427893,-9.758017083406449,14913.0
35.8,2.0,52.0,21.74686813354492,22.090028762817383,-79.94650452444706,40.4434413066,248.6552564315796,0.0035216358955949,-0.0008243367774412,0.2078967690467834,0.9781441688537598,0.0922646539603282,0.0620785100821666,0.0299611767109449,0.1929270178079605,0.1314364522695541,0.0169982034713029,0.0315398995019495,0.0740688048535958,-9.752725937962532,14913.0
36.0,1.8999999761581416,46.0,21.83075523376465,20.777984619140625,-79.946504460438,40.44344139251756,248.65801135826112,0.004887381568551,0.0063303806819021,0.2094633281230926,0.9777838587760924,0.0889400646943192,0.0637212395261015,0.0234807493759533,0.1380020529031753,0.0400596596300602,-0.043561901897192,0.1597588685899973,-0.0185464041726663,-9.782947272062303,14913.0
36.2,1.7000000476837158,50.0,21.858301162719727,20.507625579833984,-79.94650410176736,40.44344138540214,248.65022484588627,-0.0015111558604985,-0.002564379479736,0.2159095108509064,0.9764088988304138,0.0986248927472214,0.0318607014130833,0.0115717714958222,-0.2371654808521271,-0.1165796518325805,-0.085298977792263,-0.0616594052547589,0.0092256843228824,-9.62368665933609,14913.0
36.3,1.600000023841858,45.0,21.77190971374512,22.0661735534668,-79.94650400179134,40.443441449722215,248.6504637413025,-0.0011096572270616,-0.0108362361788749,0.2199895083904266,0.9754414558410645,0.0930359902126252,0.0235701733092147,-0.0106053591809283,-0.195733442902565,0.0120105911046266,-0.1482953280210495,-0.0228680036030709,0.0727974876947701,-9.614988341331484,14913.0
36.41,1.399999976158142,45.0,21.803211212158203,21.581113815307614,-79.94650365634149,40.44344145912643,248.6430467777253,0.0028315710369497,-0.0164389126002788,0.225640669465065,0.9740678071975708,0.0906948415313035,0.0080480840849922,-0.0057972939401093,0.1137244999408722,0.0942587852478027,-0.0407598428428173,-0.0288150604628026,0.0668105144519358,-9.708088293671608,14913.0
36.61,1.399999976158142,44.0,21.85204124450684,20.467866897583008,-79.946503512416,40.44344149137343,248.63237873840333,0.0010198517702519,-0.0089902589097619,0.2275473475456237,0.9737250208854676,0.0500068299568398,0.0145678715430504,0.001955334042994,0.038326658308506,-0.0369763523340225,0.0157464127987623,-0.0247601488837972,0.0800506298057735,-9.710104998350143,14913.0
36.7,1.2000000476837158,49.0,21.799455642700195,22.11388397216797,-79.9465034699967,40.443441524374045,248.6324199848176,-0.001959980931133,-0.0048997402191162,0.2270778119564056,0.9738624095916748,0.0449017193309155,0.0153821568901507,-0.0019593225836612,0.0644807890057563,0.0265791993588209,0.0159999318420887,-0.0260187848936766,0.0794470692425966,-9.797599809765815,14913.0
36.9,1.2999999523162842,48.0,21.928415298461918,18.98883628845215,-79.9465034044378,40.44344152549697,248.61741177368165,-0.0033953161910176,-0.002920743310824,0.2259084731340409,0.97413831949234,0.0507990345198432,0.0185913973264588,0.0132365608780872,0.0488257594406604,0.0284335371106863,0.0651155859231948,-0.0185254843882285,-0.1073654591850936,-9.857999793291093,14913.0
37.1,1.399999976158142,50.0,21.804462432861328,21.24713897705078,-79.94650333842927,40.44344160798994,248.6152700595856,-0.0039850701577961,-0.009379900060594,0.2215742170810699,0.975090265274048,0.0372983384991653,0.034114190350345,-0.0418823086289583,-0.1105756536126136,0.0326508544385433,0.0118749421089887,-0.0800069858226925,0.1903023842722177,-9.5579130846262,14913.0
37.2,1.5,52.0,21.83576393127441,20.436058044433597,-79.94650332603045,40.44344164698522,248.59531037139888,-0.0005125788738951,-0.0084839491173625,0.2182429283857345,0.9758575558662416,0.0574265594977277,0.0413301614055057,-0.0459709730806674,0.0988253355026245,0.0483273603022098,0.094808429479599,-0.0198239888157695,0.0108321679942309,-9.639921453595164,14913.0
37.31,1.600000023841858,49.0,21.791942596435547,21.84352302551269,-79.94650333961941,40.44344178925933,248.5700954608917,0.0034537420142441,-0.0044643632136285,0.2132074981927872,0.9769906997680664,0.0528136126549236,0.060163676438862,-0.0644151484275276,0.0436314195394516,0.0602845326066017,0.0056551089510321,-0.0381994281685911,0.0771879243850708,-9.607272355556493,14913.0
37.51,1.600000023841858,47.0,21.769405364990234,22.400146484375,-79.9465032822833,40.44344192386408,248.55238215255736,0.0076619680039584,-0.0071490351110696,0.2157929837703704,0.9763829112052916,0.048470256101864,0.0499359613055378,-0.107346103190859,0.0213963109999895,-0.0018750856397673,-0.0669678002595901,0.0623964148107916,0.0061653498653322,-9.587374865412713,14913.0
37.7,1.7000000476837158,40.0,21.71431541442871,23.03628921508789,-79.94650341333788,40.44344196677992,248.5314032249451,0.0090478342026472,-0.007986381649971,0.219423934817314,0.9755550026893616,0.0397421956913566,0.0510387936309386,-0.0888557133109177,0.0135918222367763,0.0512657016515731,-0.1636620461940765,0.0154195370804518,0.165050781480968,-9.792394618391992,14913.0
37.8,1.7000000476837158,33.0,21.730592727661133,23.13966178894043,-79.94650340558721,40.44344202870385,248.5233804397583,0.0120051838457584,-0.0071553695015609,0.2231175005435944,0.9746914505958556,0.0341550116414859,0.0355873186597387,-0.0704347921063543,0.0574531257152557,0.0913766771554946,-0.0243334844708442,0.0343390484293922,-0.015960486754775,-9.972170187234877,14913.0
37.9,1.600000023841858,31.0,21.72808837890625,23.25893783569336,-79.94650353934942,40.44344212552858,248.49912754821773,0.0173605121672153,-0.0057088583707809,0.2291892915964126,0.973210334777832,0.0163668774649882,0.0205278934998336,-0.0100660525406956,0.043997436761856,0.0472270771861076,-0.0595421083271503,0.1235644757933914,0.0024720291886478,-10.06574434876442,14913.0
38.1,1.600000023841858,36.0,21.80571556091309,21.81966781616211,-79.94650365151206,40.443442249636256,248.47359577941896,0.0157230570912361,-0.0078942459076642,0.2308609485626221,0.9728277325630188,-0.005694986277032,0.0096684540973223,0.0028971767180591,0.0210152510553598,-0.0798766985535621,0.0041658454574644,0.1529635543283075,0.1025627207010984,-9.94580392241478,14913.0
38.2,1.5,28.0,21.74812126159668,21.18352508544922,-79.94650365703002,40.44344226908022,248.47377721595765,0.0127974273636937,-0.008805388584733,0.2305283695459365,0.9729415774345398,-0.0230178708175712,0.0028062146963375,0.0019406943457384,0.0147659918293356,-0.1081677079200744,-0.0359605215489864,0.1120403811894357,0.1081920179352164,-9.785722360610963,14913.0
38.4,1.5,20.0,21.74436378479004,21.85942649841309,-79.94650377325065,40.44344242065549,248.44774858284,0.0107880709692835,-0.0079867364838719,0.2296666651964188,0.9731768369674684,-0.0304516259802883,0.0173213233114759,-0.0036585031608294,0.0026076324284076,-0.1107968688011169,0.0391055978834629,0.0347644242318347,0.1112821800448,-9.773863622546196,14913.0
38.6,1.399999976158142,8.0,21.81072425842285,20.56328773498535,-79.94650384904165,40.4434424003892,248.44622270393373,0.009204713627696,0.0007153988117352,0.2278669327497482,0.9736485481262208,-0.0326565273284822,-0.0027995529182821,-0.0175392812485925,0.1149159222841262,0.0255460124462842,0.0065961708314716,0.1446388642676174,0.0354037533095106,-9.714238395094872,14913.0
38.7,1.2999999523162842,5.0,21.76815414428711,21.65267944335937,-79.94650435608645,40.4434420504774,248.4136735610962,0.0071823871694505,0.0050884042866528,0.2273889631032944,0.9737643003463744,-0.0683240033608894,-0.01879633909569,-0.0387452806691422,0.084217868745327,-0.0032423008233308,-0.0066799861378967,0.1225939202215522,0.0901951195579022,-9.663296867609024,14913.0
38.8,1.2000000476837158,351.0,21.783178329467773,21.49364471435547,-79.94650501311844,40.44344166900997,248.38442103195192,0.0077320048585534,0.0065176114439964,0.228826493024826,0.9734147191047668,-0.0823412287314019,-0.0418873240164698,-0.0682741949145102,0.0181540343910455,0.1073000207543373,-0.000684933969751,0.0758100508572533,-0.0257040950562804,-9.703448528051377,14913.0
39.01,1.2999999523162842,350.0,21.86330986022949,19.632930755615234,-79.94650512202824,40.44344153311052,248.3702665977478,0.0147743923589587,0.0012224782258272,0.2327689081430435,0.9724191427230836,-0.0638073963536243,-0.0584809822423881,-0.0715104616581709,-0.0718253254890441,-0.002271341625601,-0.0772303566336631,0.0976815747097134,0.0574232939444482,-9.755369464159012,14913.0
39.1,1.2000000476837158,0.0,21.723079681396484,22.511472702026367,-79.94650571271166,40.44344119374088,248.34877411651613,0.0152104049921035,0.0011609314242377,0.2343850284814834,0.9720242023468018,-0.0906457026658368,-0.0759960379072886,-0.0634853464574227,0.0332708284258842,0.0163935478776693,0.0328698456287384,0.1940860078856349,0.0495622515399009,-9.889945471286774,14913.0
39.3,1.2999999523162842,2.0,21.84703254699707,21.54930686950684,-79.94650578757809,40.4434411054465,248.3429140262604,0.0131966127082705,0.0026216264814138,0.235824316740036,0.9717025756835938,-0.0744246511410463,-0.0903470810363297,-0.0547156968747818,0.1103538796305656,0.0026150892954319,-0.0118420980870723,0.1315244457777589,0.1994677668996155,-9.867734237909318,14913.0
39.5,1.399999976158142,7.0,21.8570499420166,21.032442092895508,-79.94650613437264,40.443440978184775,248.30446581172944,0.0102814342826604,0.0038351225666701,0.2361927330493927,0.9716443419456482,-0.0543084053162293,-0.1039146288344486,-0.0862646972382144,-0.0037504446227103,0.0585020408034324,0.0713826641440391,-0.0103211955784354,-0.0855763490963727,-9.64340288579464,14913.0
39.6,1.5,0.0,21.86080551147461,20.396299362182614,-79.94650637235716,40.44344079396314,248.26853637027745,0.0107668824493885,-0.0009273263858631,0.2340950518846512,0.972153663635254,-0.0398862957947546,-0.1164029176995737,-0.1102548921936732,-0.0556429922580719,0.074891522526741,0.0560958236455917,-0.1367687678150832,0.112527372026816,-9.565725549459458,14913.0
39.7,1.7000000476837158,353.0,21.77942276000977,21.74015045166016,-79.94650638152702,40.44344069086035,248.2559492998124,0.0131074925884604,-0.0011754831066355,0.2337307780981064,0.9722123146057128,-0.0377571984035022,-0.1318851345137715,-0.1392891230198965,-0.0199496261775493,0.058694165199995,0.0476127080619335,0.0688478716788813,0.0018498488981276,-9.555819781422615,14913.0
39.9,1.600000023841858,354.0,21.751876831054688,21.962799072265625,-79.9465068052985,40.44344034705699,248.2299862318039,0.0157038308680057,-0.0016828785883262,0.233277440071106,0.9722819924354552,-0.0663903031567372,-0.1400576378567725,-0.1494941408958754,0.0019623048137873,0.0111008342355489,-0.0607850141823291,0.1064120798092335,0.1947855724208057,-9.623228237628938,14913.0
40.1,1.600000023841858,351.0,21.8132266998291,20.642805099487305,-79.94650677539043,40.44344007028332,248.20034996795656,0.0122668361291289,-0.0016621724935248,0.2332990616559982,0.9723262786865234,-0.0644347965188649,-0.1557192066441728,-0.1383650806285619,-0.0529011189937591,-0.0910842940211296,-0.0373356230556964,0.1269397444836795,0.2509487183019519,-9.843262470960616,14913.0
40.21,1.600000023841858,348.0,21.723079681396484,22.583038330078125,-79.94650694888817,40.443439790750666,248.1728344373703,0.0087600713595747,-0.0031267546582967,0.2330892086029053,0.9724109768867492,-0.0678098138455177,-0.1615491350630894,-0.1301366784226079,-0.0771799609065055,-0.0564739070832729,0.0397100448608398,0.075536921932362,0.067975759464316,-9.8315072286129,14913.0
40.4,1.7000000476837158,344.0,21.716819763183597,23.38616752624512,-79.94650702376725,40.44343943403906,248.1253507547379,0.0076619051396846,-0.0001508940040366,0.2348327189683914,0.9720056056976318,-0.047905524968011,-0.1693894880800921,-0.1297168229648637,0.0958196744322776,0.0772543624043464,0.075660653412342,0.1227585832960903,-0.0467678945884108,-9.883285492658615,14913.0
40.52,1.7000000476837158,348.0,21.66924095153809,23.624719619750977,-79.94650699007096,40.44343927959529,248.11273841190345,0.0077788098715245,0.0012745318235829,0.2369950264692306,0.9714789986610411,-0.0536740735404044,-0.1658153834082836,-0.1165005145441609,0.0335943475365638,0.0323732756078243,-0.0100617865100502,0.0989599953219294,0.0569631911627948,-9.904368213415149,14913.0
40.6,1.7999999523162842,349.0,21.72433280944824,21.74015045166016,-79.94650709575741,40.44343910189005,248.0667040758133,0.0059049162082374,-0.0037094813305884,0.2435089647769928,0.9698736667633056,-0.0427262885261875,-0.1350988841699096,-0.0489788748650087,-0.0694639235734939,-0.165415734052658,-0.0483169853687286,0.248787697032094,-0.0898218936100602,-10.17053697824478,14913.0
40.81,1.7999999523162842,347.0,21.76064109802246,21.278947830200195,-79.9465070756037,40.44343897635242,248.06411580371855,0.0018727398710325,-0.0097527531906962,0.2472646534442901,0.9688971042633056,-0.0480480654530203,-0.1261772174818288,-0.0002396403928153,-0.0230884309858083,-0.0695709362626075,-0.0952226743102073,0.1455537342466414,0.0685960211372003,-10.229170517921448,14913.0
41.0,1.7999999523162842,347.0,21.7744140625,21.135814666748047,-79.94650716402538,40.44343887567153,248.01933769512175,-6.3120587583398455e-06,-0.012790816836059,0.2516833841800689,0.967725157737732,-0.0662130104397909,-0.0884949382708594,0.0212931356357812,-0.0132156861945986,-0.0337763167917728,0.0318789780139923,0.0261385112022981,-0.0199094403907656,-9.998835829496382,14913.0
41.11,1.7000000476837158,348.0,21.789438247680664,21.74810218811035,-79.94650719289506,40.44343877815116,248.0220754556656,0.0017409912543371,-0.0115899685770273,0.2528228461742401,0.9674416780471802,-0.0789519194460154,-0.0836859425100284,0.0346999741692439,0.0427917689085006,0.0585688352584838,-0.0256949607282876,0.004814670458436,0.0404966370295733,-9.953903485536577,14913.0
41.2,1.7000000476837158,0.0,21.759389877319336,21.167621612548828,-79.94650731939983,40.44343862452971,247.96965448188783,0.0049901097081601,-0.0082677118480205,0.2532586455345154,0.9673504829406738,-0.0996577604110202,-0.0651475945924974,0.0217770849118633,0.030500466004014,0.0312303211539983,0.0891571044921875,0.0764960206160321,-0.1495595246460289,-9.937001523971556,14912.0
41.41,1.600000023841858,5.0,21.80696678161621,20.730274200439453,-79.94650743180837,40.443438543619145,247.9211397581101,0.0067400219850242,-0.0072808591648936,0.2493303269147873,0.9683677554130554,-0.1016318039870926,-0.0487853952115636,-0.017811812839983,0.1609610021114349,0.0688779279589653,0.18599534034729,0.0118586170091293,0.1325160878710448,-9.821154148578644,14912.0
41.61,1.7000000476837158,21.0,21.77942276000977,20.793888092041016,-79.94650753179845,40.4434384546055,247.9192760400772,0.0037025567144155,-0.0052316873334348,0.2458709627389908,0.9692813754081726,-0.1355018757614375,-0.0421163374408952,-0.0139491665493639,-0.0046117091551423,-0.1878690868616104,0.0138331288471817,0.0996076201368123,0.0934638866968453,-9.81315398812294,14912.0
41.7,1.7000000476837158,31.0,21.83701705932617,19.561363220214844,-79.94650759987672,40.44343847535058,247.88793103027345,-0.0013775328407064,-0.0022919897455722,0.2415688782930374,0.9703800082206726,-0.1140194451342961,-0.0209753336995087,-0.0086483854465363,0.1499958336353302,-0.0067611900158226,0.0926775708794593,0.0917160443030297,-0.02183867437765,-9.98744194507599,14912.0
41.9,1.7999999523162842,38.0,21.83701705932617,19.91124153137207,-79.94650785977556,40.443438488121416,247.856679599762,-0.0060568181797862,0.0021707001142203,0.2338747680187225,0.9722455143928528,-0.1051703485062245,0.0154147639524806,-0.0178180036308459,0.0397650822997093,-0.0601446069777011,0.0875035971403122,-0.0758680296549573,-0.0702132285106927,-9.710350581407546,14912.0
42.0,1.7999999523162842,42.0,21.79820251464844,21.430030822753903,-79.94650797346841,40.44343846108753,247.85392252731324,-0.0058898488059639,0.0045186285860836,0.2311488091945648,0.9728900790214542,-0.0967118620622446,0.024668247149885,-0.0358918010015957,0.0303715355694294,-0.0021981967147439,-0.0363221578299999,-0.0267792883794754,-0.0700173604907468,-9.667714439034464,14912.0
42.1,1.7999999523162842,48.0,21.75062561035156,21.74810218811035,-79.9465083722919,40.44343851569853,247.8371072225571,-0.0048486217856407,0.006767445243895,0.2288517206907273,0.9734257459640504,-0.0784470325121085,0.0548525071114427,-0.0310561147939857,-0.03473711758852,-0.0080256564542651,-0.0516820773482322,-0.035792152325157,-0.0030195387080311,-9.835125485658644,14912.0
42.3,1.7999999523162842,45.0,21.7744140625,20.444011688232425,-79.94650858960564,40.44343853041675,247.81894056129457,-0.0012511246604844,0.0085003804415464,0.2298335582017898,0.9731920957565308,-0.0411693135691248,0.0596600835904324,-0.0278988316642808,0.0141527559608221,0.0315121486783027,0.03139054402709,-0.0819750398397445,-0.0370200424874201,-9.853193382024765,14912.0
42.51,1.7000000476837158,52.0,21.75438117980957,21.278947830200195,-79.94650866156908,40.44343856454029,247.815596859932,-0.001152510754764,0.0085885124281048,0.2300717234611511,0.9731351733207704,-0.0359682788101468,0.0633669793611436,-0.0396901648944807,-0.0522793605923652,-0.0268720723688602,0.0614242106676101,-0.0755717996601015,-0.0728853512462228,-9.644652435779571,14912.0
42.6,1.7000000476837158,51.0,21.79444694519043,20.61894989013672,-79.94650873026562,40.44343860129187,247.81106476116184,-0.0032289747614413,0.0075123528949916,0.2301576733589172,0.9731190204620358,-0.0158450715619017,0.0572835115698012,-0.0504870957078233,0.0484022721648216,-0.0275459997355938,0.1277673095464706,0.0034708112804219,-0.2219220799952744,-9.747922450304031,14912.0
42.7,1.600000023841858,53.0,21.793193817138672,20.63485336303711,-79.94650894042168,40.44343847330227,247.79487315940855,-0.0068812672980129,0.0048437216319143,0.2306157350540161,0.9730085730552672,-0.0001552185512191,0.0531392534528882,-0.050180912921617,0.0598120354115963,0.1129761561751365,0.0176979042589664,-0.0321860647969879,-0.0460562610346824,-9.795954403281211,14912.0
42.91,1.600000023841858,54.0,21.76815414428711,21.620872497558597,-79.94650914898288,40.44343828782461,247.7848353796005,-0.0039953081868588,0.0061809015460312,0.231868788599968,0.9727192521095276,-0.0118159582171336,0.0468747707425417,-0.0445665284822578,0.018944913521409,0.082935944199562,0.0630242824554443,-0.1128856510296464,-0.1285932091623544,-9.721649740934373,14912.0
43.0,1.600000023841858,54.0,21.790691375732425,20.642805099487305,-79.94650922351491,40.443438364758784,247.77367750930787,-0.0024814647622406,0.0043143974617123,0.2354506403207779,0.9718736410140992,-0.0023710688738021,0.0596983535473239,-0.0623745169731574,-0.0569602437317371,-0.0475130453705787,-0.1195470318198204,0.0386516669020056,0.0444437085930258,-9.746961168050769,14912.0
43.2,1.600000023841858,54.0,21.72182846069336,22.05821990966797,-79.94650945243778,40.44343815665089,247.76445595550535,-0.0037811354268342,0.0033542709425091,0.2358481138944625,0.9717767834663392,-0.0013453957998848,0.0467146685651682,-0.0608799845199115,0.0062048686668276,-0.0226919557899236,-0.082637183368206,0.0164167523011565,0.1571953030675649,-9.699765366911889,14912.0
43.4,1.399999976158142,58.0,21.821990966796875,20.475818634033203,-79.9465097231308,40.44343796071049,247.751886051178,-0.007157505955547,0.0036953266244381,0.2339723855257034,0.972209930419922,-0.005541430140969,0.0464926307386998,-0.0341120182039639,0.0419706888496875,-0.0326661393046379,0.1110250428318977,-0.1134536075312644,-0.0502681977627798,-9.853681039810182,14912.0
43.5,1.399999976158142,57.0,21.816984176635746,21.445934295654297,-79.9465097465767,40.4434380009339,247.74779109287263,-0.0091655058786273,0.0061653908342123,0.2326719164848328,0.9724925756454468,0.0099176339138258,0.055351725933606,-0.0483357945375083,0.0610224828124046,-0.0200292132794857,-0.0092524494975805,-0.0428109330078586,0.0173494928330183,-9.722337958216668,14912.0
43.7,1.399999976158142,58.0,21.76064109802246,21.469789505004886,-79.9465100208577,40.44343776988229,247.73339406776432,-0.0089064743369817,0.0087288059294223,0.2319227904081345,0.9726542830467224,0.0220084015845096,0.0524045766500459,-0.0445582280731284,0.0172854773700237,0.0650164633989334,-0.0157715324312448,-0.0455655060522258,-0.0549614105885848,-9.864478508234022,14912.0
43.8,1.2999999523162842,57.0,21.76064109802246,21.35846519470215,-79.94651013914249,40.44343755574327,247.72749904918672,-0.0056398045271635,0.0071385693736374,0.2323644906282425,0.9725863337516784,0.0448914686240846,0.0516621635615417,-0.0078169677018797,-0.0562486536800861,-0.0282814335078001,-0.0218156017363071,-0.0947270862758159,0.0514515143260359,-9.922626729011537,14912.0
44.0,1.2999999523162842,59.0,21.75563240051269,21.93894386291504,-79.94651011148613,40.44343762155986,247.7267525606156,-0.0065533062443137,0.0049405256286263,0.2334768027067184,0.9723277688026428,0.0600647376345179,0.0588084932477726,-0.0053483377399262,-0.0835471004247665,-0.0276212990283966,-0.0121425362303853,-0.0191202033217996,0.0178520610183477,-9.86593797326088,14912.0
44.11,1.2999999523162842,59.0,21.89085388183593,18.82184791564941,-79.94651007697978,40.44343768858956,247.72579054164888,-0.0062191425822675,0.0038451075088232,0.2350796610116958,0.9719486832618712,0.0771967769619609,0.0614053379128976,-0.0065810173857896,-0.0780478119850158,0.0072914683260023,-0.0959464237093925,-0.0662374736135825,0.1745495650358498,-9.798589743375777,14912.0
44.3,1.2999999523162842,64.0,21.695533752441406,22.217256546020508,-79.94651010579045,40.44343741033011,247.7204193286896,-0.0026249587535858,0.0018642743816599,0.2380002140998841,0.971259832382202,0.1005349759146718,0.0436479186211274,-0.0314073858400474,-0.0442703738808631,0.0446401722729206,-0.0668937936425209,0.0055691485712304,0.2457863943278789,-9.575169387459756,14912.0
44.4,1.399999976158142,63.0,21.789438247680664,22.034364700317383,-79.9465098584471,40.443436814740814,247.73544434833528,-0.0028187020216137,0.0009169233962893,0.2378038913011551,0.971308708190918,0.1099031219695732,-0.0094614551064432,-0.0081364199484295,-0.0554481893777847,-0.0066733909770846,-0.1012353971600532,0.0817497667204588,0.2663978660479188,-9.723258309960368,14912.0
44.5,1.399999976158142,56.0,21.849536895751957,19.418231964111328,-79.94650960563709,40.44343690891603,247.7336497716904,-0.00674296496436,-0.0011815298348665,0.2398072481155395,0.9707964062690736,0.1332931175588289,0.0093097650103578,-0.0137707075230178,-0.0736791789531707,-0.0361976437270641,-0.0697157829999923,-0.0046262165252119,0.1969147263653576,-9.74483862876892,14912.0
44.71,1.399999976158142,48.0,21.77316093444824,21.08015251159668,-79.94650925969688,40.44343646658103,247.73420361804963,-0.005790923256427,-0.0051071648485958,0.2441447526216507,0.9697080850601196,0.144989677743336,-0.0138134363723286,0.0067414220077024,-0.0932603776454925,-0.0375223979353904,-0.1092184782028198,-0.0551957149151712,0.191328241713345,-9.761677440404894,14912.0
44.8,1.5,39.0,21.76064109802246,21.4379825592041,-79.94650908476167,40.443436144815294,247.7291577272416,-0.0049005546607077,-0.007851094007492,0.2471760213375092,0.9689264297485352,0.1452577001802301,-0.0377706116487774,0.0202392645326762,-0.0940194353461265,0.0173903349786996,-0.1575733870267868,0.0175791833410039,0.1585304964892566,-9.892623496055602,14912.0
45.01,1.600000023841858,36.0,21.803211212158203,20.165699005126957,-79.94650892258502,40.4434361803967,247.73144964504243,-0.0047496580518782,-0.0113213509321212,0.2510326206684112,0.967900812625885,0.1407032579298014,-0.0262739199315536,0.0154414387971967,-0.03819140791893,0.0145214507356286,-0.0607840530574321,0.0737570066470652,0.0463395494967699,-9.813886059522629,14912.0
45.21,1.600000023841858,33.0,21.74060821533203,21.87532997131348,-79.94650857881709,40.44343605202707,247.72217289733888,-0.0029718186706304,-0.0171546395868062,0.2559227645397186,0.9665404558181764,0.1183966150663513,-0.0169637693991542,-0.0106759649249059,0.0009290595189668,0.0182393882423639,-0.0525835119187831,-0.008504606145434,0.0654159398144111,-9.655100825428963,14912.0
45.31,1.5,35.0,21.83075523376465,19.990758895874023,-79.94650845043931,40.44343608618498,247.72133664417268,-0.0009296179050579,-0.0198091361671686,0.2558965981006622,0.9665008187294006,0.0800241968517432,-0.0041368004229827,-0.0122061808360259,-0.0926811844110488,-0.0082913907244801,-0.005137282423675,0.0436363908369094,0.0192754674539901,-9.795380206704142,14912.0
45.4,1.600000023841858,34.0,21.838268280029297,18.42426109313965,-79.94650818021702,40.44343600115201,247.713892739296,0.0005738231120631,-0.0184113327413797,0.2514240443706512,0.96770179271698,0.0622330083910321,0.0036629458093505,-0.0253920307909214,0.1246318072080612,0.0521943941712379,0.0661681145429611,-0.0064393513044342,-0.0040008659474551,-9.613955138325691,14912.0
45.6,1.600000023841858,34.0,21.759389877319336,21.167621612548828,-79.94650812704008,40.44343602670011,247.71013693141936,0.0001072808590834,-0.0150254517793655,0.2478935718536377,0.9686707854270936,0.0266464888260119,0.0072413306966239,-0.054265319749918,0.0676429495215416,0.0155639741569757,0.1384418904781341,-0.0310445603937841,-0.0966333882138133,-9.580400891304016,14912.0
45.8,1.7000000476837158,35.0,21.799455642700195,20.698467254638672,-79.94650813486663,40.44343589153068,247.697061460495,0.0027105647604912,-0.0110166873782873,0.2421149909496307,0.9701812863349916,-0.0130411742907117,0.0095167788426276,-0.0626817328396267,0.0758964568376541,0.1193178221583366,0.0842854753136634,0.024615736361593,-0.110911174211651,-9.746900941729546,14912.0
45.91,1.7000000476837158,36.0,21.74186134338379,21.90713691711425,-79.94650824071044,40.443435783974856,247.6815700941086,0.0037452734541147,-0.0078223757445812,0.2399885952472687,0.9707369804382324,-0.0202747082497627,0.0187300113671555,-0.0780093523325066,0.14425028860569,0.0622643753886222,0.0531420819461345,0.0815103232394904,-0.0320316800312139,-9.641548733711245,14912.0
46.01,1.600000023841858,39.0,21.78818702697754,21.40617561340332,-79.9465083314871,40.44343579098293,247.66246740150453,0.0015555866993963,0.000723645731341,0.2393819093704224,0.9709240198135376,-0.0411172035620021,0.0251376513185037,-0.1043891956099934,0.0205638315528631,0.001790861133486,-0.0144836325198411,0.0668528702203184,0.0100178518518805,-9.71853902220726,14912.0
46.21,1.600000023841858,42.0,21.759389877319336,21.18352508544922,-79.94650852164679,40.44343571370307,247.6375536136628,0.0027423019055277,-0.0019917720928788,0.2420946657657624,0.9702467918395996,-0.0365298406758495,0.0266781838190939,-0.0813153298626744,0.029334245249629,0.0948731154203414,-0.047239638864994,0.0706387961748987,-0.1870017223991453,-9.857155455350878,14912.0
46.3,1.5,45.0,21.765649795532227,20.78593635559082,-79.94650867400586,40.4434357870645,247.6228050403595,0.0051860962994396,-0.0034378471318632,0.2426488548517227,0.9700942635536194,-0.0338608771728521,0.0529073417758367,-0.0693526194074863,-0.0549731627106666,-0.0200690943747758,-0.0034569988492876,0.0211663816217333,0.0009918659320101,-9.812304972410203,14912.0
46.5,1.5,46.0,21.804462432861328,20.00666236877441,-79.94650873605616,40.44343581135442,247.61543278026585,0.0051642777398228,-0.0040462636388838,0.2434119880199432,0.9699008464813232,-0.0351375588454806,0.0480645368300515,-0.080602753761882,0.0217083599418401,0.0015035767573863,-0.0422326773405075,0.0989506763219833,0.0204467995092272,-9.755393437743187,14912.0
46.71,1.399999976158142,50.0,21.74060821533203,21.64472770690918,-79.94650904069556,40.44343586453545,247.5934459381104,0.0059028235264122,-0.0009619473712518,0.2452833652496338,0.9694329500198364,-0.0555025070807783,0.0519137496702293,-0.0761278892322326,-0.0388392582535743,0.0518407225608825,-0.1015430465340614,-0.0754568653274327,0.070613771919161,-9.75463680803776,14912.0
46.8,1.399999976158142,53.0,21.76064109802246,20.80183982849121,-79.94650912119515,40.44343587869115,247.58558527755736,0.0082855550572276,0.0003892344248015,0.2463718205690384,0.9691398739814758,-0.0562876061808459,0.0400351592367522,-0.0819011834912435,0.0136056188493967,0.0325548574328422,-0.0150871248915791,0.0440138377435505,-0.0281485829455778,-9.81142204284668,14912.0
46.9,1.2999999523162842,55.0,21.770658493041992,20.34063720703125,-79.94650939925383,40.44343595610627,247.56324581432344,0.006653712131083,-0.0016641452675685,0.2468361854553223,0.9690330028533936,-0.0606889034265029,0.0435697868033878,-0.0878470472657445,-0.0471866503357887,-0.0017783277435228,0.0102038457989692,-0.0601870306720957,-0.1558016557618975,-9.651942744255066,14912.0
47.11,1.2999999523162842,57.0,21.72683525085449,21.68448829650879,-79.94650964312723,40.44343605688592,247.53919522094728,0.0038012387230992,0.0006671415176242,0.2443953156471252,0.9696680307388306,-0.0467010823749453,0.0388869062871381,-0.1034661171251146,0.083072580397129,0.0110167423263192,0.0708721801638603,-0.0340245230449363,0.0844316744059324,-9.653968804478646,14912.0
47.3,1.2000000476837158,62.0,21.709306716918945,22.46376037597656,-79.9465097146579,40.443436069379786,247.5289620571137,0.0057603525929152,0.0028317703399807,0.2424340099096298,0.9701467156410216,-0.0532660303588747,0.0233501391834259,-0.1049375772616493,0.0070936921983957,0.0558184422552585,0.0757217779755592,-0.0315720454836264,-0.0556699058320373,-9.796689398288729,14912.0
47.4,1.2000000476837158,66.0,21.736852645874023,21.167621612548828,-79.94651001514728,40.44343614993178,247.5144900493622,0.0084527488797903,0.003979159053415,0.2404127269983292,0.9706258177757264,-0.0468941061194085,0.0362278834477111,-0.10280474912117,0.0467185229063034,0.0753813907504081,-0.0130912428721785,0.0587046016193926,-0.0119844988826662,-9.817148805856704,14912.0
