time,wind_speed,wind_angle,battery_voltage,battery_current,position_x,position_y,position_z,orientation_x,orientation_y,orientation_z,orientation_w,velocity_x,velocity_y,velocity_z,angular_x,angular_y,angular_z,linear_acceleration_x,linear_acceleration_y,linear_acceleration_z,node_ids
0.0,0.8999999761581421,224.0,23.16043472290039,0.0477106422185897,-79.78280178819034,40.45904334834562,271.0978920515776,0.0022421432659029,-0.0036555719561874,-0.7910453081130981,0.6117425560951233,0.0019650003891197,0.0078483895427317,0.0215823087570677,-0.0026063397526741,0.0033927951008081,-0.0048813745379447,0.0856329209078103,0.0072108982619829,-9.809404168725017,14936.0
0.2,1.0,225.0,23.15793037414551,0.055662415921688,-79.78280177981158,40.45904334475625,271.1000726726055,0.0022421432659029,-0.0036555719561874,-0.7910453081130981,0.6117425560951233,0.0021007762263553,0.008241252992055,0.0218812946957716,-0.0009323119884356,-0.0042486730962991,0.0002077380340779,0.0843497768417,0.0121916684741154,-9.810925029516223,14936.0
0.3,1.0,226.0,23.151670455932607,0.0397588685154914,-79.7828016041486,40.45904329730752,271.11092267000674,0.0022417476866394,-0.0036550236400216,-0.7910478711128235,0.6117392182350159,0.0015617455479703,0.0079249992305835,0.0225881713168857,0.0010849540121853,-0.0020794523879885,-0.0033072726801037,0.085519896056503,0.0126595485094003,-9.809933926463128,14936.0
0.49,1.0,230.0,23.155426025390625,0.0397588685154914,-79.78280145692251,40.459043266068136,271.1215419080257,0.0022418047301471,-0.0036632933188229,-0.7910476326942444,0.6117395758628845,-0.001064166537993,0.003005759079594,0.0228989931791302,-0.0044874232262372,0.0040224697440862,-0.0015676751499995,0.0823837053962052,0.0084159545903094,-9.810097063779832,14936.0
0.6,1.0,231.0,23.15793037414551,0.0636141896247863,-79.78280145329364,40.45904326606652,271.1238536890745,0.0022423844784498,-0.0036624600179493,-0.7910498976707458,0.6117365956306458,-0.0007851154900488,0.0033117779409126,0.0232258535853885,-0.004513528663665,-0.0035814603324979,-0.0005946835735812,0.0843248074036091,0.0135769092652481,-9.81073090195656,14936.0
0.79,1.0,236.0,23.15417289733887,0.0397588685154914,-79.78280127634585,40.459043199554976,271.1324140336513,0.0022437390871346,-0.0036555938422679,-0.7910527586936951,0.611733078956604,0.0023755008154729,0.0051564422928391,0.0203736128724823,8.270226680906491e-05,-0.0005156015977263,-0.0022458713501691,0.0828531819954514,0.0060791102866642,-9.809104791283607,14936.0
0.89,0.8999999761581421,237.0,23.16043472290039,0.055662415921688,-79.78280110106462,40.45904315184109,271.1391191538572,0.002241265727207,-0.0036539081484079,-0.7910523414611816,0.6117334365844727,0.0020713438061792,0.0057016241113395,0.0176068289696182,-0.0001506231346866,0.0002546086907386,0.0057461359538137,0.0822860294859856,0.0093029395176563,-9.8096433198452,14936.0
1.1,0.8999999761581421,237.0,23.155426025390625,0.055662415921688,-79.78280109533256,40.45904314887276,271.1409038361311,0.0022411511745303,-0.0036543041933327,-0.7910547852516174,0.6117304563522339,0.0020221051047624,0.0056582595292645,0.0180523741301597,-0.0001650584017625,0.0034499918110668,-0.0039319251663982,0.0854198812600225,0.008718445788254,-9.809152738451957,14936.0
1.2,0.8999999761581421,238.0,23.155426025390625,0.0477106422185897,-79.78280094590399,40.459043104325794,271.1516414936781,0.0022436957806348,-0.0036568341311067,-0.7910546660423279,0.6117303967475891,0.0025555529773724,0.0024260544471239,0.0198385951224686,-0.0016946088289842,0.0013341107405722,0.0017651917878538,0.0838834157120436,0.0064167321729473,-9.809391889572144,14936.0
1.39,0.8000000119209291,239.0,23.159181594848643,0.0477106422185897,-79.78280075058262,40.45904305475844,271.16080009007453,0.0022379257716238,-0.0036518718115985,-0.7910575866699219,0.6117267012596129,0.0014661646004797,0.0064118786473825,0.0180655235023483,0.0011404943652451,0.0014284227509051,0.0015341595280915,0.0868637598026543,0.012854482345283,-9.808334128260611,14936.0
1.5,0.8000000119209291,240.0,23.15417289733887,0.0397588685154914,-79.78280074381513,40.459043052333854,271.1626296546459,0.0022373038809746,-0.0036533307284116,-0.7910575866699219,0.6117267012596129,0.0012016320870806,0.0064584559173564,0.0183677315308033,-0.0031273306813091,0.0016519173514097,-0.0054398290812969,0.0869457944110036,0.0084504508785903,-9.80821893811226,14936.0
1.69,0.8000000119209291,239.0,23.14916610717773,0.055662415921688,-79.7828007368173,40.45904304963445,271.164489975214,0.0022378447465598,-0.0036526382900774,-0.7910606265068054,0.6117228269577026,0.0013658586474954,0.0068150466659704,0.0186536608908904,0.0004248542827554,-0.0024050809442996,0.0041135111823678,0.0843179460614919,0.0110865150229074,-9.810036252737046,14936.0
1.8,0.8000000119209291,238.0,23.15417289733887,0.0477106422185897,-79.78280059074612,40.4590430062995,271.1727181282044,0.0022429395467042,-0.0036568185314536,-0.7910615801811218,0.6117215156555176,0.0017574572715939,0.0018162819687146,0.0160279935671924,-0.0012997423764318,-0.0032244659960269,-0.0035344287753105,0.0857041929848492,0.0108956810901872,-9.80988071680069,14936.0
1.99,0.8000000119209291,231.0,23.14165306091309,0.0238553211092948,-79.78280038003948,40.459042956690006,271.18186511659616,0.0022364894393831,-0.0036504254676401,-0.7910644412040709,0.6117178201675415,0.0006193297835135,0.0063937698744661,0.015485342361652,-0.0032807784155011,-0.0013080069329589,-0.0040881130844354,0.0833665949385613,0.0073295339278411,-9.810312241315842,14936.0
2.1,0.8000000119209291,232.0,23.15667724609375,0.055662415921688,-79.78280037295548,40.45904295453891,271.18343617582315,0.0022364894393831,-0.0036504254676401,-0.7910644412040709,0.6117178201675415,0.0009251826878641,0.006719494288759,0.0158058558557723,0.0023343628272414,-0.0027957051061093,0.0040451865643262,0.0827641398645937,0.0102310982078779,-9.810922690629962,14936.0
2.29,0.8000000119209291,226.0,23.15793037414551,0.0397588685154914,-79.78280018575447,40.45904291712211,271.1929192450046,0.0022333380766212,-0.0036519286222755,-0.791066586971283,0.6117151379585266,-0.0015077048357052,0.0064151355441762,0.0156105775539987,-9.897967538563536e-05,-0.0019529588753357,-0.0021392880007624,0.0848211172409355,0.0072939247271278,-9.809670801758768,14936.0
2.39,0.8000000119209291,222.0,23.159181594848643,0.0477106422185897,-79.78280000515221,40.45904288188407,271.2024789955616,0.0022299529518932,-0.0036528820637613,-0.7910667657852173,0.6117148995399475,-0.0034279445590094,0.0057591955522913,0.0177927158437753,0.0002334998571313,0.0009842731524258,0.0024822829291224,0.0841910158004611,0.006592853848706,-9.809954391717907,14936.0
2.49,0.699999988079071,220.0,23.15667724609375,0.0397588685154914,-79.78279999757031,40.459042883694046,271.20426898264884,0.0022307047620415,-0.0036525304894894,-0.7910691499710083,0.6117118000984192,-0.0038034270265314,0.0059345127356068,0.0180048430593691,-0.0002312982542207,0.000694649585057,-0.0023305478971451,0.0864869250264018,0.0109817916189786,-9.809125841259958,14936.0
2.7,0.699999988079071,219.0,23.152921676635746,0.0715659633278846,-79.78279980110878,40.459042815432376,271.21610071325296,0.0022339320275932,-0.0036449078470468,-0.7910692691802979,0.6117116808891296,0.0009466993924732,0.0072132609169921,0.0199323677561227,-0.000921506434679,0.0010296676773577,-0.0012462894665077,0.0862111648544669,0.0075957364146597,-9.809605897665024,14936.0
2.89,0.699999988079071,214.0,23.159181594848643,0.0318070948123931,-79.78279960532677,40.45904274540207,271.2237354125976,0.0022350933868438,-0.003640156937763,-0.7910720705986023,0.6117081642150879,0.0040943372503624,0.0084811352161801,0.0150219161347311,-0.0029987297020852,0.0030446697492152,-0.0007232862408272,0.0839877154212445,0.01265237082378,-9.81106302380562,14936.0
3.0,0.699999988079071,214.0,23.14916610717773,0.0318070948123931,-79.78279959687177,40.4590427399662,271.22525866889947,0.0022356628905981,-0.003639836795628,-0.7910750508308411,0.6117042899131775,0.0038761563245235,0.0087114984513657,0.0152777102538229,-7.138121145544574e-05,-0.0022550201974809,-0.0014527587918564,0.0859343540109694,0.0129708944703452,-9.810312241315842,14936.0
3.2,0.6000000238418579,214.0,23.15041732788086,0.055662415921688,-79.78279958822438,40.45904273444876,271.2268170621395,0.0022356628905981,-0.003639836795628,-0.7910750508308411,0.6117042899131775,0.0043198234804481,0.0088877194777115,0.0156810285402833,0.0007036405149847,0.0008029786404222,0.0025831335224211,0.0830926711577922,0.0085233297978993,-9.810364866256712,14936.0
3.3,0.6000000238418579,213.0,23.15417289733887,0.0397588685154914,-79.78279926929912,40.45904276352578,271.2383965756893,0.0022023592609912,-0.0036414735950529,-0.7910787463188171,0.6116995811462402,-0.0135372886890841,0.0210117314226521,0.0177471242187662,0.0024274243041872,-0.0027359798550605,0.0066328756511211,0.0838332849740982,0.0120751741225831,-9.810322766304015,14936.0
3.49,0.5,212.0,23.16043472290039,0.0636141896247863,-79.78279906745296,40.45904274601451,271.2502763476372,0.0022047301754355,-0.003647519275546,-0.7910814881324768,0.6116960048675537,-0.0151065031059722,0.0159800767552931,0.0196895184127184,5.655759741785005e-05,-0.000718522875104,0.002611847128719,0.0850615839846432,0.0075650505238445,-9.80918197453022,14936.0
3.59,0.5,214.0,23.16168594360352,0.0795177370309829,-79.78279904482591,40.45904275560361,271.25228258037566,0.0022047301754355,-0.003647519275546,-0.7910814881324768,0.6116960048675537,-0.0150346302382144,0.016100013665602,0.0201717873997772,0.0016385130584239,-0.0006810128688812,0.0043303770944476,0.0838395159132778,0.0054770218057092,-9.809907029271129,14936.0
3.79,0.5,215.0,23.15667724609375,0.055662415921688,-79.7827988190423,40.459042698458425,271.264224698782,0.0022083583753556,-0.0036414666101336,-0.7910836338996887,0.611693263053894,-0.0110041143361545,0.0172642893555178,0.0214970622342492,-0.0001964091643458,-0.001772275660187,0.003789217211306,0.0865421903505921,0.0121386209805496,-9.809946205615995,14936.0
3.89,0.5,214.0,23.155426025390625,0.055662415921688,-79.78279868493144,40.4590426105521,271.2737868931293,0.002226406475529,-0.0036394598428159,-0.7910831570625305,0.611693799495697,-0.001083995317084,0.0092964446234077,0.0218858466694049,-0.0011762575013563,0.0017717765877023,-0.0025642833206802,0.0856977153662592,0.0079123020434053,-9.809306520223618,14936.0
4.1,0.5,218.0,23.15793037414551,0.055662415921688,-79.7827986740522,40.459042609241855,271.2760028746128,0.002227428369224,-0.0036393476184457,-0.7910864949226379,0.6116895079612732,-0.0009911124684327,0.0097401104428989,0.0221943846989606,0.0013196105137467,-0.0040948004461824,-0.0007222811109386,0.0846668512467295,0.012548631853424,-9.810635007619858,14936.0
4.2,0.6000000238418579,218.0,23.15667724609375,0.055662415921688,-79.78279846607757,40.45904254081969,271.2873755004406,0.0022264225408434,-0.0036329363938421,-0.7910865545272827,0.6116894483566284,0.0008538193208536,0.0123298083984723,0.0228769281103328,0.0010873302817344,0.0010646402370184,-0.0010095945326611,0.0867437822464853,0.0130649432796053,-9.809966670870784,14936.0
4.39,0.6000000238418579,221.0,23.16043472290039,0.0477106422185897,-79.78279829342048,40.459042495419,271.2983043100834,0.002227833494544,-0.003640916198492,-0.7910881638526917,0.6116873025894165,-0.0012620503511364,0.006644457411318,0.0232254412458831,-0.0022134156897664,0.0055923447944223,-0.0038913225289434,0.0823068419191986,0.0092551470949547,-9.811148393154143,14936.0
4.5,0.6000000238418579,225.0,23.15041732788086,0.0397588685154914,-79.78279828554012,40.45904249483982,271.30064388179784,0.0022286751773208,-0.0036409336607903,-0.7910912036895752,0.6116833686828613,-0.0010849567103101,0.0070657898279471,0.0234403657548241,0.0009432137012481,-0.0021064414177089,0.0013261190615594,0.0844365988578647,0.0123673099244479,-9.809919893145562,14936.0
4.7,0.699999988079071,228.0,23.155426025390625,0.0795177370309829,-79.7827982773808,40.45904249416376,271.30301549100875,0.0022286751773208,-0.0036409336607903,-0.7910912036895752,0.6116833686828613,-0.0008305801981976,0.0071159574162577,0.0239068915135814,-0.0014647633070126,0.0034426711499691,0.0031145431566983,0.0839096185471862,0.0058729051431873,-9.809338679909708,14936.0
4.79,0.8000000119209291,230.0,23.15417289733887,0.2544567584991455,-79.78279808795915,40.459042405135065,271.3112171497345,0.0022312649525702,-0.0036351177841424,-0.7910938858985901,0.6116799712181091,0.0032064437259951,0.008344644514282,0.0206487168383113,-0.0012705873232334,0.0019886475056409,0.0033257205504924,0.0831184354517609,0.0071446123067289,-9.810454913377765,14936.0
4.99,0.8999999761581421,226.0,23.14415740966797,0.3816851377487183,-79.78279787050019,40.45904233794505,271.321118434906,0.002228413010016,-0.0036574930418282,-0.7911321520805359,0.611630380153656,0.0021409330261486,0.0120528348895943,0.0218285651550896,-0.0030808802694082,-0.0043192831799387,0.01057296898216,0.0896360800601542,0.0242980977916158,-9.808334128260611,14936.0
5.09,0.8999999761581421,230.0,23.142906188964844,0.3737333714962005,-79.78279785809357,40.45904233362782,271.3233272638321,0.0022234953939914,-0.0036460375413298,-0.7911130785942078,0.6116551160812378,0.0013070396089689,0.0109532842808767,0.0220983209004972,0.0031023612245917,0.0047391569241881,-0.0071516134776175,0.0819277961645275,0.0050424469169229,-9.812128386497498,14936.0
5.29,1.0,226.0,23.139148712158203,0.3339745104312897,-79.7827976773506,40.459042245694654,271.3299515452385,0.0022018032614141,-0.0036577591672539,-0.791115403175354,0.6116520762443542,0.0048596702886416,0.0112254041800283,0.0195259744102285,-0.0025004823692142,0.0023141512647271,0.0066831219010055,0.0813260811287909,0.0212788286036811,-9.809234014749528,14936.0
5.4,1.0,226.0,23.13414001464844,0.3578298389911652,-79.78279754800106,40.45904216484523,271.3336057271957,0.0022078610491007,-0.0036405294667929,-0.7911215424537659,0.6116442680358887,0.0083676439198342,0.0031033010235722,0.0156160657573954,0.003762372303754,-0.0018779945094138,-0.0075292740948498,0.0838005771115422,0.0057986809074645,-9.807136618494988,14936.0
5.6,1.100000023841858,225.0,23.13789749145508,0.3737333714962005,-79.78279754659172,40.459042156645545,271.3351763095856,0.0022008731029927,-0.0036306292749941,-0.7911017537117004,0.6116698980331421,0.0089347015971571,0.0032643538509536,0.0159131297127659,-0.0019019596511498,0.0019854444544762,0.0031891288235783,0.0774030196946114,0.0168192794232163,-9.81075779914856,14936.0
5.7,1.100000023841858,223.0,23.13664436340332,0.4214440286159515,-79.78279736607747,40.459042086982926,271.3408608045578,0.0021766296122223,-0.0036449271719902,-0.7911263704299927,0.6116379499435425,0.0057963089974498,0.0044286342615851,0.0146178321960522,0.0034703472629189,-0.0033066254109144,0.0033258742187172,0.0849312733020633,0.0104061537946108,-9.810010524988176,14936.0
5.89,1.2000000476837158,218.0,23.13163757324219,0.4771064221858978,-79.78279718312933,40.45904202453796,271.3464941289425,0.0021617161110043,-0.0036397669464349,-0.7910988330841064,0.6116737723350525,0.0010742287518831,0.0046982660391962,0.0140801548174978,0.0015091073000803,-0.000731305219233,0.0043939128518104,0.0855706023797392,0.0098598662519361,-9.811388128995896,14936.0
5.99,1.100000023841858,215.0,21.69428253173828,22.12978744506836,-79.78279717881567,40.45904202260907,271.3479392733574,0.002176207024604,-0.0036690488923341,-0.7911472916603088,0.6116108894348145,0.001529646622627,0.004701856719973,0.0163125177631234,-0.0063562002032995,0.009174077771604,0.0045567443594336,0.0799085059203207,0.0210817226185463,-9.823842698335648,14936.0
6.19,1.100000023841858,209.0,23.11786460876465,0.4055404663085937,-79.78279717593801,40.45904201945073,271.3494979646206,0.0023540765978395,-0.003675683401525,-0.79108726978302,0.6116877794265747,0.000685522038952,0.0042905723202811,0.0143632717913545,-0.003822359489277,-0.008363613858819,0.002617911202833,0.0945390617474913,0.0239448871370405,-9.801695199608805,14936.0
6.29,1.100000023841858,209.0,23.135393142700195,0.278312087059021,-79.78279702817356,40.45904196649555,271.35543324613565,0.0023815832100808,-0.0036619482561945,-0.7910385727882385,0.6117507815361023,-0.0029408673462301,0.003259487578269,0.0174596770344627,0.0018716205377131,-0.0318896733224391,-0.0017723410855978,0.0836425012908876,0.0221599469007924,-9.812549386024475,14936.0
6.5,1.100000023841858,207.0,23.080303192138672,1.0019235610961914,-79.78279684330276,40.45904188432755,271.3602899518013,0.0024565274361521,-0.0036556387785822,-0.7910581231117249,0.6117252707481384,-1.4654242959770431e-05,0.0054120322557678,0.0170455240520448,0.0009167913813143,-0.011420814320445,0.0220248959958553,0.0808458694070577,0.0223587111197412,-9.807016165852549,14936.0
6.6,1.0,205.0,23.125375747680664,0.4532511234283447,-79.78279683806747,40.45904188289411,271.3619399573803,0.0023794723674654,-0.0037289529573172,-0.7910481095314026,0.6117379665374756,-0.0024161838124736,0.0060108838519173,0.0156746878701602,-0.0108539843931794,-0.0040065571665763,0.0149718532338738,0.0980078676156699,-0.0019807031890377,-9.81324988245964,14936.0
6.79,0.8999999761581421,203.0,23.13414001464844,0.3021674156188965,-79.78279668938349,40.4590418069368,271.3637296464443,0.0023550675250589,-0.0037165451794862,-0.7910493016242981,0.6117365956306458,0.002330665866475,0.0031134137207344,0.0151302667620531,-0.0080737341195344,-0.0043676779605448,0.0093585355207324,0.0951558607723564,0.0128416561579797,-9.821849967241286,14936.0
6.9,1.0,206.0,23.06027030944824,2.377580404281616,-79.78279651385823,40.459041755772006,271.36946882867807,0.0022970212157815,-0.0036682619247585,-0.7910881042480469,0.6116869449615479,-0.0011955820692279,0.002098478763787,0.0163248498311611,0.0111510707065463,-0.0043277954682707,0.0085511822253465,0.0934135640971362,0.0194064085395075,-9.823497712612152,14936.0
7.09,0.8999999761581421,207.0,22.927553176879893,4.842630386352539,-79.78279650966998,40.45904175883294,271.3712476100921,0.0022531524300575,-0.0036850648466497,-0.7911186218261719,0.6116476058959961,-0.0039956867149777,0.00171692957466,0.0178657774998537,0.0155925778672099,0.0118336249142885,-0.0276629943400621,0.0779829355794936,0.0177652035991195,-9.798959287405015,14936.0
7.2,0.8999999761581421,208.0,22.87747001647949,5.757084369659424,-79.78279632969193,40.45904167673794,271.375143399477,0.0023921362590044,-0.0036931175272911,-0.7910774350166321,0.6117002964019775,-0.0010581348252184,0.0055438047904074,0.0175733282097041,0.0049995006993412,0.0220138821750879,-0.029801033437252,0.1208318343758583,0.0134638467268086,-9.825042546987534,14936.0
7.4,0.8999999761581421,209.0,22.77480316162109,7.95177412033081,-79.78279615917323,40.4590416089921,271.380215069294,0.0027655158191919,-0.0034204067196697,-0.7910976409912109,0.6116741895675659,-0.0057661208790012,0.0054068667551545,0.0205400954081043,-0.0310020428150892,-0.0233934298157692,-0.0085605503991246,0.0806154251564294,-0.0221612876490689,-9.81509760260582,14936.0
7.49,1.0,205.0,22.6959228515625,9.28767204284668,-79.78279615402367,40.45904160880719,271.38231249713897,0.0030274463351815,-0.0033104876056313,-0.791131854057312,0.61162930727005,-0.0051839509310655,0.0065155591386271,0.0203154375695095,-0.0470691993832588,-0.0815815553069114,0.123464323580265,0.0720983617007732,-0.0733830497972667,-9.813872026205065,14936.0
7.69,1.0,205.0,22.564456939697266,11.943564414978027,-79.78279614760605,40.459041608077456,271.38444807195657,0.0035531320609152,-0.0029597394168376,-0.7910526990890503,0.6117306351661682,0.0008105971243578,0.0067291876716018,0.0235366505733168,0.0282333251088857,0.0142822060734033,-0.0647173970937728,0.1511120974458754,0.1391456427052617,-9.869514130353927,14936.0
7.79,1.0,203.0,22.488082885742188,13.42259407043457,-79.78279600118414,40.45904154843522,271.3865941967964,0.0048997662961483,-0.0020119440741837,-0.7911556363105774,0.6115919947624207,-0.0046622163553016,-0.0005721269057558,0.0171402023905445,-0.0429203100502491,-0.0487635172903537,0.0951840206980705,0.0292033978085964,-0.132165236659348,-9.81611384868622,14936.0
7.99,1.100000023841858,202.0,22.330324172973643,16.293184280395508,-79.78279584475685,40.45904143045724,271.38938002848624,0.0074048107489943,-0.0005345243844203,-0.7912513017654419,0.6114460229873657,0.0136342019343497,-0.0018757195868431,0.0192471982309037,0.1405801773071289,0.0366786755621433,-0.0468135364353656,0.0396143652778118,-0.0074378416064428,-9.812097980976104,14936.0
8.1,1.2000000476837158,202.0,22.263965606689453,17.843780517578125,-79.78279585018821,40.45904142468724,271.39125429654115,0.0086967954412102,-2.893773671530653e-05,-0.791229248046875,0.6114579439163208,0.0112655036773075,-0.0035738103849265,0.0184034747937149,0.0653923004865646,0.0087277721613645,0.020552210509777,0.0933119687251746,-0.20067622192204,-9.817637633085251,14936.0
8.29,1.2000000476837158,209.0,22.07490539550781,21.21533203125,-79.78279566638838,40.45904135880991,271.39683487081527,0.0078437831252813,-0.0009693049360066,-0.7913488149642944,0.6113139986991882,-0.0196222455401202,-0.005140019055146,0.0353505822527136,-0.0837048664689064,0.0482063442468643,-0.0323156528174877,0.1788384611718356,-0.2651174720004201,-9.917152565717696,14936.0
8.4,1.2999999523162842,204.0,21.975994110107425,23.1953239440918,-79.78279549603728,40.459041246662295,271.39819913172715,0.0039198542945086,-0.0013819689629599,-0.7912701368331909,0.6114526987075806,-0.011227723254776,0.0161532353027979,0.037680925562356,-0.009200170636177,0.0067609138786792,-0.0372127182781696,0.1757858126051724,-0.04265035841614,-9.880519759655,14936.0
8.59,1.2999999523162842,205.0,21.80070686340332,26.50326156616211,-79.78279546025381,40.4590412586038,271.40286018514627,-0.0011363453231751,-0.0016275345114991,-0.7912937998771667,0.6114329695701599,-0.0276652507242969,0.0349880715817632,0.0598770840272708,-0.0273893848061561,-0.0787871330976486,-0.0108919041231274,0.2123450351133942,-0.1410211371257901,-9.99104967713356,14936.0
8.69,1.2999999523162842,198.0,21.70304679870605,28.30036354064941,-79.78279519913244,40.45904120298249,271.4179566707611,-0.0115319257602095,0.0017539149848744,-0.7921186089515686,0.6102558970451355,-0.0640187536098844,0.0912966422418924,0.1993719897068384,-0.110777661204338,-0.0605997741222381,0.0176561176776886,0.1404011129960417,-0.1465867819357663,-10.809021352529529,14936.0
8.89,1.399999976158142,196.0,21.99101829528809,21.811716079711918,-79.78279479827911,40.45904132182629,271.4695098009109,-0.0158896539360284,0.0006905283080413,-0.7923643589019775,0.6098408699035645,-0.1237510744422373,0.1424109646255113,0.4343250219606643,0.0383913367986679,0.0914687365293502,0.0923032611608505,0.1281647087540477,-0.1404405177477747,-11.289972381591795,14936.0
8.99,1.399999976158142,198.0,22.012304306030277,21.430030822753903,-79.78279456563777,40.459041416389866,271.5131918992996,-0.0082112606614828,-0.0037901913747191,-0.7926583886146545,0.6095991134643555,-0.1579302544565562,0.1604545503014553,0.4466655609039333,0.0738928616046905,0.2380686104297638,-0.0214048214256763,0.0590158562175929,-0.0137378687225282,-10.213505827188492,14936.0
9.19,1.5,195.0,21.97974967956543,21.883281707763672,-79.78279431169263,40.45904153120306,271.5564678516388,0.0027639011386781,-0.0090548275038599,-0.7925999760627747,0.609668493270874,-0.186263982150079,0.1755482300090937,0.4224027254999165,0.1573359817266464,0.223520815372467,-0.0838096961379051,0.1857821759395301,-0.0012021738337352,-9.771567420959473,14936.0
9.3,1.399999976158142,203.0,21.954710006713867,23.24303436279297,-79.78279352277697,40.45904170996339,271.62903322839736,0.0211611725389957,-0.0056969104334712,-0.7921102643013,0.6099845767021179,-0.1908665238174636,0.1689287644267132,0.2931972600190417,0.1257054060697555,0.0659663081169128,-0.0467903949320316,0.1608211797662079,-0.1410317077953368,-9.35655778169632,14936.0
9.5,1.399999976158142,201.0,21.81072425842285,24.74592018127441,-79.7827929505768,40.45904205224648,271.651416203022,0.0234678462147712,-0.0031894720159471,-0.7915920615196228,0.610590934753418,-0.1797214710630335,0.1334354401516117,0.1400851306833888,-0.0735834017395973,-0.0962599739432334,0.0136499851942062,0.1942373594082892,-0.1935286951437592,-9.287105138897896,14936.0
9.6,1.399999976158142,201.0,21.78067398071289,26.034107208251957,-79.7827927638037,40.45904216864261,271.6650479640961,0.0183871630579233,-0.001145519898273,-0.7915952205657959,0.6107680797576904,-0.1630666030871697,0.1197276805317313,0.1178839561133113,-0.142050415277481,-0.1226739659905433,0.0203611683100462,0.1415141213592142,-0.1866568645834923,-9.526710587739943,14936.0
9.79,1.399999976158142,196.0,21.74186134338379,26.25675773620605,-79.78279209272802,40.45904266682021,271.7273650970459,0.0072195972315967,-0.0033733746968209,-0.7917357683181763,0.6108117699623108,-0.1918068644323169,0.101002104853688,0.1923205002559855,-0.1159422993659973,-0.1111986190080642,0.022250834852457,0.1016091768722981,-0.151923298118636,-9.840676832199096,14936.0
9.9,1.399999976158142,193.0,21.711811065673828,26.14543342590332,-79.78279187166126,40.45904277477216,271.748631319046,0.0029804781079292,-0.0034445850178599,-0.7918254137039185,0.6107306480407715,-0.1921201157531552,0.0949937766673039,0.2230611739852151,-0.0728899389505386,-0.0920856446027755,0.0352274365723133,0.0954059754218906,-0.1653901575319469,-10.101515275239946,14936.0
10.09,1.399999976158142,193.0,21.666736602783203,27.3620548248291,-79.78279170914064,40.45904292171283,271.77306022310256,0.0034948359243571,-0.0026109425816684,-0.7916537523269653,0.6109544038772583,-0.1928475553212952,0.094108759857479,0.259016405341309,0.0713857784867286,-0.0232669357210397,-0.0001943910465342,0.1112195052020251,-0.1201524427346885,-10.086367478370668,14936.0
10.19,1.399999976158142,192.0,21.670494079589844,27.05988693237305,-79.78279098126578,40.45904300252389,271.8286869134903,0.0107971727848052,-0.0025507353711873,-0.790715217590332,0.6120837926864624,-0.1832051627279619,0.1397754755831412,0.3282057595575197,0.1108831614255905,-0.0111152864992618,-0.0741218924522399,0.1419877732358873,-0.1034765856899321,-10.248845229148865,14936.0
10.39,1.399999976158142,188.0,21.849536895751957,23.44978141784668,-79.78279049372219,40.45904316632954,271.88470061683654,0.0177513808012008,-0.0018997695297002,-0.7897397875785828,0.6131823062896729,-0.148375379851048,0.1207575503536619,0.3436578607487533,0.0721234753727912,0.0057360799983143,0.0532811731100082,0.2202792682126164,-0.0282983858697116,-10.236128704547884,14936.0
10.49,1.399999976158142,188.0,21.73184394836425,25.30254554748535,-79.78279032224252,40.45904326659416,271.91888984107965,0.0195870231837034,-0.0011117893736809,-0.7894230484962463,0.6135360598564148,-0.1352196415765324,0.1188859304370087,0.3316797800579191,0.0013178689405322,-0.0537787936627864,0.065343901515007,0.1730867926776409,-0.1714484576694667,-9.763234553933144,14936.0
10.69,1.5,187.0,21.915895462036133,23.338457107543945,-79.78279016711177,40.45904335065909,271.95262964630126,0.0206928849220275,-0.0003353851789142,-0.7894797921180725,0.6134275197982788,-0.1187843972435632,0.1094289018863958,0.3250702988899836,-0.0325680635869503,-0.0095188403502106,0.0317166037857532,0.1505450180266052,-0.0797731520142406,-9.622881497740746,14936.0
10.79,1.399999976158142,186.0,21.632932662963867,28.03000259399414,-79.78278992249034,40.45904354959895,271.9742272701264,0.0188356731086969,-0.0010635507060214,-0.7899950742721558,0.6128230094909668,-0.1099473715496952,0.0722478878813958,0.051390621100136,-0.1171064153313636,-0.0380722098052501,-0.0099190585315227,0.22113391187042,-0.1566693825647234,-8.877973120808601,14936.0
10.99,1.5,188.0,21.348716735839844,32.673839569091804,-79.78278954105824,40.45904375875191,272.01961203479766,0.0102370772510766,-0.0021882883738726,-0.7897757887840271,0.6133062839508057,-0.0941322903213661,0.0691426422587779,0.1739144389825951,-0.0723742917180061,-0.0087526459246873,-0.0026348649989813,0.2148866187594831,-0.103662097742781,-9.627548160552982,14937.0
11.1,1.5,187.0,21.37626266479492,32.689743041992195,-79.78278944411309,40.45904381973794,272.04411765003204,0.0093873422592878,-0.00321098533459,-0.7897599935531616,0.6133358478546143,-0.0879070618468329,0.0668716463513917,0.3162420151892304,-0.0420912094414234,0.0328010246157646,0.0281252190470695,0.0987569507583976,-0.0954485139157623,-10.99306597352028,14937.0
11.29,1.5,186.0,21.21725082397461,35.282020568847656,-79.78278892573533,40.4590436850305,272.1618599500656,0.0102286292240023,-0.0088208485394716,-0.7899159789085388,0.6130664348602295,-0.0661103043515133,0.1020552243269489,0.7035838123088767,-0.0108011094853281,0.0297561697661876,0.0518385432660579,0.1742807758413255,-0.0722359996754676,-11.357553330659869,14937.0
11.4,1.5,187.0,21.13211250305176,36.97574996948242,-79.78278868693812,40.45904361133916,272.22291549110406,0.0123094236478209,-0.0090047353878617,-0.7903631925582886,0.6124487519264221,-0.0578434835403609,0.1036502491537652,0.880740681287141,0.020533001050353,0.0227167066186666,-0.0208577718585729,0.2920299033075571,0.0314969178987667,-11.848059879541395,14937.0
11.6,1.5,184.0,21.083282470703125,37.802734375,-79.78278859005906,40.4590436346145,272.3219704236984,0.0155351851135492,-0.0063893194310367,-0.7911721467971802,0.6113628745079039,-0.0525444430306951,0.1022116167850814,1.093258835383951,0.0595270805060863,-0.0023959234822541,-0.001988282892853,0.2036593068949878,0.0049838217278011,-11.93592365026474,14937.0
11.69,1.600000023841858,186.0,21.056989669799805,38.97959518432617,-79.78278841229772,40.459043638765344,272.57175358200067,0.0192293412983417,-0.0014535033842548,-0.7935388088226318,0.6082140803337097,-0.0404658245289905,0.0913991050665834,1.5398076369892433,-0.0400523953139782,-0.0837341323494911,0.081681452691555,0.3259995219111443,-0.1997503518685698,-12.128716875314716,14937.0
11.89,1.7999999523162842,188.0,20.910499572753903,40.49043273925781,-79.78278833836262,40.459043542731536,272.9034791793823,0.0100378934293985,-0.0010111929150298,-0.7956940531730652,0.6056148409843445,-0.0128232202346428,0.0820172615356221,1.9978436248840188,-0.1779298484325409,-0.0649184137582779,0.0129866041243076,0.3082312222570181,-0.1341539386566728,-12.201815257072449,14937.0
12.0,1.7000000476837158,189.0,21.029443740844727,38.69333267211914,-79.78278830139227,40.45904349441861,273.11561401748656,0.0042222654446959,-0.0018160947365686,-0.7958323359489441,0.6054995656013489,0.0136611852052773,0.0854156823767518,2.239984440106346,-0.0699522197246551,-0.0970488637685775,0.0317779555916786,0.2567112224176526,-0.1396489966101944,-12.176679246425634,14938.0
12.19,1.8999999761581416,195.0,21.10707092285156,34.995758056640625,-79.78278825054026,40.459043435513614,273.3513341751098,0.0004353475524112,-0.0006799508119001,-0.7954926490783691,0.6059626936912537,0.044362487676357,0.0880268232179217,2.4707449838544933,-0.0208848658949136,-0.0898594260215759,-0.0512177608907222,0.2522662604413926,-0.0242354069603607,-12.150842739343643,14938.0
12.3,1.8999999761581416,197.0,20.55491638183593,32.75335693359375,-79.78278813426597,40.45904323997689,273.8281846847534,-0.0018511537928134,-0.0014956042869016,-0.7938858270645142,0.6080623269081116,0.0512030895422189,0.0985720890744511,2.793566497637311,-0.080791138112545,0.0421661920845508,-0.0056264162994921,0.1176742465607822,-0.0326225069118663,-11.437920970916748,14938.0
12.49,1.7999999523162842,207.0,20.627534866333008,31.958179473876957,-79.78278787631389,40.45904302855178,274.3284986820221,-0.0093164900317788,-0.0056742778979241,-0.7921825051307678,0.6101868152618408,0.0507511390022254,0.1412690433798032,2.9034483268293902,-0.1665766835212707,0.0021737760398536,0.0203337650746107,0.1840875249356031,-0.0849851499125361,-10.864861092567445,14939.0
12.6,1.8999999761581416,210.0,20.75023651123047,30.8608341217041,-79.78278769895311,40.45904298299489,274.6219118442536,-0.0148679465055465,-0.0098617374897003,-0.7916816473007202,0.6106733679771423,0.061537316141529,0.1573664255867524,2.9609717958752624,-0.1549818068742752,0.0687386766076088,0.0246091913431882,0.1372852414101362,-0.0161941492580808,-10.458181396722797,14939.0
12.8,1.8999999761581416,212.0,21.19721794128418,33.98588180541992,-79.78278737522595,40.45904279354188,275.11460550689696,-0.0146721703931689,-0.0114448741078376,-0.7914322018623352,0.6109737753868103,0.0705615471000509,0.199085420127203,2.9651993887281964,0.0544472187757492,0.025440078228712,0.0350800603628158,0.2003983695432544,0.0878375861607492,-10.135426787137986,14940.0
12.89,1.8999999761581416,212.0,21.288618087768555,31.39360427856445,-79.782787212101,40.45904274311891,275.32721432113647,-0.0133260712027549,-0.0108989179134368,-0.7912737727165222,0.6112197637557983,0.0278309723433797,0.2144490577054966,2.9732079698632474,0.0006044434267096,0.0398767404258251,0.0492751635611057,0.2169755730964243,-0.0353661712445318,-10.387345887422564,14940.0
13.1,2.0,225.0,21.40756225585937,29.69192314147949,-79.78278692503079,40.45904277445653,275.626728614807,-0.0117184268310666,-0.0098491664975881,-0.7912023663520813,0.6113628149032593,-0.0046091689649708,0.2380850139122628,3.014818921450248,0.082526572048664,-0.0245868265628814,-0.0407218523323535,0.2929773166961968,0.0241987111140042,-10.219064190387726,14940.0
13.2,1.8999999761581416,227.0,21.51398658752441,28.538917541503903,-79.78278633346281,40.45904284780194,276.1787920799256,-0.0080238636583089,-0.0103174550458788,-0.7916409373283386,0.610846757888794,-0.0825831092753683,0.2707627964544374,2.988210368274967,-0.0429482944309711,0.014742269180715,0.0101484106853604,0.2348582771793008,0.0066874057240784,-9.84497453570366,14941.0
13.39,1.7000000476837158,238.0,21.55154800415039,26.20109558105469,-79.78278575213493,40.45904299748335,276.7432652320862,-0.0041074370965361,-0.0165689792484045,-0.7926706075668335,0.6094111204147339,-0.112581647242745,0.2933393231481981,2.916366623587016,0.0968271195888519,0.0897917300462722,-0.0025577580090612,0.1865814537741244,0.0237147352471947,-9.614155697822572,14941.0
13.5,1.600000023841858,247.0,21.411319732666016,29.62830924987793,-79.78278541877344,40.45904309379869,277.0311537590027,0.0022490092087537,-0.0186593141406774,-0.7931455373764038,0.6087420582771301,-0.1317145922685516,0.3115809937804851,2.880784129882948,0.0435420274734497,0.05151978880167,0.0138868512585759,0.2178935676813125,0.0520904870890081,-9.589820170998571,14942.0
13.69,1.600000023841858,251.0,21.467660903930664,27.05193519592285,-79.78278511724676,40.45904344762473,277.5484462585449,0.0121197625994682,-0.016398012638092,-0.7935654520988464,0.6081430912017822,-0.2017742889408793,0.3051629220915354,2.7843698573757205,0.1023231670260429,-0.0374870747327804,-0.0296326074749231,0.2534645741991699,0.0203076586173847,-9.50640847027302,14942.0
13.8,1.399999976158142,258.0,21.46014976501465,27.012176513671875,-79.78278482228777,40.45904359278629,277.82716425323486,0.0141157312318682,-0.0135225877165794,-0.7937730550765991,0.6079000234603882,-0.2233070656946572,0.2896475340191722,2.7492675352594564,0.0188384167850017,-0.0249729845672845,0.0253123734146356,0.2119799495860934,0.0161196315195411,-9.515678645968435,14942.0
14.0,1.399999976158142,273.0,21.377513885498047,30.495052337646484,-79.7827850539748,40.459044275858666,278.29906090164184,0.0161665715277194,-0.0097048971801996,-0.794246256351471,0.6073034405708313,-0.2496814875438151,0.1841325846012415,2.6157853554250243,-0.0103877102956175,-0.0778678655624389,0.0332300178706646,0.1990619884058832,-0.0062229358032345,-9.390904326438903,14943.0
14.09,1.399999976158142,274.0,21.36624526977539,30.83697891235352,-79.78278489889462,40.45904444677223,278.5605464782715,0.0166359506547451,-0.0075904475525021,-0.7945753335952759,0.6068902015686035,-0.2489926502766931,0.1633911197144875,2.6051658757818483,-0.0182403959333896,-0.0024165357463061,0.044553555548191,0.2308037082105875,0.0055939912435133,-9.623291972279551,14943.0
14.3,1.399999976158142,285.0,21.50397109985352,26.376033782958984,-79.78278393680785,40.45904481966214,279.2857671585083,0.0156220896169543,-0.0089463777840137,-0.7945880293846129,0.6068820953369141,-0.241030650903195,0.1464902900682921,2.6851663800017675,0.0345528796315193,0.0534765906631946,-0.0680012628436088,0.2266314092092216,-0.061999146756716,-9.821076965332034,14944.0
14.4,1.399999976158142,293.0,21.4238395690918,29.88276672363281,-79.78278341386238,40.45904504495197,279.6739393081665,0.0177553854882717,-0.0116383880376815,-0.7940305471420288,0.6075071096420288,-0.2322090632465374,0.1570446886563316,2.7030843440772045,-0.0233409255743026,0.092830516397953,-0.0082203391939401,0.1563626412861049,0.012542165655177,-9.654357644319536,14944.0
14.49,1.2999999523162842,284.0,21.41632652282715,29.40566062927246,-79.7827832842096,40.45904519783171,279.94403036499017,0.0201673209667205,-0.0142615055665373,-0.7933515310287476,0.6082625985145569,-0.2155245890234236,0.1537059417987987,2.684800232739005,0.0358989052474498,0.0384678095579147,0.0047243814915418,0.2656372346542776,-0.0139631692506372,-9.62995312035084,14944.0
14.7,1.2000000476837158,287.0,21.33369255065918,30.10541534423828,-79.78278254841716,40.45904524667444,280.557847579956,0.0230525806546211,-0.0151246609166264,-0.7921928763389587,0.6096477508544922,-0.1787584377365119,0.169575579562686,2.670266309073668,0.0126176355406641,-0.0238973442465066,0.0476603433489799,0.2566824979707599,-0.0371201897598803,-9.679456817507743,14945.0
14.89,1.399999976158142,289.0,21.41632652282715,29.33409309387207,-79.78278134928995,40.459044938095296,281.2094112243652,0.0238248165696859,-0.0128641137853264,-0.7917084097862244,0.6102989912033081,-0.1301416005093109,0.1875783170289674,2.7005014219904213,0.0139730628579854,0.0187913123518228,-0.0045753074809908,0.297438358515501,0.0405119448574259,-9.68155362904072,14946.0
15.0,1.5,292.0,21.39754676818848,28.17313575744629,-79.78278125815636,40.45904498740286,281.4807182159424,0.024391695857048,-0.012519615702331,-0.7919350266456604,0.6099895238876343,-0.1121506623965325,0.1599009266310294,2.6965432261524414,0.0001030188359436,-0.0170638114213943,0.058987345546484,0.2101215034537017,-0.0725539191858843,-9.72556912958622,14946.0
15.19,1.600000023841858,292.0,21.405059814453125,28.37988090515137,-79.78278122685981,40.45904502308992,281.75052984619134,0.0246466472744941,-0.0126374997198581,-0.7923201322555542,0.609476625919342,-0.0990061891683087,0.1366573973550181,2.6871654426812133,0.0483395755290985,0.0049300929531455,-0.028354836627841,0.2906764921545982,0.0350735135329887,-9.736038569211964,14946.0
15.29,1.7000000476837158,288.0,21.431352615356445,28.57072448730469,-79.782780187507,40.459044729540295,282.4574743118286,0.0254698805510997,-0.0119261508807539,-0.7929407954216003,0.6086492538452148,-0.0471032567174618,0.1477511766697898,2.732753307208976,0.0849130228161811,-0.0376869216561317,-0.0096769286319613,0.2771926484070718,-0.043572126282379,-9.557330701947214,14947.0
15.5,1.7999999523162842,275.0,21.408815383911133,28.022050857543945,-79.78277991082447,40.45904464968738,283.1111503448486,0.02573973685503,-0.0074805044569075,-0.7934058308601379,0.6081026196479797,-0.026693197926473,0.0994164219282601,2.7547446806205045,-0.0039476184174418,0.0320196188986301,0.0379562266170978,0.2670388487912715,0.0407635532878339,-9.59986568748951,14948.0
15.59,1.7000000476837158,277.0,21.473920822143555,27.55289649963379,-79.78277997248719,40.45904459905347,283.3856826629638,0.0248092468827962,-0.0078647686168551,-0.7935183048248291,0.6079896688461304,-0.0035094810483165,0.0751405209971798,2.734301991632443,0.0017144549638032,-0.0093505270779132,-0.0244733970612287,0.2682750232703984,-0.0294214692595414,-9.62885910630226,14948.0
15.79,1.600000023841858,272.0,21.33995246887207,28.95240974426269,-79.78277994659459,40.45904467979421,284.0106092300415,0.0214363113045692,-0.0090522300451993,-0.7938032150268555,0.6077294945716858,0.0292533575173797,0.0389207610992359,2.7467887448104262,-0.0160047821700572,0.0316534638404846,0.0124460319057106,0.2728699297830462,-0.0265476609813049,-9.581711837053302,14949.0
15.9,1.600000023841858,271.0,21.29988670349121,29.95433235168457,-79.78277973861468,40.459044831732456,284.3768440093993,0.0195055641233921,-0.0110549731180071,-0.7938477396965027,0.6077032685279846,0.0340094097530264,0.0334601370168898,2.8000610716710748,-0.0899302661418914,-0.0241076257079839,0.019278135150671,0.2075818749703467,-0.0660171066736802,-9.857562421560289,14949.0
16.09,1.7999999523162842,268.0,21.331188201904297,29.461322784423828,-79.78277987113316,40.45904476217208,284.6569438781738,0.0178711973130702,-0.0123832346871495,-0.7938105463981628,0.6077765226364136,0.0623243709206792,0.0197299340925614,2.8060933516644706,-0.0359033271670341,0.0110475989058613,0.0292578656226396,0.2847078371420503,0.051494779153727,-9.80037080526352,14949.0
16.2,1.7999999523162842,276.0,21.256065368652344,31.059629440307607,-79.78277954310956,40.45904446825746,285.3196750488281,0.0159603748470544,-0.012931945733726,-0.7940976023674011,0.60744309425354,0.108327275181352,0.0359103795434786,2.868075369772188,-0.0194681342691183,-0.0347552523016929,0.0150544689968228,0.2443744379281997,-0.0054480449692346,-9.916695313453674,14950.0
16.39,1.8999999761581416,270.0,21.284862518310547,30.033849716186523,-79.78277939392666,40.45904401515392,285.9379888381958,0.0153202041983604,-0.011524467729032,-0.7939250469207764,0.6077134013175964,0.1424420312483335,0.036954933408896,2.9099073950258005,0.0556415915489196,-0.037999864667654,-0.012487718835473,0.2404759530723095,0.0240535402810201,-9.909603810310363,14950.0
16.5,1.7999999523162842,269.0,21.38126945495605,27.91072654724121,-79.78277953653486,40.45904388256777,286.2292590942384,0.0144233247265219,-0.0100080650299787,-0.793778121471405,0.6079540848731995,0.1456634035004367,0.0274138232890394,2.9195652919712485,0.0126955900341272,-0.0294567216187715,-0.0296538323163986,0.3094254429638386,0.0052459528623148,-9.928344136476516,14951.0
16.7,1.7000000476837158,276.0,21.351221084594727,28.523012161254893,-79.78277968723846,40.45904374492797,286.52123220825194,0.0134014096111059,-0.0086460337042808,-0.7938762903213501,0.6078701615333557,0.153362512392427,0.0141648554046075,2.9266640425412818,-0.0413951948285102,-0.0205035395920276,0.0047865114174783,0.2504180469363928,-0.0422766984952613,-9.92965040445328,14951.0
16.8,1.600000023841858,280.0,21.23978805541992,30.336017608642567,-79.78277984439728,40.459043194098186,287.1881290283203,0.0117354029789567,-0.0074936170130968,-0.7942103147506714,0.6074835658073425,0.1822957848194834,-0.002197440366752,2.982886629077505,-0.0004957612254656,0.0106828454881906,0.0074220411479473,0.2298031765222549,-0.0203831059718504,-9.800253860950471,14952.0
16.99,1.600000023841858,281.0,21.324928283691406,28.4912052154541,-79.78278030567023,40.45904269369514,287.82212599182134,0.0092050516977906,-0.0068958355113863,-0.7943097352981567,0.6074041128158569,0.21486668576067,-0.0156142202727253,3.009646379080269,-0.0730625614523887,-0.0072781527414917,0.0484645031392574,0.2382433582283557,-0.0457262862101197,-9.855919353961944,14952.0
17.09,1.7000000476837158,282.0,21.38001823425293,28.60253143310547,-79.78278048208652,40.4590425050548,288.12272222900384,0.0068003414198756,-0.0061249271966516,-0.7939119935035706,0.6079638004302979,0.2262348561213059,-0.0198701957371932,3.0051388045358567,-0.0040563121438026,-0.0398774892091751,0.0167770814150571,0.2719209632277489,-0.0869851534813642,-9.748482028841972,14953.0
17.29,1.8999999761581416,280.0,21.30739974975586,29.40566062927246,-79.78278076730714,40.45904247623811,288.76264532470697,0.0039555029943585,-0.0077076349407434,-0.7927626371383667,0.609468936920166,0.2019342100933605,-0.0339301369045191,3.005803708359958,-0.0423855260014534,0.0516088977456092,0.0557568669319152,0.2376324155554176,0.0009311508201062,-9.774395134449003,14953.0
17.39,2.0,280.0,21.338699340820312,29.055782318115234,-79.7827809141303,40.45904274195573,289.11529310607915,0.0043001165613532,-0.0084613859653472,-0.7927966713905334,0.6094123721122742,0.1620683608304622,-0.0358353136393809,3.0326583477056763,0.0390602052211761,0.0380594618618488,-0.0065375012345612,0.2458930146507919,-0.0074968453799374,-9.7705406498909,14954.0
17.59,2.0999999046325684,274.0,21.331188201904297,28.17313575744629,-79.78278105360295,40.45904263146299,289.41807707214355,0.0055023422464728,-0.0077367047779262,-0.7932330965995789,0.6088441610336304,0.1586238723682827,-0.0223293650882286,3.0205650402152813,0.0535643510520458,-0.0505230724811554,-0.0085186585783958,0.2573237913474441,-0.0630973406508565,-9.742081666588785,14954.0
17.7,2.299999952316284,270.0,21.31866836547852,29.00012016296387,-79.782781404125,40.45904246989216,290.0818534698486,0.0035277782008051,-0.0060330089181661,-0.7938000559806824,0.6081387996673584,0.12497586665876,-0.026839920521239,3.0607041406939124,0.0340447165071964,-0.0071211187168955,-0.0350329764187336,0.2558450487814844,-0.0915673697087913,-9.793190424442292,14955.0
17.89,2.400000095367432,260.0,21.332439422607425,28.44349479675293,-79.7827816622036,40.45904210238604,290.72489889526366,0.0021509313955903,-0.0074286540038883,-0.7932186722755432,0.608887791633606,0.1425886349283393,-0.0249653609616676,3.0776695468383712,-0.0394792929291725,0.0233553927391767,0.0050439699552953,0.1670485192537308,-0.1074581466894596,-9.832450969219206,14955.0
18.0,2.400000095367432,255.0,21.159656524658203,30.36782455444336,-79.7827817697402,40.45904200453258,291.0325980987549,0.0013690929627045,-0.0084325894713401,-0.7928256988525391,0.6093885898590088,0.1322859579351516,-0.0068035312278819,3.0835099899127174,-0.0041348780505359,0.0497468002140522,-0.0355832986533641,0.2220528931729496,-0.0487340665329247,-9.860894165039063,14956.0
18.2,2.5999999046325684,244.0,21.35622978210449,28.75361442565918,-79.78278185630184,40.459041917146656,291.34226759338384,0.0006934605771675,-0.0089245028793811,-0.7926226854324341,0.609646737575531,0.1330411606063569,0.0076107910312239,3.1032265497255755,-0.0083814607933163,-0.0429616011679172,0.041732408106327,0.2404344926588237,-0.1281266013532877,-9.991012254953382,14956.0
18.3,2.5999999046325684,242.0,21.35497665405273,27.77554702758789,-79.78278208792143,40.45904165349935,291.97756155395507,0.0029342167545109,-0.0067240456119179,-0.7924739718437195,0.6098617315292358,0.1261360194827323,0.020432021510028,3.127594138990525,0.0849886536598205,0.0506183393299579,0.0066952207125723,0.2505523501709104,-0.0066592934075742,-9.848661789894104,14956.0
18.49,2.799999952316284,241.0,21.267333984375,28.76156616210937,-79.7827823262689,40.45904144317999,292.60270269775384,0.004996673669666,-0.0068869860842823,-0.7930113077163696,0.6091475486755371,0.1074958486008433,0.0382104312490511,3.103011254240557,0.0266589615494012,-0.0342475175857543,-0.0178356021642684,0.1976596250943839,-0.0321107407822273,-9.768528622984888,14957.0
18.6,2.799999952316284,241.0,21.33995246887207,28.181087493896484,-79.78278236351612,40.459041357168736,292.9130397644043,0.0032171097118407,-0.0083141745999455,-0.793645441532135,0.6083153486251831,0.0996417337352591,0.0529231351008827,3.099331544919956,-0.0834315344691276,-0.0210752412676811,0.0086010536178946,0.3008063912764192,-0.0109029741212725,-9.77525467514992,14957.0
18.79,2.799999952316284,246.0,21.411319732666016,27.91072654724121,-79.78278260512845,40.45904124200155,293.5256439056396,-0.0008316955645568,-0.0090000899508595,-0.7949490547180176,0.6066088676452637,0.1104313336428745,0.0591667012493967,3.0607192578843216,-0.038899902254343,-0.0194060578942298,-0.0112630762159824,0.2623303783871233,-0.0163357386714778,-9.656196593642235,14958.0
18.9,2.700000047683716,248.0,21.32617950439453,28.37988090515137,-79.78278280369045,40.45904120727101,293.8293987121582,-0.0011346968822181,-0.008555588312447,-0.7953209280967712,0.6061272621154785,0.1162708464703181,0.0468074954203977,3.0374256832770263,5.392604361986741e-05,-0.01561148930341,0.0579900667071342,0.2528125548362732,-0.0381459878152236,-9.6275528383255,14958.0
19.09,2.5,248.0,21.31616401672364,28.642290115356445,-79.78278281388278,40.45904114414192,294.1326328125,0.0006793905631639,-0.0082620047032833,-0.7955132722854614,0.6058794856071472,0.102235575798639,0.0526824180270719,3.0304645497684914,0.0892632007598877,-0.0083453655242919,-0.1020009443163871,0.3011201674863696,0.0489660456776619,-9.76174936115742,14959.0
19.2,2.5,253.0,21.332439422607425,28.30831527709961,-79.78278293476832,40.45904107275304,294.74314649963384,0.0046822978183627,-0.0076266559772193,-0.7954393625259399,0.6059670448303223,0.0665569253388125,0.0834631482321707,3.0351579449510235,0.0467020235955715,-0.0013948149280622,0.0318378806114196,0.3381327136605978,-0.0916000867076218,-9.762482602000237,14959.0
19.39,2.400000095367432,259.0,21.36624526977539,28.14132881164551,-79.78278299372838,40.459041044053095,295.34496458435063,0.006638222374022,-0.0097042927518486,-0.7951850891113281,0.6062527894973755,0.0363528074217108,0.0964733731608435,3.0018883976323685,-0.0526445284485816,0.0868848040699958,0.1038148328661918,0.3117088537663221,0.0168968269787728,-9.744400672316551,14960.0
19.49,2.400000095367432,267.0,21.31991958618164,28.093616485595703,-79.7827829586371,40.459041004426425,295.6440044250488,0.0061643049120903,-0.0120759466663002,-0.794988751411438,0.6064726710319519,0.0329999191986843,0.1153755789068808,2.981102986082821,-0.0234228894114494,0.0195623319596052,-0.0604715980589389,0.3329437848553062,-0.0493328305520117,-9.644806802272797,14960.0
19.69,2.400000095367432,269.0,21.22726821899414,30.145174026489247,-79.78278291207594,40.45904096933196,295.9418617095946,0.0044555584900081,-0.0131150055676698,-0.794790506362915,0.606725811958313,0.0410408134891256,0.1281774251419002,2.9758410458502342,-0.0253743100911378,-0.0218671262264251,0.0115667879581451,0.3071618396043777,0.0293570882175117,-9.772909356951716,14960.0
19.8,2.400000095367432,270.0,21.35497665405273,28.76156616210937,-79.7827830077168,40.45904093355232,296.5350604858398,0.0042178411968052,-0.010596552863717,-0.7944260239601135,0.6072539687156677,0.0427167803688049,0.1183443926224454,2.9897444739336567,0.0741515085101127,-0.0445063710212707,-0.017718881368637,0.2302620367705822,-0.0498387700226158,-9.8272808611393,14961.0
20.0,2.5999999046325684,276.0,21.23728370666504,30.065656661987305,-79.78278300104654,40.45904093611887,297.1189781036377,0.0049254796467721,-0.0088217761367559,-0.7936962246894836,0.608230471611023,0.020903330427947,0.1277720933649876,2.9667269343298868,0.0681783631443977,0.0064836549572646,-0.0725428983569145,0.2636983344890177,0.0360473444592207,-9.787810986042023,14962.0
20.09,2.5999999046325684,277.0,21.16216087341309,30.598426818847656,-79.78278292007717,40.45904091200454,297.41586073303216,0.0060039539821445,-0.0071998904459178,-0.7930260300636292,0.6091156601905823,0.0204156843011955,0.1403168952884646,2.969751347841723,0.0250015445053577,-0.0544184446334838,0.000750801002141,0.3115630022808909,-0.0460583486733958,-9.886694419384003,14962.0
20.19,2.799999952316284,282.0,21.2134952545166,29.81915283203125,-79.78278307307447,40.4590409726873,297.7022510375976,0.0070049078203737,-0.0065244818106293,-0.7920808196067809,0.6103413105010986,0.004632458169036,0.1309003467801786,2.995655160750605,-0.0609340518712997,0.0509877167642116,7.124168041627854e-05,0.294732870105654,0.0431548543553799,-9.983226102590562,14962.0
20.4,2.900000095367432,284.0,21.172178268432614,30.789268493652344,-79.78278300225243,40.45904095090657,298.2844043579101,0.0070860986597836,-0.0131844105198979,-0.7918334007263184,0.6105538010597229,0.0154115968712862,0.1568204713165396,3.016351840157657,-0.0482584200799465,0.041165679693222,0.0512677915394306,0.30089773574844,0.057159104864113,-9.99920771241188,14963.0
20.59,3.0,289.0,21.19095802307129,30.10541534423828,-79.7827829061843,40.45904091867603,298.58730085754394,0.0084172701463103,-0.0164315868169069,-0.7926838397979736,0.6093533039093018,0.0278640958168376,0.1780135140331707,3.0364692002288107,-0.0316408760845661,0.0910343006253242,0.1050302237272262,0.3411062786355615,0.0393986395653337,-9.949295879602431,14963.0
20.69,3.0999999046325684,293.0,21.209739685058597,30.44734191894531,-79.78278281157502,40.459040885380006,298.892097076416,0.0097964257001876,-0.0176388751715421,-0.7937588691711426,0.607897937297821,0.0382401521539321,0.1964017023562262,3.0502760081313607,0.0700364187359809,-0.0155317159369587,-0.0238091368228197,0.3654866462945938,0.0568199983332306,-9.977702822685242,14963.0
20.9,3.0999999046325684,297.0,21.172178268432614,30.75746154785156,-79.7827829147449,40.459040889691344,299.7487026062012,0.0057837525382637,-0.0154495369642972,-0.7963680624961853,0.6045873761177063,0.0166262010468179,0.1699858732156459,3.0450677538919697,-0.0398093163967132,0.0122730797156691,-0.0118496073409914,0.3952654192596674,-0.0378407243289984,-9.954370093345643,14964.0
21.0,3.2000000476837163,297.0,21.302391052246094,27.95048522949219,-79.7827828395491,40.45904087277025,300.05430754089355,0.0037712939083576,-0.0161541756242513,-0.7970829010009766,0.6036421060562134,0.0276370431142458,0.1621348298276944,3.0576303959397,0.0404059328138828,0.0049041579477489,0.0016890211263671,0.3255650737881661,0.0415280675981193,-9.866930830478667,14965.0
21.09,3.299999952316284,299.0,21.289871215820312,27.79145050048828,-79.78278276291131,40.459040861083714,300.3599029388428,0.0050308764912188,-0.0162350963801145,-0.7975196838378906,0.6030535697937012,0.0330453386481297,0.1574393821540696,3.0450040343609577,0.0744815319776535,-0.0189580675214529,-0.0695472359657287,0.3584375354647636,0.0553271539276465,-9.772698857188225,14965.0
21.3,3.299999952316284,305.0,21.31866836547852,27.735788345336918,-79.78278285894713,40.45904093066154,300.9329143371582,0.0122521286830306,-0.0146700106561183,-0.7970482110977173,0.6036131978034973,0.0024006782954406,0.1599371297634333,3.0029905350651687,-0.0037466802168637,0.0056965188123285,0.0244218967854976,0.3396676077693701,-0.0929933228809386,-9.737027333378792,14965.0
21.5,3.400000095367432,308.0,21.297382354736328,28.76156616210937,-79.78278296271431,40.45904098624232,301.2143855895996,0.0132665336132049,-0.015479203313589,-0.7963444590568542,0.6044996976852417,-0.0203410463255519,0.1604969774449211,2.9811246186113847,0.044670607894659,0.0378247685730457,-0.0592062585055828,0.3372274915874004,0.03259762883652,-9.645507298707964,14966.0
21.59,3.5,307.0,21.24354362487793,29.03192710876465,-79.78278285968358,40.459040977188366,301.8086849060058,0.0119288545101881,-0.0155039923265576,-0.7947031855583191,0.6066829562187195,-0.0089742725214882,0.1642369704941361,2.952901339711472,-0.0397755727171897,-0.0509625971317291,-0.0179916825145483,0.4104902897402644,0.0384553831815719,-9.65864657700062,14966.0
21.8,3.400000095367432,308.0,21.168420791625977,29.83505630493164,-79.78278297200714,40.45904105967682,302.09041937255864,0.0084487684071064,-0.0141372187063097,-0.7941876649856567,0.6074493527412415,-0.0122654513946842,0.1538283537575089,2.9475209006169907,-0.0075210784561932,-0.0566780604422092,-0.0304203871637582,0.2884075897559524,0.0214668645523488,-9.716322927474977,14967.0
21.9,3.299999952316284,306.0,21.20723533630371,28.95240974426269,-79.78278303639222,40.45904109578283,302.67267568969726,0.0042223292402923,-0.0132524594664573,-0.7945495247840881,0.6070401072502136,0.0137379720484406,0.1220514872945762,2.970253233341912,-0.0327330380678176,0.0408831909298896,0.0463337637484073,0.2814160191826522,0.117379830116406,-9.890823723077776,14967.0
22.09,3.299999952316284,306.0,21.268585205078125,29.326141357421875,-79.782782988063,40.45904109308852,302.9704471435547,0.0055698081851005,-0.0136569458991289,-0.7951831817626953,0.6061899662017822,0.0209830474966389,0.1227397750345368,2.982302859795888,0.0149543285369873,0.0169650204479694,0.0624184347689151,0.2928814040869474,0.0501383301895111,-9.906753877401352,14967.0
22.19,3.299999952316284,306.0,21.16216087341309,30.28830718994141,-79.78278293417804,40.45904109239367,303.26963766479486,0.00763691496104,-0.0148794027045369,-0.7956653833389282,0.6055055856704712,0.0115909332766252,0.1304064441422527,2.992632786141206,-0.0162027571350336,0.067497394979,0.0055840583518147,0.3462052334100008,0.0869008530769497,-9.863420162200928,14968.0
22.39,3.0999999046325684,309.0,21.15840530395508,29.49312973022461,-79.78278313421295,40.45904119395378,304.13967092895507,0.0109370602294802,-0.0175087060779333,-0.7955411672592163,0.6055479049682617,-0.0016134076404999,0.1492795151219825,2.996518542762681,-0.021024651825428,0.0210936907678842,-0.0204582531005144,0.3960648432746529,0.0957893426343798,-9.914904896020891,14969.0
22.5,3.0999999046325684,313.0,21.284862518310547,27.9345817565918,-79.78278310121999,40.45904119560944,304.439647277832,0.0113355303183198,-0.0182635188102722,-0.7953466176986694,0.6057736873626709,0.0048643919615352,0.1404498855379258,2.9925454699742384,-0.0005156862316653,0.0003627337282523,0.0108368610963225,0.3358470005169511,0.1042873478215188,-9.737959379553796,14969.0
22.59,2.900000095367432,314.0,21.129608154296875,30.63023376464844,-79.78278308555485,40.45904119954208,304.7382198181152,0.0115181654691696,-0.018712705001235,-0.7952682971954346,0.6058593392372131,0.003744910545861,0.1329580687995219,2.9749773386790954,0.0238157883286476,0.0080970572307705,-0.0328026339411735,0.302665440402925,0.081759807486087,-9.661759049892426,14969.0
22.8,2.799999952316284,313.0,21.199722290039062,30.24854850769043,-79.7827832581357,40.45904121008421,305.32019384765624,0.0087789138779044,-0.0158117711544036,-0.7957425713539124,0.6053650379180908,0.0107921248555797,0.1120420308556298,2.9655680711263632,-0.0647370070219039,-0.057359043508768,0.0477941073477268,0.3187505459412933,-0.017563640254084,-9.760799773335457,14970.0
22.89,2.5999999046325684,308.0,21.145883560180664,30.87673759460449,-79.78278344649411,40.45904128936654,305.60705908203124,0.0056635341607034,-0.0134680857881903,-0.7958680987358093,0.6052938103675842,0.0104348263960633,0.0840391156706383,2.9705425265081526,0.0391959063708782,-0.0687002390623092,-0.0127363977953791,0.3085260681062937,0.1126784311886876,-9.800529264807704,14970.0
23.1,2.5999999046325684,308.0,21.18720245361328,28.37988090515137,-79.78278348914951,40.45904130466525,306.20411260986333,0.0080915177240967,-0.007353039458394,-0.7953208088874817,0.606090247631073,0.0069256083462289,0.0464127973863218,3.0051465189444446,0.0883215367794036,0.0047817938029766,-0.1016542017459869,0.2564275959134102,0.0757972006872296,-9.977527406215668,14971.0
23.29,2.5,309.0,21.21975517272949,29.461322784423828,-79.7827837410652,40.45904133221303,306.7966190185547,0.0124650653451681,-0.0115813259035348,-0.7949401140213013,0.6064492464065552,-0.0152124720502422,0.0552952942280231,3.0098676320197337,-0.1021635457873344,0.0397659800946712,-0.0033764380495995,0.1934978693537414,-0.000257469350472,-9.874628105163575,14971.0
23.39,2.400000095367432,307.0,21.100811004638672,30.48710060119629,-79.78278395507027,40.4590413754288,307.0829959716797,0.0110725136473774,-0.0150194959715008,-0.7951816320419312,0.6060841679573059,-0.0023717174334411,0.0710586908233534,3.009359552536419,-0.0130561720579862,0.008427195250988,-0.0134393256157636,0.3159392777457833,0.00842970810947,-9.79253261268139,14972.0
23.49,2.0999999046325684,308.0,21.11833953857422,30.48710060119629,-79.78278399622887,40.4590413699661,307.38428076171874,0.0081610232591629,-0.0162001438438892,-0.7957794666290283,0.6053149104118347,0.0123422760335185,0.0773056745532007,3.0170986402504543,-0.0473204515874385,-0.014789062552154,-0.0186106543987989,0.322964707352221,0.0311923030880279,-9.91044347047806,14972.0
23.69,2.0999999046325684,310.0,21.127103805541992,30.18493461608887,-79.78278429263548,40.45904138701012,307.97338446044915,0.0031347330659627,-0.0151033913716673,-0.7964051961898804,0.6045666933059692,0.0435546438378371,0.0458322021293445,3.032402159352692,-0.0178885757923126,0.0023140609264373,0.0380209349095821,0.1733825704269111,0.0625824933126568,-9.86257231593132,14972.0
23.89,1.7999999523162842,308.0,21.194713592529297,28.56277275085449,-79.78278462065488,40.45904142722884,308.5635524597168,0.0071011688560247,-0.0107167288661003,-0.7959316968917847,0.6052500605583191,0.0322483349530462,0.0244900365704157,2.9938129838202587,0.1054292693734169,-0.0088924849405884,-0.0457618311047554,0.2539575675688684,-0.0004008997231721,-9.706718291044236,14973.0
24.0,1.8999999761581416,307.0,21.22726821899414,28.06976127624512,-79.78278467982432,40.45904143527903,308.8614803161621,0.0090472837910056,-0.0077456589788198,-0.7954696416854858,0.6058764457702637,0.0087106753887529,0.027133045363798,2.967120939718875,0.0443864986300468,-0.0023403263185173,-0.0612293817102909,0.2101802314259112,0.0415650192601606,-9.56542266368866,14973.0
24.09,2.0999999046325684,302.0,21.08828926086425,30.256500244140625,-79.78278474006474,40.45904143874092,309.1571117248535,0.0107782520353794,-0.0066729485988616,-0.7950162291526794,0.6064558029174805,-7.844251110723094e-05,0.0174506223593257,2.9493921577148123,-0.0047448333352804,-0.0037553214933723,0.0297507848590612,0.2299222039058805,-0.0436283783242106,-9.661238062977793,14974.0
24.3,2.0999999046325684,305.0,21.232275009155277,27.9266300201416,-79.78278509703358,40.4590414935391,309.7431789245605,0.011430786922574,-0.0088086761534214,-0.7946020364761353,0.6069591641426086,-0.0011705585628829,0.0240662596184257,2.952901408565008,0.0055155362933874,-0.0014262510230764,-0.0475383512675762,0.2607239472493529,0.0098733433987945,-9.768252049684524,14974.0
24.4,2.299999952316284,306.0,21.06199645996093,30.240596771240234,-79.78278534173648,40.45904158507853,310.03253897094726,0.0098102930933237,-0.011553831398487,-0.7947390079498291,0.606762170791626,0.003173505455218,0.0363259387095062,2.954078455748722,-0.1215820163488388,0.0302266012877225,0.057695098221302,0.2583201203495264,0.015717274560593,-9.696787964701652,14975.0
24.61,2.299999952316284,307.0,21.12835502624512,29.59650230407715,-79.78278546335994,40.459041555903006,310.6231876220703,0.0061122816987335,-0.0132983969524502,-0.7951788306236267,0.6061983108520508,0.0459364989175732,0.0407507736965497,2.9564732209241256,0.0325882397592067,0.0110287591814994,-0.0137803526595234,0.2911567130126059,0.1187163574341684,-9.768953130841256,14975.0
24.79,2.299999952316284,305.0,21.067005157470703,31.560590744018555,-79.78278573449796,40.4590416000227,311.2104640808105,0.0076663447543978,-0.0121701639145612,-0.7958809137344359,0.6052824258804321,0.0328092257317393,0.0439407046313718,2.9886028031862435,-0.037138357758522,0.0370865017175674,0.0043320651166141,0.3323454319685697,0.0125460417196154,-9.86370784521103,14976.0
24.9,2.400000095367432,310.0,20.861669540405277,35.178646087646484,-79.78278596924746,40.45904162371085,311.49604376220697,0.006399723701179,-0.0135358134284615,-0.7958731055259705,0.6052783727645874,0.0342632462412523,0.0438215876403214,3.021026289003299,-0.0082079730927944,0.0075905071571469,0.0247317627072334,0.2270928093418479,-0.0245605943771079,-10.149289366006853,14976.0
24.99,2.5,310.0,21.093297958374023,31.17095375061035,-79.7827860270986,40.45904161216816,311.8014674987793,0.0074382754974067,-0.0145950308069586,-0.7955700159072876,0.6056402921676636,0.0481524137967844,0.0470940404750989,3.0825900566239284,0.0332362875342369,0.0277299452573061,-0.0134131964296102,0.30695367872715,0.0804647223092615,-10.340823100805284,14976.0
25.2,2.5999999046325684,311.0,21.175933837890625,28.24470138549805,-79.78278634841679,40.45904163932597,312.392097076416,0.0089504141360521,-0.0116726206615567,-0.7955312728881836,0.6057339906692505,0.0523243381388467,0.0555093810819988,3.1047252116271373,-0.0102298110723495,-0.0717491284012794,0.0264627952128648,0.2788263787329197,0.0179049246443901,-10.026851009130477,14977.0
25.39,2.900000095367432,310.0,21.172178268432614,28.91264915466309,-79.78278671553298,40.45904161080907,312.98432119750976,0.0061828955076634,-0.0096852546557784,-0.7951388955116272,0.6063185930252075,0.0449111111427533,0.0322283423693781,3.0506584689059286,-0.0250056907534599,-0.0346655659377574,-0.052150335162878,0.2748568136617541,0.0246693845652043,-9.691949393749235,14977.0
25.49,3.0,310.0,21.16090965270996,29.31818962097168,-79.78278677996025,40.45904157986973,313.28865393066405,0.0046529150567948,-0.0094329556450247,-0.7949700355529785,0.6065576076507568,0.0558173010230002,0.0325434867795899,3.0372059709363275,-0.0425482094287872,-0.0553377419710159,0.0129540124908089,0.3098252463340759,0.067018223083578,-9.69279548585415,14978.0
25.59,3.0999999046325684,308.0,21.185949325561523,28.849035263061523,-79.78278683332097,40.45904154570977,313.59180029296874,0.003977021202445,-0.0094321370124816,-0.7949646115303041,0.6065695285797119,0.0588017910283557,0.0310054259809929,3.0250159836642254,0.0153447706252336,0.0446186251938343,0.010203399695456,0.2376354122534394,0.0673457813635468,-9.591094864010811,14978.0
25.8,3.0,308.0,21.19346237182617,28.38783264160156,-79.78278713862406,40.45904150958901,314.18021734619134,0.0064739137887954,-0.0100055495277047,-0.7955508828163147,0.6057696938514711,0.0659017354862937,0.0426690635844041,2.9908886132959105,-0.0053236009553074,-0.0132648199796676,0.0695641338825225,0.2972867511771619,-0.0250006339000538,-9.642632222771644,14979.0
25.9,3.0,307.0,21.14463233947754,28.181087493896484,-79.78278740020082,40.45904153002513,314.47338446044915,0.0075764544308185,-0.0107516376301646,-0.7958254218101501,0.6053832769393921,0.0489774850374064,0.0490793252381564,2.98941909916764,0.0160674583166837,0.041510809212923,0.0137802883982658,0.3393083694577217,0.0430813347548246,-9.600079110860824,14979.0
26.09,3.0,310.0,21.194713592529297,28.037954330444336,-79.78278746819508,40.459041457370006,315.06915243530267,0.005610529333353,-0.0130521589890122,-0.7964916229248047,0.6044827103614807,0.0559230507397149,0.0662728723131003,2.9781299936938312,-0.0606397837400436,0.012124397791922,-0.0160021819174289,0.311195614412427,0.0948870076239109,-9.818814092874527,14980.0
26.3,3.0,312.0,21.48268699645996,21.71629524230957,-79.78278760402341,40.4590414943056,315.3665614929198,0.0056918868795037,-0.0140773337334394,-0.7966962456703186,0.6041891574859619,0.0587230320243882,0.0764840146134114,2.981851012577552,0.0282635688781738,0.0530181787908077,0.0543622486293315,0.2446806127578021,0.0678610855154693,-9.599921236038206,14980.0
26.4,3.0,313.0,21.49270248413086,22.583038330078125,-79.78278785523072,40.459041460517895,315.95169409179687,0.0075886310078203,-0.0139565374702215,-0.7967830300331116,0.604056715965271,0.0562054283170398,0.0841365909114813,2.83852195937494,0.0048741432838141,-0.0051723853684961,-0.0540716238319873,0.276493522413075,0.0909972205013036,-8.780687731504441,14980.0
26.6,2.900000095367432,311.0,21.497711181640625,23.17146873474121,-79.78278787194013,40.45904142588558,316.22882040405267,0.0091095762327313,-0.0136477658525109,-0.7964186668395996,0.6045231223106384,0.0488840106447172,0.0796400050515853,2.7017668664832346,0.0119547117501497,0.0465010777115821,-0.064760684967041,0.2912559329532087,0.1162555293180048,-8.498821531534196,14981.0
26.7,2.900000095367432,312.0,21.375009536743164,24.730016708374023,-79.78278788867482,40.459041390121214,316.4920497741698,0.0098769115284085,-0.0139034930616617,-0.796014666557312,0.6050371527671814,0.0463343739686004,0.0757983499069987,2.5610850804778824,0.0502376705408096,0.0442332662642002,-0.0662777945399284,0.2871959187649191,0.0776964494213462,-8.500937054157259,14981.0
26.79,2.799999952316284,307.0,21.50397109985352,22.185449600219727,-79.782788150104,40.45904135848515,316.97943838500976,0.0091908061876893,-0.0154089862480759,-0.7955120801925659,0.6056721210479736,0.0410948425679535,0.0725470626027889,2.3413612423734618,-0.0232858341187238,0.0112856142222881,-0.0937571376562118,0.264242344815284,0.1145677305199206,-8.602074589133263,14981.0
27.0,2.700000047683716,308.0,21.477678298950195,23.02833747863769,-79.78278837562532,40.45904136098945,317.4244266357422,0.0077808359637856,-0.0168667677789926,-0.7962496280670166,0.6046830415725708,0.0513259471541452,0.0603886099634243,2.1228010210349826,0.0349888391792774,-0.0191596206277608,-0.0066235577687621,0.304077652618289,0.0265418617310933,-8.672891972064972,14982.0
27.2,2.5999999046325684,308.0,21.391286849975582,24.35628318786621,-79.78278840719453,40.45904133487298,317.6317325439453,0.0081705804914236,-0.0172599367797374,-0.7966950535774231,0.6040797829627991,0.0459034560780422,0.0522697927360768,2.024262950603407,0.0159742217510938,0.0154344951733946,-0.0334284380078315,0.2733650427684188,0.0850228096358478,-8.778100338578223,14982.0
27.29,2.5999999046325684,309.0,21.52901268005371,22.6227970123291,-79.78278864909639,40.45904135446101,318.02863272094726,0.0095945252105593,-0.0178871043026447,-0.7973538637161255,0.60317063331604,0.0420289761395746,0.0415990735027188,1.8853906857720764,0.056389432400465,0.0115913171321153,-0.0018170007970184,0.3494216405600309,0.0048370566149242,-8.97869199514389,14983.0
27.49,2.5999999046325684,310.0,21.497711181640625,22.90906143188477,-79.78278888268218,40.45904137292611,318.40031011962884,0.010788494721055,-0.0199327915906906,-0.7975765466690063,0.6027919054031372,0.0327282715831684,0.032633003733255,1.7297788677350516,-0.0526197105646133,0.0200842656195163,0.015263944864273,0.3073932797089219,-0.046518108844757,-8.903554104566574,14983.0
27.59,2.5,310.0,21.42634391784668,24.34037971496582,-79.7827889400428,40.45904136434935,318.56824072265624,0.0108205387368798,-0.0202527716755867,-0.7976314425468445,0.6027079820632935,0.0328010384975652,0.0266754519556576,1.6334495028488711,0.004161681048572,0.0144288316369056,-0.0169844292104244,0.339885306917131,0.1019080335460603,-8.839238240718842,14983.0
27.79,2.400000095367432,316.0,21.487693786621094,22.72616958618164,-79.78278914282538,40.459041428462335,318.74542959594726,0.010146670974791,-0.0191977359354496,-0.7975185513496399,0.6029036045074463,0.030686934014095,0.0221785494470243,1.5926246587438748,-0.0395689345896244,-0.0778753906488418,0.062327042222023,0.2814614630118012,-0.0216895977873355,-9.006118944883347,14983.0
27.9,2.400000095367432,313.0,21.431352615356445,22.972675323486328,-79.78278943976042,40.45904148852728,319.0628848876953,0.0088119693100452,-0.0162637941539287,-0.7969578504562378,0.6037517189979553,0.021209449555032,-0.0032281900801081,1.4808264414310095,-0.0804416090250015,-0.0033358908258378,0.0544245727360248,0.3136743953078985,0.0044146386813372,-9.049012949466707,14984.0
28.09,2.200000047683716,313.0,21.42634391784668,23.50544357299805,-79.78278951286772,40.45904149029915,319.2072292175293,0.0079671284183859,-0.0154804233461618,-0.7966700196266174,0.6041637063026428,0.0215835571598361,-0.0095488763231773,1.4062464359148543,-0.0108212726190686,0.0076344111002981,-0.0060443147085607,0.3244486575946212,0.1276816739235073,-9.075426576733587,14984.0
28.2,2.200000047683716,314.0,21.56907844543457,16.746435165405273,-79.78278958700803,40.45904149048594,319.3444400634765,0.006771579850465,-0.0143036833032965,-0.7964653372764587,0.604477047920227,0.0287406156102858,-0.0138539303809181,1.342744927724016,-0.0288129914551973,-0.0463011972606182,0.0885478928685188,0.2952902559377253,-0.0295208924822509,-9.172680975794794,14984.0
28.29,2.200000047683716,315.0,22.190093994140625,11.371036529541016,-79.78278998014612,40.45904153967997,319.5977969970703,0.007797528989613,-0.0130510292947292,-0.7962642312049866,0.6047579050064087,0.0384434357224774,-0.0243255119189907,1.1155955559972492,0.1443441808223724,0.0247674342244863,-0.0486638583242893,0.3525607913732529,0.0888317681383341,-8.023087388277053,14984.0
28.5,2.200000047683716,317.0,21.497711181640625,22.614845275878903,-79.7827903275481,40.45904156441832,319.75552709960937,0.0126991216093301,-0.0056381123140454,-0.7621524333953857,0.6472485661506653,-0.0087751064795001,-0.0343303967352528,0.6075091571065145,0.0079669468104839,-0.0339788384735584,-0.929215133190155,0.2743351323902607,-0.0801874455157667,-7.5254741334915165,14984.0
28.59,2.0999999046325684,319.0,21.48268699645996,23.07604789733887,-79.78279038866691,40.45904157506887,319.8077197875976,0.01136976480484,-0.0066788177937269,-0.7317433953285217,0.6814526915550232,-0.0047819558797971,-0.0414731817984803,0.4502870953577984,-0.0844661667943,0.0370727181434631,-0.8617166876792908,0.158465427942574,-0.0614677856024354,-8.05862208724022,14984.0
28.79,2.0,321.0,21.510231018066406,23.091951370239247,-79.78279093628014,40.45904160268293,319.81239279174804,0.0123596284538507,-0.0094297491014003,-0.6649020314216614,0.7467687726020813,0.0303110967247558,-0.061595279318423,0.2507743352370072,-0.0174886975437402,0.0218394696712493,-0.8938814997673035,0.2692652309685945,0.1999779547378421,-8.972929564118386,14984.0
28.99,1.7999999523162842,309.0,21.500215530395508,23.21122741699219,-79.78279159633287,40.45904158491374,319.74926336669915,0.014165211468935,-0.0090507743880152,-0.6100507378578186,0.792184054851532,0.0566803432559508,-0.0886420664906265,0.1356431723942543,0.0239650979638099,0.0116700325161218,-0.5125859975814819,0.2244172696396708,0.1764740481600165,-9.234333432912829,14984.0
29.09,1.7999999523162842,296.0,21.252307891845703,27.680124282836918,-79.78279169350921,40.459041495114505,319.7619434204101,0.0182617679238319,-0.0081879943609237,-0.5918755531311035,0.8057809472084045,0.0971457977892691,-0.1087326793916001,0.139565345214617,0.0943701863288879,0.1364843994379043,-0.3272953033447265,0.2231136146374047,0.2966954332217574,-9.769941310286525,14984.0
29.2,1.7000000476837158,300.0,21.39754676818848,23.64857482910156,-79.78279221203738,40.459041470005545,319.67586859130864,0.0247595198452472,-0.0031252887565642,-0.5802437663078308,0.8140604496002197,0.1224128489045574,-0.1037228647831258,0.1301751325955848,0.177115261554718,-0.1012047454714775,-0.2081316262483596,0.6450475084036589,0.2118975586630404,-9.907147979736328,14984.0
29.4,1.600000023841858,304.0,21.33995246887207,25.533145904541016,-79.78279229733906,40.45904127284749,319.6639705505371,-0.0207279771566391,0.0289658773690462,-0.5738024711608887,0.8182188868522644,0.1703846387161914,0.0205216416845527,0.0923335612430012,-0.159636303782463,-0.8298817276954651,0.001202113344334,0.4545607175678015,0.0534519747085869,-9.687538254261018,14984.0
29.59,1.5,299.0,21.3599853515625,25.60471153259277,-79.78279214704374,40.459041130687815,319.67252310180663,-0.0527199432253837,0.044915247708559,-0.575684130191803,0.8147338628768921,0.2057686290076724,0.1203939872864008,0.0985155337294506,-0.0987281054258346,-0.582413911819458,0.1268033236265182,0.2078753138333559,0.2300515004619956,-9.807115568518642,14984.0
29.7,1.399999976158142,283.0,21.272340774536133,27.03603172302246,-79.78279183357216,40.45904100028177,319.6811214294433,-0.0761601030826568,0.0569732300937175,-0.5799093246459961,0.8091100454330444,0.2460382455867467,0.2700033184096981,0.1275048918155187,-0.0263458732515573,-0.3909959495067597,0.27102330327034,0.0068515982804819,0.086333664022386,-9.94208158493042,14984.0
29.89,1.2999999523162842,297.0,21.2235107421875,27.52108955383301,-79.78278980228501,40.45904120396371,319.7079692687988,-0.0983135774731636,0.0685247182846069,-0.5986485481262207,0.7919967770576477,0.2256698952342876,0.9003502506171985,0.4104510859813249,-0.0042867609299719,-0.029426671564579,0.0825979933142662,0.0128321258816868,0.0983628118783235,-10.241085973978045,14984.0
30.0,1.2000000476837158,304.0,21.262325286865234,26.24880599975586,-79.78278847951195,40.45904129420551,319.72855718994134,-0.1009149625897407,0.0675324350595474,-0.6039970517158508,0.7876821160316467,0.2130855741674456,1.1529364639111148,0.5088680066905882,-0.0649550557136535,-0.0656214356422424,0.1700781881809234,0.1610650452040136,0.0641863937024027,-10.478694598674776,14984.0
30.09,1.2999999523162842,309.0,21.34746551513672,25.914831161499023,-79.78278685832814,40.4590414474983,319.75204046630864,-0.1041577532887458,0.0679487064480781,-0.6074281930923462,0.7845796942710876,0.1929798818090176,1.3975529835748894,0.5949446369390642,-0.0049389260821044,-0.0629279166460037,-0.0175845250487327,0.1521519151143729,0.1891636755689978,-10.376515674591063,14984.0
30.3,1.2999999523162842,322.0,21.296131134033203,25.88302421569824,-79.78278343365673,40.45904245241578,319.8237109985352,-0.1079554483294487,0.0689306855201721,-0.6095109581947327,0.7823622226715088,0.1246081668320204,1.8281803929147151,0.7989218705610246,-0.0554412715137004,-0.0378275923430919,-0.0413766093552112,-0.0980047612823546,0.1358306916989386,-10.308668092489244,14984.0
30.49,1.399999976158142,338.0,21.274845123291016,26.24880599975586,-79.78278135371151,40.45904344132307,319.83301123046874,-0.1087489277124404,0.0689401552081108,-0.6079670190811157,0.7834520936012268,0.0636657172689965,2.0501118793684547,0.8783294847275969,0.0656048282980918,-0.0195101164281368,-0.1439163535833358,-0.0738338107382878,0.230743719432503,-10.199970692396164,14984.0
30.6,1.5,346.0,21.226015090942383,27.06783866882324,-79.78277602537486,40.459044428378775,319.9004207458496,-0.1109198704361915,0.0742721110582351,-0.6029683351516724,0.7865175008773804,0.0684979664732303,2.516033203439412,1.0232415982849938,0.0750990584492683,-0.0978492796421051,-0.1106958165764808,-0.0481281122658401,0.1144437512755394,-10.216290271282196,14984.0
30.79,1.7999999523162842,0.0,21.37626266479492,25.60471153259277,-79.78276964397666,40.45904639704359,319.89216955566405,-0.1139010861515998,0.0793072879314422,-0.5956795811653137,0.7911400794982909,0.0448643146815885,2.9860386967918817,1.183894403977437,-0.0116819227114319,-0.0933263152837753,-0.1599082797765731,-0.0749903397448361,0.0952363422140479,-10.24541876077652,14984.0
30.9,1.8999999761581416,3.0,21.25105667114257,25.5649528503418,-79.7827662792252,40.459048040525936,319.85588415527343,-0.1186092048883438,0.0818530097603797,-0.5912089347839355,0.7935388684272766,-0.0122338921553304,3.2165234435243875,1.2454895461600348,-0.0406605713069438,-0.0793391838669776,-0.1028415188193321,-0.2489192411117256,0.1403024229593575,-10.010607444047928,14984.0
31.1,2.299999952316284,13.0,21.19346237182617,28.32421875,-79.78276224442263,40.45904894329878,319.88680609130864,-0.1225719526410102,0.0853445008397102,-0.5881026387214661,0.794875979423523,0.027444565679924,3.4563032814853707,1.3424303625467795,0.0601535625755786,-0.1050643920898437,-0.0454047583043575,-0.3751078376546502,0.0457244772277772,-9.991712751388553,14984.0
31.2,2.5999999046325684,18.0,21.267333984375,26.20109558105469,-79.78275791538346,40.45904991102813,319.91569097900384,-0.1244106665253639,0.0900075808167457,-0.5858845710754395,0.7957134842872621,0.0543554912939112,3.697681598601529,1.431893045073525,0.0311381593346595,-0.0962028875946998,-0.1016423553228378,-0.4008276196941733,0.125792886223644,-9.922475870847704,14984.0
31.4,3.0999999046325684,20.0,21.268585205078125,26.5748291015625,-79.78274354747873,40.459055297761786,319.8754268493652,-0.1197200566530227,0.0958231166005134,-0.5840486884117126,0.7971024513244629,-0.0337100706253478,4.433032658199685,1.7013333155309631,0.0887715369462966,0.0443773455917835,0.1107760667800903,-0.6035814304277302,0.0964186766277998,-10.027378427982333,14984.0
31.49,3.400000095367432,23.0,21.42509078979492,23.06014442443848,-79.78273807616284,40.4590566383424,319.9021106567384,-0.1154752597212791,0.0987301990389824,-0.5861634612083435,0.7958204746246338,-0.0266714253955202,4.684315105344077,1.7685877429349852,0.0775857120752334,0.0077711907215416,0.15764220058918,-0.5295823216438293,-0.1176889559626579,-10.1301771569252,14984.0
31.6,3.900000095367432,24.0,21.274845123291016,27.41771697998047,-79.78273231960806,40.459058029919255,319.9275279846192,-0.114379271864891,0.0996312871575355,-0.5878902077674866,0.7945917844772339,-0.0454059081670342,4.923051741255541,1.799665682619811,0.0025912183336913,0.0489942133426666,0.0032369887921959,-0.696305735707283,-0.0598241652594879,-9.875805734395982,14984.0
31.8,4.099999904632568,27.0,21.29988670349121,25.54904937744141,-79.7827202668169,40.45906236922522,319.9210849609375,-0.1161153614521026,0.0936222821474075,-0.5884355306625366,0.79466712474823,-0.1152130706471234,5.383389761271973,1.9298266165530644,0.0140275852754712,0.0059777675196528,0.0397279672324657,-0.6840318453311921,-0.0230743554979562,-10.155461686849597,14984.0
31.89,4.699999809265137,33.0,21.403806686401367,24.22110366821289,-79.78271410521141,40.45906564365532,319.89539678955083,-0.1126700937747955,0.0927773490548134,-0.5888380408287048,0.7949639558792114,-0.2191358515572249,5.602295531657696,1.9620821717674204,0.0800328776240348,0.0799622535705566,0.1388130933046341,-0.6980264250934124,-0.0027034053392708,-9.979061715602873,14984.0
32.1,4.900000095367432,35.0,21.388782501220703,24.10182762145996,-79.78270039624913,40.459069204090746,319.93460806274413,-0.1089299023151397,0.0938557460904121,-0.5933811068534851,0.7919749617576599,-0.2354899347688022,6.027065237038388,1.965987804485384,0.0052396156825125,0.0746703743934631,0.0125927869230508,-0.9386278740316628,0.1218162314034998,-9.678859232068064,14984.0
32.29,5.5,37.0,21.448881149291992,23.09990310668945,-79.78268616154733,40.45907504056024,319.91103323364257,-0.1096481084823608,0.0963192358613014,-0.5953536629676819,0.7900974750518799,-0.3789408462544727,6.410856622198407,1.9610068418780977,0.0157043579965829,-0.0544543452560901,-0.0700298324227333,-0.7354697283357382,-0.0547710700146854,-9.628449216485023,14984.0
32.4,5.699999809265138,38.0,21.368749618530277,24.04616355895996,-79.7826789044666,40.45907915989844,319.86683233642583,-0.1123426184058189,0.0974890887737274,-0.5941472053527832,0.7904835343360901,-0.5331547995958666,6.595852572960827,1.9597905793247263,0.0474374257028102,-0.0747276991605758,-0.1131107062101364,-0.7799194577336311,0.0497592935711145,-9.411880043148996,14984.0
32.5,6.199999809265138,39.0,21.256065368652344,27.51313781738281,-79.78267116849842,40.45908132419662,319.86280401611333,-0.114864133298397,0.1000227332115173,-0.5949533581733704,0.7891972661018372,-0.4938021823574091,6.768396927938576,1.9957245267996664,-0.0049725915305316,-0.0380925722420215,-0.0897684171795845,-1.1044225309789182,0.1755483973771333,-9.338397499322893,14984.0
32.69,6.4000000953674325,40.0,21.390033721923828,25.461580276489247,-79.78265517888423,40.459087374639246,319.81286199951165,-0.1159514710307121,0.1010855883359909,-0.5930421948432922,0.7903404235839844,-0.5888873659648379,7.120635095732213,2.1292811709324737,0.0129168350249528,0.0366288945078849,-0.0293624829500913,-1.3975612856447697,-0.0312660305388271,-9.494411153197287,14984.0
32.89,6.800000190734862,41.0,21.37125396728516,24.69025802612305,-79.78263841532805,40.45909392527721,319.769897064209,-0.1186991930007934,0.0965165123343467,-0.5887508988380432,0.7937049269676208,-0.6160027771118937,7.499846151752987,2.195521128822997,-0.0782432034611702,0.0070020779967308,-0.020007899031043,-1.1869955947995183,0.365951463393867,-9.68391414999962,14984.0
33.0,7.099999904632568,41.0,21.507726669311523,21.891233444213867,-79.78262967610466,40.45909643811856,319.753669342041,-0.1218862831592559,0.0936994180083274,-0.5865477919578552,0.7951892614364624,-0.5293662345919881,7.6600114019571475,2.236345178991697,-0.1300337016582489,0.046409897506237,0.2355724573135376,-1.3421328972280029,-0.1071808150783181,-9.630812076330184,14984.0
33.1,7.5,42.0,21.4138240814209,23.71219062805176,-79.78262076031174,40.459098978889045,319.73485525512694,-0.1176805421710014,0.0891914889216423,-0.5856890082359314,0.7969721555709839,-0.4510744863068522,7.80346621408245,2.2800869734659783,0.0550746172666549,0.3210408687591553,-0.071219116449356,-1.3412205854058266,0.2016527434810996,-9.714550051689148,14984.0
33.3,7.699999809265138,44.0,21.51774406433105,21.930992126464844,-79.78260253423299,40.45910622096654,319.68741949462884,-0.0940429344773292,0.0714472755789756,-0.585412859916687,0.8020867705345154,-0.4895713663584601,8.161595758225348,2.047379331118492,-0.0577197037637233,0.3550822734832764,0.2292132675647736,-1.34124324336648,0.0407742244563996,-9.733696759343148,14984.0
33.39,8.100000381469728,44.0,21.649208068847656,18.360645294189453,-79.78259315632809,40.459110831602594,319.6608653869629,-0.0839649215340614,0.0635368451476097,-0.5840086936950684,0.804889440536499,-0.5950404763696502,8.336190037952152,1.8457686212802007,0.0202656667679548,0.2130804061889648,0.1711230874061584,-1.3839068676531316,-0.0338048002123832,-9.761055296659473,14984.0
33.6,8.300000190734862,44.0,21.467660903930664,22.511472702026367,-79.78257426770894,40.45911656679029,319.62635382080083,-0.0640995353460311,0.0527254045009613,-0.5844497680664062,0.807174026966095,-0.5394598977316203,8.528310790847208,1.408133196998711,-0.0205128658562898,0.1919170469045639,-0.0526341535151004,-1.450619943737984,-0.0472943267226219,-9.452186654806138,14984.0
33.79,8.699999809265138,52.0,21.61415100097656,20.2531681060791,-79.7825645012477,40.45912087125354,319.57439001464843,-0.0550992153584957,0.0458009205758571,-0.5844495892524719,0.8082606196403503,-0.6288659892551272,8.615915671943032,1.257899966692321,0.0171878430992364,0.2661876380443573,0.2569257020950317,-1.2428813816606998,-0.1657710122689605,-9.926959515810012,14984.0
33.89,8.800000190734863,58.0,21.49896240234375,22.43195343017578,-79.7825449308391,40.45912827916676,319.4944797363281,-0.0397967770695686,0.0368714071810245,-0.5871630907058716,0.8076486587524414,-0.7646960816768539,8.704540283689226,0.8728638588913384,0.0283472537994384,0.1659213304519653,0.1919053047895431,-1.248717049062252,-0.1871760790608823,-9.714938306808472,14984.0
33.99,9.0,57.0,21.477678298950195,24.12568283081055,-79.78253541931527,40.45913134842672,319.4770313110352,-0.0341273248195648,0.0355709306895732,-0.5887662172317505,0.8067988753318787,-0.7475494338072538,8.676821849698198,0.7611663043211507,0.0983486026525497,0.0902489498257637,0.0041730557568371,-1.4631902879476548,-0.1229304822999984,-9.818719367980956,14984.0
34.2,9.100000381469728,57.0,21.37125396728516,24.10182762145996,-79.78251568335587,40.45913847724603,319.39054830932616,-0.0273207370191812,0.0359291732311248,-0.5889809727668762,0.8068854212760925,-0.835015869238771,8.672559009591325,0.6775222712870174,0.0157738272100687,-0.045362003147602,0.2289177775382996,-1.424955929517746,-0.0856515132263302,-10.285555218458176,14984.0
34.29,9.300000190734863,66.0,21.592866897583008,19.322811126708984,-79.78250624406094,40.45914155145285,319.3852344360352,-0.0279516577720642,0.0355884470045566,-0.5891813635826111,0.8067326545715332,-0.8078286302951256,8.608711843064196,0.6941675713761448,0.0196946393698453,0.1196137517690658,-0.2374394237995148,-1.1747339835762978,0.0812077755108475,-10.19782593369484,14984.0
34.5,9.399999618530272,65.0,21.54904556274414,21.430030822753903,-79.78248697331676,40.45914803888094,319.26180609130864,-0.0245259553194046,0.0222480222582817,-0.5865100026130676,0.8092648386955261,-0.7880906487234393,8.543761510010286,0.6773906943628157,-0.038139920681715,0.1536001414060592,-0.0247808266431093,-1.1897803312540054,0.2197422380000352,-10.405302686691282,14984.0
34.69,9.600000381469728,65.0,21.51899528503418,21.06424903869629,-79.78247767126122,40.45915107380488,319.2651096191406,-0.0233243182301521,0.0177509132772684,-0.5849990248680115,0.8105041980743408,-0.7480366373728623,8.49701260458896,0.6139868831609527,-0.0580407679080963,-0.0321653522551059,-0.1741383075714111,-1.3358502101898193,0.0377957441657781,-10.377331945896149,14984.0
34.8,9.600000381469728,66.0,21.63919258117676,19.577266693115234,-79.78245934295563,40.45915733108378,319.1793666687012,-0.0196832101792097,0.0204345602542162,-0.5830584168434143,0.811934769153595,-0.7278282897564726,8.347773523581143,0.5483859642178562,0.0275999419391155,-0.037078958004713,0.2355471104383469,-1.4156609031558038,-0.3511194161698222,-9.992686897516249,14984.0
34.89,9.600000381469728,75.0,21.63543701171875,20.40425109863281,-79.78245002898187,40.45916045713816,319.0935245361328,-0.0164899304509162,0.0222908072173595,-0.5835313200950623,0.8116172552108765,-0.7109367178375269,8.282029592554448,0.4732567672404839,0.0411611460149288,0.0164245888590812,-0.0650830492377281,-1.6676796984672548,-0.0427616930566728,-9.736637908816338,14984.0
35.1,9.600000381469728,73.0,21.61289978027344,18.86956024169922,-79.78243223501715,40.4591663913253,319.101756652832,-0.0024774535559117,0.0126834511756896,-0.5850968360900879,0.8108605742454529,-0.7410155292155725,8.099522514763272,0.3761608462309075,-0.0314935036003589,0.2037616372108459,-0.0771325454115867,-0.9675821895897389,-0.098758120201528,-10.135427956581117,14984.0
35.29,9.600000381469728,73.0,21.415075302124023,23.71219062805176,-79.78242296970569,40.459169144278256,319.0223117675781,0.0032622967846691,0.0030523329041898,-0.5855374932289124,0.81063312292099,-0.7337392627504953,8.010643473717865,0.1576151199333787,-0.0959877520799636,0.1883153319358825,-0.2312388122081757,-1.5420964166522029,-0.0896331564523279,-9.679301281571387,14984.0
35.39,9.5,73.0,21.622915267944336,18.98883628845215,-79.78240541961469,40.459174724618975,318.9634090270996,0.008744521997869,-0.0149914808571338,-0.5866314768791199,0.8096680045127869,-0.750894554787894,7.775335249048793,-0.0340659764070197,0.058338925242424,0.2994963526725769,-0.3133533596992493,-1.4548954278230668,0.248140629529953,-10.391119680404664,14983.0
35.59,9.5,85.0,21.493953704833984,19.94304847717285,-79.78239708599294,40.45917755162024,318.97499807739257,0.0183697268366813,-0.0203641038388013,-0.5869070291519165,0.8091898560523987,-0.7763077054997198,7.611820994309193,-0.0824803653334501,0.2002792656421661,0.2684861123561859,-0.3799853324890137,-1.3561264537274835,0.4452052456140518,-10.447091567516328,14983.0
35.7,9.399999618530272,96.0,21.43635940551757,23.43387794494629,-79.78238893325822,40.45918035056353,318.9942432250976,0.0260999798774719,-0.0218822322785854,-0.5867033004760742,0.809085488319397,-0.8138833215133442,7.470443995660426,-0.1497032884495333,0.0501269772648811,0.0422966815531253,0.2127741277217865,-0.7531140670180321,-0.0030742467194795,-10.346938118934633,14983.0
35.79,9.399999618530272,96.0,21.743112564086918,16.261377334594727,-79.78237291719905,40.45918575443191,319.00598486328124,0.000857483362779,-0.0019947751425206,-0.5865154266357422,0.8099351525306702,-0.8250599194367957,7.218043763311597,-0.1159123794842723,-0.133992463350296,-0.4081011414527893,-0.1059857383370399,-0.9188593880832197,-0.1364231973700225,-10.026999528408052,14984.0
35.99,9.399999618530272,96.0,21.77190971374512,16.277280807495114,-79.78235784456795,40.45919096639477,318.98883779907226,-0.0381653159856796,0.022135829553008,-0.5849890112876892,0.8098402619361877,-0.8119115904238945,6.998270487794048,0.4271239108945497,0.0793764814734458,-0.2562789022922516,0.1254491657018661,-1.3830444033443932,-0.148115006564185,-8.901944366097451,14983.0
36.09,9.199999809265137,76.0,21.577842712402344,19.704496383666992,-79.78235034809974,40.45919363659949,318.98810919189447,-0.0416784510016441,0.0268419496715068,-0.5839667320251465,0.8102625012397766,-0.8180104177185273,6.913842681800388,0.5455002120548449,0.0346215963363647,0.0791211649775505,0.0178165547549724,-1.4503772842884064,-0.1614598601683974,-8.489669469594956,14983.0
36.3,9.199999809265137,70.0,21.53151512145996,20.85750389099121,-79.78233530825494,40.45919844942983,318.95344885253905,-0.0366559624671936,0.0177211705595254,-0.5801739096641539,0.8134744167327881,-0.7422725284758805,6.82966437462275,0.3496408134106616,-0.0222394336014986,0.1582520306110382,-0.0989896357059478,-1.4928093588352205,-0.1565358833223581,-8.671941214799881,14983.0
36.49,9.100000381469728,69.0,21.55530548095703,21.4379825592041,-79.7823206788016,40.45920354893753,318.8932681884765,-0.0395266227424144,0.0079156495630741,-0.5751751065254211,0.8170365691184998,-0.7011565605062438,6.759553481085987,0.1082542371683272,-0.0738059058785438,-0.1669910699129104,0.1335121095180511,-1.1622799989581107,0.0355577954649925,-8.970997644066811,14983.0
36.6,9.0,69.0,21.616655349731445,20.06232643127441,-79.7823134754765,40.4592061617896,318.85130270385736,-0.043721254914999,0.0103395003825426,-0.5732271075248718,0.8181639313697815,-0.6903242513347645,6.724062467070903,0.079896810954384,0.0356276519596576,0.0338463596999645,-0.278587132692337,-1.1292180144041777,0.2109299906529486,-9.344515441060066,14983.0
36.69,8.899999618530273,70.0,21.54403686523437,21.263044357299805,-79.78230623887036,40.45920864320637,318.8205371704101,-0.0503631085157394,0.0143871065229177,-0.5723196268081665,0.8183562159538269,-0.6874589507098056,6.704446640944903,0.125828189427728,-0.0601052828133106,-0.3199600279331207,0.2907265424728393,-1.1855166877806187,-0.2448160671629012,-9.36524849832058,14983.0
36.9,8.899999618530273,70.0,21.451385498046875,23.227130889892567,-79.78229179507134,40.4592137193539,318.75176962280267,-0.0714408010244369,0.0270926747471094,-0.5737844705581665,0.8154346346855164,-0.7385172023785651,6.702048634020362,0.3764252645701516,0.0047618886455893,-0.1673098057508468,0.0445364005863666,-1.1151293675601484,-0.0199459123983979,-9.368798342943194,14983.0
36.99,8.899999618530273,70.0,21.46265411376953,23.227130889892567,-79.78228467647803,40.45921642178191,318.7028117980957,-0.0770557448267936,0.0315980240702629,-0.5757238864898682,0.8133916854858398,-0.8111419155768693,6.698670045725617,0.5320447190930934,-0.0052597508765757,-0.0904191359877586,-0.0687064453959465,-1.4765415278077123,0.1058026811666786,-9.574256637096406,14983.0
37.2,8.899999618530273,70.0,21.421335220336918,23.17146873474121,-79.78227755860429,40.45921916131137,318.653197845459,-0.0763511210680008,0.0358065329492092,-0.5782276391983032,0.8115055561065674,-0.8767686992993763,6.705211232053041,0.6275955951591703,0.1372833997011184,-0.0474050641059875,0.1502137780189514,-1.3662946155667306,0.0151152214827016,-9.661777176260946,14983.0
37.39,9.0,60.0,21.29863548278809,25.723989486694336,-79.78225550428195,40.4592265641489,318.63727911376947,-0.0845064669847488,0.0628217235207557,-0.5802541375160217,0.8075997233390808,-0.9673052821554222,6.780816725127318,0.9537836201086498,0.1201902255415916,-0.0912094265222549,0.1289134919643402,-1.4546812735497952,0.0422852546162903,-9.692030670046806,14983.0
37.5,8.899999618530273,57.0,21.297382354736328,24.05411529541016,-79.78224817885138,40.45922937564829,318.6009784545898,-0.0897629186511039,0.0728633105754852,-0.5799514055252075,0.8064056038856506,-0.980839218800996,6.849424709153758,1.1109837357054322,0.0457974672317504,-0.2232473939657212,0.0742240399122238,-1.2963679097592828,-0.2418482397682965,-10.111995824575423,14983.0
37.7,8.899999618530273,56.0,21.304895401000977,26.670249938964844,-79.78224075973911,40.45923221205374,318.5673633422852,-0.0950083583593368,0.0791382566094398,-0.5794770121574402,0.8055538535118103,-0.9932143283010008,6.901962050578272,1.2703309101231794,0.005509762559086,-0.2000372856855392,-0.0915140286087989,-1.5435523733496668,-0.1323138381633907,-9.888029923439026,14983.0
37.8,8.899999618530273,56.0,21.38502693176269,24.316524505615234,-79.78222572515635,40.4592374600531,318.52469976806634,-0.106029063463211,0.0849608182907104,-0.5786263942718506,0.8041959404945374,-0.9245573038189788,7.04671338284099,1.5687379279851958,0.0103469165042042,0.0279933046549558,-0.0822930634021759,-1.3684434673190118,0.0746503972448408,-9.855085541009904,14983.0
38.0,9.0,46.0,21.312406539916992,25.23097801208496,-79.78221036518376,40.459243020460384,318.46072729492187,-0.1082765311002731,0.0802312493324279,-0.5772985219955444,0.8053357601165771,-0.8868839108423909,7.231247080459973,1.7368449505865888,-0.020956190302968,0.0136721385642886,-0.1226062700152397,-1.3325037024915218,-0.1298314667120576,-9.898703430891038,14983.0
38.1,9.0,43.0,21.100811004638672,31.29818153381348,-79.78220232578455,40.45924591645144,318.4333263244629,-0.1046775728464126,0.0777771696448326,-0.5771039128303528,0.8061912655830383,-0.8485136062998847,7.342936106059621,1.7545107290137074,-0.0035134807694703,0.204745888710022,0.0235740672796964,-1.7023788303136826,0.2186805298179388,-9.766320129632948,14983.0
38.2,9.199999809265137,42.0,20.85916519165039,33.69961929321289,-79.7821944473937,40.45924867434268,318.38952215576165,-0.0981786400079727,0.0725182443857193,-0.5769306421279907,0.807621955871582,-0.8227778295666413,7.40522680289167,1.7797148052419618,0.0096069797873497,0.2464692443609237,-0.0130048738792538,-1.668701499402523,0.1726772317662835,-10.361604105234148,14983.0
38.39,9.300000190734863,42.0,21.20347785949707,27.37795829772949,-79.78217795393128,40.45925467917716,318.3154102172852,-0.0840052887797355,0.0507609024643898,-0.575991690158844,0.8115418553352356,-0.7960378714974808,7.582573899126492,1.6843092273634337,-0.076433278620243,0.1569575518369674,0.0349475778639316,-1.888033920675516,-0.0769716779049485,-10.628551719188687,14983.0
38.59,9.399999618530272,54.0,21.33369255065918,24.714113235473643,-79.78216958397022,40.45925766393685,318.3179469909668,-0.0802793800830841,0.042285643517971,-0.575291633605957,0.812900185585022,-0.7810363351555524,7.6520900893188895,1.5936822861348472,-0.0545008741319179,0.2098026722669601,0.0642733350396156,-1.4947240296006203,0.0278239688300527,-10.505985893011092,14983.0
38.7,9.5,56.0,21.422588348388672,22.352436065673828,-79.78216118176249,40.459260677141,318.32767446899413,-0.0778926685452461,0.0380544364452362,-0.5750786662101746,0.813491940498352,-0.7780741126915198,7.701238826801156,1.552980028071329,-0.0085981059819459,-0.0610642693936824,0.1848258674144745,-1.3798972856998444,-0.1645567648485303,-10.433569296598437,14983.0
38.89,9.600000381469728,56.0,21.39754676818848,22.821590423583984,-79.78213603045786,40.459270067224665,318.26749761962884,-0.0686021521687507,0.0478953644633293,-0.580811619758606,0.8097270131111145,-0.9303389465643158,7.745666454369421,1.438904204001218,0.1567984521389007,0.0248411782085895,-0.129005879163742,-1.2779374860227108,-0.0331346727535128,-10.086394375562667,14983.0
38.99,9.600000381469728,56.0,21.42884826660156,22.257015228271484,-79.78212762874486,40.45927320097415,318.27856787109374,-0.0641680806875228,0.0544199049472808,-0.5834679007530212,0.8077661991119385,-1.0073987581481394,7.745640617535037,1.4232661225336367,0.1740174293518066,0.0469420999288558,-0.021181296557188,-1.5178469900786875,-0.1012277282774448,-9.729658672213557,14983.0
39.2,9.699999809265137,55.0,21.43886375427246,22.686410903930664,-79.78211922694192,40.45927633972202,318.2879901733398,-0.0606178827583789,0.0582851693034172,-0.585526704788208,0.8062795996665955,-1.0738112548212293,7.738035909492308,1.3764925058507465,0.1005767434835434,0.1496254950761795,0.0866555124521255,-1.6713673911988736,-0.2159551243297756,-9.454957065582276,14983.0
39.3,9.699999809265137,54.0,21.37375831604004,23.83146667480469,-79.78210226997332,40.45928268564933,318.225780090332,-0.0582321844995021,0.0548044815659523,-0.5868613123893738,0.80572909116745,-1.1167595170495583,7.774822386506468,1.2248041506725436,-0.0201451312750578,-0.0221273768693208,-0.1686183214187622,-1.4830915787816048,-0.0607908516190946,-9.42206589281559,14983.0
39.49,9.800000190734863,55.0,21.524003982543945,22.12978744506836,-79.7820851800154,40.45928897996096,318.202514251709,-0.0597466342151165,0.050548892468214,-0.5863574743270874,0.8062630891799927,-1.0993933981183446,7.804476506765512,1.1586216859122902,0.0087805418297648,-0.027956461533904,0.0273489523679018,-1.2779566356539729,-0.1262139771133661,-9.677067060470582,14983.0
39.6,9.800000190734863,56.0,21.34496116638184,25.350255966186523,-79.78207672851573,40.45929209684304,318.19535025024413,-0.0575876459479332,0.0514026693999767,-0.586314857006073,0.8063971400260925,-1.0916598243397542,7.801983359644352,1.1304969576276171,-0.0063409060239791,0.0038382895290851,-0.1136499270796775,-1.6142798553407194,-0.0688882403075695,-9.414332950115202,14983.0
39.7,9.800000190734863,60.0,21.38252258300781,23.10785484313965,-79.78206809680364,40.45929526592477,318.1864085998535,-0.0536118783056736,0.0508202835917472,-0.5863967537879944,0.8066485524177551,-1.0844786687352364,7.8123586827321985,1.1014266574205664,0.0229784231632947,0.1245065554976463,-0.0133004188537597,-1.292534621357918,-0.2736062769591808,-9.54867214500904,14983.0
39.89,9.699999809265137,63.0,21.527759552001957,21.398223876953125,-79.78205083810178,40.4593015340421,318.18731649780267,-0.0485833585262298,0.0484859347343444,-0.5857921838760376,0.8075496554374695,-1.0675139739346633,7.84247417864691,0.9998402129493014,-0.0119330286979675,0.0780406147241592,0.0365906469523906,-1.7960500556230543,-0.3135366933792829,-9.612288097143171,14983.0
39.99,9.600000381469728,63.0,21.417579650878903,23.52134704589844,-79.78204235601953,40.45930464068692,318.17984350585937,-0.0480531826615333,0.0478668063879013,-0.5858935117721558,0.8075447678565979,-1.0555156076421153,7.842089646241886,0.9646230213459376,-0.0449738055467605,0.0059175388887524,0.2336521595716476,-1.5911223962903025,-0.3602001055330038,-9.630941299796104,14983.0
40.2,9.600000381469728,63.0,21.411319732666016,22.654603958129893,-79.7820338835618,40.45930773790178,318.1710887756348,-0.0476082190871238,0.0480225346982479,-0.5860022306442261,0.8074829578399658,-1.0407396860213372,7.830499886934849,0.9417527855934392,0.0283267702907323,0.0571127198636531,0.1752229779958725,-1.4985071781277657,-0.0083163377927849,-9.537231482863426,14983.0
40.39,9.399999618530272,62.0,21.44512367248535,23.799659729003903,-79.78200787540484,40.4593173132522,318.1918369140625,-0.0467974804341793,0.0479010492563247,-0.586014986038208,0.8075282573699951,-1.0299544746334717,7.83931533832327,0.920563657518316,0.0193908438086509,-0.0265529826283454,-0.2448703795671463,-1.4424266789853573,0.0137934172712266,-9.678599030971528,14983.0
40.5,9.399999618530272,60.0,21.36749649047852,23.64062309265137,-79.78199940618528,40.45932038428994,318.18123205566405,-0.0478262193500995,0.0451468378305435,-0.5852221846580505,0.8082013726234436,-1.0212134488364966,7.834796224070939,0.9029215895139407,-0.0299462676048278,-0.0042624250054359,-0.1431801170110702,-1.1307440645992757,-0.1283537839539349,-9.617979776859285,14983.0
40.59,9.300000190734863,60.0,21.49270248413086,20.841598510742188,-79.78199094659023,40.45932344624126,318.1689220275879,-0.0486144684255123,0.0437231138348579,-0.584322452545166,0.8088833093643188,-0.9864536966323482,7.825630740762597,0.8736327558325576,0.0188948772847652,0.0050379023887217,-0.0405918061733245,-1.2003618912398817,-0.2011920377053321,-9.479593139290811,14983.0
40.79,9.300000190734863,60.0,21.39379119873047,23.20327568054199,-79.7819736809173,40.45932964300701,318.1648517456054,-0.0451354756951332,0.0433637574315071,-0.5828664302825928,0.8101537823677063,-0.9480235311259124,7.822981744763989,0.867721212783302,-0.0267090536653995,-0.0703118219971656,0.0916619747877121,-1.6990910871326923,-0.279701670370996,-9.79405054986477,14983.0
41.0,9.199999809265137,63.0,21.39754676818848,22.686410903930664,-79.7819564539224,40.45933582774914,318.16540869140624,-0.0469283238053321,0.0453727357089519,-0.5814076662063599,0.8109897375106812,-0.8943357097425891,7.826523697796713,0.8431877250755502,-0.0633724108338356,-0.0576294735074043,-0.097136914730072,-1.5055961962044242,-0.2461038798652589,-9.851798236370088,14983.0
41.09,9.199999809265137,62.0,21.361236572265625,23.608816146850582,-79.78194800575085,40.459338842172826,318.1541477050781,-0.0504418537020683,0.0467363037168979,-0.5810372233390808,0.8109667301177979,-0.8706738126679991,7.809469865011515,0.8863422369674281,0.0708188414573669,-0.0671315416693687,-0.1964558213949203,-1.1237391002476216,0.0743464151211083,-9.71337008357048,14983.0
41.19,9.199999809265137,62.0,21.331188201904297,23.68833541870117,-79.78193927433051,40.459341884697416,318.15843161010736,-0.053500834852457,0.0436745584011077,-0.5807778835296631,0.811127245426178,-0.8621883258385459,7.803331078152072,0.9711584849247906,-0.157358780503273,-0.1408105790615081,0.2935809195041656,-1.2747419826686384,-0.4066933637112379,-9.734238211512569,14983.0
41.4,9.199999809265137,62.0,21.430099487304688,22.0105094909668,-79.78192207414035,40.4593479273204,318.15304525756835,-0.0594372265040874,0.0403481051325798,-0.5817027091979979,0.8102229237556458,-0.8381887406923235,7.802304965470692,1.0242703322340427,0.0107205146923661,-0.022638265043497,0.0849504694342613,-1.2944428601861002,-0.0852999128401279,-9.619190150499344,14983.0
41.49,9.199999809265137,61.0,21.42884826660156,22.074125289916992,-79.78191361544478,40.459350919311454,318.1454616394043,-0.0595621541142463,0.04190618917346,-0.5830046534538269,0.809198260307312,-0.8507306415575491,7.785563234306071,1.0523231703504288,0.0363794602453708,0.1798767149448394,-0.1998185664415359,-1.3609781809151174,0.2593366039730608,-9.7647764647007,14983.0
41.7,9.199999809265137,62.0,21.342456817626957,25.44567680358887,-79.78190517051138,40.45935391700513,318.1372638549805,-0.0589206703007221,0.0405564755201339,-0.5838649272918701,0.8086936473846436,-0.8908731150113763,7.776750312869183,1.054999383107038,0.0463638752698898,0.0197900477796793,-0.150472491979599,-1.3888885492086411,-0.0024700648896396,-9.7120439350605,14983.0
41.89,9.199999809265137,62.0,21.58660697937012,19.680641174316406,-79.78187942887274,40.45936281863797,318.1324725952148,-0.0638094544410705,0.0340098664164543,-0.5861437320709229,0.8069741725921631,-0.9368621351329434,7.768275170817072,1.1354016936491456,0.0096280528232455,0.0487427301704883,-0.1482674479484558,-1.3837375907599927,-0.2196357455849648,-10.063614792823794,14983.0
42.0,9.300000190734863,61.0,21.4426212310791,22.73412132263184,-79.78187098681771,40.45936583848946,318.1338916625976,-0.0648077949881553,0.0366426706314086,-0.5861480832099915,0.806776225566864,-0.9750631079777607,7.76140969638393,1.1493666846891482,0.0831905230879783,-0.1169171184301376,-0.1431208252906799,-1.3918383233249187,-0.0320648058783262,-9.763544456362723,14983.0
42.09,9.300000190734863,63.0,21.34996795654297,22.66255569458008,-79.78186255114903,40.459368875861074,318.1349330749512,-0.0650943145155906,0.0382040366530418,-0.5854742527008057,0.8071698546409607,-0.9921901985767876,7.759140444596351,1.1908890270062746,0.015950508415699,0.0622813217341899,-0.1438296884298324,-1.3820687954127788,0.0916460056230426,-9.650270440578463,14983.0
42.3,9.300000190734863,62.0,21.42884826660156,23.147613525390625,-79.78184550576077,40.45937500436703,318.1393657531738,-0.060842715203762,0.0352135151624679,-0.5836240649223328,0.808975338935852,-0.9903090234284142,7.7688240131436626,1.1765626366795652,-0.0232600625604391,0.1438131928443908,-0.0188713576644659,-1.4942501127719878,0.0160814693011343,-9.675556139945984,14983.0
42.49,9.399999618530272,61.0,21.495206832885746,20.038471221923828,-79.78183706982223,40.45937808354648,318.14143713378905,-0.0603232160210609,0.0356364138424396,-0.5840911269187927,0.8086587190628052,-0.9879443565641128,7.783035582371522,1.1345266455404184,0.0432474538683891,-0.1484180241823196,0.1115602403879165,-1.55106546074152,-0.146203432995826,-9.659169318079948,14983.0
42.59,9.399999618530272,61.0,21.443872451782227,22.26496696472168,-79.78182000554472,40.459384259562896,318.143619140625,-0.0546664781868457,0.0385912135243415,-0.5840460062026978,0.8089576959609985,-1.0020173943007944,7.7757651238466705,1.1241172133670638,0.0829845294356346,-0.0279323030263185,-0.2263325303792953,-1.4224081514775753,0.1532378526963293,-9.56712771177292,14983.0
42.8,9.300000190734863,60.0,21.526508331298828,21.764005661010746,-79.78180298219391,40.45939043028894,318.14322622680663,-0.0609702542424202,0.0460083596408367,-0.5827336311340332,0.8090657591819763,-0.9840423349780156,7.79609003490714,1.0424683230930647,-0.0355477333068847,-0.103667639195919,0.011276620440185,-1.3928667023777963,0.0559030726924538,-9.5402620947361,14983.0
42.9,9.199999809265137,59.0,21.22100830078125,27.083742141723643,-79.78179448814845,40.45939351544584,318.13993795776366,-0.0655050501227378,0.0448756031692028,-0.5818469524383545,0.809412956237793,-0.9629402608666164,7.79646267471786,1.0902336320235395,-0.1018748059868812,-0.0136832073330879,-0.0947671309113502,-1.239214300364256,0.0377543842513114,-9.337743780612946,14983.0
43.0,9.0,59.0,21.27985382080078,24.809534072875977,-79.78178603682869,40.459396582498606,318.1285129394531,-0.0667532160878181,0.0399805605411529,-0.5814511179924011,0.8098520040512085,-0.9406730402469624,7.813400848194237,1.133817303621503,-0.0292709153145551,0.0421785749495029,0.0061198594048619,-1.2165497615933418,0.1042888370342552,-9.46645912349224,14983.0
43.2,8.899999618530273,59.0,21.268585205078125,24.04616355895996,-79.78176890275087,40.459402767240746,318.1255908813476,-0.05396169424057,0.0288641285151243,-0.5831674337387085,0.8100436925888062,-0.9285569213027536,7.8558046103753085,1.0894352603420574,-0.0128379389643669,0.0675037652254104,0.2485135644674301,-1.1522148212045429,-0.00105458188802,-10.024227948188782,14983.0
43.39,8.800000190734863,61.0,21.22100830078125,25.962541580200195,-79.78176039620254,40.45940584463381,318.1210056152344,-0.0503306947648525,0.0285976361483335,-0.5825993418693542,0.810695469379425,-0.947019851066552,7.878249691603212,0.919568460275194,0.0380157604813575,-0.0042874095961451,-0.0441944301128387,-1.0571903309226036,0.0708805237244814,-9.654343611001968,14983.0
43.5,8.800000190734863,64.0,21.37375831604004,23.04424095153809,-79.7817432509711,40.45941207602758,318.11511572265624,-0.0537793487310409,0.0263748634606599,-0.5806039571762085,0.8119798898696899,-0.9578451766389434,7.860257286848827,0.8796223240112502,-0.0878741815686225,-0.072945050895214,-0.0161315537989139,-1.4114308811724188,-0.1381304107513278,-9.752392646670344,14983.0
43.69,8.800000190734863,64.0,21.272340774536133,25.62856674194336,-79.7817347972227,40.45941518286134,318.10975225830083,-0.0550394207239151,0.0263890363276004,-0.5811535120010376,0.8115017414093018,-0.9537111725685002,7.854014547614808,0.9084831777951392,-0.0812096521258354,-0.1868354976177216,0.2194152325391769,-1.1545143849402666,-0.2321265311166644,-9.94098815560341,14983.0
43.8,8.699999809265138,64.0,21.32117080688477,25.382062911987305,-79.78171786409055,40.45942162573335,318.10441931152343,-0.0544006004929542,0.0393574498593807,-0.5874672532081604,0.8064576387405396,-1.0631371958577578,7.807811896097977,1.0214003407673675,0.0320240259170532,-0.1271353662014007,0.2223753035068512,-1.3174298729002476,-0.1632792944088578,-9.936733721494676,14983.0
43.99,8.600000381469728,63.0,21.05824089050293,29.18301010131836,-79.78170923080435,40.45942481790043,318.1000781860352,-0.0507294908165931,0.0449528507888317,-0.5905512571334839,0.8041485548019409,-1.093544325197547,7.811743967714074,1.0478967742183158,0.1040958315134048,0.1377153545618057,0.2192705273628235,-1.5087041375041008,-0.0474699076451361,-9.757553983926773,14983.0
44.09,8.5,59.0,21.24604797363281,24.722064971923828,-79.78169230189977,40.45943103455668,318.11122091674804,-0.0478324554860591,0.0418162010610103,-0.5921584367752075,0.8033130764961243,-1.160553230310607,7.803220126621912,1.1208923161639142,-0.0096070691943168,0.0263637155294418,-0.1024535074830055,-1.266304011940956,0.2667888255044818,-10.368977444171907,14983.0
44.3,8.399999618530272,59.0,21.23728370666504,26.16133689880371,-79.78168365512127,40.45943411091916,318.1033473815918,-0.0495608896017074,0.0403502807021141,-0.5911981463432312,0.8039903044700623,-1.128001870886488,7.823834120463209,1.0922188983635397,-0.0437376461923122,-0.1393542438745498,0.0152896046638488,-1.0469303677976132,-0.0328393792267888,-9.963365449905396,14983.0
44.4,8.399999618530272,59.0,21.278602600097656,24.66640281677246,-79.78166653255691,40.45944019428504,318.1015621032715,-0.0536590367555618,0.0353610552847385,-0.5874301791191101,0.8067193627357483,-1.034728980361233,7.839238115896452,1.0986751356865398,-0.0877116173505783,0.1634649783372879,-0.2069574743509293,-1.0837128625810146,0.4135618321225048,-9.872752318382265,14983.0
44.5,8.5,61.0,21.142127990722656,27.91072654724121,-79.78165799794455,40.45944323674093,318.1082607116698,-0.0546365305781364,0.0317867957055568,-0.5853705406188965,0.8082981109619141,-0.9798981771585544,7.8567491254727555,1.0871710048956138,-0.0250390358269214,0.0625563040375709,-0.0021140652243047,-0.9138927631080151,0.1505840573273599,-9.793335435390471,14983.0
44.7,8.5,62.0,21.163414001464844,26.638442993164062,-79.78164070870507,40.45944926833653,318.1226688232422,-0.0546857677400112,0.0288523696362972,-0.5821587443351746,0.8107208013534546,-0.8823714076026278,7.866987377543918,1.097802880508504,-0.0165520496666431,0.0878306999802589,-0.1772103607654571,-1.4007858788967134,0.3115789359435439,-9.88673418045044,14983.0
44.79,8.5,63.0,21.23477935791016,26.95651435852051,-79.78163216131998,40.45945229468077,318.1327739562988,-0.0533129125833511,0.0272671431303024,-0.5811676979064941,0.8115777969360352,-0.8627079488131972,7.863539740129354,1.0940974120953282,-0.0063646114431321,0.0600903704762458,0.0559373833239078,-1.445222963690758,0.1612535630911588,-9.771017197966575,14983.0
45.0,8.399999618530272,62.0,21.289871215820312,24.68230628967285,-79.78161483664066,40.45945837691299,318.1508098449707,-0.0541061498224735,0.0279782935976982,-0.5812402963638306,0.8114489912986755,-0.8367760503046509,7.895122142373038,1.0760634490245726,-0.0519007705152034,0.0023051977623254,0.05440603941679,-1.0906901988387108,0.1214497388899326,-9.77691002190113,14983.0
45.19,8.199999809265138,60.0,21.278602600097656,25.270736694335927,-79.78160628089034,40.45946141397543,318.16076239013665,-0.0539298877120018,0.026716599240899,-0.5820394158363342,0.8109303116798401,-0.8515010727163665,7.885461293922741,1.0586861122679236,-0.0317800305783748,0.0668706819415092,0.1534966081380844,-1.1234769988059998,0.0576753089390695,-9.56513498067856,14983.0
45.29,8.100000381469728,62.0,21.314910888671875,24.451704025268555,-79.78158891888226,40.45946754522964,318.18532522583007,-0.052087377756834,0.0191880315542221,-0.5846264958381653,0.8094013929367065,-0.9031565507167996,7.903639724331206,0.9910611809612936,-0.0448229275643825,0.0608087293803691,0.1147082895040512,-1.158758659511805,0.0643543823808431,-9.752775054574007,14983.0
45.39,8.0,62.0,21.29988670349121,24.65049934387207,-79.78158020689088,40.45947066573597,318.2147022094726,-0.0509496070444583,0.0187619365751743,-0.5860903263092041,0.8084246516227722,-0.9490500678194672,7.914148332087594,0.9735221397725962,-0.0791933238506317,-0.0185933709144592,0.1832913905382156,-1.1302713903039694,-0.0418961406871676,-9.627252291440962,14983.0
45.6,7.900000095367432,62.0,21.30364227294922,23.91098403930664,-79.78156310096705,40.45947683900415,318.2311092224121,-0.0446599833667278,0.02346783131361,-0.5884328484535217,0.8069705963134766,-1.0224684501370356,7.893936974097023,0.9118544146908328,0.1232074201107025,-0.0045694238506257,0.1381115317344665,-1.1336628484725952,0.0480153386620804,-9.618651621937753,14983.0
45.79,7.800000190734862,65.0,21.168420791625977,26.29651641845703,-79.7815543363556,40.45947997520989,318.2627788391113,-0.0416058525443077,0.0255560334771871,-0.5889162421226501,0.8067178130149841,-1.0555685619706916,7.900360019264148,0.8803560488326827,0.0445285029709339,0.0361712649464607,-0.1692272126674652,-1.22227630533278,0.0853112418204546,-9.506418410539627,14983.0
45.9,7.800000190734862,64.0,21.38377380371093,23.131710052490234,-79.78153692676462,40.45948623082265,318.3000217285156,-0.042417611926794,0.0201441515237092,-0.5884726047515869,0.8071524500846863,-1.0458262737319808,7.906713245726799,0.8464469429296102,-0.0112756947055459,0.076013796031475,0.0961424261331558,-1.1141924243420362,0.0458446557819843,-9.663088122010231,14983.0
45.99,7.699999809265138,64.0,21.422588348388672,23.091951370239247,-79.7815283813584,40.45948931244117,318.30631597900384,-0.0429648235440254,0.0205591190606355,-0.5877666473388672,0.807627260684967,-1.0266639275880598,7.89864332004321,0.7893170438314905,0.0435743927955627,-0.0336875133216381,0.0328822396695613,-1.164100529551506,0.1563755417056381,-9.432357577085495,14983.0
46.19,7.699999809265138,63.0,21.188453674316406,27.97434043884277,-79.78151098400045,40.45949542627832,318.34427603149413,-0.0410732217133045,0.0255232974886894,-0.5853368043899536,0.8093469142913818,-0.9585411274136366,7.894257034884824,0.8133713734358373,-0.0451434068381786,0.0928191244602203,-0.0574985034763813,-1.0792782611399891,0.1660865060985088,-9.556910871863368,14983.0
46.29,7.599999904632567,61.0,21.284862518310547,24.22110366821289,-79.78150244525045,40.45949845770683,318.3479381408692,-0.0414826720952987,0.0210309736430645,-0.5826846957206726,0.8113664388656616,-0.9172537985715764,7.880945828848286,0.8173284190378549,-0.0526724234223365,0.1218444854021072,-0.0669402033090591,-1.0744273379445075,0.2747903381288052,-9.797525550127029,14983.0
46.49,7.599999904632567,61.0,21.11458396911621,28.56277275085449,-79.78148522257308,40.45950472510275,318.39762457275384,-0.0475390888750553,0.0140720251947641,-0.5781691074371338,0.8144093751907349,-0.7930469759081504,7.8870335456606755,0.8364995982998679,-0.1011493280529976,-0.086089588701725,0.0752732902765274,-0.9975579406321048,0.1234556627646088,-9.988928307294849,14983.0
46.69,7.5,60.0,21.23477935791016,25.83531379699707,-79.78147670001388,40.45950773863324,318.40938909912114,-0.0512151047587394,0.0124838268384337,-0.5778152942657471,0.8144634366035461,-0.7604336942800469,7.880356904696294,0.8976231965262963,-0.0368086658418178,-0.1633214354515075,0.1765750795602798,-1.1437534616142513,0.1499859785288572,-9.972724503278732,14983.0
46.8,7.400000095367432,59.0,21.07827377319336,27.44952392578125,-79.78145936283167,40.45951376136573,318.4516139831543,-0.0519535839557647,0.0139296725392341,-0.5799411535263062,0.81288081407547,-0.7524415413087796,7.879107143687618,0.981751366751488,0.092293843626976,-0.0117086945101618,-0.0513099171221256,-0.9583220272511244,0.3823119362443686,-9.942969192266467,14983.0
46.89,7.400000095367432,57.0,21.185949325561523,27.56879997253418,-79.78145056412963,40.4595168520535,318.482356628418,-0.0505637489259243,0.0150855854153633,-0.5820488929748535,0.8114399909973145,-0.7770562681738428,7.894585424599103,0.9956197014009658,0.0606348179280757,0.0605402216315269,0.1507985144853592,-0.8717885711789132,0.3382032091543078,-9.855580215454102,14983.0
47.1,7.300000190734862,55.0,21.26357650756836,26.26470947265625,-79.78143346036457,40.45952289368024,318.5178104248047,-0.0490583516657352,0.0102531937882304,-0.5858741998672485,0.8088508248329163,-0.8874722072650776,7.879006222217775,0.9700329933664554,-0.1145859882235527,0.0836636573076248,0.070278026163578,-1.0023543385416271,0.2442232143133879,-9.798064663410187,14983.0
47.29,7.300000190734862,53.0,21.18720245361328,26.46350288391113,-79.78142476042629,40.45952591768846,318.54725225830083,-0.0483299791812896,0.0051622744649648,-0.5863385796546936,0.8086066246032715,-0.9110576849565972,7.855572377504548,0.9320785150921264,-0.0498601458966732,0.043323166668415,-0.0132108544930815,-1.200598995834589,0.3088758777827025,-9.870336248874665,14983.0
47.4,7.199999809265138,53.0,21.28360939025879,23.9825496673584,-79.78140745634528,40.45953201630715,318.5932575073241,-0.0049861622974276,-0.0194235108792781,-0.5852278470993042,0.8106209039688109,-0.9098223133250252,7.746011223505162,0.7291325640092822,0.1595993340015411,0.8623707294464111,0.0365668535232544,-1.323645170778036,0.3418156189844013,-10.21987695336342,14983.0
