time,wind_speed,wind_angle,battery_voltage,battery_current,position_x,position_y,position_z,orientation_x,orientation_y,orientation_z,orientation_w,velocity_x,velocity_y,velocity_z,angular_x,angular_y,angular_z,linear_acceleration_x,linear_acceleration_y,linear_acceleration_z,node_ids
0.0,1.8999999761581416,294.0,22.37289428710937,21.14376640319824,-79.94648944798519,40.44346699129979,249.2326316680908,0.0153269628062844,-0.0092150112614035,0.0604082085192203,0.9980135560035706,0.1462012964930766,-0.0607533471197063,-0.0219775598057443,0.1365277171134948,-0.111095629632473,0.0330379903316497,0.449838944748044,0.1826002856343984,-9.7920747756958,14914.0
0.1,1.7000000476837158,293.0,22.515628814697266,19.36256980895996,-79.94648946992797,40.44346659552636,249.2269410934448,0.0115058235824108,-0.0059365932829678,0.0603277012705802,0.99809467792511,0.1303377884105964,-0.0720229871299981,-0.0079667786048804,0.1145286113023758,-0.0830720290541648,-0.0863333120942115,0.2867740604281426,0.1112574846949428,-9.870614576339722,14914.0
0.31,1.7000000476837158,296.0,22.41796875,20.22931289672852,-79.9464891222907,40.4434664984354,249.2238449897766,0.0072784577496349,-0.0046168621629476,0.0663406401872634,0.9977598786354064,0.1489633184147136,-0.0736085480304588,-0.0194485358506792,-0.0834649503231048,-0.0141630871221423,-0.0821498781442642,0.1099103501625359,0.2798518889956176,-9.80565785765648,14914.0
0.4,1.600000023841858,304.0,22.449268341064453,20.40425109863281,-79.9464889855579,40.443466059084834,249.218122467041,0.0176875311881303,-0.0085751460865139,0.071263276040554,0.9972639083862304,0.1573954095264831,-0.1010422945815636,-0.0176206064797025,-0.0237542055547237,0.0817401558160781,0.0410304144024848,0.1548580978810787,0.1682963698916137,-9.73175372958183,14914.0
0.61,1.7000000476837158,309.0,22.3353328704834,21.660633087158203,-79.94648877400594,40.44346598864771,249.21614073181152,0.0195146054029464,-0.0082646906375885,0.071793608367443,0.9971943497657776,0.1707274947902561,-0.1023436089770535,-0.0246307713973971,0.0296945795416832,-0.1410271227359771,0.0740555003285408,0.2956510656885803,0.2510379431582987,-9.721157405376433,14914.0
0.7,1.7999999523162842,312.0,22.37038993835449,21.41412734985352,-79.94648861698944,40.44346557075935,249.21018169784543,0.0096900137141346,-0.0109083885326981,0.0683591663837432,0.9975541830062866,0.1590378285278428,-0.1152449307803532,-0.0179184352640697,0.0553010627627372,0.0419180952012538,0.0614585801959037,0.2685428074747324,0.0899109540134668,-9.858178718090056,14914.0
0.91,1.7999999523162842,314.0,22.330324172973643,22.09798049926757,-79.9464883789187,40.44346514627087,249.19926594161987,0.009693345054984,-0.0138662289828062,0.060446098446846,0.9980280995368958,0.1316259274756096,-0.0974509844137173,-0.0307482862950992,-0.1303455084562301,-0.0907188728451728,0.105358675122261,0.178759395852685,0.3284036411717534,-9.789806056022645,14914.0
1.0,1.8999999761581416,322.0,22.37539863586425,21.072200775146484,-79.94648822331561,40.44346507296526,249.19616697692868,0.0095167607069015,-0.0177913345396518,0.0561431497335434,0.9982188940048218,0.1037571643340526,-0.0904299744046854,-0.0382161303925157,-0.0243982318788766,-0.0306603107601404,0.1273476630449295,0.3238235536962747,0.0636817835597321,-9.719021417498588,14914.0
1.2,1.8999999761581416,323.0,22.33783721923828,21.6685848236084,-79.94648815393927,40.44346475926611,249.18175648117065,0.0042517771944403,-0.0241279881447553,0.0512869544327259,0.998383402824402,0.0480702053605299,-0.0494741602362136,-0.055991497359894,0.1949630975723266,-0.0078443447127938,0.0782995298504829,0.2342426750063896,0.1393848395068198,-9.666806366443632,14914.0
1.3,1.7999999523162842,346.0,22.273983001708984,22.424001693725582,-79.94648822917156,40.4434644995961,249.1702961769104,0.0024725436232984,-0.0245639197528362,0.0513340905308723,0.9983764290809632,-0.0140743213090834,-0.0074867923917872,-0.0325969676262003,-0.1153135523200035,-0.0268854368478059,-0.126019150018692,0.2676005469448864,0.2044628970511257,-9.933246442079543,14914.0
1.51,1.7999999523162842,358.0,22.24768829345703,22.59894180297852,-79.94648825218914,40.443464492347545,249.16840027236935,0.0025894886348396,-0.0197364464402198,0.0532490350306034,0.9983828663825988,-0.0320843806426226,0.0034496725826727,-0.0042036721307539,0.2104998677968979,-0.0071350429207086,-0.0286179427057504,0.3748964608088136,0.0057127673795912,-10.102008780241013,14914.0
1.6,1.7000000476837158,19.0,22.223899841308597,23.13966178894043,-79.94648844562339,40.44346423903717,249.15983150863647,0.0053553795441985,-0.0151075115427374,0.062290471047163,0.9979294538497924,-0.1060849005537782,0.0448359300755481,0.0222626631218701,-0.1263817995786667,0.0345761552453041,-0.1407943665981292,0.2498407622985542,0.1354627830628305,-9.98115969657898,14914.0
1.8,1.600000023841858,25.0,22.270225524902344,23.02833747863769,-79.94648873123569,40.44346408983658,249.1476402130127,0.008011138997972,-0.0035124779678881,0.0750391855835914,0.997142255306244,-0.1165203112204457,0.0867705522005917,0.010729471149401,0.1425709128379821,-0.0115864994004368,-0.108074389398098,0.2144212717562914,0.209049434736371,-9.835693835020066,14914.0
1.9,1.600000023841858,34.0,22.21263122558593,23.23508262634277,-79.94648888727512,40.44346415976912,249.14879892730715,0.0061219870112836,0.0025919540785253,0.0822036564350128,0.9965933561325072,-0.119236006516618,0.106974615906372,0.0135053609478373,0.1487904340028762,-0.0866673216223716,-0.0139905577525496,0.2678900023922324,-0.1166762273479253,-9.857029155492784,14914.0
2.1,1.5,42.0,22.233917236328125,23.34640884399414,-79.94648933130851,40.443464104986376,249.1396217193604,0.0061855572275817,0.0113454684615135,0.0945632457733154,0.9954350590705872,-0.102498913080482,0.1462863896331813,0.021287017575372,-0.0204852297902107,0.0988053455948829,-0.2180121392011642,0.225642352681607,-0.0079886122047901,-9.89750007390976,14914.0
2.2,1.399999976158142,72.0,22.299022674560547,22.05821990966797,-79.94648947766626,40.44346421323786,249.14217422866815,0.0099386181682348,0.0104979528114199,0.0990647003054618,0.994976043701172,-0.0814458001341491,0.1549724405630196,0.0226948200434536,-0.0274393949657678,0.1151360422372818,0.0820022970438003,0.3167615789920092,-0.1883043906837702,-9.885796287059785,14914.0
2.4,1.2000000476837158,80.0,22.310291290283203,22.217256546020508,-79.946489793288,40.44346429512107,249.13317106628412,0.0144331026822328,-0.0011508191237226,0.1007949709892273,0.994801938533783,-0.0802009217308403,0.1850573818048666,0.0079386384121216,-0.279208242893219,-0.0188427325338125,-0.0737461224198341,0.3894947290420532,0.0507061405107379,-9.8140766787529,14914.0
2.5,1.2000000476837158,101.0,22.29401588439941,22.28087043762207,-79.94648992125678,40.44346444377845,249.1331939544677,0.0163593888282775,-0.0060764700174331,0.0992884784936904,0.9949057102203368,-0.0664233155437691,0.1819047327236225,-0.0178187749913816,0.0402466058731079,0.1189749538898468,0.0327426604926586,0.3941427173092962,-0.07572375417687,-9.628023539185524,14914.0
2.7,1.2000000476837158,111.0,22.18759155273437,23.577009201049805,-79.9464902573785,40.4434644484784,249.10640381240844,0.0148258004337549,-0.0040633361786603,0.0925402417778968,0.995590329170227,-0.1197522960810229,0.1692866995617172,-0.0799843976468306,-0.0411790162324905,-0.0050201597623527,-0.0518718473613262,0.1717806160636246,0.1413260785583406,-9.507238774895669,14914.0
2.8,1.2000000476837158,124.0,22.22515296936035,22.614845275878903,-79.94649046268519,40.44346447513225,249.09972904586792,0.0154377510771155,0.0011199880391359,0.0882505401968956,0.995978057384491,-0.104668493894114,0.1736033777019455,-0.1004529464165732,0.2311597168445587,0.0574587769806385,0.2680103480815887,0.2423175884597004,-0.2930077770352364,-9.64677731394768,14914.0
3.0,1.2000000476837158,125.0,22.22139549255371,22.54327964782715,-79.94649062664591,40.4434646106989,249.0883140411377,0.0152678294107317,0.0092688323929905,0.0828824117779731,0.9963992834091188,-0.1098511782515887,0.1629619197736339,-0.1412577217656321,0.1463369727134704,0.0179675351828336,0.1447900980710983,0.1982418250478805,-0.031419172771275,-9.44187567472458,14914.0
3.1,1.2000000476837158,132.0,22.15879440307617,23.71219062805176,-79.94649095788711,40.44346477110941,249.0716962661743,0.0173984337598085,0.0206882189959287,0.0732331052422523,0.9969484806060792,-0.0649516433205141,0.1508295989211945,-0.1544723475223536,0.1437475979328155,0.0607222504913806,-0.0112446565181016,0.2301039426773786,0.0149002038314938,-9.723409752845765,14914.0
3.3,1.2999999523162842,140.0,22.22515296936035,22.59894180297852,-79.94649135800596,40.4434648608273,249.06046389007568,0.0153831448405981,0.0253915842622518,0.0720139294862747,0.996961772441864,-0.0201765851938178,0.1407267253521104,-0.0881851667655193,0.0279736183583736,-0.1044670790433883,0.0324956178665161,0.2991767905466259,-0.0148062829300761,-9.957018882036207,14914.0
3.4,1.2999999523162842,125.0,22.161296844482425,24.26086235046387,-79.94649139125754,40.443464988514144,249.0540308799744,0.0102308690547943,0.0227969102561473,0.0745815858244896,0.99690181016922,0.0159245557357146,0.1314920028912445,-0.0475962022733456,-0.0195446442812681,-0.0453710295259952,0.0366289243102073,0.1839119988307357,-0.2088788239471614,-10.184531704187394,14914.0
3.6,1.2999999523162842,125.0,22.24142837524414,22.67845916748047,-79.94649181032766,40.44346495588498,249.04369161987304,0.0114640602841973,0.018901927396655,0.0835096985101699,0.9962618350982666,0.0425267157831811,0.1314218673651526,0.0230120245147736,-0.0801559686660766,-0.0358898192644119,-0.0407821498811244,0.2030941552296281,0.0657549732550978,-10.229305003881455,14914.0
3.7,1.399999976158142,150.0,22.223899841308597,22.821590423583984,-79.94649175791088,40.44346508073984,249.0464181747436,0.0136213367804884,0.018163826316595,0.0868573188781738,0.9959620237350464,0.0871287163653867,0.1287966147011392,0.0311184853261347,0.037917174398899,0.1170920208096504,-0.0579764917492866,0.2734181793406606,-0.0467417237302288,-9.973482302427293,14914.0
3.9,1.2999999523162842,141.0,22.33783721923828,21.135814666748047,-79.94649186164493,40.44346498055493,249.03435037994385,0.015761824324727,0.0169702675193548,0.0885296016931533,0.9958043098449708,0.0982100702972469,0.1204448948098267,0.027059383430103,-0.102230466902256,-0.0488753207027912,-0.0207490157335996,0.1669681017659604,0.0849193413276225,-9.93601217508316,14914.0
4.0,1.2000000476837158,158.0,22.23141288757324,22.72616958618164,-79.9464915946789,40.44346522347343,249.03994940185547,0.0185814797878265,0.0129620898514986,0.0872872024774551,0.9959254860877992,0.1567890726198453,0.1121984452781361,0.0273055310667701,-0.1525480449199676,-0.0713421031832695,-0.0878684595227241,0.2628868871368468,0.2422501079365611,-9.755258367061618,14914.0
4.2,1.2000000476837158,168.0,22.180078506469727,23.266889572143555,-79.94649140931024,40.443465253968405,249.03273056411743,0.0145531455054879,0.0116128548979759,0.0837086737155914,0.996316373348236,0.2072732119157923,0.0952359379115083,0.0440032043957569,0.1007793769240379,0.003380240406841,0.1028533577919006,0.3434443243592978,0.0046523074409924,-9.901762694120409,14914.0
4.3,1.2000000476837158,192.0,22.19635581970215,23.38616752624512,-79.94649142641623,40.44346510627291,249.0213551368713,0.0123626142740249,0.0100127700716257,0.0817011892795562,0.9965299367904664,0.2007984806795184,0.0965209868705035,0.0434047809710484,-0.105690062046051,-0.0965574383735656,-0.0458168312907218,0.2098756828531623,0.1488582059461623,-9.900687975883484,14914.0
4.5,1.2000000476837158,216.0,22.280242919921875,21.891233444213867,-79.94649095750685,40.44346532892083,249.0312228050232,0.0152346054092049,0.0028954448644071,0.0770919173955917,0.9969034194946288,0.2323417620660026,0.0876835654574456,0.0465203625988016,-0.1051934584975242,0.0611689127981662,0.0375627242028713,0.2131132861599326,0.0090984948200639,-9.900067001581194,14914.0
4.6,1.2999999523162842,229.0,22.292762756347656,21.40617561340332,-79.94649091330915,40.44346508266148,249.0134186592102,0.0181898549199104,-0.0003429514472372,0.0742586404085159,0.9970731139183044,0.2244557496112382,0.072452629087848,0.0048855126842017,-0.0541735179722309,-0.0692968294024467,0.1453289687633514,0.2877199754677713,0.066562126558274,-9.685130955576897,14914.0
4.8,1.2999999523162842,227.0,22.392927169799805,20.23726463317871,-79.9464906560673,40.443465178681045,249.0129046287537,0.0181608740240335,-0.0008451820467598,0.0727865397930145,0.9971818923950196,0.2354812274608952,0.0757608547168815,-0.0168130775391984,-0.045712474733591,-0.0585722476243972,-0.0464835204184055,0.30491097221151,0.3353954492881894,-9.582718142867089,14914.0
4.9,1.5,240.0,22.32030868530273,21.37436866760254,-79.94649039225067,40.44346473611415,248.99864433670044,0.0178950149565935,-0.0051614893600344,0.0710460394620895,0.9972991943359376,0.2193252269189229,0.0102460404741325,-0.0623705615752126,-0.0413397252559661,0.0580271705985069,0.0270153041929006,0.3641686107963324,-0.0140168699878267,-9.600486077070236,14913.0
5.1,1.600000023841858,242.0,22.292762756347656,22.121835708618164,-79.94649001724156,40.443464604938285,248.99944542312625,0.0190836228430271,-0.0099325394257903,0.0729091241955757,0.9971065521240234,0.2028557724811871,0.0109480975765137,-0.0491129552685726,-0.081780232489109,0.0288635250180959,-0.0846525281667709,0.2515680480748415,0.1045121275819838,-9.700866397619247,14913.0
5.2,1.600000023841858,251.0,22.28274726867676,21.35846519470215,-79.94648977401407,40.44346464142147,248.99516914749145,0.0196337532252073,-0.0096034919843077,0.0733947455883026,0.9970635175704956,0.2024917750130977,0.0060429018255296,-0.0453023317897352,-0.0330797545611858,-0.0191102437674999,0.0172856636345386,0.3150632186606527,0.1288579783961177,-9.818444548845294,14913.0
5.4,1.7000000476837158,255.0,22.360374450683597,20.507625579833984,-79.94648934563051,40.443464624468135,248.98691223526,0.0192670356482267,-0.0091672055423259,0.0748681277036666,0.9969651699066162,0.2041619093957568,0.0146539686656194,-0.034832487592213,0.0164045337587595,-0.0278697200119495,-0.1069021970033645,0.3265132363513112,0.1949797547981143,-9.832497746944428,14913.0
5.6,1.7000000476837158,268.0,22.32155990600586,21.278947830200195,-79.94648910847123,40.44346466036087,248.983129486084,0.0199204105883836,-0.0066341087222099,0.0759333670139312,0.9968918561935424,0.2038087422644445,-0.0008373766146904,-0.0489306096540868,0.0302406288683414,0.0867988839745521,0.0796158388257026,0.2324848923459649,0.0442747514694929,-9.684172012209892,14913.0
5.7,2.0,272.0,22.296518325805664,21.72424697875977,-79.94648887726404,40.44346462660447,248.97601698303225,0.0210910160094499,-0.0056298477575182,0.0778071358799934,0.9967294931411744,0.2148846610703792,0.0130035946620573,-0.0559046084196999,0.0013685042504221,0.1053148955106735,-0.1355622410774231,0.3960378364473581,0.1855090196058154,-9.708604602813724,14913.0
5.81,2.200000047683716,274.0,22.296518325805664,21.676536560058597,-79.94648854972316,40.44346460768653,248.96594570541384,0.0243991762399673,-0.0081719364970922,0.083092488348484,0.9962096214294434,0.2051614484092728,0.0149476066161259,-0.0521278444364075,-0.1652566939592361,-0.026125306263566,-0.0726832523941993,0.3676839568465948,0.3647105380520225,-9.75311243891716,14913.0
6.0,2.299999952316284,272.0,22.36788558959961,20.49967384338379,-79.94648829573408,40.44346464912519,248.96060083770752,0.0232309158891439,-0.0096594095230102,0.0854381844401359,0.996025800704956,0.2238213714251727,0.0012734340185159,-0.0619851844422137,-0.0248703230172395,-0.0067719551734626,-0.078824758529663,0.4032957294210792,0.182034220341593,-9.731288875937462,14913.0
6.1,2.299999952316284,273.0,22.322813034057614,21.11195945739746,-79.94648798302508,40.44346461213959,248.9447407569885,0.0176755040884017,-0.0135027943179011,0.0888717025518417,0.9957947731018066,0.2120677289357233,0.0009008312560426,-0.0813511114815212,-0.0559444986283779,-0.0238453336060047,0.0183792226016521,0.2579585796967149,0.2719736247137189,-9.658443093895912,14913.0
6.3,2.299999952316284,274.0,22.319055557250977,20.80183982849121,-79.94648780206114,40.44346450626707,248.93108366394043,0.0153416562825441,-0.0156368631869554,0.0886207222938537,0.9958245754241944,0.1864385759395864,-0.0003727456819612,-0.0826730003107275,-0.0657615140080452,0.0001809549721656,0.1365337669849395,0.2043819679319858,0.1544636483676731,-9.693256246447564,14913.0
6.4,2.299999952316284,279.0,22.36788558959961,20.75412940979004,-79.9464875840318,40.44346453775614,248.92230318450927,0.0166295692324638,-0.0184556078165769,0.0861890166997909,0.99596905708313,0.1870032536203322,-0.003319524521078,-0.1066604454498501,-0.0043415022082626,0.0158651769161224,0.2005577832460403,0.353484322540462,0.1361814515478909,-9.63484373152256,14913.0
6.6,2.299999952316284,284.0,22.25770568847656,21.620872497558597,-79.94648750039111,40.44346421572633,248.923839553833,0.0173517018556594,-0.0263616498559713,0.080188401043415,0.9962800145149232,0.1338613569357411,-0.0263455552301716,-0.0453268399673161,0.0079957088455557,0.060895100235939,0.1029471606016159,0.3268057798594237,0.2975163457542658,-9.74312013208866,14913.0
6.7,2.299999952316284,292.0,22.39042282104492,19.8635311126709,-79.94648735302616,40.443464211271134,248.92109583282468,0.0180790498852729,-0.0262502934783697,0.0778064951300621,0.996458888053894,0.1140703014013396,-0.0295922633242615,-0.0237913180000215,0.0539709366858005,0.0611792132258415,0.0662433728575706,0.3334916324168444,0.2787699713744223,-10.039651733636855,14913.0
6.9,2.400000095367432,294.0,22.326568603515625,21.27099609375,-79.94648734527013,40.44346402979348,248.9106540527344,0.0203876942396164,-0.0255215801298618,0.0742952078580856,0.9967012405395508,0.0539656182491777,-0.0213149714474924,-0.0136026721723826,0.0095569854602217,-0.1020521521568298,0.0245518255978822,0.2787333714589477,0.0731579502671957,-9.972726842164992,14913.0
7.0,2.5,297.0,22.421724319458008,19.08425712585449,-79.94648741836642,40.4434638778618,248.89703844451904,0.0161348655819892,-0.0227544158697128,0.0735794454813003,0.99689918756485,0.0409835891467509,-0.0171687101543844,-0.0256116065302404,0.0482472889125347,-0.011876743286848,-0.052201434969902,0.3437324093654752,0.3787677926570177,-9.763955515623094,14913.0
7.2,2.5999999046325684,295.0,22.47055435180664,18.74233055114746,-79.94648736385608,40.44346385423317,248.88986013793945,0.012947897426784,-0.0230129286646842,0.0733153671026229,0.9969592094421388,-0.0022124231838844,-0.0106984423518416,-0.0510172447149036,0.0274891108274459,-0.1013044863939285,0.0230952966958284,0.2677453020773828,0.1178589820303022,-9.72372784137726,14913.0
7.3,2.5,299.0,22.326568603515625,20.67461204528809,-79.9464875655718,40.44346367555315,248.87470959091183,0.0112415412440896,-0.0231063142418861,0.0733487382531166,0.9969753623008728,-0.0226174235574988,0.0099506688786985,-0.0645997548568695,-0.0011416840134188,0.0369631983339786,-0.0226962175220251,0.3590655629709363,0.3177450075745582,-9.66857339501381,14913.0
7.5,2.5,299.0,22.38416290283203,20.14979553222656,-79.94648782330555,40.44346357668013,248.85740993881225,0.0139938332140445,-0.0235777292400598,0.0748311281204223,0.996819257736206,-0.0796076988313034,0.0474333649053322,-0.074828137237363,-0.042621087282896,-0.0481310039758682,0.0325212702155113,0.3250922898575664,0.1431076155323535,-9.713527958393096,14913.0
7.6,2.5999999046325684,299.0,22.33157730102539,20.45991516113281,-79.94648791714394,40.44346361962817,248.8487562980652,0.0160945784300565,-0.0236408803611993,0.0769600421190261,0.9966239333152772,-0.0786936579667872,0.0635053820233094,-0.0931930735548403,0.0231940615922212,0.0818637236952781,-0.0596670508384704,0.4082267229259015,0.2788437741994858,-9.584196318984032,14913.0
7.8,2.700000047683716,300.0,22.409204483032227,19.76015853881836,-79.94648837348525,40.44346364302275,248.82446144485476,0.0219807084649801,-0.0195853728801012,0.0834894329309463,0.9960737228393556,-0.1138460655446084,0.1036169067801909,-0.1231742385386911,-0.0327544771134853,0.0131592769175767,-0.0393156073987484,0.3882975481823087,0.3790225850790739,-9.600680789351465,14913.0
7.9,2.700000047683716,301.0,22.31154441833496,21.00858688354492,-79.9464885151145,40.44346372451518,248.81103657150268,0.0236363057047128,-0.0158295072615146,0.0871099084615707,0.9957925081253052,-0.119105724947491,0.1057444991451191,-0.1442191994494046,0.0416373871266841,-0.1144749894738197,0.0075051099993288,0.3498304340243339,0.3065749984234571,-9.580155308246614,14913.0
8.1,2.700000047683716,304.0,22.306535720825195,21.119911193847656,-79.94648893197012,40.443463754574296,248.78144691848755,0.0234555080533027,-0.0080641126260161,0.0907107591629028,0.9955683946609496,-0.0830122950182133,0.0769450467470842,-0.1393626858589081,0.1316845566034317,0.0043338765390217,0.0388223901391029,0.3053061891719699,0.3683936626464129,-9.616841908693312,14913.0
8.2,2.900000095367432,303.0,22.31279563903809,21.040393829345703,-79.94648903280856,40.44346380584013,248.76771782302856,0.0240480042994022,-0.0053955810144543,0.0896786451339721,0.9956657886505128,-0.0635163332466686,0.0553646559749177,-0.1399098370484,0.0489328280091285,0.0601898953318595,0.0502458289265632,0.2876988706737757,0.3828662157431245,-9.74694947361946,14913.0
8.4,3.0,303.0,22.391674041748047,19.40232849121093,-79.94648934776605,40.4434637152312,248.75123594665527,0.0232572704553604,-0.0061227926053106,0.0871285125613212,0.9959067702293396,-0.0562331268811466,0.044930901202648,-0.141917280945308,-0.0647197887301445,-0.050634354352951,0.2454992830753326,0.2050869045965373,0.1303874638304114,-9.637802422642707,14913.0
8.5,3.0999999046325684,303.0,22.220144271850582,22.67845916748047,-79.94648940714487,40.44346374878148,248.7357745018005,0.0184966381639242,-0.0094520458951592,0.08333670347929,0.9963049292564392,-0.0237691574587526,0.0267887145940646,-0.1690543763462083,0.0473879389464855,-0.0091469585895538,0.016580106690526,0.3578910400718451,0.4999399349838495,-9.62733883023262,14913.0
8.7,3.2000000476837163,306.0,22.41421127319336,19.83172416687012,-79.9464895867779,40.44346379569304,248.6866397705078,0.0120280245319008,-0.0153617151081562,0.0757323578000068,0.996937334537506,0.033601279734864,0.0357182025430183,-0.1433071241310976,0.0975494012236595,0.0421368479728698,0.1633961945772171,0.2471246027201414,0.2075598565489053,-9.943926966190338,14913.0
8.8,3.299999952316284,313.0,22.218891143798828,22.57508659362793,-79.94648993143164,40.44346378394851,248.6610565032959,0.0128248054534196,-0.016128109768033,0.0745341479778289,0.997005581855774,0.0117460579383543,0.0699527816833672,-0.1501330685193017,0.074212409555912,0.0047201733104884,0.0167438611388206,0.2844864286668598,0.4531926883757114,-9.741925545930863,14913.0
9.0,3.400000095367432,316.0,22.23516845703125,22.288822174072266,-79.94648991005758,40.44346394511693,248.63460968399048,0.0122629236429929,-0.0150847230106592,0.0748489275574684,0.9970054626464844,0.0195192652621071,0.0963889388067342,-0.1110160116591051,-0.0212167520076036,-0.0590785369277,0.0066095893271267,0.2600978749059141,0.4336858653277159,-9.93302541732788,14913.0
9.1,3.299999952316284,317.0,22.26897430419922,21.263044357299805,-79.94649006670093,40.44346378129472,248.6042170372009,0.0133039560168981,-0.0166518222540617,0.074791595339775,0.9969714283943176,0.0109386405559829,0.0918183778984755,-0.0970574620225308,-0.017451113089919,-0.0944903492927551,0.1398983746767044,0.2612573229521513,0.2593185506947338,-10.005753085613252,14913.0
9.3,3.2000000476837163,321.0,22.243932723999023,22.16159439086914,-79.94649018959315,40.44346378517663,248.55975387954712,0.0172336548566818,-0.0174915306270122,0.0757847055792808,0.9968218803405762,0.012566983982832,0.0971032005396388,-0.1316533290630421,0.0409165099263191,0.0416855067014694,-0.0011293472489342,0.328567253574729,0.3828515611588955,-9.794792561531068,14913.0
9.4,3.299999952316284,319.0,22.17632293701172,23.131710052490234,-79.946490182355,40.443463880051816,248.5472750511169,0.0179140605032444,-0.0120600219815969,0.0776541829109191,0.99674654006958,0.0281685274538435,0.1016313137124366,-0.124064538473044,0.2282948195934296,0.0236187931150198,-0.018477601930499,0.4564025174081326,0.307716484554112,-9.891296178102492,14913.0
9.6,3.299999952316284,319.0,22.319055557250977,21.088104248046875,-79.94649016745998,40.44346397969351,248.5364866104126,0.0168402884155511,-0.0082325246185064,0.0802204087376594,0.9966009259223938,0.0350861692781025,0.1041407248507326,-0.1026631507029833,0.0736441761255264,0.0130480378866195,0.0350031219422817,0.4135063932090997,0.1965988488122821,-9.97442370414734,14913.0
9.7,3.299999952316284,317.0,22.23641967773437,22.018461227416992,-79.9464901114438,40.44346431869815,248.49849270248413,0.0160989928990602,-0.0122584560886025,0.0849837735295295,0.9961768984794616,0.0791801138788767,0.1387447701371361,-0.0938012295917598,-0.0196492187678814,0.0039655668660998,-0.0877963900566101,0.2659702701307833,0.4541544091701508,-9.860144551992416,14913.0
9.9,3.299999952316284,316.0,22.24894142150879,22.209304809570312,-79.9464898872106,40.443464811000005,248.45416925811767,0.0180128701031208,-0.0153541779145598,0.0908110439777374,0.99558687210083,0.1268887319427524,0.1814397722710786,-0.1133733470270072,0.0361665599048137,0.1298480927944183,-0.180099606513977,0.217427124325186,0.4841273096948862,-9.8063086527586,14913.0
10.0,3.2000000476837163,313.0,22.23892402648925,21.74810218811035,-79.94648977798285,40.44346499572405,248.44408558273315,0.0196470972150564,-0.0167877245694398,0.0942657589912414,0.9952116608619692,0.1295838652661914,0.1787281676651344,-0.1090337240434133,-0.062130432575941,0.1053246036171913,-0.0475292727351188,0.2953286282904446,0.3155557369440794,-9.80599465727806,14913.0
10.2,3.2000000476837163,312.0,22.35787010192871,20.730274200439453,-79.94648983602856,40.443465203782566,248.3918723907471,0.0204885862767696,-0.0182360429316759,0.0998165383934974,0.9946277737617492,0.1223982365847702,0.1339468997074663,-0.1665025157851484,0.0305403880774974,-0.0171494260430336,-0.0524758584797382,0.1921137055009603,0.5226901354640723,-9.720418317317964,14913.0
10.3,3.0999999046325684,309.0,22.35161018371582,20.396299362182614,-79.94649008579077,40.44346492633686,248.34746406936645,0.0173212047666311,-0.0154852485284209,0.0995178073644638,0.9947645664215088,0.100288461870799,0.0767408324874031,-0.2057852852954256,0.0789167582988739,0.0745937600731849,0.0900115072727203,0.0978753733634948,0.5363332244753838,-9.55733362555504,14913.0
10.5,3.0,308.0,22.262714385986328,21.445934295654297,-79.94648984589729,40.44346508697066,248.30508850479129,0.0171387791633605,-0.0168694909662008,0.0927543193101883,0.9953987002372742,0.1110840912412678,0.0398620681081872,-0.2138337552268184,-0.2225445359945296,0.0389812439680099,0.0408217832446098,-0.0563975461386144,0.4495781589299441,-9.615965995788574,14913.0
10.6,2.900000095367432,309.0,22.290258407592773,21.19147682189941,-79.94649008936419,40.443464504493576,248.2669515457153,0.0191617514938116,-0.0214843600988388,0.0853618010878562,0.9959340691566468,0.0803478423160085,-0.0321837316693437,-0.2299390591467059,-0.0888439044356346,-0.0096495393663644,0.2491926699876785,0.2007807957194745,0.176275590006262,-9.65875591993332,14913.0
10.8,3.0,309.0,22.23141288757324,22.0025577545166,-79.94648998947069,40.44346434455328,248.20679996871948,0.0086128721013665,-0.0279006790369749,0.0730247199535369,0.9969026446342468,0.0659932078018837,-0.0369946276774122,-0.2213999345463038,0.0811709314584732,-0.1024885922670364,0.0082881348207592,0.3359407021477819,0.5452236235141754,-9.715031277537346,14913.0
10.9,2.900000095367432,314.0,22.190093994140625,22.511472702026367,-79.94648990379687,40.44346432680981,248.1869053688049,0.0034834961406886,-0.0240890216082334,0.0696857720613479,0.9972720742225648,0.0541824740574498,-0.0279915932794767,-0.1845552212220168,0.1354429870843887,-0.0813826546072959,0.0420262031257152,0.2347117313370109,0.5362938654050231,-10.113063526153567,14913.0
11.11,3.0,316.0,22.340341567993164,20.507625579833984,-79.94648982630562,40.44346431819359,248.1698570098877,0.0011716502485796,-0.0179459899663925,0.0696303397417068,0.997410774230957,0.0508231548286165,-0.0094785543042133,-0.1647889127920926,0.1111396998167038,-0.0726959109306335,-0.0680972412228584,0.2533905886486173,0.4683653359115124,-9.962178465127945,14913.0
11.2,3.0,317.0,22.20512008666992,22.12978744506836,-79.94648996597576,40.44346432741529,248.10968445205688,-0.0002004992275033,-0.0151570187881588,0.0746697336435318,0.9970930814743042,0.0578027084108503,0.0553519706177331,-0.1679963938810644,0.0022878332529217,-0.0128987859934568,-0.0289115831255912,0.1873804940655828,0.2973594028316438,-9.873036493062974,14913.0
11.4,3.0,317.0,22.14627265930176,23.147613525390625,-79.94648999121567,40.4434644256893,248.054671749115,0.0060248519293963,-0.0178855676203966,0.0816644951701164,0.9964812397956848,0.0758440399291174,0.1118682350105569,-0.1249421221013471,-0.1629753112792968,0.070904403924942,-0.096696525812149,0.2767602285370231,0.5742491289228201,-9.924290846586226,14913.0
11.5,2.900000095367432,318.0,22.277738571166992,21.51749992370605,-79.94648991274576,40.44346454734071,248.04347895050049,0.0097273075953125,-0.0210171937942504,0.0850740671157836,0.9961054921150208,0.0796503280460188,0.1305426334834419,-0.107926253624089,-0.1285004913806915,-0.0115787899121642,0.0179216004908084,0.3346393312141299,0.3323338106274605,-10.019179462194444,14913.0
11.7,2.799999952316284,322.0,22.124988555908203,24.08592414855957,-79.94648987549625,40.44346460903062,247.99334572219848,0.0168102998286485,-0.0242049023509025,0.0892242193222045,0.9955755472183228,0.0658089214167958,0.1308191434197694,-0.1106257627377896,0.0232801251113414,0.1400027722120285,0.0467262342572212,0.1645267065055668,0.4020253852754832,-9.82494080543518,14912.0
11.8,2.5999999046325684,322.0,22.220144271850582,22.24906349182129,-79.94649015971967,40.44346422803554,247.9562964286804,0.0188491772860288,-0.0246061366051435,0.0901683270931244,0.9954441785812378,-0.003541088567511,0.0794682472397542,-0.1091830056400046,-0.0944445058703422,-0.0985523015260696,0.0803369730710983,0.2491291013360024,0.3018169180490077,-9.978929568529132,14912.0
12.0,2.5,321.0,22.22640419006348,22.05821990966797,-79.9464901667093,40.443464301289616,247.9464316215515,0.0185482464730739,-0.0209838226437568,0.089706540107727,0.995574414730072,-0.0035053492004263,0.0689391162838759,-0.0973570890766632,0.1658600866794586,0.0480637215077876,0.163955420255661,0.207944493703544,0.1076559378951788,-9.93954506278038,14912.0
12.1,2.5,323.0,22.14752578735352,23.1873722076416,-79.94649044006549,40.44346416386576,247.89412830734253,0.0193101242184638,-0.0104286186397075,0.0843638181686401,0.9961932897567748,-0.036995737208727,0.0367559917079251,-0.1153615656142467,-0.0113375401124358,-0.0350683070719242,0.0254566706717014,0.0962314835004508,0.3635837795957923,-9.786395375132562,14912.0
12.3,2.5999999046325684,324.0,22.17381858825684,22.50352096557617,-79.94649048422436,40.443464187152976,247.882757648468,0.0182927921414375,-0.0092043904587626,0.0798019841313362,0.9966003894805908,-0.0432150960948287,0.0262569441125323,-0.1099348341788482,-0.0874154046177864,-0.1214369386434555,0.0828078091144561,0.2137189115211368,0.3182582469284534,-9.842661377191542,14912.0
12.4,2.5999999046325684,331.0,22.24894142150879,21.326658248901367,-79.94649068483898,40.44346400471129,247.83132336997983,0.0144811533391475,-0.0088908802717924,0.0699591338634491,0.997405171394348,-0.0314613992142209,-0.008327860009982,-0.1180787050854462,-0.1951462924480438,-0.011608543805778,-0.0454767309129238,0.1505103824101388,0.4448165884986521,-9.78302504003048,14912.0
12.6,2.5999999046325684,334.0,22.23641967773437,21.891233444213867,-79.9464908435296,40.44346401761309,247.7883288707733,0.0106874499469995,-0.0118760801851749,0.0609789378941059,0.9980112314224244,-0.0269786816755557,0.0189768888758175,-0.1273266409220902,-0.0526562184095382,-0.0121994353830814,0.0195185001939535,0.2053176503442228,0.2332163059338927,-9.792173008918764,14912.0
12.7,2.400000095367432,340.0,22.07490539550781,24.09387588500977,-79.94649087337251,40.44346403037535,247.7752628173828,0.0124219981953501,-0.0084133734926581,0.0594776794314384,0.998116970062256,-0.0248897801058098,0.0107587192826876,-0.127273213113792,0.134223610162735,0.1023778244853019,-0.0035123932175338,0.2905940098688006,0.2056272421404719,-9.86043457388878,14912.0
12.9,2.299999952316284,340.0,22.131248474121094,23.46568489074707,-79.94649108544611,40.44346416301551,247.74267958068847,0.0230424404144287,-0.0081272386014461,0.0647984743118286,0.9975992441177368,-0.0390546491887593,0.045611882880657,-0.0585410214923932,-0.1915762275457382,0.0973751842975616,-0.0932738482952118,0.2344915653951466,0.0687424162309616,-9.958249136209488,14912.0
13.0,2.200000047683716,339.0,22.07991409301757,24.02230834960937,-79.94649116184138,40.443464226919055,247.7276544418335,0.0267304461449384,-0.0098583530634641,0.0702098980545997,0.9971253275871276,-0.0090311154424054,0.0474676292709659,-0.0081477932933833,0.1033205687999725,0.0801216289401054,-0.0428537614643573,0.4396042342856527,0.0844525142479687,-10.319671382904051,14912.0
13.2,2.200000047683716,338.0,22.186338424682614,22.57508659362793,-79.94649119665193,40.443464287417335,247.7350876178741,0.028555104508996,-0.006628856062889,0.0794463455677032,0.9964081048965454,-0.0120211522326643,0.0234680653474701,0.0680237324339813,-0.0984509885311126,-0.0510861910879612,-0.1090719774365425,0.3583829005435109,0.2908583771064877,-10.219244284629822,14912.0
13.3,2.299999952316284,342.0,22.20762252807617,21.84352302551269,-79.94649132202878,40.44346432410664,247.72105549240112,0.0257127583026886,-0.0034219147637486,0.0830576419830322,0.9962071776390076,0.0098050950490565,0.0197958802890458,0.0691401509633574,0.0584070943295955,-0.1241116821765899,-0.0212508272379636,0.3276758455485106,0.2105566642060876,-9.988940001726151,14912.0
13.5,2.299999952316284,344.0,22.20136260986328,22.0661735534668,-79.94649160626767,40.44346455930209,247.7159178104401,0.01507995929569,-0.0046977642923593,0.0887458324432373,0.9959291219711304,0.0152797232083101,0.0423496164118777,0.0390955238995245,-0.0573383457958698,-0.0897355303168296,-0.0386268272995948,0.2174892875365913,0.1834200652688741,-9.797376446127895,14912.0
13.6,2.299999952316284,342.0,22.1988582611084,21.978702545166016,-79.94649159089067,40.44346459295543,247.71835492515564,0.0118472697213292,-0.0077975294552743,0.0909245535731315,0.9957568049430848,0.0200552307613218,0.0269129362193403,0.0052193585594956,-0.0983501598238945,-0.0101705519482493,-0.0058387597091495,0.1080912631005048,0.1495782265998423,-9.49311073243618,14912.0
13.8,2.200000047683716,338.0,22.13249969482422,22.956771850585927,-79.94649182501297,40.443464435799896,247.70844553375244,0.0125460065901279,-0.0077008800581097,0.0946758240461349,0.995399296283722,0.0048458558652898,0.0197197598140738,-0.0667847876227414,0.0474696904420852,0.0014298339374363,0.001150046242401,0.2102968468330801,0.1334673933126032,-9.380531950592996,14912.0
13.9,2.0999999046325684,323.0,22.14752578735352,22.93291664123535,-79.9464918235959,40.44346445967543,247.7006571140289,0.0107634719461202,-0.0062043606303632,0.09564208984375,0.9953383207321168,0.004733781378792,0.0272145782005229,-0.0888701644080368,0.0461986176669597,-0.0296000130474567,0.050936359912157,0.2441849881410599,0.1120222365483641,-9.561341891884805,14912.0
14.1,2.0,315.0,22.04110145568848,24.11773109436035,-79.94649226709447,40.44346439475631,247.69751618766784,0.0149043416604399,-0.005260185804218,0.0941195264458656,0.9954354166984558,-0.0290280288269361,0.0414104066950084,-0.0546573639729784,-0.0159999877214431,0.0435575917363166,-0.0509668439626693,0.2995870275422931,0.0262439506617374,-9.73965390264988,14912.0
14.2,2.0,305.0,22.018564224243164,24.44375228881836,-79.9464923114799,40.4434644256571,247.69215606117248,0.0178726650774478,-0.0057923519052565,0.0899679511785507,0.9957674145698548,-0.0406184061330331,0.0403396516789743,-0.0472697049930325,-0.1119199097156524,0.0088200261816382,0.1015725955367088,0.2948316697776317,0.2729586430080235,-9.8610029232502,14912.0
14.41,2.0,299.0,22.09619140625,24.920860290527344,-79.94649258779776,40.4434644382948,247.7045807685852,0.0179923698306083,-0.0026484816335141,0.0845045670866966,0.9962571263313292,-0.0352609852453622,0.0562574074614432,0.0029391599446649,0.013949797488749,0.0401849374175071,0.074958823621273,0.3067351024970412,0.2229820705577731,-9.8989934527874,14912.0
14.5,2.0,297.0,22.167558670043945,21.994606018066406,-79.94649269015059,40.4434645234158,247.70851133728027,0.0140189314261078,0.003360841423273,0.075376383960247,0.997050940990448,-0.0381226427608654,0.056921262298243,0.0302020702945701,-0.0718846172094345,-0.1205049231648445,0.0648579597473144,0.2768838240578771,-0.0254211446363478,-9.878193737268449,14912.0
14.7,2.0,299.0,22.12874412536621,22.57508659362793,-79.94649292514545,40.44346456659788,247.71294163131716,0.0103693231940269,0.0003448569623287,0.0731396824121475,0.9972677826881408,-0.0185391458917292,0.063801866174456,0.0524971769001805,0.0668957978487014,-0.0623501315712928,-0.027203069999814,0.2054835650883615,0.0305639078468084,-9.832980726957322,14912.0
14.8,1.8999999761581416,300.0,22.20512008666992,22.185449600219727,-79.94649321155984,40.44346443407149,247.7113585319519,0.0099346870556473,0.0024540559388697,0.0749916136264801,0.9971317052841188,-0.0241329102849314,0.0567556476944089,0.0613047117102226,0.0958684384822845,-0.0010189351160079,-0.0703605711460113,0.2811508296802639,0.0515403508907184,-9.846176723241808,14912.0
15.0,1.8999999761581416,299.0,22.17256546020508,22.137739181518555,-79.94649326100584,40.44346460286635,247.7215475883484,0.0073701725341379,0.0053563634864985,0.0805667340755462,0.9967076182365416,0.0336957022404608,0.090092693536203,0.0714375681938398,0.0838974639773368,0.0473749749362468,-0.0598463453352451,0.3053571878559887,0.0047216814570128,-9.842082502841947,14912.0
15.1,1.8999999761581416,304.0,22.1062068939209,23.42592620849609,-79.94649322928163,40.443464690978224,247.72897075080868,0.0079275593161582,0.0058253682218492,0.0824315696954727,0.9965482354164124,0.0559508682657893,0.093215037403392,0.0752106816972009,0.0314561203122139,0.0801057219505309,-0.0730600804090499,0.2575585936009884,0.1320819321088493,-9.840433588027953,14912.0
15.3,1.8999999761581416,303.0,22.22515296936035,21.80376434326172,-79.9464932323483,40.44346483698612,247.7398850765228,0.0122401025146245,0.0027877974789589,0.081365205347538,0.9966053366661072,0.0905741048201372,0.1073442797515198,0.0939695247069735,-0.0705975219607353,0.0730090737342834,0.0058094062842428,0.2286169774644077,0.136802590303123,-9.891676247119904,14912.0
15.4,2.0,313.0,22.223899841308597,21.366416931152344,-79.94649313502724,40.44346494788925,247.749409898758,0.0137353744357824,0.0019586416892707,0.0787944346666336,0.9967944025993348,0.1132472787580684,0.1113465349261921,0.0938190296689838,0.0129733374342322,0.065673828125,0.0827111899852752,0.3100355268269777,0.1655399924330413,-9.830895609855652,14912.0
15.6,2.0999999046325684,314.0,22.220144271850582,20.984731674194336,-79.94649300828495,40.443465182084175,247.7744335975647,0.0110858967527747,0.0062448396347463,0.071334607899189,0.9973713755607604,0.1606022016601755,0.1430869551419594,0.1384266387433398,0.0209376513957977,-0.0688180699944496,0.1954708099365234,0.2824634016864001,0.3145171983540058,-9.88298845410347,14912.0
15.7,2.0999999046325684,322.0,22.36788558959961,19.31485939025879,-79.94649283020574,40.44346533601478,247.7883086051941,0.0082234991714358,0.0083435140550136,0.067954421043396,0.99761962890625,0.1976468739228629,0.1504888313123044,0.1243743227998462,0.1615454703569412,0.0549062341451644,0.0707500800490379,0.4122631655260921,0.2746129847690463,-9.750079488158226,14912.0
15.9,2.0999999046325684,321.0,22.42422866821289,18.233417510986328,-79.94649259018084,40.443465358833954,247.80456517601013,0.0115654887631535,0.003321673721075,0.0688429623842239,0.9975549578666688,0.2459155318200217,0.1447226599320089,0.050716369920531,-0.0092128608375787,0.0633411034941673,-0.0055647371336817,0.1669476547837257,0.4027919917926193,-9.510245413184167,14912.0
16.0,2.299999952316284,324.0,22.445512771606445,17.788118362426758,-79.94649232144471,40.443465525533256,247.80584691429135,0.016108626499772,-0.004860145971179,0.0732176825404167,0.997174084186554,0.2668856971977036,0.1533689924865637,-0.027275536237676,-0.1154634803533554,0.1170336231589317,-0.0389930829405784,0.4042620183527471,0.3113712501525879,-9.135162316560743,14912.0
16.2,2.400000095367432,323.0,22.091182708740234,23.46568489074707,-79.94649196445619,40.44346561715776,247.8223805274964,0.0183589309453964,-0.0155254183337092,0.0842147395014762,0.9961575269699096,0.2729490830619148,0.1416508692704624,-0.0804086832624445,-0.2556931674480438,-0.0054333163425326,-0.1655991524457931,0.28797741740942,0.261946709677577,-9.123576058745384,14912.0
16.3,2.5999999046325684,316.0,22.23892402648925,20.8177433013916,-79.94649186242759,40.44346556428805,247.81823800468445,0.0188451670110225,-0.0194171946495771,0.0899590700864791,0.9955778717994692,0.2710251548164829,0.1238436403088613,-0.0866709744329847,-0.1037242859601974,0.0414052605628967,-0.0409315079450607,0.275840717330575,0.3463522543385625,-9.552088088393212,14912.0
16.5,2.700000047683716,315.0,22.22515296936035,21.756053924560547,-79.94649149726403,40.44346558013351,247.8069739189148,0.019494554027915,-0.0227055996656417,0.0947803258895874,0.9950484037399292,0.2305280935580399,0.0948276908311902,-0.1434689084876196,-0.1249872669577598,-0.0511487647891044,0.0647791251540184,0.3048317058943212,0.2603933968394995,-9.397904613018037,14912.0
16.6,2.700000047683716,311.0,22.15754127502441,22.105932235717773,-79.94649123252266,40.443465708934696,247.7930257167816,0.0201318711042404,-0.0187310483306646,0.0936159491539001,0.9952285885810852,0.2307113247306676,0.0954494504396285,-0.1572685154691171,-0.0190574824810028,0.0008981595165096,0.0017398124327883,0.2372009275853634,0.4830943990498782,-9.598733081817628,14912.0
16.8,2.799999952316284,309.0,22.052370071411133,24.09387588500977,-79.94649102826894,40.44346556734765,247.80048154258728,0.0150430025532841,-0.0136134717613458,0.0902686715126037,0.9957108497619628,0.21812039595617,0.0605417247497718,-0.0663772557640732,0.0696505755186081,-0.1105538681149482,0.0803365409374237,0.367342223636806,0.3953060208633542,-9.840316643714903,14912.0
17.0,2.900000095367432,309.0,22.078662872314453,23.592912673950195,-79.9464907907675,40.4434656486361,247.796498998642,0.0142765156924724,-0.0160491038113832,0.0896094739437103,0.9957453012466432,0.2169501798280704,0.0416383898132047,-0.0334156846960448,0.0303469914942979,0.0464751198887825,-0.0544536784291267,0.2359469556435943,0.3977443097904325,-10.104602605104445,14912.0
17.1,3.0,310.0,22.197607040405277,21.35846519470215,-79.94649068959991,40.44346536900681,247.81545661354065,0.0130053861066699,-0.0185118187218904,0.0899034515023231,0.995693564414978,0.1894262520343202,0.0010022959478914,0.0382490365154731,-0.1121715307235717,-0.0757844522595405,-0.0731046199798584,0.1125023660436272,0.4243055427074433,-10.08184875011444,14912.0
17.2,2.900000095367432,319.0,22.277738571166992,20.66666030883789,-79.94649046624016,40.44346539107451,247.81880114936828,0.0096160862594842,-0.0197833701968193,0.0908673703670501,0.99562007188797,0.1821373545744756,-0.0192968190948701,0.0172655595780448,-0.1504441797733307,-0.0398803688585758,-0.0004558502114377,-0.0260330763109959,0.3495151229202748,-9.661942652463914,14912.0
17.4,3.0,319.0,22.145021438598643,22.757976531982425,-79.9464903177123,40.44346510703728,247.8036575164795,0.0117177432402968,-0.0270279590040445,0.0928095877170562,0.995248019695282,0.1485957549151154,-0.0545367940429195,-0.0117843219718093,-0.1123541072010994,-0.0140606239438056,0.0331968069076538,-0.0683862933889031,0.5402737361937762,-9.681682852506636,14912.0
17.5,3.0,326.0,22.0423526763916,23.815563201904297,-79.94649024773777,40.44346491136098,247.79427693748477,0.0114899901673197,-0.0273651927709579,0.0931329354643821,0.9952112436294556,0.1332638174620146,-0.0610653188051921,0.0053010786994849,-0.0916654914617538,-0.0365264452993869,-0.1419622302055359,0.1196402449160814,0.496272999867797,-9.852974696159364,14912.0
17.71,3.0,333.0,22.107460021972656,23.219179153442383,-79.94649009454137,40.44346487206725,247.7969095554352,0.0097329877316951,-0.0287120714783668,0.0940741375088691,0.9951035380363464,0.1050084196297984,-0.0680880500623808,0.038792104993509,-0.0472048930823802,-0.0602789334952831,-0.0486885569989681,0.1094263651594519,0.3159914276003838,-10.09697432756424,14912.0
17.8,2.900000095367432,344.0,22.17381858825684,22.11388397216797,-79.9464901037263,40.443464571862506,247.7833356704712,0.0102390581741929,-0.0316079966723918,0.0947316437959671,0.9949482679367064,0.0219220301542728,-0.0881647338299625,0.0589225975174114,-0.0987555012106895,0.009505046531558,-0.0591451227664947,0.0478728904388845,0.357590347006917,-9.929838684797287,14912.0
18.0,2.799999952316284,348.0,22.153785705566406,21.636775970458984,-79.94649007887071,40.4434644006522,247.7988269176483,0.0117207076400518,-0.0262160748243331,0.0912402868270874,0.9954147934913636,-0.0324860852189958,-0.0963429141788659,0.1048882559067666,0.0436388440430164,0.0199351254850626,-0.0355162546038627,0.0737282091099768,0.2221849123388529,-10.024049023389816,14912.0
18.1,2.799999952316284,352.0,22.083669662475582,23.39411926269531,-79.94649019273133,40.443464375108384,247.7789237346649,0.0093839867040514,-0.0228503197431564,0.0885984227061271,0.9957610964775084,-0.0552273684477605,-0.0669139316305167,0.0910538506141101,-0.0405835695564746,-0.1381156146526336,0.0693437904119491,0.0737033767160028,0.2995336168818176,-9.956769790649414,14912.0
18.3,2.799999952316284,353.0,22.143768310546875,22.090028762817383,-79.94649043801981,40.44346415063974,247.77527259254447,0.0059435311704874,-0.0185866113752126,0.0843690484762191,0.9962435364723206,-0.081524282167532,-0.0663063079117489,0.1180613325844442,-0.0113886119797825,-0.0198052339255809,-0.0070527382194995,0.0518346851086244,0.379001535102725,-10.061841917037963,14912.0
18.4,2.700000047683716,358.0,22.18508720397949,21.962799072265625,-79.9464905314643,40.443464073881614,247.7867672290802,0.0038046592380851,-0.0169665366411209,0.0819821953773498,0.9964821338653564,-0.0940196326515213,-0.0643914749854167,0.1174220737545896,0.0198550168424844,-0.0668266713619232,0.0018193681025877,0.0806589320953935,0.259221249371767,-9.837472558021544,14912.0
18.6,2.700000047683716,359.0,22.171314239501957,22.16159439086914,-79.94649100776694,40.443463891107136,247.77312205696103,0.0005455276696011,-0.0162968784570693,0.0786969438195228,0.9967652559280396,-0.1395243533775068,-0.0441176088880421,0.0586551124487177,-0.0422947965562343,-0.0229959283024072,-0.0453909859061241,0.0328079687152057,0.2741325994580984,-9.752026610970498,14912.0
18.7,2.5999999046325684,0.0,22.08241844177246,23.07604789733887,-79.94649116692966,40.443463829350655,247.77846954727173,0.0012963598128408,-0.0162358507513999,0.079148881137371,0.9967297911643982,-0.1522830551151062,-0.0436073974669034,0.0603262864138585,-0.0117070907726883,-0.0493332929909229,-0.0070451633073389,-0.0241536167473532,0.1957210721075535,-9.785350477695465,14912.0
18.9,2.5999999046325684,1.0,22.117475509643555,22.72616958618164,-79.94649191950096,40.44346351939817,247.76626370811465,-0.0013323497259989,-0.0123163936659693,0.0815414488315582,0.996592938899994,-0.2041841739099404,-0.0396222760969737,0.0410900394995847,0.1211056560277938,-0.0351665876805782,0.0140996174886822,0.0248778469394892,0.1531622500251978,-9.8302991938591,14912.0
19.0,2.5,7.0,22.16254997253418,22.137739181518555,-79.94649216027827,40.44346345339478,247.76968143844604,-0.0038200812414288,-0.0078436248004436,0.0827957466244697,0.996528387069702,-0.2159939723215252,-0.037187477935352,0.0403596589625436,0.101630799472332,0.0035897574853152,-0.0707020834088325,0.0487252820050343,0.0553229740820825,-9.777680684924126,14912.0
19.2,2.400000095367432,10.0,22.170061111450195,21.604969024658203,-79.94649279106105,40.44346306393162,247.75365684890747,-0.0038255830295383,-0.0048899878747761,0.0841825380921363,0.9964309930801392,-0.2549675496094005,-0.0648487688181523,0.0278724820063073,0.0312746278941631,0.099201537668705,-0.0859213396906852,-0.0932192994933575,0.1547697501070797,-9.800895300507548,14912.0
19.3,2.200000047683716,9.0,22.117475509643555,22.439905166625977,-79.94649367870105,40.44346263576518,247.7426965084076,-0.0007758737192489,-0.0001435921294614,0.0833930522203445,0.9965164661407472,-0.2777836043225565,-0.0801124657287909,0.0339913945447325,-0.0891709923744201,-0.0744946226477623,0.0492714047431945,-0.1715723455511033,0.268449873290956,-9.923473405838012,14912.0
19.5,2.0999999046325684,12.0,22.21513557434082,21.09605598449707,-79.94649457934443,40.44346211654108,247.7236509170532,-0.0107949282974004,0.0096660191193223,0.0820114985108375,0.9965261220932008,-0.2570762941991591,-0.0820320426531129,0.0022467759282906,-0.0001406720402883,-0.1480332612991333,-0.0291452463716268,-0.0083164194482378,0.3153798088431358,-9.846719344854357,14912.0
19.6,2.0,15.0,22.223899841308597,21.239187240600582,-79.94649485145601,40.44346200952416,247.72314594650268,-0.0138925416395068,0.0064777811057865,0.0826594084501266,0.9964599609375,-0.2328637365765703,-0.0722541154159777,-0.020491207966641,-0.0742408782243728,0.0169008187949657,-0.1109388917684555,-0.0733597888424992,0.0944007202796638,-9.654134280681609,14912.0
19.8,2.0,15.0,22.206371307373047,21.207380294799805,-79.94649558834365,40.44346186693013,247.69985912704468,-0.0117429662495851,-0.0028802882879972,0.0862363502383232,0.9962013959884644,-0.2101607880924001,-0.0138363506059964,-0.0325138877662065,-0.0997515618801117,0.0549351088702678,-0.0811002105474472,-0.14301269877702,0.1526904984936118,-9.71616505265236,14912.0
19.9,1.8999999761581416,14.0,22.2526969909668,20.53148078918457,-79.9464958244974,40.443461831305775,247.6958827819824,-0.010552667081356,-0.0052837547846138,0.087764985859394,0.9960713982582092,-0.2009204399589462,0.0027583110305179,-0.0502574898900304,-0.0266340021044015,0.0200270749628543,-0.0399550907313823,-0.1209460195340216,0.1843868475593626,-9.609590776562689,14912.0
20.1,1.8999999761581416,18.0,22.197607040405277,21.40617561340332,-79.94649605863759,40.44346181258325,247.68872712516784,-0.0095939086750149,-0.0063613206148147,0.0889037549495697,0.9959737062454224,-0.2024121468058753,0.0298449776142488,-0.088591701664111,-0.0482211336493492,-0.0553280860185623,-0.0978660881519317,-0.039857481541112,0.3058943277038634,-9.458542578220367,14912.0
20.2,1.7000000476837158,16.0,22.034839630126957,23.855321884155277,-79.94649644025131,40.44346201034865,247.66183541679385,-0.0057115014642477,-0.000198375142645,0.0916465371847152,0.9957752823829652,-0.1442250455206058,0.0878605864799183,-0.1203339820118371,0.2701722681522369,0.153713509440422,-0.0496562421321868,0.0469556176196783,-0.0034008137136697,-9.680522180199624,14912.0
20.4,1.7999999523162842,16.0,22.1062068939209,22.614845275878903,-79.94649687857023,40.44346211597855,247.6473378982544,-0.0065706791356205,0.0039196019060909,0.0943648517131805,0.995508313179016,-0.120282300973168,0.1314784031222603,-0.0976713618515678,0.0897439643740654,0.0536848865449428,-0.0752627253532409,0.0001907288655638,0.0622148404922336,-9.738318398594854,14912.0
20.6,1.7000000476837158,7.0,22.10245132446289,22.877254486083984,-79.94649704682554,40.44346221356549,247.63726781272888,-0.0073137814179062,0.0035961668472737,0.0935555472970008,0.9955807328224182,-0.1159839242602602,0.1382771710933739,-0.1063800335971773,-0.086027555167675,-0.0612458102405071,0.0171210542321205,-0.0323767890944145,0.0376570189744234,-9.742756435275078,14912.0
20.7,1.7000000476837158,6.0,22.08617401123047,22.82954216003418,-79.94649729926469,40.4434621231455,247.62382362747192,-0.0051302276551723,0.005022834520787,0.0912594199180603,0.9958012700080872,-0.0790288722255608,0.1318074924133311,-0.0958420974901994,0.15888212621212,0.1173682957887649,0.1785900592803955,-0.0488248491240665,-0.1242440501600504,-9.752392646670344,14912.0
20.8,1.7000000476837158,3.0,22.057376861572266,23.266889572143555,-79.94649759312483,40.44346218655736,247.59983681106567,-0.0028774398379027,0.0092795947566628,0.0827469676733017,0.9965232014656068,-0.0285754254485929,0.1548581322459699,-0.0684401702863532,0.0953493416309356,-0.0420775972306728,0.1757510155439376,0.1558136790990829,-0.0593743818998336,-9.914936470985412,14912.0
21.0,1.7999999523162842,1.0,22.223899841308597,20.69051551818848,-79.94649765091692,40.44346232614763,247.59339831733703,-0.0068388017825782,0.0101205222308635,0.0782919600605964,0.9968556761741638,-0.0091727872950737,0.1693139232551508,-0.0617612965711372,-0.0024086940102279,-0.0514445230364799,0.1155561134219169,0.0576945270923897,0.0244793317839503,-9.871448389291764,14912.0
21.1,2.0,355.0,22.24894142150879,20.714370727539062,-79.94649769616194,40.44346246997196,247.5867750492096,-0.0084971385076642,0.0106157092377543,0.0757351294159889,0.9970353245735168,0.0158321851263047,0.1797822580812183,-0.0682577660742665,-0.0153131261467933,-0.0042706993408501,0.0455885455012321,0.0358216921845451,-0.0009408261347562,-9.744765538573263,14912.0
21.3,2.0999999046325684,353.0,22.193851470947266,21.175573348999023,-79.94649775574908,40.44346256496951,247.5527648773193,-0.005699316971004,0.0118970572948455,0.0756900832056999,0.9970442056655884,0.0754182378276765,0.1926394262745031,-0.0988568049014429,-0.17349274456501,-0.0390800908207893,-0.0662886500358581,-0.0713186720386147,0.2306190458312631,-9.669534677267077,14912.0
21.4,2.200000047683716,352.0,22.280242919921875,20.094133377075195,-79.94649781885114,40.44346252073751,247.53177879714968,-0.0035575272049754,0.0102511141449213,0.0785493552684784,0.9968512058258056,0.1142386730856583,0.190857677677058,-0.1076420006389313,-0.1598965227603912,-0.0574396476149559,-0.1089157089591026,-0.0023165674845222,0.2111354654654861,-9.602791634202005,14912.0
21.6,2.0999999046325684,348.0,22.137508392333984,22.257015228271484,-79.94649756268207,40.4434628943316,247.50149200820923,-0.0025210853200405,0.0041506784036755,0.0858054310083389,0.9963001608848572,0.1959143375850506,0.1901047004153144,-0.1756510883331993,-0.0009421464637853,0.0762150362133979,0.0593747422099113,-0.0192539081303402,-0.0254130955785512,-9.586611803770063,14912.0
21.7,2.200000047683716,344.0,22.2426815032959,20.58714294433593,-79.94649736183842,40.443462906067545,247.4649021472931,0.0056635318323969,-0.0044174655340611,0.0901850387454032,0.9958991408348083,0.2125233096467402,0.1491599894180733,-0.1767115552526709,-0.1682759523391723,0.134004607796669,-0.0027842363342642,-0.0499794686492532,0.144383066855371,-9.669906560182572,14912.0
21.9,2.200000047683716,344.0,22.11622428894043,22.765928268432607,-79.9464972406204,40.44346258798191,247.44937251472476,0.0114206755533814,-0.0092246932908892,0.0900074690580368,0.9958329796791076,0.2158806676975279,0.0823928049123667,-0.1519684398523557,-0.06441181153059,0.130532830953598,-0.0303184743970632,-0.0004684213595464,0.2039662674441933,-9.813166851997376,14912.0
22.0,2.0999999046325684,340.0,22.073654174804688,22.789783477783203,-79.94649700660595,40.44346269478413,247.4350893344879,0.0142568973824381,-0.012177100405097,0.0901850238442421,0.9957485795021056,0.2085713587605183,0.0743678527123513,-0.1442373534663919,-0.0846151933073997,-0.0303557645529508,0.0037212807219475,0.164041844420135,0.2791819442622364,-9.891851663589476,14912.0
22.2,2.0999999046325684,339.0,22.17381858825684,21.41412734985352,-79.94649663074904,40.44346251929682,247.4033374633789,0.0042018662206828,-0.0090359896421432,0.0864768400788307,0.9962040781974792,0.190781716951547,0.0294821537073139,-0.0577032848498061,0.0529183819890022,-0.0158009082078933,0.0767505541443824,0.1729204028472304,0.0407210878841578,-10.108564678430556,14912.0
22.31,2.200000047683716,336.0,22.22890853881836,20.595094680786133,-79.94649640270427,40.44346242628532,247.38017652893063,0.0055653364397585,-0.0110032511875033,0.0833874493837356,0.996440887451172,0.2022081843189328,0.0265142376791454,-0.0610541899328199,-0.0454634800553321,0.0586296245455741,0.0392712615430355,0.0953443786595016,0.2336212073452771,-9.844148908853532,14912.0
22.5,2.200000047683716,334.0,22.124988555908203,22.360387802124023,-79.94649617755546,40.44346248028223,247.3740768280029,0.0090196020901203,-0.0154665345326066,0.0808132141828537,0.9965684413909912,0.1937742151553804,0.0239746905908806,-0.0684996225352912,-0.1365570425987243,0.1211860105395317,0.0759991183876991,0.0500014048442244,0.1930498447269201,-9.7675895601511,14912.0
22.6,2.200000047683716,336.0,22.18258285522461,21.24713897705078,-79.94649582079491,40.44346239396316,247.34233735466003,0.0143223153427243,-0.0202352218329906,0.0761786997318267,0.9967859983444214,0.182696084947801,-0.0024138217681311,-0.0742294805745712,0.0784952640533447,0.0939534977078437,0.1150243282318115,0.1299361318722367,0.1922731334902346,-9.81277391910553,14912.0
22.8,2.200000047683716,334.0,22.16254997253418,22.257015228271484,-79.94649561653819,40.44346241112692,247.33578060531616,0.0177592206746339,-0.0191791746765375,0.0734287202358245,0.9969579577445984,0.1781660766619368,-0.0251492434038946,-0.0730736676375457,0.2081914544105529,0.1281920820474624,0.2210835069417952,0.1224085269402712,0.0178661856986582,-9.896741105318071,14912.0
22.9,2.0,331.0,22.101198196411133,22.78183174133301,-79.94649557309805,40.44346217313597,247.3025607910156,0.0218324866145849,-0.0153464684262871,0.0714111924171447,0.9970899224281312,0.1475725288052195,-0.0683913968579814,-0.0925376332473305,0.138594388961792,0.0561104342341423,0.0916383042931556,0.11588512647897,0.1199058912321925,-9.7697027438879,14912.0
23.11,1.7999999523162842,330.0,22.043603897094727,23.44978141784668,-79.94649522914801,40.44346204022312,247.28748320007324,0.0259344279766082,-0.0138794463127851,0.0714291334152221,0.9970119595527648,0.1087332009814852,-0.1274727391389332,-0.0488435631441099,-0.1263297498226165,-0.0062064281664788,-0.1163751780986786,0.1211894190218299,0.2704450894519686,-9.989659209251403,14912.0
23.2,1.7000000476837158,339.0,22.145021438598643,22.0025577545166,-79.9464952296096,40.44346192705267,247.261865600586,0.0236090365797281,-0.0176776926964521,0.0739049166440963,0.996829092502594,0.0868885119138795,-0.1397262937631995,-0.020106474447726,-0.2303883284330368,-0.040196768939495,-0.1307582557201385,0.1035649151913821,0.3001091839000583,-10.118723630905151,14912.0
23.4,1.7999999523162842,344.0,22.166305541992188,21.239187240600582,-79.94649506126086,40.44346171236398,247.2337543811798,0.0172676928341388,-0.0196074359118938,0.0801904499530792,0.9964371323585508,0.0631518665514498,-0.1704277507330355,0.0090045441169947,0.1082597002387046,0.0075738718733191,-0.0093422979116439,0.1480806724447757,0.1196078659594059,-10.03683688402176,14912.0
23.5,1.7000000476837158,354.0,22.14877700805664,21.962799072265625,-79.94649487637803,40.44346140656179,247.2366657104492,0.0119375856593251,-0.0099593196064233,0.0817667469382286,0.9965302348136902,0.0286174323058856,-0.2132027295508466,0.0256076514840606,0.059526115655899,0.0118633210659027,0.1302240043878555,-0.0545088315289467,0.0684564736811444,-9.914495590925217,14912.0
23.7,1.7000000476837158,353.0,22.29526710510254,19.45003890991211,-79.94649489650362,40.44346133350525,247.2109684791565,0.0125932982191443,-0.0071512106806039,0.0806418657302856,0.9966379404067992,0.0322995684864565,-0.1959451684115166,0.0102820756652834,0.1007300317287445,0.0406836457550525,0.0901690945029258,0.0902763501740992,0.0195940242195501,-9.826213159561158,14912.0
23.8,1.600000023841858,356.0,22.15879440307617,21.80376434326172,-79.94649482980445,40.44346115660516,247.2107193317413,0.0122613841667771,-0.0056626531295478,0.0793693512678146,0.9967538714408876,0.0339308580563316,-0.2141890732407355,-0.0156657965517081,0.1676832288503646,0.042520098388195,0.0642333701252937,0.1471478131413459,-0.0549291366990655,-9.667884008288382,14912.0
24.0,1.600000023841858,1.0,22.26521682739257,20.213409423828125,-79.94649493767379,40.4434608889845,247.17732785606384,0.007581737358123,-0.0032008723355829,0.0770138874650001,0.9969961047172546,0.0089191517706434,-0.1921689633126746,-0.0565247429770996,-0.1072498708963394,-0.0786611810326576,-0.0519492290914058,0.0131371929380111,0.2453375839814544,-9.637152796983722,14912.0
24.2,1.399999976158142,0.0,22.138761520385746,21.85147476196289,-79.9464950577347,40.443460405279545,247.1444976177216,0.0102619836106896,-0.0046964311040937,0.0780980959534645,0.9968818426132202,0.0024424979461211,-0.214008857969657,-0.0989989627508212,-0.087544247508049,0.0832815468311309,0.0254378654062748,0.0540542470570653,0.0356075607519596,-9.539601944088936,14912.0
24.3,1.399999976158142,353.0,22.20261573791504,21.15966987609864,-79.9464950134557,40.44346021530375,247.13471268081665,0.0118615850806236,-0.0070235203020274,0.078969269990921,0.9967817664146424,0.0008290505351593,-0.2159044071223151,-0.0880328226638946,-0.1089773550629615,-0.0083818342536687,0.0679396763443946,0.0926914695091545,0.1165394664555788,-9.82588454604149,14912.0
24.4,1.2999999523162842,348.0,22.20887565612793,21.119911193847656,-79.94649515505928,40.44346000227476,247.1156372871399,0.0111881531774997,-0.0078817568719387,0.0790510848164558,0.9967766404151917,-0.0039958292599445,-0.211292262351628,-0.0652094562155519,-0.0364528968930244,-0.0384130924940109,0.055008128285408,0.1272299125604331,0.180800403021276,-9.8905793094635,14912.0
24.6,1.2999999523162842,348.0,22.325315475463867,19.2989559173584,-79.94649508438924,40.44345962487173,247.10385630989077,0.0086622275412082,-0.006087424699217,0.078754648566246,0.996837854385376,-0.0095778244528229,-0.2080511097292684,-0.0475052617624449,-0.06319410353899,-0.0373163037002086,-0.1029979139566421,0.1775948132202029,0.2900109511055052,-9.80722374200821,14912.0
24.7,1.5,337.0,22.19635581970215,20.889310836791992,-79.94649529316129,40.44345943458031,247.0843632068634,0.0076219118200242,-0.0079973014071583,0.0782513841986656,0.9968724250793456,-0.0218232044171355,-0.1857560098126621,-0.0591518710984802,-0.0561530403792858,-0.0439139269292354,0.0305328294634819,0.3050440877303481,0.0699523056484758,-9.719198003411291,14912.0
24.9,1.5,331.0,22.19510269165039,21.072200775146484,-79.946495425777,40.443459095977175,247.0581087913513,-0.0018474163953214,-0.0129202641546726,0.0756000131368637,0.997052788734436,-0.0366684806077755,-0.1308449538728917,-0.0873934595031993,-0.1093459948897361,-0.0898791030049324,0.0088413469493389,0.1826769389770925,0.1912907829880714,-9.62070984184742,14912.0
25.0,1.600000023841858,319.0,22.217639923095703,20.937021255493164,-79.9464956500715,40.44345878516156,247.03626917266843,-0.0011841400992125,-0.0140173528343439,0.0726050734519958,0.997261643409729,-0.0667980922025249,-0.0806653649347586,-0.1024701539783658,-0.0711568742990493,0.0663647577166557,0.0731208175420761,0.198474233597517,0.1223719087522477,-9.607116234898568,14912.0
25.21,1.7000000476837158,314.0,22.266469955444336,19.96690368652344,-79.94649572232163,40.44345872026177,247.0248575057984,0.001563150784932,-0.0155230918899178,0.0723668560385704,0.99725604057312,-0.0867894527509753,-0.0474896078594034,-0.1210392879294285,-0.0741526260972023,0.039294958114624,0.0185125097632408,0.2038947486877441,0.0761898138094693,-9.612180508375168,14912.0
25.3,1.7999999523162842,304.0,22.285249710083008,19.67268943786621,-79.94649582123049,40.44345867949086,247.0115806903839,0.0045440318062901,-0.0169310849159955,0.0730008035898208,0.9971778392791748,-0.0977715571102467,-0.0220342042590846,-0.1425096639224043,-0.0058684283867478,0.1198702901601791,-0.0434785634279251,0.3133857621252537,0.1566537412628531,-9.570244277715684,14912.0
25.5,1.7000000476837158,300.0,22.091182708740234,22.670507431030277,-79.94649635260946,40.44345850160956,246.96426509284973,0.0092992773279547,-0.0147589864209294,0.0773743242025375,0.996849536895752,-0.1483954157088917,0.0251759314133114,-0.1817153338514462,0.037348598241806,-0.0098655521869659,-0.1109242737293243,0.4131530021131039,0.0602942037396133,-9.527655497789382,14911.0
25.71,1.7999999523162842,289.0,22.161296844482425,21.779909133911133,-79.94649658890722,40.44345849761385,246.9888660755157,0.0110246911644935,-0.0144009180366992,0.0806970819830894,0.9965737462043762,-0.1546231477772,0.0417469881241103,-0.101778905320602,0.0316661074757576,0.0309534594416618,-0.0033350996673107,0.2453528963774443,0.1145046536810696,-9.864346361160278,14911.0
25.8,1.7999999523162842,287.0,22.203866958618164,20.8813591003418,-79.94649677705698,40.44345851627197,246.97846744918823,0.0137975923717021,-0.0119056804105639,0.0856064856052398,0.9961624145507812,-0.1609259283825799,0.0476980201949653,-0.0968009350547748,0.0303422305732965,0.1165455281734466,-0.0660094767808914,0.3226251668483019,0.1846813827753067,-9.84113408446312,14911.0
25.9,1.8999999761581416,287.0,22.114971160888672,22.272918701171875,-79.94649713539269,40.44345848322197,246.9573776569366,0.0133591443300247,-0.0042009479366242,0.0967337265610694,0.9952117800712584,-0.1391164116905935,0.0653577640504611,-0.0610226284216432,0.0872309133410453,-0.1464203000068664,-0.1730378419160843,0.2725274473987519,0.3672446116805077,-9.897225254774094,14911.0
26.1,1.7999999523162842,287.0,22.1062068939209,22.026412963867188,-79.94649742884252,40.4434585284266,246.9250550117493,0.0048444014973938,0.0048733749426901,0.1011922806501388,0.9948431849479676,-0.0705673679052176,0.0851374996378397,0.0004267121929982,0.0975273698568344,0.0237793549895286,-0.0066582863219082,0.2797982225194573,0.2940113419666886,-10.164902601242067,14911.0
26.3,1.7000000476837158,286.0,22.18132972717285,21.65267944335937,-79.94649752047916,40.44345860064793,246.92566011810305,0.0041029937565326,0.0029833670705556,0.0997176021337509,0.9950028657913208,-0.0461762752658783,0.104482678972954,0.0052143125443781,-0.088909238576889,-0.0173240508884191,0.0572540089488029,0.2494726983457804,0.1896146055310964,-9.877427752017976,14911.0
26.4,2.0,287.0,22.117475509643555,22.153642654418945,-79.94649770640672,40.443458675973936,246.8955626335144,0.0039069657213985,-4.911499127047136e-05,0.095837265253067,0.9953893423080444,-0.0114197849915327,0.1217799132098858,-0.011295179890351,-0.0893153399229049,0.0502532310783863,0.1042374521493911,0.2292959671095013,0.1925927386432886,-9.853126723766328,14911.0
26.5,2.299999952316284,283.0,22.22515296936035,20.261119842529297,-79.94649775834435,40.443458919560186,246.89596150779724,0.0089637069031596,-0.0117116644978523,0.0824653133749961,0.9964848160743712,0.0195367095738555,0.1606529536573328,0.0065593979827954,-0.0790612399578094,-0.0582883097231388,0.094268299639225,0.2423035003244877,0.3959673774987459,-9.7926518958807,14911.0
26.7,2.5,285.0,22.15253257751465,21.50954818725586,-79.94649783357335,40.44345899499785,246.8663251247406,0.0093834940344095,-0.012635669670999,0.0760250240564346,0.9969817399978638,0.0351660506383876,0.1737849140516644,-0.0180301118217135,0.0109282191842794,0.016510285437107,0.0757684484124183,0.3498881752789021,0.410304129011929,-9.745747286081317,14911.0
26.8,2.5999999046325684,284.0,22.28775405883789,19.72835159301757,-79.94649789894608,40.44345921528184,246.8369326438904,0.0157386511564254,-0.0162382535636425,0.0666882246732711,0.9975176453590392,0.0225611936328259,0.1893246800404949,-0.0190584366762005,-0.0622799135744571,0.1057003363966941,0.1439635455608368,0.3828634383156896,0.1272354948241263,-9.82626344561577,14911.0
27.0,2.5999999046325684,282.0,22.19635581970215,20.809791564941406,-79.94649790977539,40.44345939814221,246.83513592147827,0.0169710498303174,-0.0153270261362195,0.065862126648426,0.9975666999816896,0.0115429477835277,0.2064236047448903,-0.032120228162003,0.0267281625419855,-0.0377083607017993,0.0756561979651451,0.401155794672668,0.1846018240973353,-9.642510600686071,14911.0
27.1,2.900000095367432,283.0,22.23141288757324,20.68256378173828,-79.94649793408617,40.4434595945979,246.83212302589416,0.0157066378742456,-0.0140962749719619,0.0686090737581253,0.9974204301834106,0.0096854556404528,0.218375021743589,-0.0414327317372904,0.1188514158129692,0.073241002857685,-0.1419659107923507,0.4829595476388932,0.1681904073804617,-9.745314007401468,14911.0
27.31,2.900000095367432,283.0,22.081167221069336,22.105932235717773,-79.94649801655434,40.44345990943285,246.7977499809265,0.018492717295885,-0.0084626758471131,0.0803133249282836,0.9965621829032898,0.0162934235173845,0.2327492957346077,-0.0696819373638984,0.140500783920288,0.0856621265411377,-0.1882973909378052,0.4879262457042933,0.1493504592776298,-9.695841885209084,14911.0
27.4,3.299999952316284,282.0,22.20762252807617,20.52352905273437,-79.94649806124997,40.44346005804729,246.77139709854129,0.0195470955222845,-0.0050306790508329,0.0852356180548667,0.9961563944816588,0.0258710171663075,0.2430228659401654,-0.0665471332019598,0.0388821437954902,0.0633520483970642,-0.0229861438274383,0.4686569292470813,0.2211131359823048,-9.859789041280749,14911.0
27.6,3.400000095367432,281.0,22.20512008666992,20.69051551818848,-79.94649806211413,40.44346050933778,246.7603053894043,0.022999819368124,-0.0032759299501776,0.0925540477037429,0.995436668395996,0.0577298294230635,0.2406135931791253,-0.0788533987407165,-0.017408886924386,0.0456437543034553,-0.1715869456529617,0.3801840248331428,0.3333431131392717,-9.677942973375323,14911.0
27.7,3.900000095367432,287.0,22.223899841308597,20.300878524780277,-79.94649798959,40.443460979561216,246.72006581687927,0.0193667579442262,-0.0018336126813665,0.0963620170950889,0.9951562881469728,0.1366752613335536,0.2369815687396017,-0.1460021631553876,0.0450115948915481,-0.039749838411808,-0.0299737192690372,0.4784022643044592,0.3785370834544301,-9.47943818807602,14911.0
27.9,4.0,282.0,22.299022674560547,19.092208862304688,-79.94649805497819,40.443461125472496,246.69362090492248,0.0180647205561399,-0.0066850148141384,0.0955670550465583,0.9952366948127748,0.1403055548470628,0.2164226959690927,-0.1696681488873663,-0.1060666516423225,-0.0794403851032257,0.0983502119779586,0.2126219921372831,0.2912600077316165,-9.335661002397536,14911.0
28.0,4.0,280.0,22.380407333374023,18.122093200683597,-79.94649791731247,40.44346134259168,246.67577956581115,0.0215568747371435,-0.0100786248221993,0.093930222094059,0.9952943921089172,0.184215702055794,0.1978357228911533,-0.2077572897932608,-0.002543126232922,0.2597658336162567,-0.0795505046844482,0.336578816100955,0.8618274007737637,-9.393342615365984,14911.0
28.21,4.099999904632568,281.0,22.32155990600586,20.22931289672852,-79.94649756728317,40.44346167787328,246.62411402130127,0.0346286408603191,-0.0176302529871463,0.084436185657978,0.9956709146499634,0.2184213272392652,0.1351347088125717,-0.3045285330635873,-0.1608425229787826,0.1452974379062652,0.1590964347124099,0.2610742502845824,0.3578930135071277,-9.121531872153284,14911.0
28.3,4.0,290.0,22.24518585205078,20.348588943481445,-79.94649742822006,40.443461876607024,246.5671202983856,0.0328756980597972,-0.0325389839708805,0.0784898847341537,0.9958412647247314,0.1810776637838738,0.074999896834583,-0.3768578256641922,-0.1089558750391006,-0.0645326226949691,0.0438644029200077,0.2607616617903113,0.6707041405141354,-9.305600466728214,14911.0
28.5,4.0,293.0,22.2526969909668,19.96690368652344,-79.94649721074744,40.44346199355418,246.5290095653534,0.0261369962245225,-0.0334124714136123,0.0763697400689125,0.9961768388748168,0.1713976313644064,0.0681634425055005,-0.4131854282338609,0.0785312801599502,-0.1550131142139434,-0.1139896214008331,0.2706543101370334,0.8766588632762432,-9.507748652100563,14911.0
28.6,4.0,299.0,22.104955673217773,22.424001693725582,-79.94649699920305,40.443462084345605,246.4887261238098,0.0253138691186904,-0.0303529202938079,0.0740754604339599,0.9964691400527954,0.1675178502660446,0.0361965521195724,-0.4218703288032085,0.1093023940920829,0.1343133896589279,0.0533797889947891,0.1159011880494654,0.6559936422854662,-9.646368008852006,14911.0
28.8,4.099999904632568,301.0,22.186338424682614,21.620872497558597,-79.94649688637642,40.443461788209575,246.4161939468384,0.0432397685945034,-0.0145320054143667,0.0747144147753715,0.996161162853241,0.1319192070767464,-0.0257178937815931,-0.2467184533496645,-0.2076658308506012,-0.1066856905817985,-0.0486921817064285,0.3804062555730343,0.3303769668191672,-10.039818964004516,14911.0
29.0,4.300000190734863,304.0,22.12248420715332,22.630748748779297,-79.94649670534432,40.44346178896965,246.39152811431885,0.0385959558188915,-0.0200182534754276,0.078400008380413,0.9959734678268432,0.1490640044769974,-0.0522249324660687,-0.2424664729932953,-0.1241406053304672,-0.1094028577208519,-0.1287187337875366,0.6809986022114755,0.3687623295933009,-9.87217578291893,14911.0
29.1,4.099999904632568,308.0,22.15002822875977,21.175573348999023,-79.94649650864018,40.44346177299108,246.3681812133789,0.0354657806456089,-0.0252768546342849,0.0821995809674263,0.99566388130188,0.1616422431238513,-0.0755083747198455,-0.2246349020933113,-0.0514972284436225,0.0579912029206752,-0.1507129818201065,0.4767368311062456,0.7104894728958607,-9.907053254842758,14911.0
29.2,4.300000190734863,303.0,22.15503692626953,21.6685848236084,-79.94649649802936,40.44346187018725,246.3114619102478,0.0342278219759464,-0.0317054353654384,0.0867276489734649,0.9951390027999878,0.1227259659577284,-0.0508172236423375,-0.1734654917488221,-0.0765300691127777,-0.0153498463332653,-0.146691545844078,0.5783570537343622,0.6150505612045527,-9.925595945119856,14911.0
29.4,4.199999809265137,303.0,22.1988582611084,21.119911193847656,-79.94649651301924,40.44346153071454,246.2394232597351,0.0328449644148349,-0.0353335030376911,0.0879370048642158,0.9949572682380676,0.0939149251942863,-0.0864721917114996,-0.1827015548798256,-0.0397558957338333,-0.0926160663366317,-0.0835747048258781,0.5012894723564386,0.5835605640336872,-9.98279340863228,14911.0
29.5,3.900000095367432,300.0,22.031084060668945,23.537250518798828,-79.9464963733807,40.4434614719962,246.2216441478729,0.0347769707441329,-0.0342471301555633,0.0882221385836601,0.9949043393135072,0.0870183145852821,-0.1043097905480881,-0.178753699252751,0.0084577202796936,0.0790299400687217,0.0401689708232879,0.4223722704872489,0.5545047261938453,-9.798830063939096,14911.0
29.7,3.900000095367432,299.0,22.004791259765625,23.36231231689453,-79.94649617499954,40.44346132898134,246.1225430812836,0.0342351198196411,-0.03581453114748,0.0866692289710044,0.995004415512085,0.0195724571949957,-0.1218979611081685,-0.1021637927777914,-0.0667850226163864,0.0094332015141844,-0.0822866037487983,0.6695020991563797,0.5246358695626259,-10.16598082780838,14911.0
29.8,3.799999952316284,297.0,22.23516845703125,20.380395889282227,-79.94649607346099,40.44346133362548,246.0522956695557,0.0308512356132268,-0.0413608811795711,0.0856080800294876,0.9949918389320374,-0.0071501811295291,-0.1091416197244686,-0.1279650702729792,-0.1191097125411033,-0.1887082010507584,0.0184390805661678,0.4345199340954423,0.504589494690299,-9.944202954769136,14911.0
30.0,3.700000047683716,295.0,21.937179565429688,24.714113235473643,-79.94649605180591,40.44346124258069,246.0392062511444,0.0261995922774076,-0.0405052676796913,0.0838624611496925,0.995309054851532,-0.0259491586966085,-0.1119830891003943,-0.1152810089964357,0.0341003499925136,-0.1174674183130264,0.0747654885053634,0.3923817552253604,0.5942311113327742,-9.961900137662886,14911.0
30.1,3.700000047683716,296.0,22.02357292175293,23.537250518798828,-79.94649605596155,40.44346113969261,246.02860496902463,0.02402164041996,-0.0331469736993312,0.0819352716207504,0.9957966208457948,-0.0422276366398678,-0.1187675431792476,-0.0744102281251308,0.1480498760938644,0.0104137919843196,-0.0322523415088653,0.3559233789145947,0.7207915359735491,-10.098026826381684,14911.0
30.31,3.5999999046325684,296.0,22.14627265930176,22.082077026367188,-79.94649627602732,40.44346108196621,245.9476182308197,0.0242748297750949,-0.0311464574187994,0.0799160599708557,0.9960191249847412,-0.0798540851899224,-0.098747844661753,-0.0261478101801549,-0.1194481551647186,0.0014950141776353,0.1115445420145988,0.3197885363548994,0.4259763480350375,-10.237732011079787,14910.0
30.4,3.5,297.0,22.00979995727539,23.92688751220703,-79.94649636355398,40.4434610806844,245.8994006958008,0.0254337657243013,-0.0340912640094757,0.0794626921415329,0.995930016040802,-0.0808334221617123,-0.0884271406844255,-0.033532707798078,-0.0102371694520115,0.031673289835453,0.123393714427948,0.4360969647020102,0.3430994848161936,-10.023845540285109,14910.0
30.5,3.5,297.0,21.942188262939453,24.507368087768555,-79.94649657975988,40.44346089620297,245.89594887161252,0.0216587502509355,-0.0388790629804134,0.0825295969843864,0.9955944418907166,-0.12319774926116,-0.0900570299527049,0.0370137815087902,0.0875326991081237,-0.0613577961921691,0.0411810167133808,0.2936769543215633,0.4931293174624443,-10.17745657324791,14910.0
30.71,3.299999952316284,295.0,21.988513946533203,24.18929672241211,-79.94649690273768,40.44346085836069,245.8409337844849,0.0206887163221836,-0.0286790132522583,0.0864324793219566,0.9956300258636476,-0.1668150966015061,-0.0654455040522407,0.0941394157596315,0.0327503159642219,0.0023427992127835,0.0096388692036271,0.2935038036480546,0.491212819442153,-10.291236373186118,14910.0
30.9,3.400000095367432,294.0,21.93342399597168,24.12568283081055,-79.94649707678562,40.44346089618795,245.7820418920517,0.0222895219922065,-0.0245028901845216,0.086578331887722,0.9956942796707152,-0.1591550909191141,-0.0365080269200823,0.0855405691673754,0.1742156594991684,0.1174923628568649,0.0434068664908409,0.5340812059119344,0.419187876842916,-10.2222041451931,14910.0
31.0,3.400000095367432,290.0,21.978498458862305,24.181344985961918,-79.94649727578296,40.44346084015345,245.79119919204712,0.0212076753377914,-0.0213327258825302,0.085330031812191,0.9958986043930054,-0.1738599136158649,-0.0254936501804762,0.1178792791006676,0.0883893445134162,-0.0306680835783481,0.0031206621788442,0.5168471224978567,0.3851169186830521,-10.16749876499176,14910.0
31.21,3.400000095367432,290.0,21.86831855773925,25.23097801208496,-79.94649792489031,40.4434609385842,245.7520280923844,0.0192622859030962,-0.0179712958633899,0.0748601630330085,0.996846079826355,-0.1847074548552345,0.0075664179834622,0.1887679509469613,-0.1841935813426971,-0.0104623977094888,0.0280425138771534,0.3382413256913423,0.3842906705662608,-10.221721165180208,14910.0
31.4,3.400000095367432,288.0,22.012304306030277,23.624719619750977,-79.946498231575,40.44346112090351,245.7024028148651,0.0182994380593299,-0.0205005928874015,0.073222629725933,0.9969370365142822,-0.1785871513256374,0.0346587386095821,0.1751805784476343,-0.1049743369221687,-0.0273448936641216,-0.0560748875141143,0.356574393287301,0.5473477342352271,-10.068830509185794,14910.0
31.5,3.400000095367432,287.0,22.04861259460449,22.2331600189209,-79.94649844673339,40.443461125362994,245.71980939769745,0.016535073518753,-0.020447576418519,0.0737458765506744,0.9969303607940674,-0.178699045997005,0.0449990285285249,0.1882438506910676,-0.1103905290365219,-0.0457866452634334,-0.124936506152153,0.4003495732694865,0.4980472643673421,-9.943089644908904,14910.0
31.6,3.400000095367432,288.0,22.111215591430664,21.692440032958984,-79.94649879556694,40.44346133086004,245.6517819013596,0.0133979888632893,-0.0185890663415193,0.0770797580480575,0.9967616200447084,-0.1635518546160932,0.0735594895757398,0.1185562288261163,0.0797830894589424,0.0207214411348104,-0.031683512032032,0.3755527376756072,0.3775002990290523,-9.91976744055748,14910.0
31.8,3.299999952316284,287.0,22.05362129211425,22.60689353942871,-79.94649899090672,40.443461518836905,245.55850194358823,0.0168175473809242,-0.0130510833114385,0.0785642713308334,0.9966817498207092,-0.1375961176277749,0.1013571157006063,0.0267751189577613,0.0107633657753467,-0.0839098766446113,-0.002105948748067,0.265865440517664,0.3288851959258318,-9.69676983833313,14910.0
32.0,3.400000095367432,287.0,22.0673942565918,22.105932235717773,-79.94649915856836,40.44346159177322,245.56123779678344,0.0155151356011629,-0.010486320592463,0.078087493777275,0.9967706203460692,-0.1238517136903354,0.1122458163134995,0.0319326697277435,-0.0057993903756141,-0.0735447034239769,-0.0506683476269245,0.4131458027288318,0.5420656885206699,-9.789106729030609,14910.0
32.11,3.400000095367432,287.0,22.19510269165039,20.897262573242188,-79.94650005246466,40.44346186907077,245.54287837409973,0.0141364224255085,-0.0096628535538911,0.077196292579174,0.9968688488006592,-0.1663832656639882,0.1562150151865293,0.0389080331369458,-0.1229273304343223,0.0016007393132895,0.0309614613652229,0.3179090950638056,0.3394155562296509,-9.842167872190476,14910.0
32.2,3.400000095367432,290.0,22.2276554107666,19.49774932861328,-79.94650044212551,40.443462125844384,245.5498382892609,0.0146456342190504,-0.0110893994569778,0.0759717747569084,0.9969407320022584,-0.1169425079301867,0.1776830839880672,0.0152051885273684,0.0217361785471439,0.0111557459458708,0.0386199355125427,0.3685524876415729,0.4520364745706321,-9.621436650753024,14910.0
32.4,3.400000095367432,291.0,22.160045623779297,20.68256378173828,-79.9465006825129,40.443462287624726,245.550495847702,0.0163126811385154,-0.0111721009016037,0.0760943666100502,0.9969046115875244,-0.0837940387891711,0.1968828991286593,-0.0220946150423794,-0.0004439722106326,0.0573272369801998,-0.0291870702058076,0.4017522106692195,0.5709254253655672,-9.339760485291482,14910.0
32.5,3.299999952316284,294.0,22.21638870239257,20.277023315429688,-79.94650080536721,40.4434624537937,245.5455071773529,0.0168421063572168,-0.0116294557228684,0.0772578418254852,0.9968010783195496,-0.0632891537802924,0.1997260830813436,-0.0846430401210259,-0.0202019978314638,-0.0154543109238147,-0.0488917343318462,0.3205663987621665,0.4980040315166116,-9.18845150113106,14910.0
32.7,3.299999952316284,296.0,22.15754127502441,20.968828201293945,-79.94650109211109,40.44346259551816,245.52904306316373,0.0162427090108394,-0.0155760003253817,0.0809025764465332,0.9964680075645448,-0.0226716226782927,0.1893370400818012,-0.1842008097030116,-0.0350457429885864,-0.0006659356877207,-0.0667765736579895,0.3044806354120374,0.5521255306899547,-9.160030524730685,14910.0
32.8,3.2000000476837163,299.0,22.09368705749512,21.883281707763672,-79.94650114877555,40.44346276611872,245.5092199888229,0.0155422966927289,-0.0138259017840027,0.081993281841278,0.9964157938957214,-0.0035619041782973,0.1943898413533321,-0.2225470677033248,0.0360480658710002,-0.0463467016816139,0.0318347439169883,0.4162415014207364,0.4820303519815207,-9.416423914432526,14910.0
33.0,3.2000000476837163,301.0,22.103702545166016,21.81966781616211,-79.94650133032053,40.443462965277575,245.4811960306168,0.0117069808766245,-0.0127413515001535,0.0839198678731918,0.9963223338127136,0.0218594948924627,0.196203212533519,-0.2357270083580008,0.0327951349318027,-0.0833027586340904,0.0176798682659864,0.3241093363612889,0.4800905016437173,-9.48019598722458,14910.0
33.1,3.0999999046325684,301.0,22.07740974426269,22.0661735534668,-79.94650152390885,40.44346308664343,245.4596758928299,0.0079434253275394,-0.0132174985483288,0.0851935893297195,0.9962451457977296,0.0353012158128694,0.1943818795639123,-0.2251414194166326,0.0076599386520683,0.0501219481229782,-0.0449269525706768,0.2651001861691475,0.5114326373487711,-9.5215679615736,14910.0
33.3,3.2000000476837163,300.0,22.14877700805664,21.19942855834961,-79.94650151473898,40.44346326859559,245.43740795516968,0.0102541912347078,-0.0144261363893747,0.0838971659541129,0.9963172674179076,0.0453857027366435,0.2057500908185095,-0.2308583710920112,-0.0606925748288631,0.0096544856205582,0.0981494188308715,0.2465169856511057,0.4219993277639151,-9.757163389921187,14910.0
33.4,3.0999999046325684,304.0,22.084922790527344,22.09798049926757,-79.94650164698795,40.44346320720627,245.43866132164,0.0107384771108627,-0.0184091981500387,0.0814397931098938,0.9964503645896912,0.0457415690504736,0.2027786710262819,-0.2087040012865488,-0.0560187995433807,-0.0543332807719707,0.032826043665409,0.2850092611089349,0.3581911849603057,-9.601060858368871,14910.0
33.61,3.0,305.0,22.03734397888184,23.083999633789062,-79.94650169019414,40.4434634876858,245.4122520532608,0.0078679686412215,-0.0176739078015089,0.0761575922369957,0.9969080686569214,0.0371928517094156,0.2165631650402016,-0.1735322545434784,0.0534277074038982,0.0984998866915702,0.0021302646491676,0.2116174770332873,0.288999729976058,-9.77922025680542,14910.0
33.7,2.900000095367432,311.0,22.02482414245605,22.90906143188477,-79.9465016867839,40.443463692850045,245.39625678920743,0.0122364852577447,-0.016349034383893,0.0747379064559936,0.9969941973686218,0.0308074511350099,0.2284230089112955,-0.1553889553083558,0.0150823723524808,0.1042132899165153,0.085788570344448,0.2825822280719876,0.2687885732576251,-9.9552389895916,14910.0
33.9,2.799999952316284,315.0,22.10996437072754,21.994606018066406,-79.94650179549562,40.44346343202704,245.4421698894501,0.015735825523734,-0.0148005243390798,0.0722792297601699,0.9971505403518676,0.0193077209861673,0.2026093200813506,-0.0886363365539779,-0.0548612922430038,0.057228747755289,-0.0288168229162693,0.3452735892310739,0.4269731886684895,-9.84246257185936,14910.0
34.0,2.5,319.0,22.021068572998047,23.12375831604004,-79.94650180990237,40.44346380010314,245.42448817157745,0.0132840238511562,-0.0133404340595006,0.068092256784439,0.9975014328956604,0.0067566970949778,0.2096016981302169,-0.090472520003075,-0.1167787089943885,-0.0068418090231716,-0.0155027452856302,0.2586203748732805,0.2912344078905881,-9.826606092453003,14910.0
34.2,2.400000095367432,323.0,22.04110145568848,22.71026611328125,-79.94650209822561,40.44346342475917,245.4343981590271,0.0131313158199191,-0.0135150263085961,0.0666059181094169,0.9976013898849488,-0.0229793190323973,0.1635093049167468,-0.0626394752191549,-0.12135049700737,-0.0406489148736,-0.0271602403372526,0.1678751328215003,0.2242017631977796,-9.7644887816906,14910.0
34.3,2.200000047683716,329.0,22.03609275817871,22.757976531982425,-79.94650214997917,40.44346356108589,245.42830501461032,0.0147894993424415,-0.0147904278710484,0.0661026984453201,0.9975935816764832,-0.0307498952951573,0.1480444750280471,-0.0626915166541275,0.0291676931083202,0.0223805513232946,0.0768570080399513,0.192513856049627,0.0130066926777362,-9.85514752149582,14910.0
34.5,2.0999999046325684,336.0,22.03984832763672,22.718217849731445,-79.94650258083126,40.443463258699694,245.4536068286896,0.0177600141614675,-0.0154823502525687,0.0694842264056205,0.9973047971725464,-0.1031272127017288,0.0757219989384906,0.03988891101347,-0.0864391550421714,0.0562014169991016,-0.0134997172281146,0.174123942553997,0.1240262139681726,-9.995498238801956,14910.0
34.7,1.8999999761581416,342.0,22.09368705749512,21.692440032958984,-79.94650302412293,40.443462745534646,245.454133972168,0.016277864575386,-0.0152679085731506,0.0719829872250557,0.9971561431884766,-0.1374466653668816,0.0269388640088076,0.0552138578404236,-0.0003573706198949,-0.0382451452314853,-0.0349926836788654,0.2135752527415752,0.1049875884409994,-9.90107856988907,14910.0
34.8,1.7999999523162842,343.0,22.15253257751465,20.968828201293945,-79.94650317546474,40.44346276556261,245.45872007274627,0.0100152418017387,-0.0119969649240374,0.0753257721662521,0.9970365166664124,-0.1435817661758653,0.0300933901104836,0.0434688246187241,0.0937050580978393,-0.1023772433400154,-0.0804362446069717,0.2308943765982985,0.1655609693191945,-9.756823666691778,14910.0
34.9,1.8999999761581416,342.0,22.018564224243164,23.219179153442383,-79.94650380152244,40.44346225026123,245.43746839427948,0.0005931576015427,0.0014657528372481,0.0833943411707878,0.996515452861786,-0.1526737286927386,0.0129516529473884,-0.0111224782396849,0.0426734015345573,-0.0220320653170347,-0.1795854121446609,0.1747668256424367,0.2807143715769053,-9.611483520269395,14910.0
35.1,1.7999999523162842,336.0,22.166305541992188,20.626901626586918,-79.94650396659232,40.443462240120574,245.43640123271945,0.0027727789711207,0.0047224690206348,0.086323007941246,0.9962522387504578,-0.1259233889396699,0.0158022348372489,-0.0081502685427099,0.0558714196085929,0.137234479188919,-0.0383658036589622,0.1474036927800625,0.1546918725036084,-9.834595727920531,14910.0
35.2,1.8999999761581416,332.0,22.09619140625,21.84352302551269,-79.94650382857951,40.44346237249236,245.4141434278488,0.0093428464606404,0.0045376089401543,0.0879988893866539,0.9960665106773376,-0.0757693533049834,0.0417901266899178,-0.0082458203919169,-0.0795216485857963,0.1642143577337265,-0.062402207404375,0.3185304348170757,0.1948163068480789,-9.849903738498687,14910.0
35.4,1.8999999761581416,328.0,22.098695755004886,21.565210342407227,-79.94650389311974,40.44346273908912,245.39679430389404,0.0184034127742052,-0.0017632138915359,0.084964245557785,0.9962125420570374,0.0104757678371971,0.0802611926143509,-0.0026208499377913,-0.0375064462423324,0.0180536564439535,0.0407935231924057,0.3668885527923703,0.3049635057896376,-9.793327834010125,14910.0
35.6,2.0,322.0,22.220144271850582,20.15774726867676,-79.94650389170336,40.443462817552025,245.396451338768,0.0173353720456361,-0.0043281447142362,0.08272485435009,0.9964122772216796,0.0226083739699529,0.0823994083504321,-0.0181528629716962,-0.035548385232687,0.0779517292976379,-0.0497297048568725,0.4851498415321112,0.2068217917531729,-9.700182858109477,14910.0
35.7,2.0999999046325684,315.0,22.20512008666992,20.06232643127441,-79.94650399798701,40.443462892023504,245.389708861351,0.0171648170799016,-0.0093481875956058,0.0816825330257415,0.9964668154716492,0.0135753656546003,0.0961435006199022,-0.0531903879158113,-0.1324771046638488,-0.0316354148089885,-0.0881617590785026,0.2942633021436632,0.3132762730121613,-9.408150104284289,14910.0
35.8,2.200000047683716,298.0,22.170061111450195,20.642805099487305,-79.94650388784491,40.44346284304429,245.39463220500943,0.0207625683397054,-0.013737023808062,0.0830397233366966,0.9962353110313416,0.0157288621781541,0.073593532709379,-0.1066517683872493,0.013187195174396,0.1306221187114715,-0.064953789114952,0.3407537646219134,0.2024979402311146,-9.45416067481041,14910.0
36.0,2.200000047683716,291.0,22.043603897094727,22.56713485717773,-79.94650391825742,40.44346290631446,245.39318416976928,0.0229476857930421,-0.008448738604784,0.0851297825574874,0.9960697293281556,-0.0027159427258595,0.0743518339880599,-0.1240982187029812,0.0356592200696468,-0.0278506577014923,-0.0337687209248542,0.4278438390791416,0.0336791581660509,-9.491351305246353,14910.0
36.2,2.200000047683716,284.0,22.165054321289062,20.603046417236328,-79.94650393208666,40.44346297428243,245.38101385498047,0.0216262079775333,-0.0056798942387104,0.0854537263512611,0.9960912466049194,-0.0034738458774324,0.0673131385776644,-0.1269993502216467,0.0838521718978881,0.0333185084164142,-0.0269879959523677,0.4504803843051196,0.061856497535482,-9.763914585113524,14910.0
36.3,2.299999952316284,279.0,22.14877700805664,21.15966987609864,-79.94650395608758,40.443463033378656,245.3680229034424,0.0223555155098438,-0.0050661941058933,0.0849616229534149,0.9961205124855042,-0.0258967540691798,0.0594915821941035,-0.1403207477535084,-0.1319834887981414,0.0009652017033658,0.0454615727066993,0.2765937290713191,0.0947511969041079,-9.600693068504334,14910.0
36.4,2.299999952316284,274.0,22.17381858825684,20.507625579833984,-79.94650403234515,40.44346317126415,245.3609424676895,0.0285761374980211,-0.0013406195212155,0.0814350321888923,0.996268093585968,-0.0155595563572404,0.0471481357294466,-0.1555464650864064,-0.1084949970245361,-0.0086443573236465,0.0326121896505355,0.3503321251273155,0.1947083709016442,-9.584284611940385,14910.0
36.61,2.299999952316284,271.0,22.18258285522461,20.451963424682614,-79.94650405667629,40.44346322294437,245.3443375673294,0.0281372535973787,-0.0017557851970195,0.0795204192399978,0.9964345693588256,-0.0096330972479409,0.028800128745732,-0.177600099641542,-0.0714324563741684,-0.044476244598627,0.021973680704832,0.3992360806837678,0.1382307818625122,-9.582618740200996,14910.0
36.7,2.299999952316284,267.0,22.084922790527344,21.994606018066406,-79.94650420995858,40.443463180423606,245.36217568778991,0.0252825785428285,-0.0015181986382231,0.0777579769492149,0.9966505169868468,-0.0049516175948957,0.0199355788459985,-0.1576262481185026,0.0186883192509412,-0.1296577900648117,0.0036194797139614,0.2828044588118792,0.2163506884686649,-9.549297212362289,14910.0
36.9,2.299999952316284,271.0,22.21138000488281,20.45991516113281,-79.94650436262683,40.4434631763012,245.36071871185305,0.0195754673331976,0.0020010073203593,0.0754241198301315,0.9969574213027954,0.0087234541713731,0.0090357635591554,-0.1651717858784086,0.0188809633255004,-0.0113018183037638,-0.0169372018426656,0.3979616069421173,0.0599561250396072,-9.535321197509766,14910.0
37.0,2.299999952316284,271.0,22.101198196411133,21.37436866760254,-79.94650435287947,40.44346319236136,245.3425803031921,0.0163864865899086,0.002449220046401,0.0748474821448326,0.9970574378967284,0.0145043407463908,0.0043493358132112,-0.2002586433322428,-0.0012857491383329,-0.0811959728598594,0.0798813253641128,0.2177578026428819,0.076448854599148,-9.449281173348428,14910.0
37.2,2.200000047683716,271.0,22.00979995727539,23.06014442443848,-79.94650464963486,40.44346312046853,245.34948275947568,0.0189266130328178,0.0017930135363712,0.0727534145116806,0.9971687793731692,0.0205366009364173,-0.0073751690533667,-0.1693723496932154,-0.0457963794469833,0.0780785232782363,0.0772884711623191,0.2407031904906034,0.0306608985364437,-9.792829651236532,14910.0
37.3,2.400000095367432,266.0,22.104955673217773,21.73219871520996,-79.94650489077401,40.44346316719973,245.33058319950104,0.0225540846586227,-0.0001024028388201,0.0709730312228202,0.9972232580184937,0.0301976716009022,0.0101378804053488,-0.1257666561799582,-0.0948033109307289,0.0306306779384613,-0.0408799722790718,0.4095995760709048,0.1687806289829314,-9.879111750125883,14910.0
37.5,2.299999952316284,267.0,22.033588409423828,23.457733154296875,-79.94650485962521,40.44346317993621,245.31829868221283,0.0210516341030597,-0.0048881596885621,0.0709470883011818,0.9972459673881532,0.0257050871240852,0.0022594189779786,-0.1167154463024376,-0.1484675854444503,-0.0326503552496433,-0.0628498792648315,0.3606770921498537,0.2375612805224956,-9.888968986272811,14910.0
37.6,2.400000095367432,261.0,22.06238555908203,21.95484733581543,-79.94650489239831,40.4434629076156,245.3021453466416,0.021322077140212,-0.0075136632658541,0.0714307650923729,0.9971894025802612,0.0264856999628455,-0.0248439473754656,-0.0983614756923891,-0.1425900012254715,-0.0199256408959627,-0.156553104519844,0.2960641166567803,0.3935548894107342,-9.92289570093155,14910.0
37.82,2.400000095367432,259.0,22.04110145568848,21.350513458251957,-79.94650487450545,40.44346269909976,245.26183710956573,0.0161471888422966,-0.0111649548634886,0.0788498818874359,0.9966932535171508,0.0056392569085951,-0.0371503566803051,-0.051283434024126,0.0384215787053108,0.1216033101081848,-0.0443549118936061,0.3238838531076908,0.0891275184787809,-10.023863081932069,14910.0
37.9,2.400000095367432,255.0,22.06238555908203,22.225208282470703,-79.94650487688433,40.44346266872287,245.25639735126487,0.0198245514184236,-0.0104567222297191,0.0804708898067474,0.9965050220489502,-0.0123096250154478,-0.034972702410993,-0.0612845554077901,0.0911191180348396,0.0953486189246177,0.0066570714116096,0.3711349469795823,-0.0470961426571011,-9.768985290527343,14910.0
38.1,2.400000095367432,252.0,21.98600959777832,23.13966178894043,-79.94650490071805,40.44346263899653,245.2493930902481,0.0201369915157556,-0.009457160718739,0.0815333202481269,0.996422290802002,-0.0344424564331244,-0.024339148520706,-0.0738215114398723,0.0440205819904804,-0.0365862250328064,-0.0434912703931331,0.4638532588630915,0.0631290435232222,-9.695221495628356,14910.0
38.2,2.400000095367432,249.0,22.031084060668945,22.686410903930664,-79.94650512543829,40.44346258575968,245.2125494327545,0.0131306443363428,0.0002197746944148,0.0863028541207313,0.9961824417114258,-0.0400014380311816,-0.0178050695161791,-0.0429291493951742,0.2420152723789215,0.0143342800438404,-0.0674523785710334,0.2787083928845823,0.0766184466937556,-10.1290802192688,14910.0
38.4,2.5,247.0,22.143768310546875,20.94497299194336,-79.94650530241522,40.44346244091122,245.18882511520383,0.015519862063229,0.0075572971254587,0.0883997827768325,0.9959354996681212,-0.0438065249366234,-0.0112608692885983,-0.0437488141437418,0.0256558489054441,0.0955937504768371,-0.1218333542346954,0.3040278781950474,0.1026950596366077,-9.973090538978576,14910.0
38.51,2.299999952316284,241.0,22.281494140625,18.81389617919922,-79.94650536280187,40.44346241789452,245.1789836730957,0.0202901177108287,0.0076154908165335,0.0866950005292892,0.9959991574287416,-0.011472231331998,-0.0075041098517646,-0.0710059306972759,-0.116227202117443,-0.000782296876423,0.132350891828537,0.3858185480162501,0.0132353279460221,-9.568674300312995,14910.0
38.7,2.299999952316284,239.0,22.29526710510254,19.17967796325684,-79.94650548562245,40.44346220039101,245.14136420154568,0.0170029271394014,-0.0075695528648793,0.0802038386464119,0.9966047406196594,-0.0064297664484467,-0.0053321135997393,-0.1606917126220761,-0.142162948846817,-0.0932070314884185,-0.098996914923191,0.3493294007331133,0.0286586291715502,-9.478233661651611,14910.0
38.9,2.400000095367432,237.0,22.09619140625,21.135814666748047,-79.94650558557744,40.44346200793747,245.12078939342496,0.0142758786678314,-0.0111102797091007,0.0788175985217094,0.9967249035835266,0.0025411974968518,-0.0125205000142068,-0.1868540129769466,0.0531207956373691,0.0344224534928798,-0.0283311679959297,0.4163970739021898,0.2062935871817172,-9.58470970451832,14910.0
39.0,2.200000047683716,240.0,22.124988555908203,20.849552154541016,-79.94650558825137,40.44346200628637,245.10220073127743,0.011421350762248,-0.009136501699686,0.0787954181432724,0.9967835545539856,-0.0074268457090842,0.0013790954214964,-0.18471023481252,0.0450709983706474,-0.0231076441705226,-0.0757069736719131,0.3687142727896571,0.3688474796712399,-9.701316048502925,14910.0
39.1,2.200000047683716,251.0,22.15253257751465,20.626901626586918,-79.94650574877569,40.44346187862098,245.07727895641327,0.0097117610275745,-0.0045673828572034,0.0765319839119911,0.9970094561576844,-0.0239969297620572,0.0214976861662719,-0.1667427929626918,-0.0960923135280609,-0.047402661293745,0.069893404841423,0.1993134552240372,0.0746637316374108,-9.79814301609993,14910.0
39.31,2.200000047683716,252.0,22.15754127502441,20.72232246398925,-79.94650577604494,40.443461900725175,245.0611913051605,0.0118158617988228,-0.0083189997822046,0.0737740993499755,0.9971703290939332,-0.0213988515398453,0.0320313644191128,-0.1484439079051595,-0.1083108112215995,0.1119950264692306,-0.0096993586048483,0.3656770097091793,0.1670127781480551,-9.924859195947649,14910.0
39.4,2.200000047683716,256.0,22.17381858825684,20.571239471435547,-79.94650583744048,40.44346159570023,245.0504996623993,0.015065649524331,-0.0092291496694087,0.0709567070007324,0.9973229765892028,-0.0228961074452246,0.0055398921442725,-0.1238267441203215,0.0047094137407839,0.1123715043067932,0.0581247471272945,0.2632839130796492,0.0697520156716927,-10.044516617059706,14910.0
39.6,2.200000047683716,259.0,22.283998489379886,18.797992706298828,-79.94650599705847,40.44346146927371,245.0122736539841,0.020623980090022,-0.0112081114202737,0.0670993775129318,0.997470200061798,-0.0595441508091031,0.0179786434599523,-0.1251852941968521,-0.0875355526804924,0.0650276020169258,-0.0338581725955009,0.3127391697093845,0.1669577595032751,-9.856750828027726,14910.0
39.8,2.200000047683716,268.0,22.24768829345703,19.31485939025879,-79.94650607148232,40.44346148334997,244.99818216228485,0.0199389420449733,-0.0102112125605344,0.0663634091615676,0.9975440502166748,-0.0674098490004222,0.0147873137740754,-0.1521718090720043,0.1015461832284927,-0.0203397329896688,0.0336114279925823,0.3732373499125242,0.0520323940878734,-9.571296191811562,14909.0
39.9,2.200000047683716,268.0,22.260210037231445,19.100160598754886,-79.94650613216687,40.44346134583807,244.9827231016159,0.0190283302217722,-0.0084576159715652,0.0662152022123336,0.997588038444519,-0.083790793237552,0.0182905095040899,-0.1688517873415583,0.0314496345818042,-0.1199120804667472,0.0499535873532295,0.2637178312987089,-0.1215591549128294,-9.589076989889143,14909.0
40.1,2.200000047683716,266.0,22.263965606689453,18.941125869750977,-79.94650632331867,40.44346137671953,244.94499014282223,0.0160281490534544,-0.0054309186525642,0.0739383399486541,0.9971193075180054,-0.100353953423276,0.0311058038324016,-0.2117157420242846,-0.048932772129774,-0.114040583372116,0.0109176402911543,0.4195461284369231,-0.1947159357368946,-9.621606220006944,14909.0
40.2,2.299999952316284,264.0,22.276485443115234,19.01269149780273,-79.94650659607453,40.44346136580806,244.90573357009887,0.0186855383217334,-0.0082147847861051,0.0846018269658088,0.9962058067321776,-0.073291110819119,0.0626125991411707,-0.2857639436255751,0.0688004195690155,0.1255785971879959,-0.1938354671001434,0.4699571672827005,0.0905356376431882,-9.503204196095467,14909.0
40.4,2.200000047683716,264.0,21.975994110107425,23.266889572143555,-79.94650669055373,40.44346113586436,244.9016903486252,0.0235636737197637,-0.0058572948910295,0.0895202681422233,0.9956890344619752,-0.0637003235196516,0.050553306431532,-0.3006864899962841,-0.0164896044880151,0.0659952983260154,-0.1164992228150367,0.5242145776748658,0.5709510069340468,-9.257998868823051,14909.0
40.51,2.200000047683716,264.0,22.058629989624023,22.304725646972656,-79.94650675388694,40.44346119194179,244.8703213181496,0.025435421615839,-0.0030221231281757,0.0929120406508445,0.995344877243042,-0.0409582177012826,0.0664924799509057,-0.3180575922062761,-0.0139861460775136,0.0283783785998821,-0.1019151583313942,0.612564361654222,0.4638402122631669,-9.617882713079451,14909.0
40.6,2.400000095367432,261.0,22.03734397888184,22.56713485717773,-79.94650693849228,40.44346114239149,244.8298866596222,0.0245010238140821,0.0006151243578642,0.0944801345467567,0.9952250123023988,0.0012246465013663,0.0638718027144202,-0.2717327706199444,-0.0280185285955667,-0.0004086199623998,0.1440743505954742,0.4597824638709426,0.0941901474259793,-9.98307875275612,14909.0
40.8,2.5,262.0,22.044857025146484,22.121835708618164,-79.9465069387677,40.443461226314405,244.8048148598671,0.0230776816606521,0.0008289078832603,0.0915383100509643,0.9955337643623352,0.0234362972732723,0.0795454485206786,-0.2339561013885963,-0.0043483511544764,-0.1080817580223083,0.1040607914328575,0.4189322438836098,0.3322375508397818,-10.083383059501648,14909.0
40.9,2.5,255.0,22.104955673217773,21.461837768554688,-79.94650697756599,40.44346109493887,244.78574703598025,0.0223067142069339,0.0004196802910882,0.0862686410546302,0.9960221648216248,0.0473804163080807,0.0699093166636692,-0.1781098040326912,-0.1466608345508575,0.0104178888723254,0.054023552685976,0.4223606491461396,0.350131967626512,-10.215076389312744,14909.0
41.1,2.5999999046325684,256.0,22.04986572265625,22.241111755371094,-79.94650688083576,40.443461252908136,244.7563904967308,0.0238770060241222,-0.0160836726427078,0.0745996013283729,0.9967979192733764,0.0500268246569794,0.0746348209585793,-0.1254617118039527,-0.228504329919815,0.1021340489387512,-0.0433380305767059,0.5596619338542224,0.2799786091223359,-10.103547767400745,14909.0
41.2,2.5,252.0,22.061134338378903,21.95484733581543,-79.94650681036455,40.44346126611913,244.73436878585807,0.026977103203535,-0.025048354640603,0.0721004977822303,0.9967178106307985,0.0428131449574255,0.0836519834176898,-0.1114996091864423,-0.1639661639928817,0.0068361330777406,-0.0132754314690828,0.5203370331600309,0.3340176991000772,-10.075098724365237,14909.0
41.4,2.5,253.0,22.0673942565918,21.70039176940918,-79.94650683729375,40.443461262866286,244.7000218477249,0.0287967193871736,-0.0186105482280254,0.0765855014324188,0.9964733719825744,-0.0038649942723229,0.0809702828408507,-0.0857041543210446,0.0343612432479858,-0.0514339096844196,-0.1314319223165512,0.6261489419639111,0.304794155806303,-10.016019626855847,14909.0
41.6,2.5999999046325684,256.0,22.10245132446289,21.35846519470215,-79.9465068844357,40.44346140065304,244.68635253572464,0.0264074336737394,-0.0051110256463289,0.0841052085161209,0.9960938692092896,-0.0231167784830518,0.0795895650423171,-0.0749996945950786,0.0608777925372123,-0.0393163152039051,-0.0172147992998361,0.5958205672726036,0.1173919630888849,-9.743629424571992,14909.0
41.7,2.5999999046325684,254.0,22.00979995727539,22.91701316833496,-79.94650689568655,40.44346124679541,244.6639183011055,0.0246587712317705,-0.001993415877223,0.0856853723526001,0.9960150718688964,-0.0161123405979665,0.0617441474646547,-0.1105170294155639,-0.0145017383620142,-0.0937904492020607,-0.0366295427083969,0.4366625366359949,0.2386369672045112,-9.712880086898805,14909.0
41.8,2.700000047683716,252.0,22.1062068939209,21.39027214050293,-79.94650692073992,40.44346130373812,244.6534503545761,0.0247833430767059,-0.0032796151936054,0.0856585353612899,0.996010959148407,-0.0049079784988785,0.0666147729832853,-0.100698953486913,-0.015073999762535,0.0219543781131506,-0.01338876131922,0.6746725726872683,0.0450956365931779,-9.99365987420082,14909.0
42.0,2.700000047683716,254.0,22.14251708984375,20.52352905273437,-79.94650696333771,40.44346125969293,244.6331016864777,0.0333152636885643,-0.0071506653912365,0.0843956619501113,0.9958495497703552,0.0005271637363974,0.0569062683275726,-0.0880208838802539,-0.0524357184767723,0.0159330498427152,0.0741857886314392,0.4526639173552394,0.1843825535103679,-9.726947903037072,14909.0
42.1,2.799999952316284,257.0,22.22139549255371,19.82377243041992,-79.94650703199632,40.44346119990747,244.6109854426384,0.0360638760030269,-0.0068957060575485,0.0820406526327133,0.9959524273872375,0.0221295705742744,0.0149813994699901,-0.1253558748895306,0.0017301336629316,-0.0337133780121803,-0.0480021350085735,0.5830344242602588,0.2839032968133688,-9.836168628931048,14909.0
42.3,2.900000095367432,259.0,21.97348976135254,23.67243003845215,-79.94650699265561,40.44346121129559,244.5977382507324,0.037362340837717,-0.0071397102437913,0.0796778798103332,0.9960947036743164,0.0389396154700767,-0.0229357890427639,-0.1376567383567241,-0.0417782180011272,0.0054318811744451,0.1642284542322158,0.3569220833480358,0.1779603555612266,-9.73102458178997,14909.0
42.41,2.799999952316284,264.0,22.097442626953125,22.12978744506836,-79.94650692865359,40.44346115720849,244.57991139554971,0.0393978804349899,-0.0198094006627798,0.072923369705677,0.9963622689247132,0.0611112046442158,-0.0727872471254538,-0.1049712538870664,-0.0824037119746208,-0.0002171672385884,-0.0157739929854869,0.4191159926354885,0.5761974577233195,-9.903258411884307,14909.0
42.6,2.799999952316284,267.0,22.001035690307614,22.511472702026367,-79.9465068328915,40.44346109391901,244.5700134482384,0.0386618226766586,-0.0247536990791559,0.0697042867541313,0.9965108633041382,0.0625110014764971,-0.1043453993536774,-0.0853250241547395,-0.0338747985661029,-0.1423360556364059,0.0808480605483055,0.3749370258674026,0.5197077265754342,-9.963405210971834,14909.0
42.7,3.0,277.0,22.07740974426269,21.81966781616211,-79.94650689623734,40.4434608960398,244.56122074985504,0.034784011542797,-0.0278878323733806,0.0673766210675239,0.9967311024665833,0.0452618662049821,-0.1226428011446227,-0.058851418147562,0.0471615642309188,-0.1758453100919723,0.0698627308011055,0.404951551258564,0.4999811943992973,-10.068100776672363,14909.0
42.9,3.0,281.0,22.04986572265625,22.137739181518555,-79.94650700160065,40.44346034717741,244.53239969873428,0.0213683471083641,-0.0275104660540819,0.0684186071157455,0.9970484375953674,-0.0290452530679798,-0.1599221814130825,-0.0172672006925761,-0.0276102311909198,0.0280675310641527,-0.1500971168279647,0.3052323863469064,0.3082395545393229,-9.931680557727814,14909.0
43.1,3.0,286.0,22.031084060668945,22.50352096557617,-79.94650702324098,40.44346019595855,244.53062717580795,0.0208492446690797,-0.0256085228174924,0.0705122128129005,0.996964156627655,-0.0467718208777233,-0.1679920499858025,-0.0016225550018398,0.0794984623789787,0.0413149408996105,-0.0099592600017786,0.3248115504160524,0.2896508722566068,-9.984436476230622,14909.0
43.2,3.0,289.0,22.10996437072754,21.74015045166016,-79.94650713176722,40.443459965450174,244.5086766328812,0.0200376026332378,-0.0234166402369737,0.0737008675932884,0.9968041181564332,-0.0698080697544373,-0.1528472979090782,-0.0051419872491982,0.0662926435470581,-0.0027425542939454,-0.0625972300767898,0.4855020997300744,0.3022343178838491,-10.075296360254288,14909.0
43.3,3.0999999046325684,291.0,22.114971160888672,20.96087646484375,-79.94650735178311,40.443459651366695,244.4850426163673,0.0178275108337402,-0.0217340178787708,0.0814676433801651,0.9962795376777648,-0.0968272508753456,-0.1219912288173531,-0.0027950477931601,-0.0272250436246395,-0.0289662182331085,-0.1585472077131271,0.3975621690228582,0.4495031318441033,-9.913053667545318,14909.0
43.5,3.2000000476837163,294.0,22.103702545166016,21.12786293029785,-79.94650744646465,40.443459533923566,244.4838581528664,0.0166739597916603,-0.0210551470518112,0.0851333066821098,0.9960075616836548,-0.1005930178593627,-0.1082805294989919,-0.0043342625246387,0.0456422567367553,0.0189497284591198,-0.1425363421440124,0.5244988619908689,0.2989122588559985,-9.829505141973495,14909.0
43.6,3.2000000476837163,294.0,22.151281356811523,20.40425109863281,-79.94650763005409,40.443459453028034,244.46738086605072,0.0160004217177629,-0.0195601247251033,0.0873899683356285,0.9958536624908448,-0.1016044518187049,-0.0773886950892954,-0.0334847507646176,0.02752554602921,0.0522145591676235,-0.0383867360651493,0.4507476386055351,0.4190845273062587,-9.739076782464982,14909.0
43.8,3.2000000476837163,293.0,22.06614112854004,22.090028762817383,-79.94650784705317,40.44345930742378,244.45753018522265,0.0159392692148685,-0.0216143392026424,0.0868012607097625,0.995863676071167,-0.1068942754275624,-0.0535526113102666,-0.0475423963901113,-0.0355464853346347,0.0873937308788299,-0.1311509907245636,0.4973996121436358,0.5882937023788691,-9.799490799307824,14909.0
43.9,3.299999952316284,291.0,22.237672805786133,19.21943664550781,-79.94650814781455,40.44345920133225,244.442972465992,0.0200390424579382,-0.0239129699766635,0.0828196704387664,0.9960760474205016,-0.1124967549851325,-0.0172777394869948,-0.0571359115150116,-0.0198287907987833,-0.1021964997053146,0.1031385138630867,0.4355686687678098,0.3764519298076629,-9.703944371938707,14909.0
44.01,3.299999952316284,293.0,22.20887565612793,18.98883628845215,-79.94650826940848,40.44345916920979,244.43536816501617,0.0206232294440269,-0.0226185638457536,0.0818492546677589,0.9961745738983154,-0.1119953551652036,-0.0155648075627193,-0.0901345913775552,0.0473696924746036,0.0097429873421788,-0.0626023784279823,0.501637674048543,0.5821010990068317,-9.527595856189729,14909.0
44.21,3.400000095367432,292.0,22.124988555908203,21.28689956665039,-79.94650853030649,40.44345895607558,244.4270434823036,0.0204772371798753,-0.0231373123824596,0.0813078805804252,0.9962100386619568,-0.1259937480126428,-0.0274591732066134,-0.1499851388825776,-0.0442817546427249,0.0635232031345367,-0.0468844510614872,0.4548265466094018,0.5111835094168783,-9.217122153639794,14909.0
44.4,3.400000095367432,292.0,22.15002822875977,21.06424903869629,-79.94650889355661,40.44345870114203,244.4107242372036,0.0169742330908775,-0.0241002179682254,0.0793728083372116,0.9964091181755066,-0.1308053215830905,-0.0262283784893283,-0.2006264815660708,0.0229906886816024,-0.0853948220610618,0.0676467418670654,0.3952099072560668,0.4247175155952573,-9.505278788208964,14909.0
44.5,3.400000095367432,294.0,22.06238555908203,21.787860870361328,-79.94650902684819,40.44345867403084,244.3896012749672,0.0151189090684056,-0.0207504481077194,0.0782207399606704,0.9966054558753968,-0.1215261638698688,-0.0138643407417663,-0.212350779628524,0.1295643597841262,0.0024103454779833,0.00903429556638,0.3429277594015002,0.463619772233069,-9.574567708969118,14909.0
44.7,3.400000095367432,292.0,22.11997985839844,20.55533599853516,-79.94650938435414,40.443458539318726,244.37982816958427,0.015972988680005,-0.0160722434520721,0.0774591639637947,0.9967380166053772,-0.1145807255668353,0.0055964943545402,-0.1709788260707822,-0.0609402880072593,0.0604921616613864,-0.0562084168195724,0.3307194309309125,0.4922889629378915,-9.80269682765007,14909.0
44.8,3.5,296.0,22.15629005432129,20.8734073638916,-79.9465097778833,40.44345837750189,244.37406097316745,0.0165205467492342,-0.017722874879837,0.0784930288791656,0.9966201782226562,-0.106750503802861,0.0055399145846946,-0.1331969701856265,-0.0281477440148592,-0.0826267972588539,0.0295901075005531,0.2746573505178094,0.3649415030702949,-9.68682313978672,14909.0
45.0,3.400000095367432,297.0,22.06238555908203,22.0105094909668,-79.94650989186425,40.44345837813743,244.35943175816536,0.0149431424215435,-0.0203102361410856,0.0791271552443504,0.9965456128120422,-0.09981246542194,0.0146650043815911,-0.1525573297138768,-0.0686323419213295,-0.0505019389092922,-0.0774671137332916,0.3527482677251101,0.4118700499087573,-9.582311761379245,14909.0
45.1,3.299999952316284,299.0,22.04610824584961,22.56713485717773,-79.94651021825513,40.4434582749144,244.3398084487915,0.0097148297354578,-0.0194728095084428,0.079504519701004,0.9965969920158386,-0.0997883854978365,0.0287011412362611,-0.1386703551172685,0.0393886007368564,-0.0783833637833595,0.0255256742238998,0.2058669048920273,0.3480869039520621,-9.746874629259109,14909.0
45.3,3.299999952316284,299.0,22.12749290466309,20.36449241638184,-79.94651033823455,40.44345829343297,244.3257405307293,0.0100514218211174,-0.0204456355422735,0.0793354883790016,0.9965876340866088,-0.1039454001020057,0.0401427088463084,-0.1325078841921648,-0.0484158582985401,0.0075724306516349,-0.0202432069927454,0.191718780901283,0.4004212016612291,-9.822384402751924,14909.0
45.4,3.2000000476837163,301.0,22.16880989074707,20.284975051879886,-79.94651055427815,40.44345815297313,244.3064864423275,0.0145085072144866,-0.0181924235075712,0.0791079699993133,0.996594488620758,-0.0861147113405696,0.0288687835978584,-0.133108259031089,0.1004346162080764,-0.0050362348556518,0.035636980086565,0.3110724574327469,0.6085221449285746,-9.773932034969327,14909.0
45.6,3.2000000476837163,302.0,22.0135555267334,22.56713485717773,-79.94651080184714,40.443457994988826,244.277933403492,0.0124570354819297,-0.016837315633893,0.0800856351852417,0.996567964553833,-0.0772043218411371,0.0102516926386336,-0.1701656193384619,0.0477258563041687,0.0256435498595237,-0.0887019783258438,0.24203460149467,0.222985907793045,-9.536031049489976,14909.0
45.7,3.0999999046325684,304.0,21.99352264404297,22.75002479553223,-79.94651088951848,40.443457994533645,244.26097662711143,0.009683140553534,-0.0177887137979269,0.0817034393548965,0.996450901031494,-0.0677148218922249,0.0027994912192447,-0.1634077093672206,0.0740977674722671,-0.0105189383029937,0.0116930911317467,0.1431703726015985,0.3031398323178291,-9.79985274195671,14909.0
45.9,3.0,307.0,22.14251708984375,20.595094680786133,-79.94651118725047,40.44345768544857,244.2457049336433,0.0090110655874013,-0.0170809719711542,0.0835983827710151,0.9963123798370358,-0.0898620642921372,-0.0340459905336189,-0.151167573724276,-0.0032420204952359,0.0273199807852506,-0.0899537652730941,0.1077878931071609,0.3734493114799261,-9.790148118138314,14909.0
46.0,2.900000095367432,312.0,21.91339111328125,23.79170799255371,-79.94651127740609,40.44345764230943,244.23000897431373,0.0094401845708489,-0.0177731812000274,0.0850226804614067,0.9961757659912108,-0.0846357760130795,-0.035037071256014,-0.1590217061645372,-0.0340774729847908,0.009497083723545,-0.1632261574268341,0.1583939274586737,0.502900380268693,-9.6575011074543,14909.0
46.2,2.900000095367432,315.0,21.92340850830078,23.473636627197266,-79.94651164128852,40.44345732295917,244.19767816329,0.0071242051199078,-0.0240283571183681,0.0834917873144149,0.9961932897567748,-0.1065339504951145,-0.054811491272687,-0.1525195833375795,-0.1107125505805015,-0.0475472584366798,0.0100985243916511,0.0826261821202933,0.5152359953150153,-9.8098082113266,14909.0
46.3,2.799999952316284,320.0,22.008546829223643,22.74207305908203,-79.94651174543219,40.44345725902986,244.1823076453209,0.0055269277654588,-0.0249938629567623,0.0807405188679695,0.9964064955711364,-0.107545553253508,-0.0587532000475296,-0.1414119370988521,0.0340868271887302,-0.0107405269518494,0.1141586080193519,0.0827542544156312,0.3824556315690279,-9.883706492185594,14909.0
46.5,2.799999952316284,322.0,21.96096992492676,23.72809410095215,-79.94651188593204,40.44345737284873,244.15626482629776,-0.0004194266803096,-0.022851537913084,0.0743233263492584,0.9969722628593444,-0.1001507570177315,0.0097492705402628,-0.1051666118132804,0.0354015678167343,-0.0593887567520141,0.0281913951039314,0.1941193552874028,0.3612074346095324,-9.965183933973313,14909.0
46.6,2.700000047683716,323.0,21.922155380249023,23.69628715515137,-79.94651200785194,40.443457369003305,244.14581477606296,-0.0035311402752995,-0.0232900120317936,0.0712609812617302,0.997179627418518,-0.1019917338843746,0.0116064031919782,-0.0946187781555941,0.1095540001988411,-0.0059971185401082,0.192639261484146,0.0642848416278138,0.0885762722231447,-9.976708796024322,14909.0
46.81,2.5999999046325684,326.0,22.00979995727539,22.789783477783203,-79.94651221020679,40.44345720763735,244.1282758858204,0.0011618529679253,-0.0210383627563714,0.0678585767745971,0.9974724054336548,-0.099315402598619,0.0300041754521671,-0.0100218301274882,0.1125948205590248,0.1350708454847335,0.0717981681227684,0.181888533309102,0.1485363989509642,-10.309208375215531,14909.0
46.9,2.5,327.0,21.9209041595459,23.95869445800781,-79.94651253293313,40.44345700657832,244.12720617616176,0.0065998970530927,-0.0201859474182128,0.0698728039860725,0.9973298907279968,-0.1149609382696028,0.0443078723677223,0.0685182462802554,0.0562789812684059,0.0198437646031379,-0.1005329117178917,0.2301451838202774,0.4811319272965193,-10.216153446435928,14909.0
47.1,2.5999999046325684,329.0,21.948448181152344,23.8076114654541,-79.94651268007502,40.4434570389606,244.1352021243572,0.0054414337500929,-0.0166149493306875,0.072192795574665,0.997237503528595,-0.1178315092859936,0.059220723830602,0.0941216741089452,0.0785284638404846,-0.0272195804864168,-0.1149113103747368,0.2478408866375685,0.399308659248054,-10.084014558792116,14909.0
47.3,2.5,330.0,21.997278213500977,22.33653259277344,-79.9465130943902,40.44345702212748,244.1107296642065,0.0068080746568739,-0.0094996029511094,0.0764513164758682,0.9970048069953918,-0.1081704269690055,0.0842701967978161,0.0749240282668238,-0.0002002273540711,-0.0276404619216918,-0.0572408102452755,0.2637856955453753,0.3308148501813412,-10.052044322490694,14909.0
47.4,2.5,332.0,22.111215591430664,20.833646774291992,-79.94651325314403,40.4434570033577,244.09957270288467,0.0072237248532474,-0.0142136421054601,0.0787918120622634,0.9967636466026306,-0.0770728801958367,0.0869972647307484,0.0419867288322181,-0.0953986272215843,-0.0072050727903842,0.02932720631361,0.3136559765785933,0.3945332747697831,-9.978198666572572,14909.0
47.6,2.5,330.0,22.02482414245605,22.24906349182129,-79.94651334508418,40.44345706831976,244.1028215136528,0.0102593535557389,-0.0139163183048367,0.0794087201356887,0.9966922402381896,-0.0653711111037972,0.0857535888772082,0.0292390283448035,-0.0547657907009124,0.0101245082914829,-0.0038922820240259,0.0773187466990202,0.428051232509315,-9.683736394643784,14909.0
