time,wind_speed,wind_angle,battery_voltage,battery_current,position_x,position_y,position_z,orientation_x,orientation_y,orientation_z,orientation_w,velocity_x,velocity_y,velocity_z,angular_x,angular_y,angular_z,linear_acceleration_x,linear_acceleration_y,linear_acceleration_z,node_ids
0.0,1.7000000476837158,296.0,22.052370071411133,20.984731674194336,-79.94647675810022,40.44349374103725,244.90260229969024,-0.0023106569424271,-0.0211178474128246,-0.1097896844148636,0.9937278032302856,-0.1038196370308365,-0.2913170321339287,0.1417589134300457,0.0514586195349693,-0.0936153084039688,0.0614741705358028,0.2514729029126465,0.1488858431763947,-9.709402163028717,14909.0
0.2,1.7999999523162842,296.0,22.04610824584961,21.962799072265625,-79.94647696539903,40.44349351886598,244.91637323760983,-0.0032510051969438,-0.0181706994771957,-0.1099464297294616,0.9937661290168762,-0.1202402540626864,-0.2640800208414257,0.1453273258046539,0.0861547291278839,-0.0706854313611984,-0.0158765669912099,0.2337933347560465,0.1852521623857319,-9.802935394048694,14909.0
0.4,1.7999999523162842,300.0,21.908382415771484,23.82351493835449,-79.9464774167582,40.44349266027868,244.9946083869934,-0.0030168411321938,-0.0147616444155573,-0.108243353664875,0.9940102696418762,-0.1449742825962085,-0.2305936075616513,0.1674778987965448,0.0207989625632762,0.0624142810702323,0.1101447343826294,0.2745330606400967,0.2242735377699136,-9.82908998966217,14909.0
0.5,1.7999999523162842,302.0,21.97223854064941,21.81966781616211,-79.94647745225096,40.443492520422176,245.0416147556305,-0.0030126944184303,-0.0118244541808962,-0.1068000644445419,0.99420565366745,-0.1321704155580533,-0.1227378157427812,0.2193118848403814,0.0479577146470546,0.0243788063526153,0.086942009627819,0.2170260236039757,0.1513464794307947,-9.990793569087982,14910.0
0.6,1.8999999761581416,304.0,22.038597106933597,20.54738426208496,-79.9464776438749,40.44349245211497,245.06422661209103,-0.0034696827642619,-0.0117264408618211,-0.1059675589203834,0.9942944049835204,-0.1288329374269759,-0.1005027478357769,0.2349223802138863,0.0734134763479232,0.0834839418530464,0.0024105384945869,0.2646157991699874,0.1644471478275954,-10.004236317873,14910.0
0.8,1.8999999761581416,303.0,21.97348976135254,22.41604995727539,-79.94647800808684,40.44349219660813,245.0687383260727,-0.0036301559302955,-0.0120866689831018,-0.1059462949633598,0.9942918419837952,-0.1353451881898461,-0.0321021827354511,0.206204634878943,-0.0257235411554574,0.0521481782197952,-0.0776908919215202,0.1463654008693993,0.1198408409580588,-9.908695152997971,14910.0
1.0,1.8999999761581416,306.0,22.02357292175293,22.757976531982425,-79.94647817549134,40.44349220249972,245.0889413204193,-0.0026543741114437,-0.0112314596772193,-0.1070521920919418,0.9941864609718324,-0.1430595912814961,-0.0137053730289589,0.2017429806161197,-0.0861402377486229,-0.0263747088611126,0.092176504433155,0.080720519721508,0.2491887429356575,-9.723275851607324,14910.0
1.1,1.8999999761581416,307.0,22.06989860534668,20.37244415283203,-79.94647840329442,40.44349164572319,245.11295114421844,0.0023957600351423,-0.0086217941716313,-0.1100118458271026,0.993890106678009,-0.1056276508279881,-0.0100444486450566,0.1472463457998391,0.1216050684452056,0.1058916449546814,0.0807235836982727,0.1646973903849721,0.2578919945284724,-9.693103049397472,14910.0
1.3,2.0,312.0,22.08241844177246,20.642805099487305,-79.94647853267904,40.44349166653698,245.12621448898315,0.0047296951524913,-0.008360737003386,-0.1113439202308654,0.9937356114387512,-0.1005058243151838,-0.0004411201089302,0.1211615908851456,0.0951099917292594,0.0717352628707885,0.0685238987207412,0.2216156128048897,0.0690377280302345,-9.631445914506912,14910.0
1.4,2.0999999046325684,315.0,21.974742889404297,22.360387802124023,-79.94647902021389,40.44349103893256,245.1477680053711,0.0058111026883125,-0.0085052838549017,-0.1129941195249557,0.9935423135757446,-0.0959473703016906,-0.0150621988969686,0.0739986354659645,0.0666409954428672,-0.0580084659159183,0.1451692432165146,0.1193140616454184,0.1254607095569372,-9.607181138992312,14910.0
1.5,2.200000047683716,318.0,21.99978256225586,21.978702545166016,-79.94647909793909,40.443490734450826,245.16438494586944,0.0061123669147491,-0.0078448941931128,-0.1133961677551269,0.9935001134872437,-0.080290438446548,-0.0059251055927597,0.0655615829458936,0.0908678025007248,0.0095024984329938,0.1234858781099319,0.1333752357121557,0.1222963060811162,-9.757127137184144,14910.0
1.7,2.200000047683716,319.0,21.98976707458496,21.52545166015625,-79.946479203745,40.443490546512606,245.1921437826157,0.006936116144061,-0.0080195115879178,-0.1123602613806724,0.993610978126526,-0.0559698638179123,0.0272456105861995,0.0627427136986214,0.0669873356819152,0.0208502393215894,-0.0533688478171825,0.2096431098505854,0.1116896761581301,-9.86868616461754,14910.0
1.9,2.200000047683716,321.0,21.959716796875,22.360387802124023,-79.94647925847603,40.44349058523735,245.19785533809664,0.0074383681640028,-0.0097487159073352,-0.1109924614429474,0.9937456846237184,-0.0441846673112222,0.0293037137984749,0.0489188466707903,0.0699610337615013,0.0681448727846145,0.007614099420607,0.2210808849334717,0.0986805166862905,-9.742447702288626,14910.0
2.0,2.200000047683716,320.0,21.988513946533203,21.294851303100582,-79.94647929734248,40.443490502914,245.2265251722336,0.0109571330249309,-0.0114904856309294,-0.1081282049417495,0.9940102100372314,-0.0321390929329845,0.0645315640592771,0.0346587977045943,0.0228640623390674,-0.0196241978555917,-0.0041387099772691,0.2231425766274333,0.2096496331505477,-9.759437372088431,14910.0
2.1,2.200000047683716,320.0,22.02607536315918,19.855579376220703,-79.94647931488127,40.44349056301937,245.230324968338,0.013048542663455,-0.0114771127700805,-0.1075565069913864,0.9940470457077026,-0.0284132048415283,0.0618855804391383,0.038253403460813,-0.0109294354915618,-0.0037188152782619,-0.0538687221705913,0.1511219828948378,0.3440879931673408,-9.745006443858149,14910.0
2.3,2.299999952316284,320.0,22.0135555267334,22.44785690307617,-79.94647936994251,40.44349034961677,245.2599828090668,0.0182028617709875,-0.0117931542918086,-0.1081516221165657,0.9938978552818298,-0.0194536311878018,0.052412644762974,0.0261134457322762,-0.0376276858150959,0.0548250973224639,0.0510103516280651,0.2473707156814635,0.3578428370878101,-9.700552402138712,14910.0
2.4,2.200000047683716,319.0,21.858301162719727,23.06014442443848,-79.94647937963295,40.44349039845855,245.26355980300903,0.0179868005216121,-0.0116409733891487,-0.1080042123794555,0.9939196109771729,-0.016542752603841,0.0369448914974208,0.0458033233000733,0.0049101966433227,0.0152451545000076,0.1068027392029762,0.1626174261420965,0.186075066626072,-9.923474575281144,14910.0
2.6,2.299999952316284,322.0,21.90713119506836,22.84544563293457,-79.94647944359001,40.443490053178,245.29331205749511,0.019921189174056,-0.0060843196697533,-0.1072432026267051,0.9940146207809448,0.0052256950662775,0.0027511102115204,0.1065503181904668,-0.0098691759631037,0.0619812384247779,0.001373560517095,0.1695730911567807,0.1324190971814096,-10.060200018882751,14910.0
2.7,2.200000047683716,324.0,21.88960266113281,23.04424095153809,-79.94647951451019,40.44348970980406,245.30142424964905,0.0207235123962164,-0.0059528541751205,-0.1064555644989013,0.9940837025642396,0.018834026279244,-0.0165717855350922,0.1022962109916721,0.0317753814160823,0.0554166436195373,0.0645754039287567,0.2033157647028565,0.046236528865993,-10.014164890050887,14910.0
2.9,2.200000047683716,323.0,21.88709831237793,23.40207099914551,-79.94647947107778,40.44348964397029,245.3252752866745,0.0197053588926792,-0.0058739366941154,-0.1063428968191146,0.9941169023513794,0.0468047055881838,-0.0498007991880452,0.1376770351098689,-0.0093678319826722,0.0521161183714866,-0.0831757262349128,0.2714197106659412,0.2790971596352756,-9.952415953874588,14910.0
3.0,2.200000047683716,322.0,21.929668426513672,22.54327964782715,-79.94647958327772,40.44348913241557,245.3232098665237,0.0198560561984777,-0.0075820698402822,-0.1078436747193336,0.9939407110214232,0.0476728987453642,-0.0889390566450782,0.1176721325096045,-0.0019450571853667,0.0346196144819259,-0.0362197421491146,0.250482768304646,0.2065397001430392,-9.959562420845034,14910.0
3.2,2.0999999046325684,323.0,21.90462684631348,23.05219268798828,-79.94647952508025,40.44348890048367,245.34845887088773,0.0257281549274921,-0.0159539580345153,-0.1113677695393562,0.9933180809020996,0.0541574945220082,-0.142254461882746,0.1368035464926403,-0.0823625102639198,0.0753427892923355,0.0122282747179269,0.3000115171261132,0.2728550742007792,-9.915293151140212,14910.0
3.3,2.0,322.0,21.858301162719727,24.42784881591797,-79.94647939200647,40.44348866740953,245.3227860774994,0.0293525420129299,-0.0192725099623203,-0.1126412600278854,0.9930151104927064,0.0614612143410884,-0.1377689473558132,0.092295388210177,0.0128194093704223,0.0688416436314582,-0.0004118739743717,0.2906983826681972,0.2366346978396177,-9.903578839302064,14910.0
3.5,2.0,324.0,21.90462684631348,22.44785690307617,-79.94647936220238,40.44348821433268,245.333361371994,0.0250056367367506,-0.0178310740739107,-0.1129422411322593,0.9931268692016602,0.0431408470061643,-0.1591315295023724,0.1494481382619184,-0.0196162164211273,-0.1309471279382705,-0.0630943104624748,0.2763195677474141,0.2458514263294637,-10.11917152762413,14910.0
3.6,2.0,329.0,21.922155380249023,22.217256546020508,-79.9464793737518,40.44348804523722,245.34856043720245,0.0192582868039608,-0.0149066783487796,-0.1127272844314575,0.9933275580406188,0.0356359164302533,-0.1854457447864616,0.1742275222796017,0.0537163391709327,-0.1045366004109382,-0.0443770699203014,0.2544259660877288,0.2993623482808471,-10.069221103191376,14910.0
3.8,2.0,328.0,21.922155380249023,21.779909133911133,-79.94647939982741,40.44348745422764,245.37642227077484,0.0143853379413485,-0.0104051129892468,-0.1133448854088783,0.9933971166610718,0.037357544128321,-0.1988783964763441,0.1536233159031503,0.0473475642502307,0.0528236478567123,0.0654640048742294,0.2325355255790055,0.1536772344075143,-9.93527191758156,14910.0
3.9,1.8999999761581416,329.0,21.922155380249023,21.326658248901367,-79.94647941445616,40.443487277905135,245.390817984581,0.0156985577195882,-0.0099318623542785,-0.1140477061271667,0.9933015704154968,0.0307513660497826,-0.1984114740461487,0.1442878008961588,-0.069493718445301,0.0469467714428901,0.0500321090221405,0.2465522151254117,0.1742105361633003,-9.731444996595382,14910.0
4.1,2.0,329.0,21.8570499420166,23.25893783569336,-79.94647933109921,40.443486732271936,245.3972246494293,0.0154198389500379,-0.0136394808068871,-0.1140110045671463,0.9932661652565002,0.0514264225518228,-0.1767691639354504,0.1015685370391227,0.0161450337618589,0.0183329079300165,0.0231580641120672,0.2581739034131169,0.2834933156333864,-9.673074581623078,14910.0
4.3,1.8999999761581416,323.0,21.925912857055664,22.352436065673828,-79.94647932615459,40.44348656487698,245.40722583198547,0.0143586210906505,-0.01421510707587,-0.1132473424077034,0.9933614134788512,0.0487978526684994,-0.1836166088986917,0.1034168836031315,0.0471450351178646,0.027566397562623,-0.0828362479805946,0.3200100727379322,0.219278078712523,-9.825345432758333,14910.0
4.4,1.8999999761581416,322.0,22.02482414245605,20.968828201293945,-79.9464795804991,40.443485901562326,245.42395780944824,0.0191370919346809,-0.0145815126597881,-0.1119820326566696,0.9934189915657043,0.0329388012273515,-0.1977661926717737,0.0584922508743426,0.0266089905053377,0.1043980047106742,-0.045558962970972,0.130467726001516,0.2280525567010045,-9.684068516492845,14910.0
4.5,2.0,319.0,21.87958526611328,23.147613525390625,-79.94647979975831,40.443485333286034,245.4385186281204,0.02225236967206,-0.0137671334668993,-0.1120769903063774,0.9933549761772156,0.0123085775156757,-0.2129265765164471,0.0359498530680864,-0.0952168554067611,0.0057275192812085,0.0132836522534489,0.2455836055800319,0.313496968857944,-9.577834548354147,14910.0
4.7,1.8999999761581416,322.0,21.89461135864257,22.48761749267578,-79.94647996509866,40.44348449605359,245.45509265327453,0.0221931207925081,-0.0170537233352661,-0.1109088435769081,0.9934363961219788,0.0175412639134728,-0.2499626581527504,0.0527493593355197,-0.112034909427166,-0.015609516762197,-0.0205537024885416,0.2555131644755602,0.2808097360096872,-9.735203586816786,14910.0
4.8,2.0,327.0,21.87457847595215,22.217256546020508,-79.94648001765809,40.44348426075508,245.4601030197144,0.0201663598418235,-0.01886423304677,-0.1101943179965019,0.9935264587402344,0.0135901517288485,-0.268571576780127,0.0726815480296205,-0.0805065706372261,-0.0125925652682781,-0.0412797927856445,0.2784972353093326,0.3242553340271115,-9.951368132829666,14910.0
5.01,2.0,328.0,21.962221145629886,20.595094680786133,-79.94648022995983,40.44348340482587,245.4739687290192,0.0160058084875345,-0.0221155472099781,-0.1080472394824028,0.9937708973884584,-0.0175354491782213,-0.3009426932247601,0.0647927149562395,-0.1023438274860382,-0.0720952749252319,-0.0401577688753604,0.2784077911823988,0.2097540424950421,-9.89517288208008,14910.0
5.1,2.0,327.0,21.99101829528809,21.68448829650879,-79.94648034193636,40.44348313551331,245.4779881086349,0.0138955749571323,-0.0262323562055826,-0.1068633198738098,0.9938305020332336,-0.0368368092064642,-0.3200117912300042,0.0420754408004951,-0.0397802703082561,-0.0510849729180336,0.0358331687748432,0.1941920252144336,0.0958902253769338,-9.677015020251275,14910.0
5.31,1.7999999523162842,326.0,21.910886764526367,21.787860870361328,-79.94648069900674,40.443482144408215,245.49173150920868,0.011101609095931,-0.0255062710493803,-0.1060047447681427,0.9939764142036438,-0.0832446914790969,-0.3423157662847415,0.0156835118026862,0.0513864457607269,-0.0609319768846035,-0.0300517193973064,0.1697918135672808,0.2923855784721673,-9.658909116983414,14910.0
5.51,1.7999999523162842,323.0,21.922155380249023,21.239187240600582,-79.94648089331517,40.44348185777302,245.4909170713425,0.0084166936576366,-0.0198732502758502,-0.1062226369976997,0.9941082000732422,-0.1130397489259572,-0.3431823254581198,0.0014942787241065,0.0454393811523914,-0.1349827945232391,-0.0644243285059928,0.2252004676312208,0.3081449027359486,-9.663921350240708,14910.0
5.6,1.7999999523162842,318.0,21.9209041595459,22.16159439086914,-79.94648147521681,40.44348092692789,245.5034915056229,0.0027874670922756,-0.010722323320806,-0.1057069301605224,0.9943356513977052,-0.1336310120123817,-0.3432374231636366,-0.0177484683355327,0.0623563453555107,-0.0054801497608423,-0.0246525667607784,0.1233351735770702,0.2887018691562116,-9.683749843239784,14910.0
5.7,1.7000000476837158,319.0,21.908382415771484,23.115806579589844,-79.9464818739625,40.4434802506234,245.5215985622406,0.0008753692382015,-0.0099246017634868,-0.1055390834808349,0.9943652153015136,-0.1425346067399971,-0.335610786768598,-0.0193637649790263,0.0217884220182895,-0.0127255031839013,0.0221843477338552,0.187899671997875,0.0651767567172646,-9.711226494312289,14910.0
5.8,1.7000000476837158,324.0,21.83576393127441,23.56110572814941,-79.94648212068068,40.44347998867103,245.51920185947412,-0.0005603873869404,-0.0087495883926749,-0.10614775121212,0.99431174993515,-0.1383935983831138,-0.3226789902903753,-0.0171727729397266,0.082338772714138,0.0177215971052646,0.0197613853961229,0.1600048170983791,0.1756897720880806,-9.818857362270355,14910.0
6.0,1.7000000476837158,325.0,21.78818702697754,23.87917709350586,-79.94648277660677,40.44347914548259,245.5365104522705,-0.0029497677460312,-0.0049554174765944,-0.1087464317679405,0.9940528273582458,-0.1463987520146538,-0.2885285617967782,0.021654801238033,0.0178569313138723,-0.0444150455296039,0.0189377479255199,0.1841567413508892,0.2100784533284604,-9.875265451669692,14910.0
6.1,1.5,330.0,21.87958526611328,22.0661735534668,-79.94648300856234,40.44347892739937,245.5395634021759,-0.0034167307894676,-0.0033846315927803,-0.1105003803968429,0.9938644766807556,-0.1310606900662735,-0.2700303404812721,0.0381877084358233,0.0853459388017654,0.0066745984368026,0.1260379403829574,0.1174220853857696,-0.0068504516780376,-9.992072939872742,14910.0
6.3,1.600000023841858,330.0,21.975994110107425,21.263044357299805,-79.94648371763026,40.44347804743574,245.5579252090454,-0.0052280207164585,-0.0011000507511198,-0.1149800270795822,0.9933534860610962,-0.122482418220034,-0.2485609686024107,0.0491547241680293,0.0126130124554038,0.0057470514439046,0.020979618653655,0.1119544819369912,0.1703615516424179,-9.95177509903908,14910.0
6.4,1.5,327.0,22.012304306030277,20.06232643127441,-79.94648391424205,40.44347786266231,245.56202159786224,-0.0053025027737021,0.0003717393265105,-0.1175917237997055,0.993047833442688,-0.1087025737278204,-0.227130563038932,0.0257126906883789,0.0036247917450964,0.0232878401875495,0.1137266159057617,0.0988898470066487,0.0826521382760256,-9.636124271750449,14910.0
6.61,1.600000023841858,325.0,21.858301162719727,22.217256546020508,-79.94648436795798,40.443477072373646,245.5714365091324,-0.0069045652635395,0.0001765039924066,-0.1226163879036903,0.9924301505088806,-0.0727056392831831,-0.1757996685363882,-0.0359101926485555,-0.0108171356841921,-0.0228525139391422,-0.0257663093507289,0.1900583361089229,0.2277766046673059,-9.574014562368394,14910.0
6.82,1.7000000476837158,324.0,21.93467712402344,21.80376434326172,-79.9464845013388,40.44347692903028,245.5676030960083,-0.0057549932971596,-0.0004293811507523,-0.1236284971237182,0.9923117756843568,-0.0496322177255874,-0.1553292702759912,-0.0408017356891912,0.0136424042284488,0.11630280315876,-0.0368583537638187,0.1356246504373848,0.2330131517350673,-9.7148587846756,14910.0
6.9,1.7999999523162842,324.0,21.816984176635746,22.408098220825195,-79.94648489819845,40.44347613399225,245.57857607269287,-0.0028126719407737,-0.0032069259323179,-0.1224185302853584,0.9924694299697876,-0.0317132376982316,-0.1260256917406425,-0.0343182551121322,-0.1605687737464904,0.0245817806571722,-0.0975233167409896,0.1692378995195031,0.1755483060143888,-9.73626134812832,14910.0
7.0,1.8999999761581416,330.0,21.844528198242188,22.52737617492676,-79.94648514266105,40.44347550503088,245.59612463378903,-0.0038339071907103,-0.005156151484698,-0.1208759248256683,0.992646872997284,-0.0216059303646424,-0.1246770155222379,-0.0191126123645394,-0.1893964856863021,-0.057999238371849,-0.0958664789795875,0.0703186474135145,0.3235427411645651,-9.757794304490089,14910.0
7.2,2.0,334.0,21.945945739746094,20.22136116027832,-79.94648534306403,40.44347486663096,245.6104626502991,-0.0048975022509694,-0.0097388681024312,-0.1177313104271888,0.992985725402832,0.0078924909618806,-0.1027437918374418,-0.0468309718883833,0.0021327014546841,0.0726392567157745,-0.0882320776581764,0.1464860910549759,0.1560593352466821,-9.653871740698817,14910.0
7.4,2.0,338.0,21.88334274291992,21.86737823486328,-79.94648535841766,40.44347478121151,245.60416124725344,-0.0031226468272507,-0.0094023868441581,-0.1162191107869148,0.9931742548942566,0.0047995262281698,-0.0852844244436027,-0.0842357400611328,0.020329101011157,-0.0507855527102947,0.0508748404681682,0.0724298805557191,0.1042189993523061,-9.452753250002864,14910.0
7.5,2.0,339.0,21.85204124450684,22.33653259277344,-79.94648552693519,40.44347427602502,245.6107829656601,0.0011708054225891,-0.007732646074146,-0.1138662844896316,0.9934653043746948,0.0177339575275281,-0.0660865312482352,-0.0810649389918565,0.0007249625632539,0.0309667587280273,0.0274865888059139,0.0030207629688084,0.1671841015666723,-9.48858147919178,14910.0
7.61,2.0999999046325684,335.0,21.94344139099121,21.40617561340332,-79.94648552039432,40.443474215868136,245.6028539981842,0.0029948039446026,-0.0086885439231991,-0.1130901724100112,0.9935422539711,0.0226725831085278,-0.0592248181783696,-0.0786282053501166,0.0018719509243965,-0.0309945698827505,0.0181745029985904,0.0396714121755212,0.1830595844238996,-9.748612421751025,14910.0
7.81,2.0,333.0,21.924659729003903,22.64665222167969,-79.94648563673692,40.44347379076344,245.6076632585525,-0.0029272534884512,-0.0120559306815266,-0.1147994175553321,0.9933112859725952,0.0256811180635914,-0.0356649600112984,-0.0467734509879874,-0.0250578857958316,-0.071983478963375,0.0552937500178813,0.068827273948118,0.2442190481722355,-9.855188452005386,14910.0
7.91,2.0,336.0,21.89085388183593,22.0661735534668,-79.94648561488039,40.44347375955777,245.6038617935181,-0.0060065668076276,-0.0122852260246872,-0.1170137226581573,0.9930362105369568,0.0212760312583988,-0.0223577476608328,-0.0279900178492405,-0.0473630763590335,-0.0604431517422199,0.0989192426204681,0.0662964071519672,0.1536164416372776,-9.96579087495804,14910.0
8.11,2.0,338.0,21.898366928100582,21.040393829345703,-79.94648565775918,40.44347335194319,245.607442363739,-0.0046467902138829,-0.0116421366110444,-0.1201254054903984,0.9926796555519104,0.0234654481399943,0.0028016472582734,0.0224988251414512,0.0283770095556974,0.0472864471375942,0.0741591230034828,0.0192703351518139,0.1809072974324226,-10.043129657506944,14910.0
8.3,2.0,349.0,21.902122497558597,21.31870651245117,-79.94648562147077,40.44347300525629,245.6029016819,-0.0019503127550706,-0.0095470286905765,-0.1208771541714668,0.9926196336746216,0.03788482583528,0.0172430176112528,0.0134467234024683,0.0212917644530534,0.1040128767490387,-0.0335415229201316,0.0769821389392018,0.2692318835668266,-9.896203161478043,14910.0
8.4,2.0,352.0,21.90713119506836,21.23123550415039,-79.94648552119314,40.44347304263911,245.6062500324249,0.001373735256493,-0.0060367388650774,-0.1206305548548698,0.9926782250404358,0.0255942519226021,0.0438690184393859,0.0197225577383547,-0.1289515793323516,-0.0560566522181034,0.018381854519248,0.1317409846186638,0.1926569666527212,-9.890020315647126,14910.0
8.5,2.0,0.0,21.90963554382324,21.08015251159668,-79.94648544938053,40.44347264651572,245.598472579956,0.0006056186975911,-0.0065697696991264,-0.1212206035852432,0.9926037192344666,0.0490383621308049,0.0438273463886198,-0.0054990830713918,-0.130510538816452,-0.0401370823383331,-0.0693685710430145,0.0705036980845034,0.2802796676382422,-9.678242350816726,14910.0
8.7,2.200000047683716,4.0,21.8570499420166,21.74810218811035,-79.94648537467197,40.44347235032385,245.598972782135,0.0010120589286088,-0.0100791053846478,-0.1212962716817855,0.9925647377967834,0.0620365002571003,0.0438170833273003,-0.0157875865661214,0.0049207443371415,0.0987914577126503,0.0203695390373468,0.1372518209181726,0.0327503941976465,-9.76066177904606,14910.0
8.9,2.200000047683716,6.0,21.86581420898437,21.92304039001465,-79.94648530119306,40.44347237765189,245.5982804145813,0.0051754596643149,-0.0129166292026638,-0.1214065179228782,0.992505431175232,0.0516592923750669,0.0418297201081625,-5.57796568415606e-05,0.0179081708192825,0.1108895316720008,-0.0195859540253877,0.0842863528244197,0.1908313014730811,-9.92182799935341,14910.0
9.0,2.0999999046325684,2.0,21.89210700988769,22.12978744506836,-79.94648521696266,40.44347206291141,245.5996972169876,0.0154710691422224,-0.0110144959762692,-0.1225185915827751,0.9922845363616944,0.0516775732074401,0.021572627052861,0.0084853829903743,0.0338807292282581,-0.0399908311665058,0.0667179599404335,0.0848334512114524,0.0911298061162233,-9.965152359008789,14910.0
9.1,2.0999999046325684,359.0,21.86080551147461,21.87532997131348,-79.94648515430427,40.443472061210926,245.6009577360153,0.0169061627238988,-0.008930723182857,-0.1221291646361351,0.9923301339149476,0.0466922331982085,0.0062666034753764,0.0145035045723577,-0.0136202061548829,-0.080991730093956,0.0218905583024024,0.1152480997424572,0.119656032398343,-9.822299033403397,14910.0
9.3,2.0999999046325684,358.0,21.89461135864257,20.80183982849121,-79.94648508070065,40.44347168375423,245.6003416624069,0.0176699981093406,-0.0069305631332099,-0.119277223944664,0.9926795959472656,0.0619274833004841,-0.0385201784410528,-0.0047239181026289,0.0059575028717517,-0.0697506740689277,-0.0543720573186874,0.0885240401420742,0.2161090705543756,-9.772800014019014,14910.0
9.4,2.0999999046325684,1.0,21.89961814880371,21.445934295654297,-79.94648501908803,40.44347162515182,245.5991463508606,0.0162392631173133,-0.0058191679418087,-0.1173970177769661,0.9929352402687072,0.066129774496162,-0.0567993970964597,-0.0124453337427563,-0.0364887900650501,-0.0657809302210807,-0.0892413556575775,0.1195257125794887,0.1754999203048646,-9.69866784453392,14910.0
9.6,2.0999999046325684,359.0,21.87958526611328,20.809791564941406,-79.94648496049254,40.44347123404614,245.60019873046875,0.0130584565922617,-0.0049176597967743,-0.1149995923042297,0.9932675957679749,0.0873840956593989,-0.0882346467600432,-0.0081942566889536,-0.0381985157728195,0.0080989068374037,0.1250094920396804,0.133058417122811,0.1292388605419546,-9.781045172810558,14910.0
9.8,2.0,355.0,21.90087127685547,21.54135513305664,-79.94648493173209,40.44347091034804,245.60049425029757,0.0132016967982053,-0.0061385217122733,-0.1145679131150245,0.99330872297287,0.1103726532195764,-0.0869763869199911,-0.0174947557552975,0.0216894373297691,0.122109830379486,-0.1277302354574203,0.1965362836048007,0.2501911566965282,-9.7770737439394,14910.0
9.9,1.8999999761581416,350.0,21.804462432861328,22.956771850585927,-79.94648473324133,40.443470687038825,245.5937973108292,0.0166334845125675,-0.0105620063841342,-0.1145029813051223,0.9932274818420408,0.1044416776123967,-0.1191230400821313,-0.0351319117168477,-0.1027411594986915,-0.0500629469752311,0.0117028048262,0.038110388321802,0.0944550354313105,-9.643832656145095,14910.0
10.0,1.7999999523162842,339.0,21.823244094848643,21.978702545166016,-79.94648473848034,40.44347053777381,245.5965683307648,0.0170158296823501,-0.0142005002126097,-0.1135029718279838,0.9932904839515686,0.089334307441289,-0.0846728232037199,-0.0129114041240738,-0.195275217294693,-0.0549360625445842,-0.0647019520401954,0.089085354572162,0.1786183317750692,-9.84997624397278,14910.0
10.2,1.7999999523162842,336.0,21.844528198242188,21.85942649841309,-79.94648482692136,40.44346987578176,245.59348152542117,0.014257663860917,-0.0195289626717567,-0.111764907836914,0.9934405088424684,0.0762358254275244,-0.1537061842995766,0.0100904493710029,0.1181349828839302,0.0526012741029262,0.0776740089058876,0.1274436191562563,0.2906967015936971,-9.97336068034172,14910.0
10.4,1.600000023841858,328.0,21.87332534790039,22.37629127502441,-79.94648479906091,40.44346972770408,245.5944789495468,0.0122793139889836,-0.0183207970112562,-0.1112157478928566,0.9935515522956848,0.0557378008914541,-0.1583340899757989,0.0122614591729058,0.043563887476921,-0.0472502261400222,-0.0130057875066995,0.1341651123203337,0.2433052197284997,-9.794164570569992,14910.0
10.5,1.600000023841858,331.0,21.888351440429688,21.692440032958984,-79.94648497520492,40.443469019109656,245.5908048000336,0.0101017011329531,-0.0153828589245677,-0.1136097237467765,0.9933550357818604,0.0210003995673603,-0.1939230659531122,-0.0059828131530054,-0.0497430376708507,-0.0338767245411872,0.0508380830287933,0.127257440155372,0.2158336301520466,-9.699419211745262,14910.0
10.7,1.5,328.0,21.775665283203125,22.511472702026367,-79.9464850039197,40.44346884142374,245.58968923950195,0.0119163459166884,-0.0159158669412136,-0.1166365817189216,0.9929757118225098,0.0065734487295793,-0.1975369744036624,-0.0051301964709628,-0.1091378033161163,-0.0047500049695372,0.0942953005433082,0.1830509597808122,0.1780231948569417,-9.814662569761277,14910.0
10.81,1.5,327.0,21.97223854064941,20.475818634033203,-79.94648504726536,40.44346866086504,245.58923338317868,0.0135841974988579,-0.0164620485156774,-0.1199146956205368,0.992554783821106,0.0055762322418063,-0.2081681290228416,0.0073297008377593,-0.0252209454774856,0.0336871482431888,0.0394274964928627,0.2263044036738574,0.1744047916308045,-9.882714804410933,14910.0
11.0,1.5,324.0,21.85078811645508,20.91316604614257,-79.94648501828536,40.443468158626494,245.58620487117767,0.013412688858807,-0.0160779692232608,-0.124101236462593,0.992048680782318,0.0116076294702272,-0.1924317753484301,0.0164289440267573,0.0492648743093013,-0.0082000559195876,-0.0141172455623745,0.2019866377674044,0.166006819512695,-9.886080461740494,14910.0
11.1,1.5,321.0,21.855796813964844,20.865455627441406,-79.94648546817041,40.44346726966445,245.5853432264328,0.0131241893395781,-0.0134843103587627,-0.1246019750833511,0.9920284152030944,-0.0122268120925682,-0.248688344809205,0.0165504437008165,0.0847289189696312,0.0824926942586898,-0.0834413990378379,0.1539424421824514,0.1789781365357339,-9.861084784269334,14910.0
11.2,1.600000023841858,325.0,21.875829696655277,21.74015045166016,-79.94648556643536,40.443467055929055,245.585850938797,0.0119165489450097,-0.0129676992073655,-0.1236475631594658,0.9921699166297911,-0.0190768936172031,-0.2563489591095724,0.0082163724355823,0.0669240057468414,-0.035196378827095,0.0802242159843444,0.1320879985950887,0.0960205269232392,-9.748080325126647,14910.0
11.4,1.7000000476837158,324.0,21.8282527923584,21.994606018066406,-79.94648600307903,40.443466291340926,245.5836762037277,0.007855150848627,-0.01265624538064,-0.1207608580589294,0.9925699234008788,-0.0287453609282903,-0.2798779224629742,-0.0008003212641503,0.0989533364772796,0.0926770865917205,-0.0517333671450614,0.1051712092850357,0.3069820742681622,-9.753748031258583,14910.0
11.5,1.7999999523162842,330.0,21.85204124450684,21.962799072265625,-79.94648630541191,40.44346564548204,245.5825818624496,0.0092765223234891,-0.0139958467334508,-0.1200299561023712,0.992628276348114,-0.047118406508479,-0.3080878201037951,-0.0060662897169948,-0.0260495524853468,0.0803242102265358,0.081121064722538,0.0448114070948213,0.1238848301209509,-9.763421080112458,14910.0
11.7,1.8999999761581416,329.0,21.94344139099121,21.207380294799805,-79.94648667625073,40.44346483792869,245.5835931148529,0.010616261512041,-0.0178214330226182,-0.1216696053743362,0.9923539161682128,-0.049802319516237,-0.3191959373134337,-0.0110716080045258,-0.0058682281523942,-0.0836512222886085,0.0855346992611885,0.1050978906825184,0.1927683378383517,-9.76288430571556,14910.0
11.8,1.8999999761581416,330.0,21.90963554382324,20.54738426208496,-79.94648682532993,40.443464569782,245.58005128765103,0.0069527411833405,-0.0171089321374893,-0.1231420785188674,0.9922172427177428,-0.0599280574739266,-0.3203919903905184,-0.0409636731238042,0.0006508152582682,-0.1424885541200637,-0.037004716694355,0.1891582303494215,0.3412432131171227,-9.572757411003114,14910.0
12.0,2.0,334.0,21.93592834472656,20.8813591003418,-79.94648728753013,40.44346371398375,245.57333145999908,-0.0006353221251629,-0.0150034232065081,-0.1250582784414291,0.9920358061790466,-0.0631263537398301,-0.3268625697272813,-0.0900388385853132,0.0393765531480312,-0.0768542885780334,0.0310062430799007,0.1492005695588887,0.4349351229518652,-9.54640167117119,14910.0
12.1,2.0999999046325684,337.0,21.790691375732425,21.676536560058597,-79.94648745392037,40.44346344835344,245.56366215610504,-0.0031252845656126,-0.0138257937505841,-0.1254550516605377,0.9919981360435486,-0.0708795384729467,-0.313835220257108,-0.0930248697659172,-0.014932282269001,-0.0902662947773933,-0.0058913980610668,0.1085025050863623,0.4092712549120188,-9.74165774345398,14910.0
12.3,2.200000047683716,339.0,21.88083839416504,21.33460998535156,-79.94648774644907,40.44346283041947,245.55674026870727,-0.0041762748733162,-0.012814961373806,-0.1267264634370803,0.9918461441993712,-0.0690693138824005,-0.2665957385705616,-0.0937757442801101,-0.0378153175115585,-0.0510832965373992,0.0509709827601909,-0.040361200897023,0.2855010119453072,-9.751789798736572,14910.0
12.4,2.5,343.0,21.76189422607422,22.495569229125977,-79.94648789857334,40.443462620602496,245.5470508184433,-0.0061909472569823,-0.0140766249969601,-0.1267021745443344,0.9918216466903688,-0.0769856494781841,-0.2494519506706325,-0.0950602316354763,-0.0575605854392051,-0.1358910948038101,0.0700615420937538,0.0218734607426449,0.1760922980681062,-9.776151638031006,14910.0
12.6,2.400000095367432,347.0,21.7844295501709,23.0203857421875,-79.94648824459563,40.443462127856186,245.5423698272705,-0.0067532332614064,-0.0121599594131112,-0.128629446029663,0.9915952086448668,-0.0747512862073579,-0.2010281000183869,-0.0819345843458631,0.0109963649883866,0.0224019195884466,0.0210735891014337,0.010924506036099,0.3084413565695286,-9.756588023900989,14910.0
12.7,2.5,349.0,21.803211212158203,22.51942443847656,-79.94648835508916,40.44346178491167,245.54106007480615,-0.0057905158028006,-0.0106030469760298,-0.1303420811891555,0.9913955330848694,-0.0645503033783625,-0.1649389711572088,-0.0625469654447903,0.0092526143416762,0.0349720306694507,-0.0040003168396651,0.0719663105579093,0.2934989979676902,-9.84890854239464,14910.0
12.9,2.400000095367432,350.0,21.843276977539062,22.6227970123291,-79.94648858234774,40.44346154735872,245.5314831581116,-0.0051135146059095,-0.0095490831881761,-0.1328550428152084,0.9910763502120972,-0.0649561084244445,-0.1296973348047712,-0.0333524220102094,-0.0443782545626163,-0.0189550630748272,0.0447812639176845,0.0983867489174008,0.2278696667589247,-9.954539662599563,14910.0
13.0,2.400000095367432,348.0,21.875829696655277,21.39027214050293,-79.94648860352798,40.44346116180539,245.5224140729904,-0.0052122976630926,-0.0091448631137609,-0.1337125897407531,0.9909642934799194,-0.0443148215486349,-0.1074611761724551,-0.0178163318360523,-0.0721271932125091,-0.0085044298321008,0.0349558293819427,0.0637220060080289,0.2724232573248446,-9.937331306934356,14910.0
13.21,2.299999952316284,343.0,21.90087127685547,20.277023315429688,-79.94648872466384,40.44346103794892,245.51916585826876,-0.0089139686897397,-0.0054547013714909,-0.1330989450216293,0.9910476803779602,-0.0331443100116127,-0.0381596274105698,-0.0303035058987412,-0.1011678725481033,-0.1735620647668838,-0.0328731425106525,0.046693306043744,0.1675190373882651,-9.86551229596138,14910.0
13.3,2.299999952316284,344.0,21.89711570739746,21.12786293029785,-79.94648885738587,40.44346072931259,245.4996069517136,-0.0238537099212408,-0.0070378421805799,-0.1321882158517837,0.990912675857544,-0.0293396609496254,0.0276722685858614,-0.0893030744411858,-0.1435537785291671,-0.3779765963554382,-0.0171606354415416,0.3242692942544818,0.1397081539873033,-9.474691418409348,14910.0
13.5,2.299999952316284,345.0,21.70555114746093,23.43387794494629,-79.946489002405,40.443460409359005,245.47810350322723,-0.0545957759022712,-0.0061461441218853,-0.1302110403776168,0.9899629950523376,-0.0172807084306344,0.1524316098864628,-0.0185939390541456,0.022927913814783,-0.0392047278583049,-0.0680051371455192,0.0830160452239215,0.1429251549951732,-9.794241753816603,14910.0
13.7,2.299999952316284,344.0,21.76690101623535,22.69436264038086,-79.94648896346908,40.44346058792093,245.47767542266843,-0.0525506921112537,-0.0051673641428351,-0.1298346370458603,0.9901286959648132,-0.0198520923319459,0.2540214665536516,0.0470136723248309,-0.0292536709457635,0.0815839171409607,0.0090988520532846,-0.041446809573099,0.2939734812453389,-10.2755120408535,14910.0
13.8,2.200000047683716,337.0,21.83576393127441,21.104007720947266,-79.946488950801,40.44346065671981,245.47311447525024,-0.0416743606328964,-0.0044764303602278,-0.1294507682323455,0.9906996488571168,-0.0044386061956738,0.4148717653205602,0.07555809918982,0.1072704792022705,0.049499325454235,0.0327148362994194,0.0620066613424569,0.1414166099019348,-10.16937104344368,14910.0
13.9,2.0999999046325684,333.0,21.954710006713867,19.47389411926269,-79.9464888148173,40.44346106692807,245.4762074794769,-0.0406218096613884,-0.003840543096885,-0.1294531673192978,0.990745723247528,-0.0008912341633445,0.5097461444324067,0.0594776507366347,0.0670517608523368,-0.0166748352348804,0.1342042833566665,0.1647584755159914,0.1711937200650573,-9.723845370411873,14910.0
14.1,2.0999999046325684,330.0,21.832008361816406,22.7977352142334,-79.94648860655202,40.4434616025215,245.4636407938004,-0.0388875342905521,-0.0049273185431957,-0.1302805095911026,0.9907020926475524,0.0222230858341407,0.654012855825751,0.0467457095555417,0.0712546110153198,0.0873468965291976,-0.0150160454213619,0.1855264698900282,0.2381975124031305,-9.722133305668832,14910.0
14.2,2.299999952316284,330.0,21.823244094848643,21.946895599365234,-79.94648837329323,40.443462211457046,245.46339629554748,-0.0396231077611446,-0.0061950576491653,-0.1300576627254486,0.9906949996948242,0.0161140140577732,0.7491361120539587,0.0547092444461307,-0.1003760173916816,0.0220790077000856,-0.0300455875694751,0.1460050205234438,0.2333350775018334,-9.810205821990968,14910.0
14.4,2.299999952316284,334.0,21.86831855773925,21.08015251159668,-79.94648805569294,40.44346304005607,245.4454637613296,-0.0428588539361953,-0.0081700896844267,-0.1284987181425094,0.9907494783401488,0.0138231277076465,0.8887807693137696,0.0278393336362935,-0.0958709940314292,-0.0125081315636634,-0.084892950952053,0.1397130875755101,0.2849401908740401,-9.741205753684042,14910.0
14.5,2.5,336.0,21.849536895751957,21.28689956665039,-79.94648788152594,40.44346322330937,245.4284462776184,-0.0411125719547271,-0.0104158334434032,-0.127308964729309,0.9909560084342957,0.0088900099327414,0.9159332438536816,0.008395325459775,-0.1979813426733017,0.0834957957267761,-0.2027122676372528,-0.0141650900524109,0.43323606826365,-9.611547254920008,14910.0
14.71,2.5,339.0,21.84077262878418,22.37629127502441,-79.94648712231533,40.443464622855664,245.4158217754364,-0.0269633196294307,-0.0126707144081592,-0.12771937251091,0.9913628101348876,0.0563996890444968,1.0238387528783572,0.0001186515331266,0.2186086624860763,0.2989950478076935,-0.0396688617765903,-0.1197510679252445,0.2951109291426838,-9.701934099197386,14910.0
14.8,2.5999999046325684,343.0,21.6817626953125,23.680383682250977,-79.94648676065415,40.44346551921655,245.410198554039,-0.0150655480101704,-0.0066297929733991,-0.1288595497608184,0.9915262460708618,0.0441835686862843,1.046915671258927,0.0121415915786899,0.1906817555427551,0.3413393795490265,0.1056820079684257,-0.1773325838707387,0.1266221767198294,-10.045579640865329,14910.0
15.0,2.799999952316284,347.0,21.85204124450684,22.29677391052246,-79.94648580129305,40.44346712288146,245.40010820293423,0.0143547821789979,-0.0033431558404117,-0.1318987160921096,0.9911536574363708,0.0646016830869004,1.0474263171278475,-0.0192362679552054,-0.1299932301044464,0.2165480107069015,0.0145132346078753,-0.2181580445542932,0.0208714718185365,-10.01276740550995,14910.0
15.2,2.900000095367432,355.0,21.739356994628903,23.38616752624512,-79.94648541547646,40.443467993382896,245.3986018743515,0.024924511089921,-0.0078663676977157,-0.1317285001277923,0.9909412860870358,0.0653096579527584,0.9939684513280044,-0.0404524459824445,-0.0750571861863136,0.1850267648696899,-0.0155466627329587,-0.1368626795802265,0.0982056040037423,-9.844469336271288,14910.0
15.3,2.900000095367432,358.0,21.790691375732425,22.074125289916992,-79.9464845513328,40.4434696055889,245.39176629447937,0.0423787795007228,-0.0104242470115423,-0.1320817023515701,0.9902776479721068,0.0810210641281861,0.8764084430236447,-0.0618691548791354,-0.0557057410478591,0.0177006255835294,0.0022884064819663,-0.1110743298009038,0.2766272957436741,-9.876828997135163,14910.0
15.4,2.799999952316284,15.0,21.818235397338867,22.7977352142334,-79.94648418932407,40.44347030700993,245.39130197429657,0.0454524718225002,-0.0076859262771904,-0.1321247518062591,0.9901606440544128,0.0889791396417271,0.7890095918668284,-0.0787726744446571,-0.0133424429222941,-0.0441194400191307,0.0183055102825164,-0.0073455966403707,0.1100497879832983,-9.760315039157868,14910.0
15.6,2.799999952316284,21.0,21.78818702697754,22.026412963867188,-79.94648335438788,40.44347156400082,245.37462948226928,0.0335490256547927,-0.00339883309789,-0.134049966931343,0.9904007911682128,0.1147559054334068,0.6651453846119073,-0.0835771009875678,0.0433112904429435,-0.2781600952148437,0.0700586512684822,0.0754524068254977,0.0048817261448129,-9.799311289787292,14910.0
15.7,2.700000047683716,29.0,21.76189422607422,22.7977352142334,-79.94648291148403,40.4434722634444,245.36630760097503,0.0240285340696573,-0.0018715880578383,-0.1346480250358581,0.9906004071235656,0.1228660955947767,0.6600416939904172,-0.0838992645542825,0.0080637848004698,-0.1911819577217102,-0.0513463094830513,0.0044816897995769,0.0944120127148926,-9.72771096467972,14910.0
15.9,2.5999999046325684,31.0,21.72808837890625,23.20327568054199,-79.94648222738097,40.44347326301542,245.3603471364975,0.0161211378872394,-0.0001917145127663,-0.1346296966075897,0.9907647967338562,0.147834186505838,0.5644872563739571,-0.0309774384263034,0.1251759827136993,0.0521934777498245,0.0857875943183898,-0.0993927166890353,-0.0354091025982052,-9.8949857711792,14910.0
16.1,2.5,29.0,21.6279239654541,24.077970504760746,-79.94648205624937,40.44347363362722,245.3549816455841,0.0180413536727428,-0.0003801467246375,-0.1345016807317733,0.9907491207122804,0.1315643393880252,0.5514565638840634,-0.0107488617977455,0.0382897593080997,0.0237822066992521,-0.0168194063007831,-0.0363879310665652,0.0469331469526514,-9.965070497989656,14910.0
16.2,2.400000095367432,29.0,21.72808837890625,23.05219268798828,-79.9464814168978,40.4434744647276,245.3622615184784,0.0217829439789056,-0.0003489424998406,-0.1330923736095428,0.9908641576766968,0.1503538850030977,0.4816889190871192,0.0442668354663818,0.0878031402826309,0.0144439097493886,-0.0245764888823032,0.1529832704085856,-0.1735702477768063,-10.159916095733642,14910.0
16.4,2.200000047683716,33.0,21.72933959960937,22.630748748779297,-79.94648112607062,40.44347462726157,245.35065840148928,0.0202603470534086,-0.0004027804825454,-0.1321660727262497,0.9910205006599426,0.1608197762226603,0.4559262620705286,0.0433077479628203,0.083970196545124,-0.0607809387147426,0.0569447055459022,0.1037492029834538,-0.1593894707411527,-9.96392093539238,14910.0
16.5,2.0999999046325684,36.0,21.776918411254886,22.75002479553223,-79.94648059508229,40.44347520232264,245.3471127595901,0.0160337407141923,-0.0006947521469555,-0.1322323381900787,0.9910888671875,0.1517573885569517,0.4186963042048849,0.0578703852271294,-0.1233236491680145,-0.063275933265686,-0.0436316989362239,0.0444137187721207,-0.0487985640624538,-9.8870394051075,14910.0
16.7,1.7999999523162842,39.0,21.723079681396484,23.664478302001957,-79.9464802860995,40.44347550968576,245.3544090833664,0.0162359252572059,-0.0007486214162781,-0.132985308766365,0.9909847974777222,0.1558198949368977,0.3858758462018336,0.0650277802139122,-0.1165001690387725,0.0208535883575677,-0.0491128079593181,-0.0059460153244435,0.1409061479754746,-9.868812464475631,14910.0
16.8,1.7000000476837158,39.0,21.6917781829834,23.608816146850582,-79.94647965238528,40.44347594226229,245.35542271995544,0.0190076436847448,-0.0013782904716208,-0.1350671350955963,0.9906532168388368,0.1839639960670182,0.3478511730743035,0.0816273813010265,0.1034973040223121,0.0620703734457492,0.0613460391759872,0.0326824157475493,-0.1559818048216402,-9.941577554941178,14910.0
16.9,1.600000023841858,40.0,21.73810386657715,22.72616958618164,-79.94647934372426,40.443476206726736,245.365820511818,0.0187050849199295,-0.0016458007739856,-0.1362133026123047,0.990501582622528,0.1776967716690908,0.3251761559822357,0.0996581094089541,0.0082087572664022,-0.0614576637744903,0.0047431788407266,0.0966161206550896,0.0319072188483551,-9.960606733560562,14910.0
17.1,1.600000023841858,40.0,21.864561080932614,19.720399856567383,-79.94647896852706,40.44347625913267,245.3689179267884,0.0165471155196428,-0.0040791896171867,-0.1382498145103454,0.990250825881958,0.1624652878597558,0.2537598581747077,0.0993924422240829,-0.0796836465597152,-0.0521649345755577,-0.0389500819146633,0.0496309745963662,0.0015828641178086,-9.951611377000804,14910.0
17.2,1.5,43.0,21.801958084106445,23.33050537109375,-79.94647876603729,40.44347624406017,245.356186255455,0.0162467416375875,-0.0055640544742345,-0.1387948989868164,0.990172266960144,0.1613557191951466,0.2362689888864645,0.0543596562256264,-0.0833095014095306,0.0218715853989124,-0.0356971658766269,0.0924773700535297,0.0980338237714022,-9.64329120397568,14910.0
17.4,1.399999976158142,44.0,21.76439666748047,22.439905166625977,-79.94647826177022,40.443476538497855,245.36590670013427,0.0134408771991729,-0.0064402003772556,-0.1396221965551376,0.9900927543640136,0.1575477311865375,0.1887513954952596,0.0257285353055298,0.0612267032265663,-0.0261145681142807,0.0025298178661614,0.0946038744784891,-0.0552675580093637,-9.668918380737304,14910.0
17.6,1.399999976158142,43.0,21.796951293945312,21.597017288208008,-79.94647815506855,40.44347642907407,245.36092744731903,0.0129182888194918,-0.0057931109331548,-0.1400634944438934,0.9900413155555724,0.1444225415908735,0.1681628467316419,0.0197367318612609,0.01443128939718,-0.0134019637480378,0.0373843573033809,-0.0140776467695832,0.0077626355923712,-9.718736658096311,14910.0
17.7,1.399999976158142,44.0,21.709306716918945,22.90906143188477,-79.9464777583603,40.44347645587392,245.36015723609924,0.0171102546155452,-0.0056266994215548,-0.1401517540216446,0.9899662733078004,0.1357733167401591,0.1254772837319095,0.0073305481974342,0.037119124084711,0.1019560098648071,0.0563044138252735,0.0614507967000827,0.035034053963609,-9.701894922852516,14910.0
17.8,1.2999999523162842,45.0,21.743112564086918,22.52737617492676,-79.94647757412942,40.443476517533774,245.36114476585388,0.0222957227379083,-0.0061931293457746,-0.1396229863166809,0.9899343252182008,0.1410145042779427,0.0883698838331923,0.0006645457404822,0.1309520900249481,0.1955573409795761,0.0690668374300003,0.1001770201697945,-0.1532390404120087,-9.75268325328827,14910.0
18.0,1.2999999523162842,44.0,21.801958084106445,21.676536560058597,-79.94647751489146,40.4434762585315,245.3770510997772,0.029402706772089,-0.0083177061751484,-0.1388243436813354,0.98984557390213,0.1057233411989881,0.0079166734489957,0.0134236909282084,0.0448679327964782,-0.0216727964580059,0.0083530163392424,0.1937958032637834,-0.1329387136548757,-9.783051352500916,14910.0
18.2,1.2000000476837158,44.0,21.74186134338379,21.77195739746093,-79.94647740750196,40.443476224989794,245.3777334537506,0.0275538694113492,-0.0094798356294631,-0.138163611292839,0.9899807572364808,0.090992535144785,-0.027706012686819,0.0006653818883293,-0.0402371287345886,-0.1247964724898338,-0.0543223060667514,0.2313301037997008,0.0851804195065051,-9.661054460406303,14910.0
18.3,1.2000000476837158,45.0,21.791942596435547,21.899185180664062,-79.94647741748186,40.443475831722,245.37707696819305,0.0199764762073755,-0.0086043328046798,-0.1374057084321975,0.9902760982513428,0.0677620050225043,-0.100789316929942,-0.0190790728508669,0.0048772310838103,-0.0770596265792846,0.0097745712846517,0.1156105083413422,0.0606253434391692,-9.650162851810457,14910.0
18.4,1.100000023841858,47.0,21.76439666748047,22.14569091796875,-79.94647738043223,40.4434757166514,245.37410174274444,0.0181750636547803,-0.0072334725409746,-0.13665471971035,0.9904255867004396,0.0572093773335207,-0.128582539528249,-0.0301727587967773,-0.0325771607458591,-0.0118002202361822,0.0022918835747987,0.0806443780101835,0.0322707923222333,-9.664385034441947,14910.0
18.61,1.0,48.0,21.6917781829834,23.48158836364746,-79.94647738655716,40.44347518518035,245.3680924024582,0.0165060088038444,-0.0066762063652276,-0.1351433396339416,0.9906660914421082,0.0464962583905924,-0.1675954920708235,-0.0170483658258211,-0.0490281321108341,-0.0417814925312995,-0.0366012118756771,0.1398029976524412,-0.0177093524113297,-9.763704670071602,14910.0
18.8,1.0,50.0,21.710559844970703,22.37629127502441,-79.94647745149713,40.44347477396297,245.3628239479065,0.0149419791996479,-0.0073863053694367,-0.134564459323883,0.9907646775245668,0.030806256148606,-0.184999373602698,0.0026413579076626,-0.1450315564870834,-0.0636305510997772,-0.0486568473279476,0.0674115625396371,0.1362588540650904,-9.852844887971877,14910.0
18.9,1.0,49.0,21.785682678222656,21.000635147094727,-79.94647751223576,40.443474411793495,245.36290214920044,0.0121611766517162,-0.0117877395823597,-0.133756399154663,0.9908695220947266,0.0201721418376454,-0.2176942503845153,0.0091755851812722,0.0062285675667226,0.0413659587502479,0.0342646650969982,0.2033593081869185,0.0443318805936724,-9.906452161073686,14910.0
19.0,0.8999999761581421,51.0,21.78067398071289,21.80376434326172,-79.94647763992721,40.443473994615815,245.3550778474808,0.0115424441173672,-0.0124636739492416,-0.134100079536438,0.9908222556114196,0.0014000486099403,-0.2227494043572473,0.0008136313583036,-0.040022499859333,0.0115129221230745,0.0246500670909881,0.1270170739106834,0.0616214440343901,-9.743861559033396,14910.0
19.2,0.8999999761581421,54.0,21.710559844970703,22.81363868713379,-79.94647780140137,40.443473598750046,245.35256729984283,0.008531336672604,-0.0091363294050097,-0.1362601220607757,0.9905943274497986,-0.0231339953854795,-0.2401186901418311,-0.0047365334697275,0.0527864396572113,-0.0644024908542633,-0.0040764650329947,0.1517897714674473,0.0763006322504952,-9.7175069886446,14910.0
19.3,0.8999999761581421,59.0,21.75563240051269,21.55725860595703,-79.9464780481821,40.44347310139611,245.34809277915957,0.0065706809982657,-0.0075124315917491,-0.1378640979528427,0.9904009103775024,-0.0476387445413373,-0.2476045520765259,0.007820623023066,-0.0604989677667617,-0.1277529597282409,0.0142579190433025,0.1062841262854635,0.0773749073781073,-9.84858343720436,14910.0
19.5,0.8000000119209291,59.0,21.74186134338379,22.511472702026367,-79.94647817932874,40.44347289213953,245.34829257392883,0.0051251263357698,-0.0066238222643733,-0.1395198106765747,0.9901838302612304,-0.0605403343613823,-0.2506150337220573,0.0103866730498704,-0.1165554150938987,-0.0688816532492637,-0.0705469027161598,0.1029014480765909,0.2219753262028098,-9.840038316249847,14910.0
19.61,0.8999999761581421,60.0,21.769405364990234,22.400146484375,-79.94647848724644,40.44347212242203,245.3441129770279,0.0040650805458426,-0.0051298653706908,-0.1422067582607269,0.9898154139518738,-0.049565667307388,-0.2650368880468146,0.0205694140118186,0.0240347310900688,-0.0294576045125722,0.0219828523695468,0.1562805427238345,0.0547245983546599,-9.849088636636736,14910.0
19.8,0.8999999761581421,56.0,21.775665283203125,21.87532997131348,-79.94647898341016,40.44347146015086,245.3388005342484,-0.0002474941429682,-0.0054357857443392,-0.1440238952636718,0.9895592331886292,-0.0754352515393247,-0.2553361446792414,0.0249456292764656,-0.0283425711095333,-0.0871748626232147,-0.0047123334370553,0.1665539909899235,0.0396683149784803,-9.837250363826753,14910.0
19.9,1.0,54.0,21.756885528564453,22.121835708618164,-79.94647915309164,40.44347126163397,245.3413325395584,-0.0024083575699478,-0.0056183035485446,-0.1441688239574432,0.9895342588424684,-0.0871941603751435,-0.2450299496804849,0.0306134311182686,-0.1178037300705909,-0.0654862746596336,-0.0532844141125679,0.0703906732331961,0.1708764172531664,-9.831407825946808,14910.0
20.1,1.0,50.0,21.815731048583984,21.024490356445312,-79.94647953005371,40.44347062393399,245.3353831615448,-0.0029924863483756,-0.0054416954517364,-0.1430568993091583,0.9896950721740724,-0.0859215418967054,-0.2275154258449341,0.0290740822971075,-3.728235242306255e-05,-0.0310150943696498,0.0142695857211947,0.0820674806647002,0.1215306040551513,-9.8788591504097,14910.0
20.3,1.0,46.0,21.789438247680664,21.35846519470215,-79.94647985448512,40.4434701127507,245.3241799917221,-0.0030441789422184,-0.005371986888349,-0.1422773897647857,0.9898076057434082,-0.0973741153484605,-0.2238370691101261,0.0112026104334141,-0.0309018902480602,-0.0835019275546073,-0.0287767518311738,0.0703871283587068,0.1446495993901044,-9.700830729603767,14910.0
20.4,0.8999999761581421,45.0,21.80821990966797,21.72424697875977,-79.94648021202481,40.44346980159585,245.32273136043548,-0.0064075808040797,-0.0035648385528475,-0.1413081139326095,0.9899385571479796,-0.0972976217435183,-0.1909099615097277,-0.0317549396412256,0.0248857047408819,-0.0120915407314896,-0.040085032582283,0.0356880284892395,0.1837605376727879,-9.627866833806037,14910.0
20.6,1.0,43.0,21.789438247680664,22.392194747924805,-79.94648049246459,40.44346937908053,245.3148515071869,-0.0076374602504074,-0.0033165807835757,-0.140717551112175,0.9900147914886476,-0.1072941347561777,-0.1773683640612837,-0.0367770276189278,0.0005095249507576,-0.0423145294189453,-0.0210456885397434,0.0155804462882224,0.0478584140120074,-9.677865205407144,14910.0
20.7,1.0,42.0,21.7205753326416,22.17749786376953,-79.94648066747503,40.44346926049944,245.31091617012024,-0.0073434179648756,-0.0031750933267176,-0.1402281820774078,0.9900869131088256,-0.1135331855391235,-0.154394797754637,-0.0402370817275704,-0.0586312115192413,-0.0492422133684158,-0.0410762540996074,-0.0040772726107388,0.2172778558731079,-9.725304835438733,14910.0
20.8,1.0,38.0,21.743112564086918,22.59099006652832,-79.94648095991599,40.44346883712529,245.3047284927368,-0.0057492419146001,-0.0029915201012045,-0.1396653056144714,0.9901776313781738,-0.112876471253794,-0.1497608380747066,-0.0274397736520657,-0.0434664860367774,0.0228311233222484,-0.0729996860027313,0.057753972262144,0.1934332028031348,-9.821875694990158,14910.0
21.0,1.0,38.0,21.74186134338379,22.12978744506836,-79.94648129407089,40.44346865353061,245.29970751667025,-0.0028986560646444,-0.0028378365095704,-0.1394008845090866,0.99022775888443,-0.1055263246233478,-0.1140920672921324,-0.0214596584169897,0.0187607947736978,0.0299696642905473,0.0344242267310619,0.1646724849008023,0.0120732806297019,-9.860093096494673,14910.0
21.1,1.0,35.0,21.756885528564453,22.24906349182129,-79.94648160899175,40.44346822222944,245.29028795623785,-0.003983368165791,-0.0012369150063022,-0.1394127011299133,0.990225613117218,-0.1057994472104723,-0.1138008529001964,-0.0106080552216687,0.0368802584707737,0.0368051677942276,0.0277634281665086,0.1538188283890486,0.0201812171470373,-9.876672291755677,14910.0
21.3,1.0,35.0,21.730592727661133,22.75002479553223,-79.94648191512634,40.44346810340788,245.28717146778104,-0.0090003851801157,0.0026102524716407,-0.1392648518085479,0.9902108311653136,-0.0932268846193952,-0.0677280394884965,-0.0240530624271517,0.0610842518508434,-0.0416987463831901,0.0038287383504211,0.1194802870228886,0.0520756771881133,-9.740011752247812,14910.0
21.4,1.100000023841858,35.0,21.72683525085449,22.11388397216797,-79.94648229337126,40.443467644965466,245.27403257751465,-0.0115398047491908,0.0026651369407773,-0.1391298621892929,0.990203320980072,-0.0901496734462823,-0.0658176313833762,-0.0235291584850488,0.0699166804552078,-0.0156378094106912,-0.0260446239262819,0.1599514247104525,0.042619788441807,-9.838328590393068,14910.0
21.6,1.100000023841858,34.0,21.80070686340332,22.225208282470703,-79.94648262815319,40.443467333542216,245.25869022274017,-0.0125607131049036,0.0029579610563814,-0.1384211629629135,0.9902894496917723,-0.0799251119975291,-0.0119346774248236,-0.0235421348463316,0.0502934679389,-0.0337309278547763,-0.0197625569999218,0.061848220070824,0.031515258969739,-9.81753706097603,14910.0
21.7,1.2000000476837158,37.0,21.753129959106445,21.42207908630371,-79.94648274508593,40.44346710127539,245.2419401254654,-0.0111840134486556,0.0015923486789688,-0.1360089480876922,0.9906432032585144,-0.0617408096234678,0.0444709936201238,-0.0349143200774044,-0.1076389476656913,-0.0343783758580684,-0.082372285425663,0.0464663792587816,0.1091186097543686,-9.755567100048063,14910.0
21.9,1.2000000476837158,39.0,21.77316093444824,22.392194747924805,-79.94648278819238,40.44346716176937,245.2378362264633,-0.0107099702581763,-0.0001460506027797,-0.1343724876642227,0.9908730983734132,-0.0477067604335438,0.0666648619792835,-0.0461855401566631,-0.0052959932945668,0.0365044772624969,0.0250825565308332,0.1049578133225441,-0.0877570955827832,-9.746154837012291,14910.0
22.0,1.2999999523162842,41.0,21.65546989440918,22.77388000488281,-79.94648282267273,40.44346724348724,245.23255024814603,-0.0096689965575933,-0.0014947243034839,-0.1332312822341919,0.9910367131233216,-0.0510893694310833,0.0934367305633869,-0.0570173052511407,-0.0101428581401705,0.032032560557127,0.0813393592834472,0.0259360993257723,-0.0282592095248401,-9.704099907875062,14910.0
22.2,1.399999976158142,43.0,21.763145446777344,20.706418991088867,-79.94648290540862,40.4434671528461,245.21736930274963,-0.0059670098125934,-0.0010806954232975,-0.1347933262586593,0.9908552169799804,-0.0485315191518831,0.1214457791533229,-0.0430239145355116,-0.0055065592750906,-0.0034674785565584,0.0038628648035228,0.0646804468799382,0.0736727610602974,-9.857121541500092,14910.0
22.3,1.5,42.0,21.801958084106445,21.24713897705078,-79.94648292434374,40.44346717288051,245.20422361755368,-0.0017268601804971,0.0010957799386233,-0.1411844193935394,0.9899812936782836,-0.035990722043411,0.1448730108050619,-0.0454984220569846,0.0007534509641118,0.0498468615114688,0.0823213979601859,0.0882912021875381,0.119569621514529,-9.73170753657818,14910.0
22.5,1.600000023841858,43.0,21.736852645874023,21.461837768554688,-79.94648291348456,40.4434673071031,245.1995836343765,-0.0012986494693905,0.0031519506592303,-0.1455172002315521,0.989349901676178,-0.0182520044128785,0.1468931082885953,-0.0438643495198936,0.13094362616539,0.0497982501983642,0.1599943339824676,0.0585100218141451,-0.1541155380383134,-9.893085426092153,14910.0
22.6,1.7000000476837158,45.0,21.74186134338379,22.38424301147461,-79.94648289403905,40.44346733557337,245.18948374652865,-0.0007230762857943,0.0053418669849634,-0.1493172347545623,0.9887746572494508,-0.0104307728198323,0.1708821904713195,-0.0204883743329488,0.039627581834793,0.0836995765566825,0.0489484928548336,-0.0037060269503854,0.070642281663604,-9.953206497430802,14910.0
22.81,1.7999999523162842,44.0,21.829504013061523,20.29292678833008,-79.94648277434555,40.44346755929268,245.17426370048528,0.002049135742709,0.0020334613509476,-0.1508658528327942,0.988550066947937,0.0217020082265147,0.17042448642194,-0.0262627537347908,-0.0131042096763849,0.0195189695805311,-0.0213042702525854,-0.0343442972190678,0.0686122060474008,-9.80450771033764,14910.0
23.0,1.8999999761581416,46.0,21.793193817138672,21.27099609375,-79.94648268609001,40.443467700016605,245.1708952035904,0.0018559850286692,0.0002114677045028,-0.1485649496316909,0.9889009594917296,0.0426939466299661,0.1650478427341888,-0.0455856301712643,0.1130337193608284,0.0819233432412147,-0.0338590741157531,0.0781647017598152,-0.1272266783192754,-9.709107463359834,14910.0
23.1,1.8999999761581416,46.0,21.79444694519043,21.74810218811035,-79.94648269435461,40.44346764348185,245.1620000448227,0.0022082882933318,-0.001121524372138,-0.1457623392343521,0.9893165230751038,0.0273977576838651,0.1708652197813085,-0.0613991663777615,-0.0590769276022911,-0.0036609179805964,-0.09605123847723,-0.0154368229117244,0.1807672200724482,-9.574251374602316,14910.0
23.3,1.8999999761581416,46.0,21.76189422607422,21.70039176940918,-79.94648248610349,40.443467900334895,245.1466266956329,0.0062022400088608,-0.001115083345212,-0.1417213827371597,0.9898865818977356,0.0487707787981941,0.1553836053973291,-0.0814970381733748,-0.0305896531790494,0.035372070968151,-0.0951413512229919,-0.0233284535631537,0.1690785080753266,-9.747057062387466,14910.0
23.4,1.8999999761581416,48.0,21.74060821533203,23.489540100097656,-79.94648218952197,40.44346805876794,245.14192293548584,0.0069832857698202,-0.0012865239987149,-0.1401468366384506,0.9901053309440612,0.0767851580991014,0.1847128488931704,-0.067840122768137,-0.0023737230803817,0.0462567470967769,-0.0132257342338562,0.0613763223588466,0.0497532270848751,-9.796144437789918,14910.0
23.5,1.7999999523162842,43.0,21.72933959960937,22.400146484375,-79.94648204439504,40.44346819774843,245.13562379741668,0.0064972005784511,-0.0012441555736586,-0.1390140056610107,0.990268349647522,0.084417097145168,0.173458597370205,-0.0609921407720557,0.0612998902797699,0.040682952851057,0.0228455439209938,0.0597902514087036,-0.0662646860070526,-9.898226298093798,14910.0
23.7,1.7999999523162842,43.0,21.809471130371094,20.905214309692383,-79.94648192833732,40.44346818218639,245.1359920349121,0.00765100447461,-0.0017271994147449,-0.1376331895589828,0.990452229976654,0.0853743312743075,0.1498332148194212,-0.0012064748333607,0.0648319646716117,0.0180161204189062,-0.0088176811113953,0.0757838480221107,0.0757178612798452,-9.958453788757325,14910.0
23.8,1.600000023841858,36.0,21.74186134338379,22.495569229125977,-79.9464818661746,40.44346816921375,245.121481880188,0.008442155085504,-0.0022731404751539,-0.1377777755260467,0.9904245734214784,0.0791850706557957,0.1496759847775191,-0.0150821475479624,-0.0095579074695706,0.004681774880737,-0.0189525093883276,0.0296292669698596,0.1001507625170052,-9.806877586841583,14910.0
24.0,1.600000023841858,35.0,21.73810386657715,22.137739181518555,-79.94648157759633,40.443468365390295,245.1182172145844,0.0083979768678545,-0.0017919027013704,-0.138955533504486,0.990261435508728,0.0933574867877611,0.1294480569307449,-0.0169171131124116,-0.0275807231664657,0.0458060540258884,-0.0175155196338892,0.0921914503443986,0.1470267300959676,-9.804257449507713,14910.0
24.2,1.5,34.0,21.759389877319336,22.38424301147461,-79.94648112730503,40.44346849867245,245.0960379686356,0.0079561490565538,-0.0020839739590883,-0.1396405547857284,0.9901681542396544,0.1165576509159894,0.1334375205732142,-0.0313395753826184,-0.0409560240805149,0.0162979289889335,0.0723038613796234,0.0720831132587045,0.0640253485925495,-9.786374909877775,14910.0
24.3,1.399999976158142,32.0,21.686769485473643,23.02833747863769,-79.94648095377981,40.44346858967001,245.09257994556427,0.0075794863514602,-0.0047880946658551,-0.1401408612728119,0.99009108543396,0.1250977174197234,0.1235368511523457,-0.0433385666626418,0.0042478190734982,0.0838962942361831,0.0101922461763024,0.1400904157105833,0.0023467434570193,-9.750790509581568,14910.0
24.4,1.399999976158142,24.0,21.71431541442871,21.6129207611084,-79.94648093949742,40.443468431846725,245.07505296134948,0.0073392246849834,-0.007780423387885,-0.1406276226043701,0.99000483751297,0.1175591268393934,0.1077678197527562,-0.0475076781792426,0.05542703717947,0.0786651447415351,0.0391467735171318,0.0820252893492579,-0.0354935628874227,-9.832218250036242,14910.0
24.6,1.399999976158142,21.0,21.6817626953125,22.320629119873047,-79.94648066567719,40.44346823319243,245.0507899370193,0.009891620837152,-0.0062662316486239,-0.1413228511810302,0.9898943305015564,0.1069991779142328,0.0629264229991072,-0.0605470213116593,0.1003094762563705,0.0476298220455646,0.0597137883305549,0.1331793996691704,0.0313247950561344,-9.744251568317416,14910.0
24.7,1.2000000476837158,10.0,21.74812126159668,21.597017288208008,-79.94648052973625,40.44346826254517,245.0451382246017,0.0101841958239674,-0.0059704529121518,-0.1413958817720413,0.98988276720047,0.1041763456408559,0.0559512265713624,-0.0599087735574769,0.0659869015216827,0.0164313651621341,0.0824073925614357,0.1275015888176858,-0.0601783466432243,-9.80411536216736,14910.0
24.9,1.2000000476837158,5.0,21.75563240051269,21.787860870361328,-79.94648043428471,40.44346797735066,245.0322611179352,0.0095110163092613,-0.0073407692834734,-0.1414333134889602,0.9898749589920044,0.1081249003992158,0.0379298000636459,-0.0601067605032535,0.0373727083206176,-0.0072182952426373,0.0658391863107681,0.1753467049822211,-0.028688454539515,-9.780777370333672,14910.0
25.0,1.2000000476837158,359.0,21.70429992675781,22.57508659362793,-79.9464803071834,40.44346798526264,245.02629004383087,0.0082354471087455,-0.0099716940894722,-0.1412362307310104,0.989891529083252,0.1022481674205392,0.0336886485387304,-0.066021331974997,0.0293702520430088,-0.0025437080767005,0.0064700893126428,0.1876107647269964,-4.229181446135045e-05,-9.778880533576013,14910.0
25.2,1.2000000476837158,356.0,21.65171241760254,23.86327362060547,-79.94648000165861,40.44346778228842,245.00931309127807,0.0069372290745377,-0.0145774371922016,-0.1400929540395736,0.9900068044662476,0.0926995550197235,0.0240930359996356,-0.0440058386443197,0.0188750606030225,0.0500183403491973,-0.0028628383297473,0.1273424714617431,0.0254480144195258,-9.916909321546555,14910.0
25.3,1.2000000476837158,353.0,21.706802368164062,21.74810218811035,-79.94647990537383,40.44346778219825,245.0058365907669,0.0078201899304986,-0.0166120659559965,-0.1396948546171188,0.9900243282318116,0.0692844778141006,0.0227215243215693,-0.0286935643414982,-0.0179886780679225,0.0359721556305885,-0.0345588810741901,0.17719745837152,0.1293734013196081,-9.954379448890686,14910.0
25.51,1.2000000476837158,353.0,21.749372482299805,22.0025577545166,-79.94647970905748,40.44346738051389,244.98311518096924,0.0090595576912164,-0.0154736544936895,-0.1386884897947311,0.9901737570762634,0.0398476902834369,0.0042411154073486,-0.0236692981921301,0.1496004164218902,0.034485388547182,0.0386939346790313,0.2337714807875454,-0.0142691430822014,-9.854687930345538,14909.0
25.7,1.2999999523162842,352.0,21.680509567260746,23.227130889892567,-79.9464796812276,40.443467377031325,244.98100326919555,0.0102201513946056,-0.0139446454122662,-0.1385210752487182,0.990208625793457,0.0139283919139792,-0.0001233010422661,-0.0194987629422306,0.0278310608118772,0.0503637343645095,-0.0254435371607542,0.1810071569122374,0.0984832736570388,-9.835104435682297,14909.0
25.8,1.2999999523162842,351.0,21.699291229248047,22.757976531982425,-79.94647970772823,40.44346716057989,244.97363088989255,0.0110454801470041,-0.0139881959185004,-0.1383364498615265,0.9902248978614808,0.0089579653648461,-0.0151814646756088,-0.0072892637457448,0.0721768215298652,0.0899162665009498,0.0015125375939533,0.2264658599160612,-0.0004934775922447,-9.917883467674256,14909.0
25.9,1.2000000476837158,349.0,21.706802368164062,22.63870048522949,-79.94647976149534,40.443467124736536,244.97631297969812,0.0139885880053043,-0.0149520235136151,-0.1385554075241089,0.990143060684204,-0.0371544755300465,-0.0303057947311403,0.0311400581823966,-0.0487593002617359,-0.0452349670231342,-0.054890539497137,0.2152190877869724,0.2262655379623174,-9.928389744758606,14909.0
26.1,1.100000023841858,350.0,21.73810386657715,22.26496696472168,-79.94647984847049,40.44346697601043,244.96650920772552,0.0144153805449605,-0.0133855463936924,-0.1391570568084716,0.9900749325752258,-0.0453805324105433,-0.0363736996788953,0.0395423023441617,0.0073783434927463,-0.0173231177031993,-0.0312321186065673,0.1935185721516609,0.2020560186356306,-9.980362136363985,14909.0
26.2,1.100000023841858,353.0,21.696786880493164,21.33460998535156,-79.94647991983328,40.44346694941241,244.9708752479553,0.0143292546272277,-0.0112140318378806,-0.1399503797292709,0.9899913668632508,-0.0472335269039625,-0.0510598174422791,0.0484412782918584,0.1332215219736099,0.0416505858302116,0.0087204333394765,0.2600642351433634,0.0504388496652245,-9.941590418815611,14909.0
26.4,1.2000000476837158,353.0,21.79820251464844,21.24713897705078,-79.94648021455475,40.44346671398508,244.97151277923584,0.0070144347846508,-0.0077305259183049,-0.1420135349035263,0.9898096919059752,-0.0719226370610237,-0.0645974480442757,0.0414173791220559,0.0474779419600963,-0.0516103580594062,0.0191091112792491,0.1381042261887342,0.0601690276432782,-9.824565414190294,14909.0
26.6,1.2000000476837158,350.0,21.723079681396484,21.86737823486328,-79.94648034672785,40.44346654753053,244.9654630270004,0.0067353197373449,-0.0058982530608773,-0.1421225368976593,0.9898085594177246,-0.0851110010506075,-0.0572132346732334,0.020695459213285,-0.0523960590362548,-0.0507287308573722,-0.0699899122118949,0.0769629344902932,0.2237504677847028,-9.62631322860718,14909.0
26.71,1.2000000476837158,348.0,21.753129959106445,22.14569091796875,-79.94648045384966,40.44346651217886,244.96595881843567,0.0079073766246438,-0.0036984493490308,-0.1417986154556274,0.9898570775985718,-0.0893015867057335,-0.0648322988827914,-0.0038293401908126,-0.0866451635956764,-0.0178709011524915,-0.0488601811230182,0.0713249806361273,0.161353970747441,-9.585763372778892,14909.0
26.8,1.2000000476837158,344.0,21.65546989440918,22.980627059936523,-79.94648066663687,40.44346628479448,244.9626293029785,0.0086132762953639,-0.0027476048562675,-0.1405395567417144,0.9900338053703308,-0.0789820928907733,-0.0714428928780534,-0.0348228475781831,0.031933456659317,0.0090149017050862,0.0010734762763604,0.1679863395541906,0.005802137274295,-9.509425048828128,14909.0
27.0,1.2999999523162842,340.0,21.664234161376957,23.250986099243164,-79.94648109919198,40.44346598290641,244.9512960758209,0.0055955722928047,-0.0030514360405504,-0.1346534937620163,0.9908723235130308,-0.0678437078270327,-0.0679053571674704,-0.1045086324064106,0.0905691757798194,-0.0847750902175903,0.0323272608220577,0.1570922458916902,0.1714831937849521,-9.385631892085076,14909.0
27.2,1.2000000476837158,333.0,21.73810386657715,21.278947830200195,-79.94648119651586,40.44346594713606,244.9407069530487,0.0021611955016851,-0.0019081125501543,-0.1321895569562912,0.9912202954292296,-0.0749586440579885,-0.0570138386393127,-0.1044535960486945,-0.082192562520504,-0.1195906102657318,-0.0927231907844543,0.0425916761253029,0.2020042342320084,-9.625434392094611,14909.0
27.3,1.2999999523162842,327.0,21.753129959106445,21.71629524230957,-79.94648138193828,40.44346578122045,244.9445925798416,0.000675689021591,-0.0018129930831491,-0.1293879300355911,0.9915921688079834,-0.0592727032001899,-0.0426337166647999,-0.0766322678279737,0.0851254612207412,0.0047556622885167,0.1325492262840271,0.151578942798078,-0.2119846456311643,-9.7439691478014,14909.0
27.5,1.2999999523162842,320.0,21.736852645874023,21.65267944335937,-79.946481535392,40.44346575730626,244.92560903692245,0.0011791626457124,-0.0023857539054006,-0.1264132708311081,0.991974115371704,-0.0430531026090828,-0.0180570938126079,-0.1107674156095418,0.1475028097629547,0.1003584563732147,-0.0565393976867198,0.147680302625522,0.1842397352680564,-9.64864432990551,14909.0
27.61,1.399999976158142,318.0,21.69803810119629,22.91701316833496,-79.9464816592102,40.44346548119604,244.9183836426735,0.0004736807313747,-0.0015845821471884,-0.1262906938791275,0.9919918775558472,-0.0471459745393323,-0.0182012934667764,-0.1003839703010576,-0.0640216693282127,-0.0939228609204292,0.0186216831207275,0.1494229282066226,0.0521514991298318,-9.744177308678626,14909.0
27.7,1.5,320.0,21.696786880493164,22.686410903930664,-79.9464817050187,40.44346547962439,244.90823559427255,-0.0015879581915214,-0.0009905806509777,-0.1274271458387375,0.9918462634086608,-0.0447617403325019,-0.0021483728713575,-0.0976479074143393,-0.118840180337429,-0.1491961032152176,0.0058780200779438,0.0760266719246283,0.2979287389107049,-9.772418775558473,14909.0
27.9,1.5,317.0,21.63543701171875,24.23700714111328,-79.94648166597095,40.44346550991753,244.89462707901,-0.0048227924853563,-0.001153890043497,-0.1298716664314269,0.9915184378623962,-0.0158240906156283,0.0606186036839335,-0.0635380819994176,-0.1397537738084793,-0.0304261278361082,-0.1469556987285614,0.1198623112030327,0.2902470324374736,-9.903226836919783,14909.0
28.0,1.600000023841858,326.0,21.770658493041992,21.87532997131348,-79.94648165474753,40.44346557020541,244.8887502398491,-0.0048258313909173,-0.0021761821117252,-0.1317734271287918,0.9912657737731934,-0.0043864898237986,0.0734281539559385,-0.0468655182058507,0.037061933428049,0.0699781775474548,0.1280641853809356,0.0296605587098747,0.0387555006612092,-9.982136181592944,14909.0
28.2,1.7000000476837158,334.0,21.68802261352539,21.70039176940918,-79.94648165639505,40.44346555307815,244.8865898694992,-0.0052717989310622,-0.0080352704972028,-0.1357822865247726,0.990692138671875,-0.0159737753866845,0.1025401793806987,0.0156068259021953,-0.0296735633164644,0.0932915210723877,-0.093104176223278,0.013715017758077,0.2437995469942689,-10.043733090162275,14909.0
28.4,1.7999999523162842,344.0,21.753129959106445,21.41412734985352,-79.94648177725968,40.44346530451927,244.882672235012,0.0010764478938654,-0.0122293578460812,-0.1408950686454773,0.9899484515190125,-0.0466703931783912,0.0689190647438302,0.0330198648791844,-0.148004949092865,-0.0096917757764458,0.0349506139755249,-0.0512229886930435,0.3092222887650132,-9.860973687171937,14909.0
28.5,1.8999999761581416,347.0,21.710559844970703,21.51749992370605,-79.94648179584527,40.4434653734706,244.8849164094925,0.0037011113017797,-0.0105733396485447,-0.1445800811052322,0.9894296526908876,-0.0298438713158656,0.0658819995902622,0.013382264996489,0.2145740836858749,0.1192241534590721,0.1690898686647415,0.0620677967229858,-0.032195413489826,-9.753121794462205,14909.0
28.6,2.0,0.0,21.769405364990234,21.4379825592041,-79.94648187510909,40.44346507604632,244.86233322286608,0.0038350203540176,-0.0065506184473633,-0.1487131714820861,0.9888512492179872,-0.0429937933319004,0.0393563050972421,-0.0300442184904372,-0.0123166004195809,-0.1140207797288894,0.1031319200992584,0.0537038389546796,0.1574211152270436,-9.65119313120842,14909.0
28.8,2.0999999046325684,3.0,21.64294815063477,23.21122741699219,-79.94648196178352,40.44346498042181,244.8466860499382,0.0013986276462674,0.0002871002361644,-0.1600241810083389,0.987112045288086,-0.0035476359544429,0.0218049390399763,-0.0520640816065814,0.0465383902192115,0.0649362131953239,0.1077255234122276,-0.0227003346942365,0.0188526657968759,-9.727868839502335,14909.0
28.9,2.0999999046325684,11.0,21.666736602783203,22.686410903930664,-79.94648196477294,40.44346500659257,244.8424267020225,0.0005066936719231,-0.0013541312655434,-0.1614793539047241,0.9868751168251038,0.0032551906476522,0.0269563493137554,-0.0362110443062348,0.005577181931585,-0.0421221517026424,0.0091410493478178,0.0165423029847443,0.1316620472073555,-9.896626499891283,14909.0
29.1,2.0999999046325684,13.0,21.72933959960937,21.620872497558597,-79.94648210992445,40.443464747878,244.83912377023697,-0.0009771649492904,-0.0028244908899068,-0.1620292663574218,0.9867814779281616,-0.0015517924724526,0.0036457583644824,-0.0277819744918172,-0.0386958569288253,-0.072091095149517,-0.0163195636123418,-0.0093359979847446,0.2270256211794913,-9.859756296873092,14909.0
29.2,2.200000047683716,13.0,21.652965545654297,22.46376037597656,-79.94648207833583,40.44346474757311,244.8329323973656,-0.0018700009677559,-0.0005148543277755,-0.1600430160760879,0.9871081709861756,0.0092430794142478,0.0096997365510352,-0.0306267155858887,-0.1432680338621139,-0.0298237036913633,-0.1305079013109207,-0.0646719318721443,0.3474862852692604,-9.73901304781437,14909.0
29.4,2.200000047683716,12.0,21.6817626953125,22.83749389648437,-79.94648210578214,40.44346462371021,244.82479082012176,-0.0011226098285987,-0.0011086986633017,-0.1571895033121109,0.9875672459602356,0.0170502373056242,0.0160462163323036,-0.0577406633712083,-0.1465752720832824,-0.0353209190070629,-0.114295057952404,-0.0265758829331025,0.2162522177025676,-9.585111992955207,14909.0
29.51,2.5,12.0,21.72433280944824,21.85942649841309,-79.94648205958235,40.44346462935489,244.817933365345,-0.0021801206748932,-0.001239126198925,-0.1533519327640533,0.9881684184074402,0.0438178862971901,0.0190998228436057,-0.0745340542707929,-0.0075450451113283,0.0205548387020826,-0.1439830958843231,0.0272061648149974,0.1926120344549417,-9.648956571221351,14909.0
29.71,2.5,10.0,21.6917781829834,22.60689353942871,-79.9464820170478,40.44346452847861,244.8060341920853,-0.0055659813806414,-0.0051513989455997,-0.1463525891304016,0.98920339345932,0.0646290227242743,0.0334949762729853,-0.0861934780214756,-0.02469477429986,0.0245602298527956,0.1086840257048606,-0.012140448235441,-0.0758121293596923,-9.729095000624657,14909.0
29.8,2.5,5.0,21.629175186157227,23.163516998291016,-79.94648193359458,40.44346454605032,244.79746507072448,-0.0056392550468444,-0.0086799124255776,-0.1439568102359771,0.9895299077033995,0.0589258490834784,0.046440754380802,-0.0838045015017307,-0.0928465276956558,-0.0128098241984844,-0.0926284417510032,-0.0703706236789003,0.2662926892563701,-9.748861513137818,14909.0
30.01,2.5,2.0,21.72933959960937,21.74015045166016,-79.94648185516333,40.443464451711904,244.79442934656143,-0.0072077382355928,-0.0125835090875625,-0.1453622728586197,0.9892721772193908,0.0596747404264751,0.0634702319897413,-0.0458189928216589,0.0379851721227169,0.0082988115027546,0.1900930553674698,0.022890337225981,0.012187022678554,-9.940222170352936,14909.0
30.1,2.5,1.0,21.644201278686523,23.17942047119141,-79.94648169424067,40.44346445426479,244.79178057575223,-0.0068714059889316,-0.0130501668900251,-0.1565367132425308,0.98756206035614,0.048431575968131,0.1012317724971392,-0.0344055732903788,0.0851535946130752,0.0065203639678657,0.1441076695919037,0.0275279010040685,0.1992695645615458,-9.824810997247695,14909.0
30.3,2.5,359.0,21.725584030151367,22.50352096557617,-79.94648182504166,40.44346415406433,244.7883921709061,-0.0029389758128672,-0.0101233171299099,-0.1640483289957046,0.9863960146903992,0.0442966180098654,0.058119468797911,-0.0198490067894967,0.2455077022314072,0.0904791578650474,0.2133427858352661,0.0970518752653151,0.0252611410617828,-10.046364337205889,14909.0
30.4,2.700000047683716,1.0,21.666736602783203,22.551231384277344,-79.94648175575634,40.44346420154485,244.7874106016159,0.0005333003937266,-0.0060927965678274,-0.1700845658779144,0.9854105114936828,0.0283884564183673,0.0805184988886659,-0.004736775606894,-0.0858254134654998,0.0066518909297883,0.0178501550108194,0.0764563828893006,0.3079907920584083,-9.857351921796797,14909.0
30.6,2.700000047683716,1.0,21.72808837890625,22.090028762817383,-79.94648175796661,40.44346399219381,244.7809563126564,-0.0012220456264913,-0.0056751556694507,-0.1748208999633789,0.9845831990242004,0.0423653123091349,0.0664554904695947,-0.0006912998478847,-0.107334204018116,-0.0967430621385574,-0.0019554749596863,0.0921269391104579,0.1714577218517661,-9.879521055221556,14909.0
30.7,2.799999952316284,355.0,21.713064193725582,21.18352508544922,-79.94648172181485,40.44346376675255,244.77337245607376,0.0003823331207968,-0.0094596557319164,-0.1697041243314743,0.9854496121406556,0.0746471250435431,0.0533438949730826,-0.0257781762514592,-0.014209795743227,0.0010024310322478,-0.0282829813659191,0.0670999653311446,0.1588967880047858,-9.69579686164856,14909.0
30.9,2.799999952316284,353.0,21.65171241760254,22.257015228271484,-79.94648161532253,40.44346379019007,244.77021817827224,0.0036590222734957,-0.0111980130895972,-0.1665818393230438,0.9859573245048524,0.0771822520886102,0.0576427943518628,-0.046547108609964,0.0147474789991974,0.0935637205839157,-0.0714997872710228,0.1323506664857268,0.3647268737107516,-9.5592842566967,14909.0
31.01,2.799999952316284,347.0,21.60538673400879,23.36231231689453,-79.94648149867254,40.44346382202268,244.76436881685257,0.0060532032512128,-0.0147712724283337,-0.1629775017499923,0.98650062084198,0.0835955426382734,0.0728039210415122,-0.0782810441251294,-0.0955075472593307,-0.0417972467839717,0.0755012109875679,0.2022266294248402,0.1693438437581062,-9.456591947078705,14909.0
31.2,2.799999952316284,344.0,21.684267044067383,21.891233444213867,-79.94648133181114,40.44346309136271,244.6985093798637,0.0074061271734535,-0.02389957010746,-0.1431553661823272,0.9893839359283448,0.0801541583066989,0.0417340069477273,-0.1649968449228858,-0.3360618054866791,0.015989439561963,-0.2889719605445862,0.390216385088861,0.172629759684205,-9.58612297654152,14909.0
31.4,2.700000047683716,341.0,21.596622467041016,23.31460189819336,-79.94648122367344,40.44346310152699,244.68206874990463,0.0069818729534745,-0.0323910415172576,-0.1348230838775634,0.9903156161308287,0.0714950927282598,0.0319243072346302,-0.1671453660486234,-0.1320264935493469,0.0606297478079795,-0.1189442351460456,0.1969919827021658,0.2702057556062937,-9.776245193481444,14909.0
31.5,2.799999952316284,337.0,21.660476684570312,23.43387794494629,-79.94648113834579,40.44346311020334,244.66638122463223,0.0102993231266736,-0.0356042794883251,-0.1287977546453476,0.9909780621528624,0.045178552410822,0.0244786148667565,-0.1527019632095836,-0.0248554572463035,0.0868700444698333,-0.0945796072483062,0.1479777523130178,0.4833268989622593,-9.885253665447236,14909.0
31.6,2.900000095367432,334.0,21.580345153808597,22.98857879638672,-79.94648061818184,40.443463432593866,244.64601086044308,0.012783289887011,-0.0269399583339691,-0.1267515420913696,0.9914862513542176,0.0147756068644185,0.0697187976403161,-0.1010875193828527,-0.08045344799757,-0.1415522247552871,0.0758113265037536,0.1755097326636314,0.4291062894836069,-10.03420446753502,14909.0
31.8,2.900000095367432,331.0,21.596622467041016,22.225208282470703,-79.94648056980269,40.44346348247698,244.6370508518219,0.0108241876587271,-0.0226014032959938,-0.1302563697099685,0.9911636114120485,0.0049389614775816,0.0559559451172945,-0.0812065631106328,-0.0755523070693016,-0.0675582066178321,0.026046397164464,0.1032592885382473,0.4355672435089946,-9.982640211582185,14909.0
31.9,2.799999952316284,327.0,21.670494079589844,22.439905166625977,-79.94648046550869,40.44346351429456,244.62418375873563,0.0125568602234125,-0.0201074182987213,-0.1350409239530563,0.9905564188957214,0.0082894280772869,0.0581770049576371,-0.0747195247118674,-0.055387232452631,-0.0152604673057794,0.0904659032821655,0.0853627886809408,0.3690655077248812,-9.889810985326768,14909.0
32.1,2.799999952316284,324.0,21.696786880493164,22.082077026367188,-79.94648029593117,40.443463571346776,244.60007183218,0.0104052638635039,-0.0229512602090835,-0.1420075893402099,0.9895448088645936,0.0109066512410286,0.0509252599424859,-0.0909822507274286,0.1013029515743255,-0.0838637501001358,0.1845663040876388,0.1680658068694174,0.1061730474606156,-9.783371779918667,14909.0
32.2,2.700000047683716,321.0,21.55530548095703,25.33435249328613,-79.94648027602967,40.44346361820895,244.59007625246048,0.0065769753418862,-0.0234459768980741,-0.1428635716438293,0.9894428253173828,-0.0119666498037384,0.0515093807076714,-0.1172257925239492,0.0052863010205328,-0.1151690036058426,0.0444362834095954,0.2183975063078104,0.1455562741309404,-9.595720596313477,14909.0
32.4,2.5999999046325684,320.0,21.57283401489257,23.39411926269531,-79.94648019514223,40.44346376585936,244.5666604485512,0.004815163090825,-0.0312836617231369,-0.1448899954557418,0.9889413714408876,-0.0689943662951033,0.0752935319147715,-0.0960466907807411,-0.0897016674280166,0.0409071184694767,-0.0418201722204685,0.1303173703327775,0.3907795815914869,-9.909745312929156,14909.0
32.5,2.400000095367432,319.0,21.56907844543457,24.29266929626465,-79.94648016754137,40.44346399714927,244.5511063780785,0.0152530213817954,-0.0198289547115564,-0.1455833464860916,0.9890296459197998,-0.1037592926022178,0.095083701872664,-0.0564951593518487,0.1031023934483528,-0.0225724130868911,-0.0017792944563552,0.2115266990102828,0.2294290278106928,-9.992933650016788,14909.0
32.7,2.400000095367432,316.0,21.597875595092773,23.02833747863769,-79.94648026014896,40.44346410222308,244.5464123334885,0.0152093144133687,-0.0141898514702916,-0.1445514112710952,0.9892786741256714,-0.1174212562268257,0.0799591188111548,-0.0323693683329456,0.1042059212923049,-0.0305594410747289,0.0541444756090641,0.2082824079506099,0.0018314210325479,-10.06787858247757,14909.0
32.8,2.299999952316284,317.0,21.577842712402344,23.07604789733887,-79.94648025954895,40.44346427015696,244.5380523648262,0.0151771223172545,-0.010966457426548,-0.1426644027233123,0.9895939826965332,-0.1080697059746156,0.0928496980149533,-0.0157744025777062,0.1404471546411514,0.0143463350832462,0.0385401770472526,0.1433139491546899,-0.0378495933674275,-10.090393871068953,14909.0
33.0,2.299999952316284,318.0,21.65046119689941,22.83749389648437,-79.9464805581275,40.44346458714543,244.5441480126381,0.0134665891528129,-0.0094043705612421,-0.1312205344438552,0.9912171363830566,-0.1236104490060506,0.0592831740949617,0.0178396017158724,-0.0002132381341652,-0.0886599645018577,-0.1534394323825836,0.1623005984164774,0.1284640587866306,-9.917802776098252,14909.0
33.11,2.299999952316284,321.0,21.65171241760254,21.50954818725586,-79.94648068189161,40.44346465471619,244.54606758022308,0.0092711830511689,-0.0075406013056635,-0.1302377432584762,0.991410791873932,-0.1141820937136035,0.0316868565908361,0.0196854071453027,0.0986817926168441,-0.0700103193521499,0.1797038167715072,0.0150757025275379,-0.0461185978353023,-9.866841952800751,14909.0
33.31,2.200000047683716,322.0,21.5991268157959,23.69628715515137,-79.94648081100645,40.4434647019584,244.5472028698921,0.006415007635951,-0.005459941457957,-0.1328091770410537,0.9911059141159058,-0.1230416642558504,0.0157841972827044,0.0059932444225147,-0.0413513891398906,-0.0899578779935836,-0.0145838325843215,0.0284525239560753,0.2806614177301526,-9.70084300875664,14909.0
33.4,2.200000047683716,326.0,21.58284950256348,23.720142364501957,-79.9464808861933,40.44346509456274,244.5541289892197,0.0022270111367106,0.0025008341763168,-0.1431948840618133,0.9896888732910156,-0.0908039029044514,0.0440312817211757,0.0087695916650342,0.0572996512055397,-0.0251771137118339,0.0731527730822563,0.0338232828956097,-0.0014591635297983,-9.827180289030077,14909.0
33.6,2.0999999046325684,329.0,21.660476684570312,21.175573348999023,-79.94648070951216,40.443465843556616,244.57409439945215,-0.0002845939889084,0.000340294180205,-0.1490116268396377,0.9888353943824768,-0.0956805744618955,0.1313447048925734,0.0319543010293476,-0.1534698903560638,-0.137110024690628,0.1001896038651466,-0.018747756241355,0.0418699652608484,-9.838101718425747,14909.0
33.8,2.0999999046325684,339.0,21.636688232421875,23.227130889892567,-79.94648112382174,40.44346589780905,244.60013274812695,-0.0038253138773143,-0.0041485312394797,-0.1549339741468429,0.9879087805747986,-0.0983162395459917,0.1255196650909406,0.0243238413876871,-0.0864651054143905,-0.0328300148248672,-0.0574580542743206,-0.013529129975941,0.3103528479114175,-9.58560023546219,14909.0
33.9,2.0999999046325684,343.0,21.649208068847656,22.090028762817383,-79.94648121792927,40.44346617510445,244.6035652604103,-0.0049357307143509,-0.0002220013120677,-0.1571281999349594,0.9875658750534058,-0.0859847568242345,0.1460497790688248,0.0229994768775542,-0.042303442955017,0.0210056770592928,-0.0708705335855484,0.0758863067720085,0.1831356164999306,-9.706352255344392,14909.0
34.1,2.200000047683716,354.0,21.66172981262207,22.090028762817383,-79.94648164692799,40.44346568926315,244.63415621185305,-0.005691532511264,-0.0020398588385432,-0.1569181978702545,0.9875931739807128,-0.0897570746465843,0.0965406679135399,0.044607997359819,-0.0397850945591926,-0.0050544394180178,-0.0580578632652759,0.0640340234851464,0.1204292444419115,-9.82989339709282,14909.0
34.21,2.200000047683716,356.0,21.706802368164062,21.779909133911133,-79.94648170662406,40.443465802523775,244.6390368189812,-0.0059871547855436,-0.0033919676207005,-0.1559364646673202,0.9877431392669678,-0.0846533734052542,0.109994608206003,0.0551316451530672,-0.0113026909530162,-0.0127061074599623,-0.0394207574427127,-0.0151755254622548,0.1427789563313126,-9.862446016073228,14909.0
34.3,2.0999999046325684,4.0,21.733097076416016,21.565210342407227,-79.94648208184444,40.44346556871533,244.6574522104264,-0.0039295898750424,-0.0007590060122311,-0.1524684876203537,0.9883002042770386,-0.0809524323515318,0.0873053038142743,0.0450891925988204,0.0103077571839094,0.0210998393595218,-0.068422332406044,0.076581307738088,0.1876153328642249,-9.797371768355369,14909.0
34.5,2.200000047683716,4.0,21.70805549621582,21.676536560058597,-79.94648213561223,40.4434656716936,244.6613867726326,-0.0040967110544443,7.000369078014046e-05,-0.150698646903038,0.988571286201477,-0.0678360705008852,0.0980646976438521,0.034902043796569,0.0583540685474872,0.0330620221793651,0.022805817425251,0.1387754956819117,0.0389523599669337,-9.798396785259248,14909.0
34.6,2.0999999046325684,2.0,21.730592727661133,20.603046417236328,-79.94648244103024,40.4434654027718,244.6803970184326,-0.00417594704777,0.0003718189545907,-0.1492295712232589,0.9887937307357788,-0.0721823495111058,0.0801426323759056,0.0290540256928622,-0.0018986506620422,-0.0208285246044397,-0.0499784126877784,0.0264961849269457,0.1856472331658006,-9.648565392494202,14909.0
34.8,2.0,2.0,21.600378036499023,23.608816146850582,-79.94648267384014,40.44346547004841,244.70078770780563,-0.0033572686370462,0.0014431020244956,-0.1493600010871887,0.98877614736557,-0.0188714933579475,0.1174037147439387,0.0036462978284334,0.1358509212732315,0.055061288177967,0.13747139275074,0.1690318582579493,-0.0693615724146366,-9.64533656001091,14909.0
35.0,1.7999999523162842,359.0,21.626672744750977,22.84544563293457,-79.94648266902723,40.44346558347437,244.701704308033,-0.0025483437348157,-0.0004652726056519,-0.1512034386396408,0.9884993433952332,-0.0204017492805359,0.1390030982190705,0.0089209802298005,0.0550994984805584,0.0116898585110902,0.0951625853776931,0.0857548262178898,0.0190447068598587,-9.749174339175225,14909.0
35.1,1.7000000476837158,1.0,21.652965545654297,22.57508659362793,-79.94648281566819,40.44346546757498,244.7194886054993,-0.00130160828121,-0.0028449080418795,-0.1531025469303131,0.9882053732872008,-0.0246680560339091,0.1383010195146868,0.0151248886464073,0.0016267207683995,-0.0007147423457354,0.0139659345149993,0.0861878125369548,0.0861749760713428,-9.720834639072418,14909.0
35.2,1.7000000476837158,5.0,21.70429992675781,21.461837768554688,-79.94648279270424,40.44346560099453,244.72088114881515,-0.0009876088006421,-0.0039650360122323,-0.1544089317321777,0.9879986047744752,-0.0262899818027953,0.157843536519714,0.0163913610825829,-0.0270008612424135,-0.0488281212747097,-0.0484080165624618,0.1043290000967681,0.1679432346113026,-9.735539801716804,14909.0
35.4,1.7000000476837158,2.0,21.65546989440918,21.41412734985352,-79.94648288239406,40.4434657398548,244.74461559915545,-0.0051365243270993,-0.0009917338611558,-0.1525942236185074,0.988275110721588,-0.028414951791987,0.1802496571710818,0.0616865284631924,0.0820560827851295,-0.0048128888010978,0.0042818342335522,0.1263783843722194,0.2754582180641591,-9.894332052469254,14909.0
35.6,1.5,2.0,21.70304679870605,21.86737823486328,-79.94648303700208,40.443465513221895,244.76531778240204,-0.0039793592877686,0.0006317876395769,-0.150322288274765,0.98862886428833,-0.0316460316342434,0.1589491700663339,0.0844976761870304,0.0445069409906864,0.0276615489274263,-0.1141789630055427,0.1226932315248996,0.0531739533087238,-10.007137706279757,14909.0
35.7,1.5,1.0,21.626672744750977,21.68448829650879,-79.94648301347257,40.44346566310313,244.7742403593064,-0.0012356556253507,-0.0001702775334706,-0.1469732969999313,0.9891396760940552,-0.0325353963298972,0.1720706824185482,0.0964829265868525,-0.0985795333981514,0.0875327140092849,-0.0374095775187015,0.0621223265770822,-0.0290505479369312,-9.94561447262764,14909.0
35.9,1.5,359.0,21.6917781829834,19.982807159423828,-79.94648302906876,40.443465703350135,244.80240331554413,0.0099259680137038,-0.004597445949912,-0.1408658474683761,0.9899682998657228,-0.0183963313038747,0.1533812218276204,0.1331737558671069,-0.0283225905150175,0.085363321006298,-0.0239996425807476,0.154055512715131,0.0046500165201723,-10.078633950948715,14909.0
36.01,1.5,2.0,21.711811065673828,20.8256950378418,-79.94648299973711,40.4434658348223,244.81708596611023,0.0133491503074765,-0.003755884245038,-0.1403659135103225,0.9900026321411132,-0.0252709205366769,0.1486044070797413,0.1484967264244866,-0.0310438219457864,-0.0641295984387397,-0.0174354258924722,0.1094345147162676,0.1811885119602084,-9.916878916025162,14909.0
36.1,1.2999999523162842,4.0,21.68802261352539,21.15171813964844,-79.94648313610942,40.44346574145652,244.83110867404935,0.0131830852478742,-0.001342166098766,-0.1418793797492981,0.9897953271865844,-0.0107130305750069,0.1192682839807929,0.1028229657420056,0.1248415410518646,-0.0087150949984788,0.059122011065483,0.2239265786111355,-0.0618308154679834,-9.691937114596367,14909.0
36.3,1.2999999523162842,6.0,21.683013916015625,21.85147476196289,-79.94648308874723,40.44346593193259,244.8480672087669,0.0090048303827643,0.0033560036681592,-0.1471518278121948,0.9890672564506532,-0.011287479032489,0.0924476118251819,0.06537958976072,-0.0470060817897319,-0.1123251244425773,0.0286898482590913,-0.0082088409585412,0.1239744112920016,-9.595350467562676,14909.0
36.4,1.399999976158142,9.0,21.637939453125,21.756053924560547,-79.94648307287423,40.443465876121394,244.86417488718035,0.0079010529443621,0.004728578031063,-0.1501452326774597,0.9886211156845092,0.0131451845622349,0.086199113496241,0.0428030103653568,0.0015117839211598,0.0007182683912105,0.0850436761975288,0.0324169727135449,-0.0281209731241688,-9.673035989999772,14909.0
36.6,1.5,12.0,21.71556663513184,21.00858688354492,-79.94648297274712,40.44346593844253,244.89116112852096,0.0072934767231345,0.0057500223629176,-0.1529749780893325,0.9881864786148072,0.0470823761526861,0.0990721349963368,0.0571219548986909,0.0289453212171793,0.0541753321886062,0.0133477207273244,0.1031116463430225,0.0675062508881092,-9.859555152654648,14909.0
36.7,1.600000023841858,14.0,21.775665283203125,19.13991928100586,-79.9464827841017,40.44346607831408,244.9026676859856,0.0091456854715943,0.0035662914160639,-0.1508967578411102,0.9885008335113524,0.051722339734576,0.0972327781941006,0.0470490533735211,-0.2149791270494461,0.0383035279810428,-0.1555199176073074,0.0774691389128565,0.0981807533372193,-9.665538105368618,14909.0
36.91,1.7000000476837158,16.0,21.646705627441406,20.905214309692383,-79.94648272073655,40.4434660189881,244.9237678494453,0.0103991720825433,0.000140810283483,-0.1486371159553527,0.9888371229171752,0.0733628300910129,0.0961774042122321,0.0344467291000062,-0.0495810993015766,0.0389585271477699,0.0731194615364074,0.1150237037055194,-0.1567661174386739,-9.756635971069336,14909.0
37.1,1.7000000476837158,27.0,21.659225463867188,21.899185180664062,-79.94648264726817,40.44346595301906,244.9582841243744,0.0100287357345223,-0.0028310406487435,-0.1448072642087936,0.9894050359725952,0.0756267232959462,0.0725247421384531,0.0512485913743969,0.1281872689723968,0.0731774047017097,0.0911409929394722,0.1465394743066281,-0.1757319999486208,-9.7667113083601,14909.0
37.2,1.7999999523162842,33.0,21.672998428344727,21.93894386291504,-79.94648237602809,40.44346597954624,244.9912055578232,0.009556682780385,-0.006563747767359,-0.1446462571620941,0.9894155263900756,0.0542571803801887,0.0874336567586441,0.049752804904728,-0.1117986068129539,-0.0602391585707664,-0.0024654031731188,0.1313575534522533,0.1204738203249872,-9.72855471789837,14909.0
37.4,1.7999999523162842,43.0,21.684267044067383,22.225208282470703,-79.9464822875421,40.44346603177611,244.9968083944321,0.0084060383960604,-0.0078254314139485,-0.1466298848390579,0.989124834537506,0.0637450988851052,0.0729509136924231,0.059568717247807,0.1922576576471328,0.0570882931351661,0.1209103167057037,0.1505016755405813,-0.156562232337892,-9.8748783659935,14909.0
37.51,1.7999999523162842,49.0,21.63543701171875,22.654603958129893,-79.94648221768138,40.44346607886802,245.00357042217252,0.0088999504223465,-0.0064011430367827,-0.1494501084089279,0.98870849609375,0.0441445271257545,0.0650753929864195,0.0663742313886569,0.1513590216636657,0.1385193020105362,0.0690931975841522,0.1672589459270239,-0.1239316809363663,-9.876872266530992,14910.0
37.6,1.7999999523162842,62.0,21.64545249938965,22.2331600189209,-79.94648242240321,40.443465759303045,245.0288801040649,0.0147323133423924,-0.0057771792635321,-0.15585258603096,0.9876536130905152,-0.0152592264978533,0.0018572115855604,0.0585796508575223,-0.0312864929437637,0.0412615351378917,0.0583947412669658,0.120861618630588,-0.1027900586184114,-9.746751253008844,14910.0
37.8,1.8999999761581416,66.0,21.630428314208984,22.169546127319336,-79.94648250055378,40.44346566668016,245.0555192079544,0.0113090015947818,-0.0024609211832284,-0.1611107438802719,0.9868685007095336,-0.0171607610765772,-0.017014316544521,0.0457297079876357,0.2054309844970703,-0.0393551923334598,0.1130484268069267,0.1600540068000555,-0.2832315613701939,-9.643760150671003,14910.0
38.0,2.0,77.0,21.60538673400879,23.250986099243164,-79.9464825360743,40.44346566161305,245.05982182884216,0.0063537969253957,0.0022642095573246,-0.1629315614700317,0.9866143465042114,-0.0344285294017371,-0.0268368803166192,0.0420429767519837,0.0659060776233673,-0.1389196962118148,0.1715486198663711,0.0170717181125655,-0.2146846157312393,-9.747143601179124,14910.0
38.1,2.0,81.0,21.690526962280277,21.827619552612305,-79.94648259039573,40.44346554329176,245.08239851856231,0.0031347246840596,0.0064751910977065,-0.1647326201200485,0.9863120913505554,-0.0403490132541786,-0.0187013100640089,0.0529391606043278,-0.1315516084432602,-0.1599750816822052,-0.1086469292640686,-0.0163802346121519,0.0611468191444873,-9.85253849387169,14910.0
38.3,2.0,91.0,21.5352725982666,24.57098197937012,-79.94648266055783,40.44346552100936,245.09410165214535,0.000885153771378,0.0101137440651655,-0.1651906073093414,0.9862094521522522,-0.0156045162822272,-0.0172920943095983,0.0640813463007957,0.0303713325411081,0.0486164726316928,0.1111284047365188,-0.0098849327629432,-0.3723914405331016,-9.865069077014924,14910.0
38.41,1.8999999761581416,92.0,21.540281295776367,23.60086441040039,-79.94648269914785,40.44346541323453,245.1145667877197,0.0023680282756686,0.0089758662506937,-0.1640600711107254,0.986406683921814,-0.0193453068951777,0.0070353169538326,0.0765574377258332,-0.2664867043495178,-0.138953223824501,-0.0351054780185222,-0.0052670348156243,-0.1338720023632049,-9.900583895444871,14910.0
38.5,1.8999999761581416,97.0,21.64545249938965,22.511472702026367,-79.94648270224158,40.44346542126461,245.12377272510528,0.000641762278974,0.0056158052757382,-0.1627350747585296,0.9866536259651184,-0.0162123452137669,0.0153088971560601,0.1105643141182114,-0.1811258643865585,-0.1489418894052505,-0.0165220256894826,0.0204608648037538,-0.0495628088526427,-10.050223499536513,14910.0
38.7,1.8999999761581416,98.0,21.685518264770508,22.082077026367188,-79.94648278490509,40.44346523905479,245.1527452316284,-0.0042071845382452,0.0011864186963066,-0.1613821387290954,0.9868823289871216,0.0090987640489924,0.0312975170591601,0.11219045279978,-0.0109139792621135,0.049686100333929,0.0195114333182573,0.0602349412953481,0.0044887292990461,-9.849082789421082,14910.0
38.8,1.8999999761581416,91.0,21.67174530029297,21.930992126464844,-79.9464827705138,40.44346514470565,245.1720511760712,-0.003649717895314,0.0010338628198951,-0.1641409695148468,0.9864296317100524,0.0061256834355086,0.0492350102540282,0.0991970534432802,-0.2037052363157272,-0.0678012743592262,0.0096727386116981,-0.0280595750757493,0.2158161615952849,-9.78728356719017,14910.0
39.0,1.7999999523162842,91.0,21.66172981262207,21.37436866760254,-79.94648265697721,40.44346522117391,245.1914005126953,0.0024127454962581,0.0052802842110395,-0.1761519163846969,0.9843459129333496,0.0434279268555312,0.0709655164315146,0.0952050652207109,0.0110392086207866,-0.0105106038972735,0.0863193422555923,0.0892013578489422,0.1605651448108256,-9.776103106141091,14910.0
39.1,1.8999999761581416,81.0,21.730592727661133,20.96087646484375,-79.94648260333307,40.44346518388343,245.2124843444824,0.0004164328565821,0.0106999389827251,-0.1825734674930572,0.9831339716911316,0.0772600463753701,0.0909532175993498,0.086929046362046,0.2394738644361496,-0.1205322444438934,0.221632495522499,0.1756126802042126,-0.1548622457496822,-9.834853005409242,14910.0
39.3,1.8999999761581416,76.0,21.67174530029297,22.20135307312012,-79.94648230487712,40.443465307007735,245.2278709259033,-0.0094959866255521,0.0130704520270228,-0.1863859146833419,0.982343852519989,0.1217970296336909,0.1154301686020718,0.0770310378189496,0.0177235249429941,-0.0501198731362819,0.0475254654884338,-0.0294411191018298,-0.1395957047212869,-9.812433611154557,14910.0
39.4,1.7999999523162842,58.0,21.649208068847656,21.58906555175781,-79.9464822979316,40.443465235593706,245.2540956583023,-0.0085426922887563,0.0057369344867765,-0.1844555735588073,0.9827870726585388,0.1228860260832006,0.1346949051187915,0.105909936932223,-0.2994893789291382,0.0394855663180351,-0.1014648601412773,-0.060548128215596,0.320315918661654,-9.904237235784532,14910.0
39.6,1.7999999523162842,55.0,21.71807098388672,20.91316604614257,-79.9464820851837,40.44346511560627,245.29156504535675,-0.0058833211660385,-0.0079148998484015,-0.1750721484422683,0.9845061898231506,0.1437134695233811,0.1471010756060753,0.1011539722794746,-0.2719119489192962,-0.0584264919161796,-0.1909430474042892,-0.167845896743238,0.2623141706362367,-9.719914872050284,14910.0
39.71,1.8999999761581416,39.0,21.75062561035156,20.10208511352539,-79.94648185190765,40.44346518911156,245.3007517900467,-0.00560755841434,-0.0132443355396389,-0.169079527258873,0.9854975342750548,0.1643802608708857,0.1464342298356337,0.0804905116159831,-0.039175197482109,0.010675448924303,-0.0328387953341007,0.0058663561474531,0.1808122070878745,-9.640088099241256,14910.0
39.9,1.8999999761581416,31.0,21.743112564086918,20.77003288269043,-79.94648119853433,40.44346532569592,245.32627962493896,0.0003749994793906,-0.022006532177329,-0.1551623791456222,0.9876437783241272,0.1267110137307984,0.1630324212100445,-0.0328125732179182,-0.158791571855545,-0.0336022935807704,-0.1377494037151336,0.1360361116938293,0.2937365411035717,-9.471384817957876,14910.0
40.0,1.8999999761581416,22.0,21.680509567260746,21.827619552612305,-79.94648092215817,40.44346526790511,245.3570031967163,-0.0021796198561787,-0.0219641402363777,-0.1519647389650344,0.988139510154724,0.1361782083171873,0.1653849570828058,-0.0477178544744196,-0.067621923983097,0.0163238458335399,-0.0827124118804931,0.0168770560808479,0.2379035984538496,-9.463125625848768,14910.0
40.2,1.8999999761581416,16.0,21.686769485473643,21.90713691711425,-79.94648072198967,40.44346537146522,245.3523337688446,-0.0015002891886979,-0.0243251603096723,-0.1502389162778854,0.9883493781089784,0.1014861427466604,0.1615599981168421,-0.0529723988796001,-0.1945064067840576,-0.0042469385080039,-0.0291972327977418,-0.0709290190692991,0.2798189070448279,-9.622300869226455,14910.0
40.3,1.8999999761581416,11.0,21.637939453125,22.670507431030277,-79.94648047950653,40.44346526937157,245.3872812833786,0.0021953091491013,-0.027994992211461,-0.1498085409402847,0.9883162379264832,0.1194754515817078,0.1567373382698038,-0.0349666892147992,-0.0364090502262115,0.0035277847200632,0.0489839911460876,0.1032582561392337,0.3238720124959945,-9.631050642728804,14910.0
40.5,2.0,10.0,21.53151512145996,24.539175033569336,-79.94648030326309,40.44346514871854,245.4065930690765,0.0009024271275848,-0.0225736256688833,-0.1480974406003952,0.9887146949768066,0.0312781232117438,0.104708677307523,-0.0470858727436645,-0.0986818969249725,-0.1751823723316192,-0.0626645535230636,-0.0457282779179513,0.2898646245338023,-9.55380424618721,14910.0
40.7,1.8999999761581416,12.0,21.5452880859375,24.24495887756348,-79.94648024534945,40.44346523161301,245.403605088234,-0.0050374288111925,-0.024633152410388,-0.1478532552719116,0.9886897206306458,0.0147712826460319,0.0937416917979896,-0.0158291958161921,0.1179156526923179,0.0159114934504032,0.0446480698883533,0.1644337905943393,-0.020944836102426,-10.12730383515358,14910.0
40.8,2.0,10.0,21.58535385131836,23.44978141784668,-79.9464802247911,40.443465324506434,245.4044213142395,-0.0077536483295261,-0.0267180670052766,-0.148181527853012,0.9885688424110411,-0.0309828236018569,0.1054364536869204,0.0323720878469348,-0.0419763922691345,0.0649458467960357,-0.0131904073059558,-0.1009255916811526,0.335759950093925,-10.12877382516861,14910.0
41.0,2.0,11.0,21.57533836364746,23.04424095153809,-79.94648041447033,40.44346532557783,245.441890701294,-0.007925528101623,-0.0206147842109203,-0.1502400636672973,0.9884028434753418,-0.0978890711900867,0.124469221848135,0.1189514301306117,-0.0215634927153587,-0.0812237113714218,0.0156825669109821,-0.0078416095487773,0.1847142916359007,-10.146411366462708,14910.0
41.11,2.0,12.0,21.58535385131836,22.980627059936523,-79.94648043454535,40.44346527053098,245.4597303714752,-0.0099160252138972,-0.017735481262207,-0.1519168764352798,0.98818439245224,-0.0945266429925859,0.1445805552010519,0.1336837007838792,0.1700539886951446,-0.0815960690379142,0.102459006011486,0.1265117100253701,0.0160173600632697,-10.11419203877449,14910.0
41.3,2.0999999046325684,16.0,21.602882385253903,21.899185180664062,-79.94648073057077,40.44346541341702,245.47899340057373,-0.0085261883214116,-0.0095151308923959,-0.1508527100086212,0.9884737133979796,-0.1442259311865005,0.1511790850252746,0.143995220796883,0.0694683790206909,0.1101184338331222,0.0328779108822345,-0.1214751011878252,-0.0241630705073475,-10.032835049629211,14910.0
41.4,2.0999999046325684,16.0,21.61289978027344,22.37629127502441,-79.9464808446016,40.44346558952054,245.49327991867065,-0.001926882774569,-0.0077955517917871,-0.1509814113378524,0.9885040521621704,-0.1484505337145938,0.1609975764479795,0.1532351430107882,0.0333873219788074,0.1635435074567794,-0.0272110551595687,-0.0412347338022664,0.2124512351676822,-9.915822908878328,14910.0
41.5,2.0999999046325684,20.0,21.67174530029297,22.082077026367188,-79.94648095819049,40.44346576847109,245.508110031128,0.0029618453700095,-0.0050548710860311,-0.1527491956949234,0.9882476925849916,-0.14481533597845,0.1571279841139535,0.1523075468168666,0.0530134476721286,0.1003958061337471,0.071604885160923,-0.0353372595040127,0.222025831528008,-9.79259166955948,14910.0
41.71,2.0999999046325684,21.0,21.72933959960937,20.125940322875977,-79.94648120849806,40.443465849587774,245.52253471279144,0.0056636589579284,0.004124641418457,-0.1579607427120208,0.9874205589294434,-0.1128183317668,0.1281933678873222,0.1055812511827793,0.0154280895367264,-0.0295941550284624,0.0823312327265739,-0.0749895174801349,0.1143832874111831,-9.718710345625878,14910.0
41.8,2.200000047683716,26.0,21.71431541442871,20.595094680786133,-79.94648160364454,40.44346595301048,245.5356312837601,0.0020449159201234,0.0061145341023802,-0.159784510731697,0.9871309399604796,-0.086321327491919,0.1050564500985413,0.0354125998873604,-0.1534447968006134,-0.0579402633011341,-0.0308940168470144,-0.0807930434681475,0.1160000790841877,-9.49259793162346,14910.0
42.0,2.200000047683716,26.0,21.716819763183597,20.626901626586918,-79.9464817483127,40.443465971142565,245.5584158744812,-0.0003267327556386,-0.0076518962159752,-0.160276785492897,0.9870424270629884,-0.0608478496900056,0.0972011312497054,-0.0456814348305777,-0.2548545002937317,-0.0736682787537574,-0.0740128308534622,-0.0922363734059036,0.1496384711936116,-9.378786556720732,14910.0
42.2,2.200000047683716,29.0,21.56156539916992,23.441829681396484,-79.94648176582828,40.44346606286154,245.5516871061325,-0.00289919343777,-0.0123435789719223,-0.1619801968336105,0.986712634563446,-0.0467063967876731,0.090756105829071,-0.082624814564168,-0.0544519983232021,-0.0259772390127182,0.0118365800008177,-0.0062551366025581,0.2785815631225705,-9.400114860534668,14910.0
42.31,2.0999999046325684,28.0,21.55906105041504,23.36231231689453,-79.94648203252524,40.443465803228015,245.57433639431,-0.0022011967375874,-0.011635348200798,-0.1657190769910812,0.9861019849777222,-0.039799955061184,0.047710864543129,-0.0754300021096015,0.1953837275505066,0.0673613473773002,0.1269373744726181,0.0487804057169705,0.3483045300096273,-9.57516763329506,14910.0
42.4,2.0999999046325684,26.0,21.500215530395508,25.07194328308105,-79.9464820875127,40.44346591690732,245.55936871433255,0.0050560962408781,-0.002635120647028,-0.1737941056489944,0.9847655296325684,-0.0298372705809613,0.0491026236754607,-0.0720333056601582,0.1575903743505478,0.0575156584382057,0.1461568176746368,0.1572125888988375,0.0032153564784675,-9.86036674618721,14910.0
42.6,2.0999999046325684,27.0,21.65797233581543,20.8734073638916,-79.94648230716432,40.44346560093013,245.5994812097549,0.006196797825396,0.0007721823640167,-0.1744816899299621,0.9846407175064088,-0.0361787591571482,0.0261475246064711,-0.028996973604711,-0.0618166364729404,-0.0262953899800777,-0.1189492121338844,0.0891054635122418,0.2886522409133613,-9.72895057439804,14910.0
42.7,1.8999999761581416,25.0,21.659225463867188,21.71629524230957,-79.94648231927509,40.44346562619267,245.59583817386627,0.0049730148166418,0.0015909236390143,-0.1714730709791183,0.9851750135421752,-0.0043895997301727,0.0153097116981264,-0.0447345439252768,0.1240540742874145,0.048487339168787,-0.0656499713659286,0.1962353347241878,-0.0450976511416956,-9.756102705001831,14910.0
42.9,1.8999999761581416,24.0,21.566574096679688,22.980627059936523,-79.94648244757285,40.44346551012151,245.6067503538132,0.0013326896587386,-0.0065146628767251,-0.1597700417041778,0.9871319532394408,0.0078069428598725,0.0219775714109948,-0.0765615127612712,-0.0713623389601707,-0.0038287262432277,-0.1426932513713836,0.112410135352984,0.1037261704355478,-9.619366736412047,14910.0
43.0,1.7999999523162842,22.0,21.560312271118164,23.489540100097656,-79.94648244656713,40.443465531027634,245.5983946170807,-0.000367515196558,-0.0099819777533411,-0.1537581384181976,0.9880580306053162,0.0025020818817442,0.0197848519106734,-0.0854350998532934,-0.0248639676719904,-0.0415371023118496,-0.0432714223861694,0.0459742721077054,0.05813091667369,-9.715330654978752,14910.0
43.2,1.7000000476837158,21.0,21.679258346557614,21.27099609375,-79.9464826634573,40.44346526392013,245.61075733566284,-0.0011911437613889,-0.0106623591855168,-0.1444203555583954,0.9894583225250244,-0.014784958461665,0.0056433350512403,-0.0329966336220871,-0.0282427463680505,0.0089542726054787,-0.1646142601966858,0.0057122409017756,0.3228089521452785,-9.983014433383945,14910.0
43.3,1.7000000476837158,20.0,21.55655670166016,22.91701316833496,-79.94648272405227,40.44346515174593,245.63017748260495,0.0004848317475989,-0.008286572061479,-0.1426998525857925,0.9897311925888062,-0.0203671565492025,0.0171162727568787,-0.0154026309160859,-0.0837739780545234,-0.0218792650848627,-0.1100685894489288,-0.0013200043654069,0.340695255920291,-9.864452780485154,14910.0
43.51,1.7000000476837158,19.0,21.60538673400879,22.82954216003418,-79.94648273742064,40.44346519006057,245.6283655014038,-0.0006716305506415,-0.0075580584816634,-0.1456018537282943,0.9893142580986024,-0.0084274859442405,0.0222162202296493,0.004842169110582,0.0607309080660343,0.0212982166558504,0.1155522540211677,0.0714830930018797,0.1080365916341543,-9.952849817276002,14910.0
43.6,1.600000023841858,16.0,21.54904556274414,22.400146484375,-79.94648263090794,40.443465249805215,245.65128873252868,-0.0006835944368503,-0.0057994788512587,-0.1495352387428283,0.9887391924858092,0.0159294630769199,0.057891235609926,0.021496437590858,0.1417838186025619,0.0826734751462936,0.1106043830513954,0.0968042730912566,0.0963509859703481,-9.957954436540604,14910.0
43.81,1.5,13.0,21.54403686523437,23.720142364501957,-79.94648255892022,40.443465353124864,245.6582703437805,0.0021888567134737,-0.0048618828877806,-0.1603596210479736,0.9870442748069764,0.0146923311977937,0.0681782572933629,0.0449411522555765,-0.085038848221302,0.0606469772756099,0.1576622277498245,-0.0142227216716855,0.139308770885691,-9.913930749893188,14910.0
43.9,1.600000023841858,8.0,21.51774406433105,23.489540100097656,-79.94648259731595,40.443465286445154,245.68025539779663,0.0031900492031127,-0.0061965226195752,-0.1649278849363327,0.9862810969352722,0.0307684619687078,0.0784606082685338,0.0594160059129058,-0.0335837267339229,0.0173357799649238,0.1151966527104377,0.0680165255209431,0.1442419296875596,-9.991525640487673,14910.0
44.11,1.7000000476837158,6.0,21.616655349731445,22.392194747924805,-79.94648263005399,40.44346521584056,245.7069126214981,0.0023502451367676,-0.0092221992090344,-0.166628748178482,0.9859737753868104,0.0207422031644733,0.0854898037021786,0.0830693746633917,-0.2025239616632461,-0.101333387196064,-0.1242854297161102,0.1188593858107924,0.2015714489109814,-9.886654658317566,14910.0
44.3,1.7000000476837158,7.0,21.59161376953125,22.37629127502441,-79.94648260797031,40.44346518601117,245.73167036437988,-0.0050201993435621,-0.0150276320055127,-0.1580861806869506,0.9872981905937196,0.0230777915385151,0.0791289529880311,0.0579875680233991,-0.0270299799740314,-0.0587511211633682,-0.1297483146190643,-0.1042843968048692,0.2789884014241398,-9.769395765066148,14910.0
44.4,1.7999999523162842,6.0,21.634183883666992,21.86737823486328,-79.94648255275138,40.44346524407037,245.7375615682602,-0.0029482396785169,-0.0147521020844578,-0.1534983366727829,0.9880344271659852,0.0215224771043301,0.0753679729353704,0.0620894560708906,-0.001348877325654,0.0348251536488533,-0.1248384118080139,-0.0913270217366516,0.3363827151060105,-9.800041607022283,14910.0
44.5,2.0,5.0,21.699291229248047,20.626901626586918,-79.94648249948027,40.4434653000834,245.74391971492767,0.0007499337662011,-0.0123578831553459,-0.150319367647171,0.9885600209236144,0.0200779971081274,0.0749947302422572,0.0667909606585123,-0.0127531858161091,0.0196099895983934,-0.1684468686580658,-0.0163318489026278,0.4132886575162411,-9.80999766111374,14910.0
44.7,2.0,3.0,21.659225463867188,20.777984619140625,-79.94648232817164,40.44346532186767,245.7726195898056,3.208710404578597e-05,-0.011731581762433,-0.154789000749588,0.9878779649734496,0.0466484879512964,0.0518558895165496,0.0162137008626526,-0.075498566031456,-0.1438790410757064,-0.0279119908809661,-0.0801119707524776,0.4503167353570461,-9.66403186261654,14910.0
44.8,2.200000047683716,3.0,21.71431541442871,21.21533203125,-79.94648225846514,40.44346518619153,245.79622457885745,-0.0062413765117526,-0.0122736021876335,-0.1569375842809677,0.9875125885009766,0.0518794672440583,0.0506843999618684,-0.0088179508954861,-0.1740409135818481,-0.1791226714849472,0.0128417816013097,-0.1466650980804115,0.4290739105269313,-9.503492463827136,14910.0
45.01,2.200000047683716,359.0,21.656721115112305,20.65870857238769,-79.9464821740923,40.443465204619926,245.7946125116348,-0.0103741521015763,-0.0140886660665273,-0.1578642874956131,0.9873058795928956,0.0557163033810895,0.0441877331832342,-0.0179606286309854,-0.1434342265129089,-0.0362496748566627,-0.083060435950756,-0.2092566088959574,0.4045806185156107,-9.646555119752882,14910.0
45.1,2.400000095367432,358.0,21.60538673400879,22.67845916748047,-79.94648209854645,40.44346503468926,245.81843672657013,-0.0102162454277277,-0.0188275147229433,-0.1575206816196441,0.9872834086418152,0.0512152249652667,0.043816550472394,-0.0455360251060679,0.0269728135317564,0.0657288208603859,-0.0332729630172252,-0.0712361760484054,0.3259338503703475,-9.588182950615884,14910.0
45.3,2.400000095367432,0.0,21.6817626953125,21.38232040405273,-79.9464821605258,40.44346472503951,245.86212180519104,-0.0069921547546982,-0.0183267183601856,-0.1576156616210937,0.9873057007789612,0.0523065933593104,0.0220877278384099,-0.0139604351435262,0.1254514455795288,0.1193803623318672,-0.0815359354019165,-0.0114402784220874,0.3429560453072191,-9.770961649417876,14910.0
45.5,2.5,3.0,21.606639862060547,22.47171401977539,-79.94648206424453,40.44346474825159,245.8611438121796,-0.0042992471717298,-0.0172514207661151,-0.1594009101390838,0.9870538711547852,0.0173103707168653,0.0257103113473424,-0.0077201248456025,-0.1387751400470733,-0.0543201640248298,0.0051406831480562,-0.1613547199219465,0.3277454639598727,-9.707198932170868,14910.0
45.6,2.5,6.0,21.562816619873047,23.07604789733887,-79.94648216989027,40.44346451855266,245.8823157396316,-0.0097930002957582,-0.0203349292278289,-0.1623970121145248,0.9864673614501952,-0.0056645621677304,0.0152878118411746,0.0025481375022877,-0.122448667883873,-0.1057150959968566,-0.0512858666479587,-0.0851071283128112,0.3352070593088865,-9.68703247010708,14910.0
45.8,2.5,9.0,21.6091423034668,22.43195343017578,-79.94648217270895,40.44346453147593,245.8834329690933,-0.0118706095963716,-0.0208067931234836,-0.1630143821239471,0.986332893371582,-0.0177629098895939,0.0144637188512959,0.0193405053773251,-0.0157521907240152,-0.0826897472143173,0.050191942602396,-0.1062176781613379,0.2730402482114732,-9.970472155809404,14910.0
45.91,2.400000095367432,9.0,21.57909393310547,22.288822174072266,-79.94648226789283,40.44346437602518,245.9031791534424,-0.0135623216629028,-0.0202889125794172,-0.1624430567026138,0.9864161610603333,-0.023317120034387,0.0265605326727309,-0.0010548129339082,0.0655758529901504,-0.0334959141910076,-0.0473461560904979,-0.0473161578504368,0.2893232819996774,-9.754171954393389,14910.0
46.0,2.299999952316284,7.0,21.5991268157959,21.779909133911133,-79.94648245120966,40.44346432239541,245.9214128103256,-0.013581970706582,-0.0175510719418525,-0.162183329463005,0.9865111112594604,-0.0471015567714304,0.0469288337240394,0.0049251365899163,0.1315819323062896,0.0754157677292823,0.1039048433303833,-0.1411682494170963,0.1096500759758055,-9.903250225782395,14910.0
46.22,2.299999952316284,5.0,21.52525520324707,23.17146873474121,-79.94648249368377,40.44346438631185,245.9222653951645,-0.0087008522823452,-0.0166179575026035,-0.1643368452787399,0.986225962638855,-0.0471771183390686,0.056542397582266,0.0149683703880521,0.1780406385660171,0.1606522500514984,0.1682027280330658,-0.0396379734110087,0.193475229665637,-9.905368087291716,14910.0
46.3,2.200000047683716,3.0,21.53902816772461,22.41604995727539,-79.94648265279699,40.44346424045425,245.938399061203,-0.0029427292756736,-0.0133497864007949,-0.1675634682178497,0.9857665300369264,-0.049120197362247,0.0450994411055046,-0.0004702395246693,0.193466305732727,0.1283493638038635,0.1717133522033691,0.0287479225499555,0.2608913603425026,-9.824095298051835,14910.0
46.5,2.200000047683716,3.0,21.55530548095703,23.37821578979492,-79.94648288118215,40.44346433908253,245.95136164093012,-0.0096962787210941,-0.011489612981677,-0.173790842294693,0.9846678376197816,-0.0716174916966206,0.0716203102430283,-0.0064411790290562,-0.2284425199031829,-0.10796719789505,-0.1232953369617462,0.0838900851923972,0.2218794501386582,-9.80498250424862,14910.0
46.7,2.0,2.0,21.590362548828125,22.31267738342285,-79.94648292323086,40.44346441862111,245.95125792884824,-0.0128731094300746,-0.0140712317079305,-0.1722915768623352,0.984861433506012,-0.0593441930291812,0.0741826681895684,0.0081701394962889,0.0903354361653328,-0.1145476251840591,0.0870310142636299,0.0329413765948265,0.0731503306142985,-9.980099011659624,14910.0
46.8,2.0,2.0,21.576589584350582,23.42592620849609,-79.94648296050673,40.44346451229608,245.95256112480163,-0.0148862469941377,-0.0135134905576705,-0.1692713797092437,0.9853644371032716,-0.0688430965627438,0.1003466942074016,0.0173898792771842,-0.0240939743816852,0.0066691525280475,-0.1555900275707245,-0.0043164145946502,0.4336345560103655,-9.841286112070083,14910.0
47.0,1.8999999761581416,1.0,21.560312271118164,22.583038330078125,-79.94648315649356,40.44346463662919,245.964210018158,-0.0111606689170002,-0.0231652855873107,-0.1651873141527176,0.9859270453453064,-0.1118157323214215,0.1458921594435427,-0.0179377845301912,-0.1868524700403212,0.1346533000469207,-0.0610768906772136,0.0674137187004089,0.1519425665214658,-9.621008049845695,14910.0
47.1,1.8999999761581416,2.0,21.527759552001957,23.815563201904297,-79.94648335400709,40.443464799472345,245.9706668701172,-0.0034764937590807,-0.0212123095989227,-0.16437429189682,0.986163854598999,-0.1521732940828953,0.1698858855192549,-0.0851991516151247,0.1247440725564956,0.0138687994331121,-0.1181998178362846,0.0979306295514106,0.3218304571509361,-9.487862856388093,14910.0
47.3,2.0,4.0,21.468914031982425,24.12568283081055,-79.94648344091513,40.44346497804499,245.95967028999328,-0.0007429078686982,-0.0093374354764819,-0.1635702252388,0.9864873290061952,-0.156865655190117,0.1814134107987716,-0.1152464057887546,0.150916188955307,-0.0328901223838329,-0.0511321946978569,0.0265099784173071,0.2930375978350639,-9.47764718592167,14910.0
47.4,2.0,0.0,21.54904556274414,23.42592620849609,-79.94648370414106,40.44346478281744,245.9840311851501,0.0006422118167392,0.0034448315855115,-0.1621090173721313,0.9867666363716124,-0.132916006866786,0.1448683995249549,-0.112345436979171,0.2669673860073089,-0.055080160498619,0.0333953835070133,0.1495681949704885,-0.0219910948444157,-9.65881614625454,14910.0
47.5,2.0999999046325684,351.0,21.5352725982666,22.90906143188477,-79.94648408505292,40.44346489862879,245.9922447052002,0.0014417010825127,0.0087684234604239,-0.1580835431814193,0.9873857498168944,-0.0980800543989044,0.1453855918366547,-0.0950313040861783,-0.2118870764970779,0.0562300831079483,-0.0478907153010368,0.0426537205651402,0.1935651306062936,-9.82043260216713,14910.0
