time,wind_speed,wind_angle,battery_voltage,battery_current,position_x,position_y,position_z,orientation_x,orientation_y,orientation_z,orientation_w,velocity_x,velocity_y,velocity_z,angular_x,angular_y,angular_z,linear_acceleration_x,linear_acceleration_y,linear_acceleration_z,node_ids
0.0,0.5,123.0,25.52931404113769,-0.0159035474061965,-79.78278157818669,40.459084935589615,269.3376574258804,0.0141571788117289,-0.0098605314269661,-0.7522346973419191,0.6586693525314331,-0.0107534433211991,0.005131531657623,0.0020586754965583,0.0025529605336487,0.0032776165753602,0.0035548163577914,0.3273737272247672,-0.0881115464866161,-9.803765113949776,14934.0
0.19,0.5,123.0,25.52054977416992,-0.0397588685154914,-79.78278157038574,40.45908494542429,269.33791318941115,0.0141592668369412,-0.0098676020279526,-0.7522222995758057,0.6586833596229553,-0.0129209861097339,0.005376556533037,0.0025267508507203,-0.0047532017342746,-0.0018711003940552,-0.0061923554167151,0.3268454312905669,-0.0830822649411857,-9.803309031128885,14934.0
0.29,0.5,122.0,25.52555847167969,-0.0238553211092948,-79.7827814314014,40.45908498596803,269.3165544610024,0.014186318963766,-0.0098688099533319,-0.7522082924842834,0.6586988568305969,-0.0092110649523685,0.0049493806396252,-0.0015076214997263,-0.0061354031786322,-0.0049429694190621,-0.004468941129744,0.3312748067826033,-0.1012936921790242,-9.805633884072304,14934.0
0.49,0.5,123.0,25.52054977416992,-0.0715659633278846,-79.78278142429896,40.45908499341623,269.3164406757354,0.0141836535185575,-0.0098784239962697,-0.7521988153457642,0.6587095856666565,-0.00962872081641,0.0047358780975369,-0.0012564810681633,0.0034471997059881,0.0035079307854175,-0.0002154197864001,0.3289100465923548,-0.0897885918896645,-9.804339895248413,14934.0
0.6,0.5,126.0,25.52180099487305,-0.0318070948123931,-79.78278130027142,40.45908505421978,269.29586294698714,0.0141978748142719,-0.0098992148414254,-0.7521819472312927,0.6587281823158264,-0.0127053112467698,-0.0003826142540719,-0.0012894668110508,-0.0031948750838637,-0.0011857273057103,-0.0043070302344858,0.3247030480206013,-0.0833211785182356,-9.802664667963985,14934.0
0.79,0.5,128.0,25.51428985595703,-0.0715659633278846,-79.78278115394431,40.45908509799056,269.2749646644592,0.0141935991123318,-0.0098868105560541,-0.7521753907203674,0.6587358713150024,-0.0106439940571351,0.0008635775359725,-0.0015455220977483,-0.0043266178108751,-0.0058194054290652,-0.0034608086571097,0.3311615535244346,-0.1025402820110321,-9.805850231051444,14934.0
0.89,0.5,129.0,25.51178550720215,-0.0238553211092948,-79.78278115142574,40.45908510725948,269.2748285274505,0.0141966138035058,-0.0098897228017449,-0.7521759867668152,0.6587351560592651,-0.0108082126109463,0.0005324188148279,-0.0013219443752404,0.0046978765167295,0.0015033541712909,0.0054860678501427,0.3305066653713584,-0.0964805200695991,-9.80545086622238,14934.0
1.09,0.5,129.0,25.52680969238281,-0.0238553211092948,-79.7827810118195,40.45908516172968,269.251841459751,0.0141919590532779,-0.0098917335271835,-0.7521525621414185,0.6587619781494141,-0.0133245817265986,-0.0029273402593914,-0.0055421373101266,0.0008179497090168,0.0013224243884906,-0.0032178696710616,0.3290727819129825,-0.0973722021840512,-9.805546760559082,14934.0
1.2,0.5,131.0,25.52180099487305,-0.0159035474061965,-79.78278101284687,40.45908517427343,269.25130418348306,0.0141750816255807,-0.0098921554163098,-0.7521493434906006,0.658765971660614,-0.0143749735267811,-0.0028378172052274,-0.0053247879367317,0.0013044284423813,-0.0002927150635514,0.0058333231136202,0.3321827331930399,-0.1024351600371301,-9.806022139191628,14934.0
1.39,0.4000000059604645,131.0,25.52806282043457,-0.0477106422185897,-79.78278086938899,40.45908518925571,269.2321091036796,0.0141799319535493,-0.0098833348602056,-0.7521615028381348,0.6587520837783813,-0.0111317118337888,-0.0044472550180741,-0.0038112844192124,-0.0075441831722855,-0.0026035765185952,-0.0078731663525104,0.3268926110118628,-0.0829351891949772,-9.80337568938732,14934.0
1.51,0.4000000059604645,132.0,25.52555847167969,-0.0159035474061965,-79.78278068005437,40.45908521050155,269.2125004868508,0.0141730392351746,-0.0098924869671463,-0.7521539330482483,0.6587607860565186,-0.0092225002934282,0.002815679658953,-0.0028243283952149,-0.004214939661324,-0.0036869368050247,0.0002942182472907,0.3305116720497608,-0.0997242172714322,-9.805692940950395,14934.0
1.69,0.4000000059604645,130.0,25.519296646118164,-0.0238553211092948,-79.78278067076926,40.459085227542346,269.21203032541274,0.0141687951982021,-0.0098907770588994,-0.7521361112594604,0.6587811708450317,-0.0112999948211497,0.0026322619530611,-0.002180819304671,0.0019240644760429,-0.000874651945196,0.0018835127120837,0.3287201217189432,-0.0900016224011778,-9.804907659888269,14934.0
1.79,0.3000000119209289,132.0,25.523054122924805,-0.0477106422185897,-79.78278050704337,40.459085248815015,269.1909446458816,0.0141676608473062,-0.0098898075520992,-0.7521349191665649,0.6587827205657959,-0.0123166843365153,-0.0016482757666227,-0.0057489031301852,-0.0037351071368902,-0.0021040418650954,-0.0054093413054943,0.3269006143882871,-0.0819708097446709,-9.80526901781559,14934.0
1.99,0.3000000119209289,133.0,25.53432273864746,-0.0874695107340812,-79.78278050685856,40.45908526016285,269.19039175319665,0.0141600491479039,-0.0098752761259675,-0.7521236538887024,0.658795952796936,-0.0126619521368866,-0.0017837223026061,-0.0054877141925764,0.0095394449308514,0.0041972063481807,0.0051363646052777,0.3308128767460585,-0.1027478307578712,-9.806537278890607,14934.0
2.1,0.3000000119209289,134.0,25.531818389892567,-0.0954212844371795,-79.78278028332511,40.45908526532601,269.17110237884515,0.014164961874485,-0.0098615931347012,-0.7521160244941711,0.6588047742843628,-0.0105713345115025,0.0048460130324462,-0.0039386212989995,0.0039945091120898,0.0023029458243399,0.0024074271786957,0.3267246131971478,-0.0917957857064902,-9.80531579554081,14934.0
2.29,0.3000000119209289,133.0,25.51804542541504,-0.1033730581402778,-79.78278009952797,40.45908527438613,269.1525687913894,0.0141976494342088,-0.0098762502893805,-0.7521179914474487,0.6588015556335449,-0.0103330110577727,0.0020819432850895,-0.0029975022065647,-0.0020182628650218,-0.0042964867316186,-0.0039912066422402,0.3295801375061273,-0.1012169292010367,-9.805253230333328,14934.0
2.4,0.3000000119209289,130.0,25.516794204711918,-0.1033730581402778,-79.78278009539875,40.459085283401706,269.1522926430701,0.0141964741051197,-0.0098663242533803,-0.7521161437034607,0.6588037610054016,-0.010542085344273,0.0019398055908568,-0.002861376317108,0.0026857536286115,0.0023397693876177,0.0049988441169261,0.3314951737225056,-0.1009145002439618,-9.805732702016831,14934.0
2.59,0.3000000119209289,127.0,25.533069610595703,-0.1033730581402778,-79.78277990015633,40.4590852725096,269.13480428266524,0.0141967991366982,-0.0098545756191015,-0.7520883083343506,0.6588358283042908,-0.0087852587874563,0.0026662683992612,-0.0024069732470822,-0.0042011435143649,-0.0047500124201178,-0.0014050274621695,0.327629031278193,-0.0930229975003749,-9.804901227951053,14934.0
2.7,0.3000000119209289,122.0,25.523054122924805,-0.1033730581402778,-79.78277989113614,40.45908528857024,269.1343890171051,0.0141954589635133,-0.0098450696095824,-0.7520733475685121,0.6588529944419861,-0.0105309053214167,0.0026289523630578,-0.00198223278143,-0.0008076189551502,0.0002453594352118,0.0035572503693401,0.3287205968052149,-0.0880741791240871,-9.804114192724226,14934.0
2.89,0.3000000119209289,122.0,25.52555847167969,-0.0954212844371795,-79.78277971187228,40.45908528608985,269.1171914081573,0.0141971874982118,-0.009819746017456,-0.7520684003829956,0.6588590741157532,-0.0117849658537513,-0.0018167554373511,-0.0017843884851755,-0.0058004125021398,-0.0043626721017062,-0.0091636609286069,0.3263249560073018,-0.0823931614402681,-9.803276871442796,14934.0
2.99,0.3000000119209289,123.0,25.52054977416992,-0.0954212844371795,-79.78277950189792,40.45908527310701,269.10031053829186,0.0142190558835864,-0.0098020061850547,-0.7520644664764404,0.6588633060455322,-0.0090237717012817,0.0008735341349531,-0.0019556637843445,-0.0029027045238763,-0.0026221864391118,-0.0038837466854602,0.3274550766125321,-0.0927704160567373,-9.804188452363016,14934.0
3.19,0.3000000119209289,125.0,25.513036727905277,-0.1351801604032516,-79.782779496969,40.45908528976079,269.0999989848137,0.014195061288774,-0.0097942929714918,-0.7520443201065063,0.6588869094848633,-0.0105413259543454,0.0009425305385525,-0.0014177903222778,-0.0001802544720703,0.0014286856167018,0.0038055116310715,0.3286564967036247,-0.0877446885220706,-9.804955607056618,14934.0
3.29,0.3000000119209289,124.0,25.52555847167969,-0.1113248318433761,-79.78277929844415,40.45908528037916,269.0844214897156,0.0141864065080881,-0.0097910352051258,-0.7520410418510437,0.658890962600708,-0.0122895903054447,0.0015611442033708,-0.0014267842902133,-0.0020354092121124,-0.0035436165053397,-0.0071998718194663,0.3253741987422109,-0.0823754005227238,-9.803621857166291,14934.0
3.5,0.3000000119209289,126.0,25.52931404113769,-0.1192766055464744,-79.78277929472567,40.45908529116284,269.08430204200744,0.0141798723489046,-0.0097851017490029,-0.7520212531089783,0.6589137315750122,-0.012486055901866,0.0013821301186334,-0.0012719348624351,0.0061402474530041,0.0054013784974813,0.0063514271751046,0.3297538729012013,-0.1010314993746578,-9.806269476413728,14934.0
3.6,0.4000000059604645,125.0,25.523054122924805,-0.0954212844371795,-79.78277911560238,40.45908527160621,269.0690526704788,0.014206669293344,-0.0097869867458939,-0.7519925236701965,0.6589458584785461,-0.0088333466490154,-0.0020779962333506,-0.0008657165147935,0.0025136277545243,0.0029288637451827,-0.000920390302781,0.3297896140068769,-0.0905135826766491,-9.805002969503404,14934.0
3.79,0.4000000059604645,124.0,25.51804542541504,-0.0954212844371795,-79.7827791163933,40.45908528007964,269.0689882974624,0.0141831804066896,-0.0097949551418423,-0.7519818544387817,0.6589584350585938,-0.0102787612457508,-0.0017049998201313,-0.000445828964945,-0.0026577240787446,-0.0005970435449853,-0.0020823902450501,0.3286555099859833,-0.1008067652955651,-9.806662409305574,14934.0
3.9,0.4000000059604645,123.0,25.52931404113769,-0.1033730581402778,-79.78277891149575,40.459085256672246,269.05401024627685,0.0141805708408355,-0.0097722057253122,-0.7519732713699341,0.6589686274528503,-0.0080603024411476,0.0006190779647298,-0.0004112603482828,0.0054289442487061,0.0030998112633824,0.0011498575331643,0.3259111924096942,-0.08349440228194,-9.804159801006318,14934.0
4.09,0.4000000059604645,125.0,25.523054122924805,-0.0874695107340812,-79.78277870917056,40.45908522877423,269.0392580370903,0.0141996685415506,-0.0097457785159349,-0.751973569393158,0.6589683294296265,-0.006490986279117,0.0022074775602636,-0.0007925729948784,-0.0058305426500737,-0.0051633580587804,-0.0070659359917044,0.3262524139881134,-0.0837263174727559,-9.80358268082142,14934.0
4.19,0.4000000059604645,128.0,25.523054122924805,-0.0874695107340812,-79.78277870156813,40.45908524048436,269.0391471128464,0.0142119154334068,-0.0097194956615567,-0.7519627809524536,0.6589807868003845,-0.0086204206276223,0.0027587997039288,-0.0003952461949021,-0.0061079794541001,-0.0046318294480443,-0.0019810597877949,0.3308712027221918,-0.1014100334979593,-9.805623943805696,14934.0
4.39,0.4000000059604645,129.0,25.52555847167969,-0.1192766055464744,-79.78277852660355,40.45908520203993,269.0249376039505,0.0142204957082867,-0.00970702432096,-0.7519601583480835,0.6589837074279785,-0.0024254054412326,-7.898295985445915e-05,-0.0005696600643135,0.0051001943647861,0.0026260451413691,0.0043790247291326,0.3298277670890093,-0.0917130476050079,-9.803683837652208,14934.0
4.49,0.4000000059604645,127.0,25.516794204711918,-0.0874695107340812,-79.78277833038784,40.45908518946828,269.0121983628273,0.0142374644055962,-0.0096923802047967,-0.7519685626029968,0.6589739918708801,-0.0075235375300896,0.0010591735271227,0.0033597199806475,0.0008357135229744,0.0008281185291707,-0.0044612744823098,0.3258779729157686,-0.0838993311021477,-9.803602561354635,14934.0
4.69,0.4000000059604645,127.0,25.52806282043457,-0.1192766055464744,-79.78277832789036,40.4590851964146,269.01255390453343,0.0142234126105904,-0.0096794506534934,-0.7519621849060059,0.6589818000793457,-0.0079894497149465,0.0013076666866118,0.0035169969391604,0.0047735683619976,0.0031846254132688,0.0047995410859584,0.3322982887923718,-0.1039703830517828,-9.806371802687645,14934.0
4.79,0.4000000059604645,122.0,25.52931404113769,-0.0954212844371795,-79.78277812926325,40.459085160024905,268.9982180337906,0.0142436539754271,-0.0096741961315274,-0.7519689798355103,0.6589736342430115,-0.0023523593910334,0.002952591343304,0.0015261715295828,0.0090330429375171,-0.0003522964834701,0.005233010277152,0.3272914642095565,-0.0860399967525154,-9.80319501042366,14933.0
4.99,0.4000000059604645,122.0,25.52180099487305,-0.0954212844371795,-79.78277792807438,40.459085136295975,268.9835718612671,0.0142432423308491,-0.0096705975010991,-0.7519612312316895,0.6589825749397278,-0.0032643527603058,0.0038038000442312,0.0004533527693181,0.0017423490062355,0.0039899260737001,-0.0024429524783045,0.3291957927122712,-0.0952514170669019,-9.805435663461685,14933.0
5.1,0.3000000119209289,117.0,25.52931404113769,-0.0874695107340812,-79.78277792283977,40.459085139234254,268.9836465160846,0.0142270373180508,-0.0096561703830957,-0.7519517540931702,0.6589938402175903,-0.0039844178013463,0.0041017910880641,0.0006572524210256,0.0028512091375887,0.0015921026933938,0.003113450249657,0.3319150038063526,-0.1028455888945609,-9.80628760278225,14933.0
5.29,0.3000000119209289,115.0,25.531818389892567,-0.0874695107340812,-79.78277791724888,40.45908514279678,268.9837468307018,0.0142344925552606,-0.0096529303118586,-0.7519492506980896,0.6589966416358948,-0.0057711014186936,0.0045045496400327,0.0009908511243027,-0.0045457505621016,-0.0030974282417446,-0.0077997492626309,0.3268980562314391,-0.0828774113953113,-9.803556953072553,14933.0
5.39,0.3000000119209289,113.0,25.52180099487305,-0.1113248318433761,-79.78277774315181,40.45908510754988,268.9691165428161,0.0142188463360071,-0.0096194697543978,-0.7519442439079285,0.6590031981468201,-0.0017422941693812,0.0017877903450109,0.00065574933951,-0.0059328679926693,-0.0023527462035417,0.0007988135912455,0.3302147796750069,-0.0955077169742435,-9.8053883010149,14933.0
5.6,0.3000000119209289,111.0,25.52680969238281,-0.1033730581402778,-79.7827775428993,40.45908510446936,268.9559259455204,0.0142099224030971,-0.0096241170540452,-0.7519214153289795,0.6590294241905212,-0.0062558775188409,0.0024605996934288,0.003945177060586,0.0050156936049461,0.0001190184411825,0.0017029248410835,0.3278905845433473,-0.0840395637787878,-9.803049414753914,14933.0
5.7,0.3000000119209289,108.0,25.52680969238281,-0.1033730581402778,-79.78277753893875,40.459085110293294,268.9563522677421,0.0142146684229373,-0.0096228187903761,-0.7519225478172302,0.6590279936790466,-0.0080708036938413,0.0030653395141572,0.0043133489814987,-0.007249416783452,-0.0060691405087709,-0.0051396824419498,0.3268920993804932,-0.0886711158882826,-9.80456793665886,14933.0
5.89,0.3000000119209289,107.0,25.52680969238281,-0.1033730581402778,-79.78277733934083,40.45908507216341,268.9422729651928,0.0142286615446209,-0.0096072191372513,-0.7519357800483704,0.6590128540992737,-0.0013085712279489,0.0041693948742371,0.0058932092119141,0.0060449759475886,0.005582682788372,-4.269475903129205e-05,0.3305618484690785,-0.0928472795337438,-9.805141548514367,14933.0
5.99,0.3000000119209289,103.0,25.519296646118164,-0.1431319266557693,-79.78277712953617,40.459085055442536,268.92825529384606,0.0142660345882177,-0.0095756622031331,-0.7519406676292419,0.6590069532394409,-0.0029627702549923,0.0048931163375342,0.0070716893333654,-0.0009147617965936,-0.0023763887584209,-0.0052925646305084,0.3300932672247291,-0.10100227243267,-9.805771878361703,14933.0
6.2,0.3000000119209289,100.0,25.52931404113769,-0.0874695107340812,-79.78277711681508,40.459085059958895,268.9297268431186,0.0142338257282972,-0.0095791285857558,-0.7519478797912598,0.6589993834495544,-0.0046597671606524,0.005930961884215,0.0074224115050376,-0.0095090875402092,-0.0060977768152952,-0.0013989076251164,0.3308544285222888,-0.1006343820691108,-9.805359649658204,14933.0
6.3,0.3000000119209289,92.0,25.523054122924805,-0.1033730581402778,-79.78277691903196,40.45908505696856,268.9138321917057,0.0142295602709054,-0.0095784896984696,-0.7519474029541016,0.6589999794960022,-0.0067665535811032,0.0051680495032298,0.0047361037469841,0.0016717711696401,0.0017230531666427,-0.0023226519115269,0.3284352892264724,-0.088355576377362,-9.804063321948052,14933.0
6.49,0.3000000119209289,91.0,25.519296646118164,-0.0954212844371795,-79.78277691177209,40.4590850628451,268.9143439571857,0.014231295324862,-0.0095786219462752,-0.7519502639770508,0.6589966416358948,-0.0075995626015052,0.0057562433365772,0.0049298322083502,0.0040775523521006,-0.0013730289647355,0.0025183451361954,0.3315433036163449,-0.1031754540838301,-9.806380573511122,14933.0
6.6,0.3000000119209289,86.0,25.53056526184082,-0.0954212844371795,-79.78277670476217,40.45908505154022,268.8982998173237,0.0142321260645985,-0.0095737427473068,-0.7519504427909851,0.6589964628219604,-0.0059770186224889,0.0053816336877828,0.0025801929213457,0.0057662804611027,0.0051070102490484,0.0042885742150247,0.3307335373386741,-0.0986315005738288,-9.805688263177872,14933.0
6.79,0.3000000119209289,85.0,25.523054122924805,-0.1033730581402778,-79.78277649386445,40.45908504125519,268.88174722003936,0.0142371263355016,-0.0095674423500895,-0.7519535422325134,0.6589928865432739,-0.0052835158609984,0.0052582253582692,0.0009478323189499,0.002304820343852,0.0031269888859242,-0.0018082334427163,0.3288887408003211,-0.0945483442023396,-9.805866603255271,14933.0
6.9,0.3000000119209289,86.0,25.52931404113769,-0.1113248318433761,-79.78277648665869,40.45908504565455,268.88187787342065,0.0142384143546223,-0.0095677385106682,-0.7519567608833313,0.6589891314506531,-0.0058075785766164,0.00574698153903,0.0011508583423989,0.0035415005404502,-0.0006847594049759,0.0031821096781641,0.331059519611299,-0.1030835066176951,-9.806464188694957,14933.0
7.09,0.3000000119209289,86.0,25.51554107666016,-0.1351801604032516,-79.78277627822189,40.45908503167763,268.8645887713432,0.0142385428771376,-0.0095633175224065,-0.7519570589065552,0.6589890122413635,-0.0050811739572082,0.0051829145388175,8.192526321800073e-06,-0.0069261952303349,-0.0054293912835419,-0.0059241564013063,0.3260906288400293,-0.0858019054401666,-9.804032331705091,14933.0
7.19,0.3000000119209289,87.0,25.52430534362793,-0.1192766055464744,-79.78277626404737,40.459085039565984,268.8646562139988,0.0142428064718842,-0.0095617454499006,-0.751959502696991,0.6589861512184143,-0.0062640000879651,0.0059961052017301,0.0002825340129666,-0.0067614051513373,-0.0020644241012632,-0.0015242646913975,0.3294249304756522,-0.0978419437352568,-9.804979580640794,14933.0
7.39,0.3000000119209289,89.0,25.52555847167969,-0.1351801604032516,-79.7827760780284,40.45908503063309,268.8466559987068,0.0142469983547925,-0.009561501443386,-0.7519601583480835,0.6589853167533875,-0.0039990454370538,0.0008152345953435,-0.0004813995664175,-0.001170883886516,0.0017320152837783,-0.003879475640133,0.3280898284167051,-0.0840537524130195,-9.803556953072553,14933.0
7.49,0.3000000119209289,95.0,25.519296646118164,-0.0874695107340812,-79.78277587042626,40.45908504191596,268.82880044388764,0.0142423175275325,-0.0095554590225219,-0.7519665956497192,0.6589781641960144,-0.0076698002007963,0.0022022904093581,-0.0007947729618856,-0.004798624664545,-0.0032965051941573,-0.0059778233990073,0.3317940395325423,-0.1041133657470345,-9.805540328621865,14933.0
7.69,0.3000000119209289,96.0,25.51554107666016,-0.1192766055464744,-79.78277586221209,40.45908505514355,268.82868040013307,0.0142256459221243,-0.0095630092546343,-0.7519654035568237,0.6589797735214233,-0.0087100747212345,0.0030539936677912,-0.0005470855321723,0.0023399188648909,-0.0004807806108146,0.002944960957393,0.3298450894653797,-0.0938521144073456,-9.80479422390461,14933.0
7.8,0.3000000119209289,102.0,25.523054122924805,-0.1192766055464744,-79.7827756696028,40.459085053237466,268.8098770122528,0.0142271853983402,-0.0095530273392796,-0.7519649863243103,0.6589803695678711,-0.0068267320728175,0.0003047762582109,-0.0008919790360649,-0.0063008018769323,0.0011357492767274,-0.002230723388493,0.3262487229332328,-0.0833406022377312,-9.804472627043724,14933.0
7.99,0.3000000119209289,104.0,25.52680969238281,-0.1113248318433761,-79.78277566794435,40.45908505927721,268.80980050969123,0.0142229786142706,-0.0095406230539083,-0.7519687414169312,0.6589763164520264,-0.0066851316225031,0.0006710416642924,-0.0008417313207348,0.0043069310486316,0.0036431802436709,0.0055339345708489,0.3308697774633765,-0.1013904910068959,-9.80613499045372,14933.0
8.09,0.3000000119209289,106.0,25.523054122924805,-0.1113248318433761,-79.78277545441755,40.45908506844413,268.7904373149872,0.0142672974616289,-0.0095408950001001,-0.7519750595092773,0.6589681506156921,-0.0061178131165209,0.0027670217662315,-0.0012366825389328,0.0027423412539064,0.0012665454996749,0.000960404635407,0.3289114718511701,-0.0873693795036524,-9.804322938323024,14933.0
8.29,0.3000000119209289,106.0,25.47297096252441,0.6997560858726501,-79.78277525980494,40.45908508055202,268.770013515234,0.0142737990245223,-0.009536013007164,-0.7519714832305908,0.6589721441268921,-0.0052583338611941,-2.6264271867428975e-05,-0.0016315947498163,-0.0016660070978105,-0.0022992610465735,-0.0065826154313981,0.3301324070245027,-0.1033960402943194,-9.804811765551568,14933.0
8.39,0.3000000119209289,107.0,25.50051689147949,0.2146978974342346,-79.78277525866321,40.4590850849283,268.7698618810177,0.0142662664875388,-0.0095463376492261,-0.7520246505737305,0.6589114665985107,-0.005237012812082,0.0008479508485907,-0.0015531586181141,0.0049491287209093,0.0032207160256803,0.0032389580737799,0.3301525799185038,-0.101536260265857,-9.806130312681196,14933.0
8.59,0.3000000119209289,106.0,25.50051689147949,0.2226496636867523,-79.78277506970787,40.45908509576351,268.74996558237075,0.0142466314136981,-0.0095547251403331,-0.7519967555999756,0.6589435935020447,-0.0048901225000998,-0.0006973178209208,-0.0017616526900165,-0.0064180111512541,-0.0052851443178951,0.002828404540196,0.3300391804799438,-0.0890253201127052,-9.804320014715197,14933.0
8.69,0.3000000119209289,103.0,25.50302124023437,0.2067461162805557,-79.78277506959508,40.45908510523318,268.74963412094115,0.0142569644376635,-0.0095618590712547,-0.7520120739936829,0.6589257717132568,-0.0053446141520295,-0.0004112074252071,-0.0015895167165222,0.0055657923221588,0.0041716550476849,0.0044417064636945,0.330123855471611,-0.0992995540983975,-9.805403503775596,14933.0
8.89,0.3000000119209289,102.0,25.51053237915039,0.2226496636867523,-79.78277484640606,40.45908513310328,268.72947325217723,0.0142416460439562,-0.0095629412680864,-0.7520204186439514,0.6589166522026062,-0.0101288137700245,0.0044087278244089,-0.0018742242130983,-0.003107335884124,-0.002839220687747,-0.007034754846245,0.3250329771637916,-0.0979603041708469,-9.806226791739462,14933.0
8.99,0.3000000119209289,99.0,25.50802993774414,0.2385532110929489,-79.78277465620084,40.459085169102735,268.7078423838616,0.0142158325761556,-0.0095294201746582,-0.7520170211791992,0.6589215397834778,-0.0110259090371495,0.0015081822523666,-0.0022127122416226,0.0013042526552453,-0.0024190545082092,0.002138964831829,0.3223115002736449,-0.1095240684784948,-9.80424692451954,14933.0
9.19,0.3000000119209289,96.0,25.4942569732666,0.3419262766838074,-79.78277465219004,40.45908517864434,268.7076416205168,0.014201202429831,-0.009534410201013,-0.7520191073417664,0.6589193344116211,-0.0122100696765616,0.002864079668381,-0.0020038381065169,-0.0074851685203611,-0.0051031513139605,-0.0048502436839044,0.325884039402008,-0.080753967622295,-9.804453915953635,14933.0
9.3,0.3000000119209289,96.0,25.49550819396973,0.3498780429363251,-79.78277450425921,40.459085161367895,268.6855385195017,0.0142322601750493,-0.0095592336729168,-0.7520101070404053,0.658928632736206,0.0023476101661702,-0.0037710541591592,-0.0019459621167784,-0.0028146447148174,-0.0035477727651596,-0.0047791423276066,0.335767807289958,-0.086218565236777,-9.804435789585114,14933.0
9.49,0.3000000119209289,96.0,25.412872314453125,1.7414385080337524,-79.78277430627239,40.45908520549136,268.6634963195324,0.0142863159999251,-0.0095211351290345,-0.7520318031311035,0.6589032411575317,-0.0046366832475511,0.0006737302715002,-0.0029442151181195,0.0058302283287048,0.0013555170735344,0.0047309575602412,0.3279313688725233,-0.0653390169516205,-9.818292521238329,14933.0
9.59,0.3000000119209289,98.0,25.48173522949219,0.326022744178772,-79.78277430322308,40.45908521197981,268.663251031518,0.0142991561442613,-0.0095156114548444,-0.7519939541816711,0.6589463353157043,-0.0104255386069739,0.0024957460249902,-0.0025485780452227,-0.0329012759029865,-0.0418372228741645,-0.019985819235444,0.3096729263663292,-0.0450870713358745,-9.795334013700488,14933.0
9.8,0.3000000119209289,98.0,24.71798515319824,9.176346778869627,-79.78277429925444,40.459085218699606,268.663014848113,0.0143006481230258,-0.0095159849151968,-0.7520322203636169,0.658902645111084,-0.0075545213220467,0.0042523759135586,-0.0030963958475334,-0.0015023763990029,-0.0255365297198295,0.0062416149303317,0.3234637306630612,-0.0810684199165552,-9.802099242210389,14933.0
9.89,0.4000000059604645,97.0,25.43791389465332,1.3279461860656738,-79.78277413982299,40.45908524429704,268.64089702475064,0.0144049348309636,-0.0095561742782592,-0.7520371079444885,0.6588941216468811,-0.0043072026982712,0.0005168240762493,-0.0017382597710868,-0.0135642131790518,-0.0122703155502676,0.0247390419244766,0.2735429260320962,-0.1052666376717388,-9.78808931350708,14933.0
10.09,0.4000000059604645,96.0,25.496761322021484,0.1431319266557693,-79.78277398375056,40.45908528089392,268.6172460432649,0.0143392262980341,-0.0094704432412982,-0.7519943118095398,0.6589456796646118,-0.0074698137139661,-0.0037280689868148,-0.0033587257241854,0.0231871251016855,0.0534040667116642,0.0128268273547291,0.3332055208459497,-0.0916418029367923,-9.81002338886261,14933.0
10.2,0.4000000059604645,96.0,25.479232788085927,0.4612028896808624,-79.78277398565298,40.4590852967286,268.6166670958996,0.0142879737541079,-0.0094941956922411,-0.7519716620445251,0.6589721441268921,-0.0107849932142086,-0.002893484773171,-0.0021378995925453,-0.0014553666114807,0.0004564489645417,-0.0230568889528512,0.2924693763814867,-0.0719810108235105,-9.811261829137804,14933.0
10.39,0.5,95.0,25.27264404296875,4.3178133964538565,-79.7827738171622,40.45908530442907,268.5945696275234,0.0143221281468868,-0.0094862971454858,-0.7520368695259094,0.6588972806930542,-0.004439268347843,0.001517924840128,-0.0025517177774279,-0.0100974459201097,-0.0058776908554136,0.0080840568989515,0.3303996613249183,-0.0904521503672003,-9.79923176765442,14933.0
10.5,0.5,92.0,25.144933700561523,5.248170852661133,-79.7827736505002,40.45908532888103,268.5717445130944,0.0142952837049961,-0.0094826491549611,-0.7520142197608948,0.6589237451553345,-0.0042265904657106,0.005371278884256,-0.0057899419348511,0.0014647240750491,-0.0346027836203575,-0.0129228495061397,0.3516849150136113,-0.1124517510831356,-9.815915043354035,14933.0
10.69,0.5,93.0,24.999696731567383,7.6734619140625,-79.78277364221535,40.459085332512274,268.5711818154454,0.0142973512411117,-0.0094775594770908,-0.7519874572753906,0.6589543223381042,-0.0054968416461183,0.006332945670478,-0.0064582754581649,-0.0285936314612627,-0.0242925602942705,-0.0687969774007797,0.3491232863813638,-0.0607184009626507,-9.80032285809517,14933.0
10.79,0.6000000238418579,96.0,24.90954971313477,8.945745468139648,-79.78277353610503,40.45908536892343,268.55229396778344,0.0145699437707662,-0.0093051716685295,-0.752020001411438,0.6589135527610779,-0.0012833359395304,-0.0042967564139787,-0.0035831409169297,0.0253065917640924,0.0603447146713733,-0.0581533722579479,0.3527480849996209,-0.0202978051453828,-9.801745485663414,14933.0
10.99,0.6000000238418579,97.0,24.76305961608887,12.341153144836426,-79.78277353239208,40.45908537250368,268.55204042080044,0.0147669622674584,-0.0091442894190549,-0.7520843148231506,0.6588380932807922,-0.009630144711631,-0.0002981152702316,-0.0012762253361351,-0.050888791680336,-0.0811178833246231,0.0924092158675193,0.2269834664091468,-0.0380088020861148,-9.761330700516703,14933.0
11.1,0.6000000238418579,105.0,24.64912223815918,13.867894172668455,-79.78277340574978,40.45908539402004,268.5323057960272,0.0164333321154117,-0.0078336000442504,-0.7520118355751038,0.6588982343673706,-0.0058722241592031,0.006140573845751,0.008305979795909,-0.0138202076777815,0.0178697817027568,-0.0543352626264095,0.4245858436077833,-0.1670267383754253,-9.922247829437255,14933.0
11.29,0.699999988079071,107.0,24.359899520874023,17.54161262512207,-79.78277340924721,40.45908539676884,268.5333533253074,0.0177273601293563,-0.0077609624713659,-0.7521733641624451,0.6586810350418091,-0.0011973660079367,-0.0012273400476491,0.015415932705194,0.0010923723457381,0.0296142864972352,-0.0471977815032005,0.3866790023446083,-0.0897317551262676,-9.887441693544387,14933.0
11.39,0.699999988079071,119.0,24.24721336364746,19.291004180908203,-79.78277331390001,40.459085390833785,268.5127616555914,0.0185669735074043,-0.0100401462987065,-0.7533501386642456,0.6572808027267456,-0.0090597422467058,-0.0038009463192569,0.0206002026114979,-0.1028942540287971,-0.0623615384101867,0.0373348034918308,0.4234501681476832,-0.1270372376684099,-9.863428348302842,14933.0
11.59,0.699999988079071,125.0,24.00431632995605,23.29074668884277,-79.78277330171397,40.45908545477258,268.50080378200107,0.004119477700442,-0.0149423126131296,-0.7573248744010925,0.6528543829917908,-0.0435343538085534,-0.0559516976149782,0.1183451552489091,-0.2976807951927185,-0.042064793407917,0.0312043000012636,0.2124208296462893,-0.0279208750091493,-10.025307344198229,14933.0
11.69,0.8000000119209291,127.0,23.85782623291016,25.262784957885746,-79.78277337588683,40.45908550635605,268.5180465824455,-0.0050952020101249,-0.0221140347421169,-0.7574760913848877,0.6524683833122253,-0.0679199250390699,-0.0798516032574334,0.2351707871294721,-0.2465083003044128,0.0082537177950143,-0.0013302091974765,0.0164287573657929,-0.1360595188289881,-10.821967087984085,14933.0
11.9,0.8000000119209291,126.0,24.359899520874023,17.040651321411133,-79.78277353994059,40.45908519970285,268.5223482030928,-0.0068194307386875,-0.0094427922740578,-0.7562215924263,0.6542119979858398,-0.0531633447495427,-0.0886152329555666,0.2863399885447458,0.2414042055606842,0.0070105362683534,0.0375608392059803,-0.0166911557363346,0.4778601908683777,-10.6376336145401,14933.0
12.0,0.8999999761581421,136.0,24.289783477783203,17.597274780273438,-79.78277342385896,40.45908559370762,268.51689918744563,-0.004377331584692,-0.0007223365246318,-0.755588173866272,0.6550319790840149,-0.070474761300991,-0.0859086205128745,0.1866271924608796,0.19461028277874,-0.0049387207254767,-0.0120097510516643,0.0570482133328914,-0.1306211605947465,-9.518789949417116,14933.0
12.19,0.8999999761581421,138.0,24.18961906433105,19.89533805847168,-79.78277349839851,40.45908568039789,268.5321047085821,-0.0029679520521312,0.005259565077722,-0.7552570700645447,0.6554008722305298,-0.0906053134030078,-0.0710492804169235,0.1178416793209102,0.0427957102656364,-0.0017994986847043,0.0370420329272747,0.0400902189966291,-0.25791777709499,-9.266444587111474,14933.0
12.29,0.8999999761581421,137.0,24.16332626342773,20.10208511352539,-79.78277333907009,40.45908579225832,268.541960083276,-0.0007942405645735,0.003990882076323,-0.7564413547515869,0.6540488600730896,-0.0922511998144744,-4.848570343909953e-05,0.04104582880328,0.0355424731969833,0.0344156511127948,0.0060234852135181,-0.0296071069361642,-0.1056656918674707,-9.13829233109951,14933.0
12.49,1.0,137.0,24.13327789306641,20.984731674194336,-79.78277331777973,40.45908587287076,268.5452943671048,0.0009804156143218,0.005200246348977,-0.757129967212677,0.6532429456710815,-0.0871307765994076,0.0202034988893718,0.0219135680720644,0.0851524546742439,0.0265397783368825,0.0819462612271308,0.1974469326250255,-0.1391042827907949,-9.546643161177636,14933.0
12.6,1.100000023841858,137.0,24.006820678710927,21.98665428161621,-79.78277331857434,40.45908601754546,268.5445499535204,0.0015917074633762,0.0038036732003092,-0.7578597664833069,0.6524045467376709,-0.0934143542687414,0.0336389688177353,0.0235381708838874,-0.0352206751704216,-0.0402015633881092,-0.0289990790188312,0.0996582533698529,0.0121034623123705,-9.73267525076866,14933.0
12.79,1.100000023841858,135.0,23.98929214477539,22.57508659362793,-79.78277326260483,40.45908609516489,268.54770237985247,0.0016680278349667,0.0031124579254537,-0.7580789923667908,0.6521533131599426,-0.1008404032371831,0.043980131233264,0.0403007553145096,-0.1128748580813408,-0.0523340106010437,-0.0778692662715911,0.1093252448737621,0.0794992465060204,-9.939196568727494,14933.0
12.9,1.2000000476837158,130.0,24.078187942504893,21.09605598449707,-79.78277324236565,40.45908626719116,268.55623776870965,0.0030557909049093,0.0035453429445624,-0.7583713531494141,0.6518059968948364,-0.1086103537310208,0.034908830466502,0.1285442353646584,-0.1503752171993255,-0.0952847674489021,-0.1349246054887771,0.1014182926900684,0.2126780888624489,-10.030593227148056,14933.0
13.09,1.2000000476837158,127.0,24.06942367553711,20.905214309692383,-79.78277316228112,40.45908630082186,268.55150444093346,0.0036924418527632,0.0029056563507765,-0.7586729526519775,0.6514548659324646,-0.0634218481262861,0.0340008651766843,0.1443335582504306,0.196756362915039,0.07687259465456,0.0954096987843513,0.129872260177508,-0.0738367115054279,-9.885606837272643,14933.0
13.19,1.2999999523162842,124.0,24.02059364318848,21.27099609375,-79.78277309935817,40.459086357061246,268.5668852444291,0.0052800229750573,0.0047520585358142,-0.7590463757514954,0.6509979367256165,-0.0700975920366593,0.0548170035778713,0.1569013082393402,0.0470824353396892,-0.0888179689645767,-0.0491053685545921,0.1814592928625643,0.0658702821750193,-9.910643445253374,14933.0
13.39,1.2999999523162842,126.0,24.05189323425293,21.11195945739746,-79.782772838602,40.4590865133994,268.5508179109096,0.0053652562201023,0.0072441739030182,-0.7593810558319092,0.650583803653717,-0.0763381527026943,0.0691885671222421,0.1492432626147621,0.0507710725069046,-0.0727391988039016,-0.0046597351320087,0.1297274410910904,-0.0746950964676216,-9.881214408874513,14933.0
13.49,1.2999999523162842,123.0,23.99555206298828,21.795812606811523,-79.78277248228234,40.45908666834303,268.5552618208825,0.0072864410467445,0.0058013475500047,-0.7594320178031921,0.6505200862884521,-0.044463292244922,0.084907993885859,0.1471327210549385,0.1011978834867477,0.0614078938961029,0.031974222511053,0.1466064523346722,-0.1841479157097637,-9.869460335969926,14933.0
13.69,1.2999999523162842,123.0,24.40622520446777,16.714628219604492,-79.78277226989825,40.45908670743909,268.5819986875653,0.0127791678532958,0.0035759899765253,-0.7582668662071228,0.6518092751502991,-0.0198876993273996,0.0896363019428806,0.0399281370380063,-0.0090220859274268,0.0209131371229887,0.0026342419441789,0.061352778179571,-0.1481119002308696,-9.835357035398484,14933.0
13.8,1.399999976158142,123.0,23.72135353088379,25.42977333068848,-79.78277212209004,40.45908679942512,268.56346425074344,0.0104377679526805,-0.0007919530617073,-0.7576221823692322,0.6526094675064087,-0.0407013950480715,0.0862373654743658,-0.0600393317850035,-0.1405137926340103,0.0373643897473812,-0.0138212470337748,0.1249465931206941,-0.1986271017417312,-8.90154967904091,14933.0
13.99,1.399999976158142,122.0,23.569854736328125,29.055782318115234,-79.78277201379294,40.45908683005046,268.5579956251681,0.0035242706071585,-0.0095186773687601,-0.7569106817245483,0.6534395813941956,-0.0388634461698774,0.0737966041261547,-0.0384143684950695,-0.1078628003597259,0.1301255226135254,0.0581662505865097,0.1349627456255257,-0.2290447926521301,-9.819734444618224,14933.0
14.1,1.399999976158142,125.0,23.71759605407715,26.12952995300293,-79.78277201145339,40.459087018670935,268.57293156194686,-0.0016038499306887,-0.0123310852795839,-0.7554517388343811,0.6550863981246948,-0.0641540764375765,0.0631465146238813,0.2183180955479602,-0.0469212681055069,-0.0733267217874527,-0.0728067606687545,0.0073387535708025,0.167740135230124,-10.989522560834882,14933.0
14.29,1.399999976158142,124.0,23.209264755249023,33.437210083007805,-79.78277193017547,40.45908707298279,268.6015727262497,-0.0012096411082893,-0.0086730644106864,-0.7550322413444519,0.6556292772293091,-0.0693861072190459,0.0561697953456179,0.3592634655687683,0.1350760161876678,-0.0316755473613739,-0.0545721426606178,0.0543036399409175,0.2126417447626591,-11.22618393659592,14933.0
14.4,1.5,125.0,23.402080535888672,31.234567642211918,-79.78277188259234,40.45908707386041,268.66428506779664,0.0050689331255853,0.0001090246078092,-0.7552677989006042,0.6553967595100403,-0.057130686018182,0.0563772431714694,0.7153857841793314,0.1302776336669922,0.0025909296236932,0.0937663316726684,0.0352613599039614,-0.2248997380211948,-11.863269656896591,14933.0
14.59,1.5,126.0,23.19799613952637,34.184677124023445,-79.78277167181231,40.45908720135314,268.8287729363441,0.0048703756183385,0.0029994815122336,-0.7568512558937073,0.6535621881484985,-0.0544616832082817,0.0583538051868953,1.1662880640029305,0.1560618579387664,0.0384558141231536,0.1518313139677047,0.0361126048676669,-0.122982056569308,-11.984939689636231,14933.0
14.69,1.5,127.0,23.026464462280277,36.87237548828125,-79.78277158696963,40.45908723708744,268.95842481064795,0.0044421330094337,0.0036499998532235,-0.7582826018333435,0.6519007682800293,-0.0621193607005665,0.0700936236921507,1.4320035729367435,-0.038052499294281,-0.0097786886617541,-0.0084320791065692,0.0353147568600252,-8.780416566878559e-05,-12.39050256729126,14933.0
14.9,1.600000023841858,128.0,23.04399299621582,36.34755706787109,-79.7827714150329,40.45908725804879,269.0881652574539,0.0035397000610828,0.0028237777296453,-0.7598768472671509,0.6500513553619385,-0.0568066882900668,0.0774568291298534,1.7113579565985748,-0.0433912724256515,0.011428409256041,0.0050865816883742,0.0557120971474796,0.001812810441479,-12.733772717714311,14934.0
14.99,1.7999999523162842,128.0,23.15793037414551,34.53455352783203,-79.78277113959845,40.45908728229731,269.436889503479,0.0043926048092544,0.0009511967655271,-0.7611752152442932,0.6485308408737183,-0.0331708695145707,0.0940533059195917,2.2274915055453257,0.0711745619773864,-0.0191629119217395,0.067666508257389,0.0180082547664642,-0.0244388923491351,-12.70434718966484,14934.0
15.19,1.8999999761581416,128.0,23.06152153015137,35.18659973144531,-79.78277103581081,40.459087282474975,269.6719127635956,0.0041340477764606,0.0016012726118788,-0.7609288096427917,0.6488203406333923,-0.0346992504306366,0.1025871069837784,2.4692439602952287,-0.0681325793266296,-0.0717399418354034,-0.0465920157730579,0.0311824153549969,-0.024554779138416,-12.303821103572846,14934.0
15.29,2.0999999046325684,126.0,23.23680877685547,32.18082809448242,-79.78277081694961,40.45908729635797,270.10132703590386,0.0033100582659244,0.0043540061451494,-0.7598803043365479,0.6500400304794312,-0.0116589572860846,0.0993995381724495,2.8235649724805247,0.0568959936499595,-0.035292811691761,0.0101300608366727,0.0640246633719652,-0.0207980938302353,-11.899056955575944,14935.0
15.49,2.0999999046325684,125.0,23.31694030761719,31.12324333190918,-79.78277070945704,40.4590872683408,270.3919678668976,0.0031589898280799,0.0039238315075635,-0.7590969800949097,0.6509580612182617,-0.0194893626487213,0.0934689599297923,2.9759457817991435,-0.113500066101551,-0.0147807942703366,-0.0537875965237617,0.0049708653485868,0.0772771492414176,-11.380514177083972,14935.0
15.6,2.299999952316284,122.0,23.513511657714844,27.664220809936523,-79.78277058942784,40.459087262498606,270.8610952835083,0.0034473645500838,-0.0066625196486711,-0.7569219470024109,0.6534623503684998,0.0212842920571864,0.0902083006383206,3.0534143655178,-0.0094448523595929,0.0926732867956161,0.0238681379705667,0.0712211468769237,-0.1055311693623662,-10.774491205215456,14935.0
15.8,2.400000095367432,120.0,23.748897552490234,23.89508056640625,-79.78277060402503,40.45908734799725,271.2878051738739,0.0011814058525487,-0.0089443447068333,-0.7550986409187317,0.6555492281913757,0.041001242242581,0.0878461960623467,2.975825029330464,0.0009979831520467,-0.0381782501935958,-0.1383288353681564,0.1061999446526169,0.0805850835889577,-10.33215986609459,14936.0
15.89,2.5999999046325684,116.0,23.60491180419922,25.843265533447266,-79.78277057043792,40.45908733368753,271.5843029956817,0.0009113397100009,-0.0065887635573744,-0.7552934885025024,0.6553530693054199,0.0288674030048934,0.0691726986208141,2.9542545606680246,-0.1009154692292213,-0.1326877772808075,-0.1679321676492691,-0.0749261711211875,0.2512102715671062,-9.65340747177601,14936.0
16.09,2.5999999046325684,114.0,23.490976333618164,27.84711265563965,-79.78277091894248,40.45908757006647,271.7468126754761,0.0014951707562431,-0.0059454478323459,-0.7557191848754883,0.6548672318458557,0.0065933893441968,0.0035851896154733,2.8434473517096435,0.1070937812328338,0.0691839829087257,0.0188774224370718,-0.0538347252225503,0.0368213604949414,-9.587708741426466,14936.0
16.19,2.900000095367432,111.0,23.56735038757324,26.471454620361328,-79.7827709946044,40.45908762505841,272.3116415481568,-6.139144534245133e-05,-0.0061524077318608,-0.7565075159072876,0.6539561152458191,-0.0052595435209788,-0.0222039958313762,2.8284244670473164,0.1514428853988647,0.1139966696500778,0.0960021018981933,-0.024561345835682,-0.0715973101370036,-9.88981683254242,14937.0
16.39,3.0,107.0,23.61117172241211,25.318449020385746,-79.78277136746243,40.45908833844425,272.83901724624627,-0.0002159232535632,-0.0027484886813908,-0.7569753527641296,0.653437614440918,-0.0661627457010339,-0.084973213589491,2.813696545768776,0.0218357387930154,0.0741695016622543,0.1080496907234192,-0.0245816808985546,-0.2343029926903546,-9.905875625610353,14937.0
16.49,3.0,103.0,23.72385597229004,24.28471755981445,-79.78277063605579,40.45908840562084,273.2716248970032,-0.0009306226857006,-0.0034585832618176,-0.7566203474998474,0.6538447737693787,-0.1103205456760981,-0.045461916535811,2.8750467956173367,-0.0982829630374908,-0.0462747849524021,0.0607558451592922,-0.0502005619229748,-0.1602542008459568,-9.699318639636036,14938.0
16.69,3.0,99.0,23.73637771606445,23.06014442443848,-79.78277068461165,40.45908852069114,273.5573266487121,-0.002233310136944,-0.0040591219440102,-0.7561716437339783,0.6543569564819336,-0.1136633867187227,-0.0513041969346013,2.8420104221702776,-0.0886905938386917,-0.0476191863417625,-0.1540937721729278,-0.081831700829789,0.2500357669405639,-9.500106341242793,14938.0
16.79,3.0999999046325684,95.0,23.59364318847656,25.708086013793945,-79.7827700610823,40.45908786300792,274.3690803985596,-0.0036488254554569,-0.0010961137013509,-0.7558479309082031,0.6547361016273499,-0.0110848585921844,-0.0370784807232846,2.879264036783384,0.1287471354007721,0.0202044062316417,0.0273265186697244,-0.0769439584482461,-0.1185953657515347,-9.426330267190933,14939.0
16.99,3.0999999046325684,95.0,23.62494468688965,25.11170196533203,-79.78277023847164,40.45908736933379,275.1548298339844,-0.005316263064742,0.0058187302201986,-0.7556697130203247,0.6549054980278015,-0.0256411443765305,-0.0509777420793939,2.910359221296735,-0.0366132482886314,-0.0423107556998729,-0.1298835724592209,0.0732770964223891,-0.1381766677089035,-9.471616367697717,14940.0
17.09,3.0,94.0,23.62995338439941,25.262784957885746,-79.78277025705206,40.459087401604855,275.4445570449829,-0.004667819943279,0.0038443959783762,-0.7557443380355835,0.6548389792442322,-0.030832496673214,-0.0628423176787182,2.8824142729162574,0.0682291015982627,0.1740144342184066,0.0015330548631027,-0.0235826064459979,0.0568720294162631,-9.508173159956932,14940.0
17.29,2.900000095367432,94.0,23.469690322875977,27.457475662231445,-79.78277026221181,40.45908743596074,275.7315519790649,-0.0026111879851669,-0.000310915056616,-0.7559971213340759,0.6545698046684265,-0.0405413762415474,-0.0370921982508087,2.8575951975344216,-0.1455262154340744,0.1107390150427818,-0.0163061767816543,0.0147533290833234,-0.0245114914700388,-9.525920044183732,14940.0
17.39,2.799999952316284,97.0,23.65624618530273,24.24495887756348,-79.78277032377163,40.45908738724631,276.45948872375493,0.0036631685215979,-0.0062069096602499,-0.7569683194160461,0.6534118056297302,-0.0260674749748523,0.0112149419783049,2.905893631472834,0.0266886707395315,-0.0013391890097409,-0.0172708258032798,0.0959510364197194,0.0212738424818962,-9.706323019266131,14941.0
17.59,2.799999952316284,100.0,23.596147537231445,25.723989486694336,-79.78277039314925,40.45908736926349,276.85813412475585,0.0060275658033788,-0.0064872959628701,-0.7572125196456909,0.6531085371971129,-0.0419378721214637,0.0186530044198973,2.952273993311142,-0.0678436532616615,-0.0431699268519878,-0.1361781954765319,0.0575890625081956,0.2591415810585022,-9.645183947682384,14941.0
17.69,2.700000047683716,109.0,23.51852035522461,25.74784469604492,-79.78277045379973,40.45908745040679,277.44398197937005,0.0052014850080013,-0.0033889473415911,-0.7576858997344971,0.6525898575782776,-0.0336160506139716,0.0027344735633859,2.9183776812949307,0.2103388458490372,0.0716043785214424,0.1898657530546188,0.1285744615271687,-0.4333839297294617,-9.795745072960854,14942.0
17.9,2.700000047683716,110.0,23.51100730895996,26.75771903991699,-79.78277035950275,40.4590870556296,277.8408030014038,0.0034803885500878,-0.0019609471783041,-0.7578597068786621,0.652405321598053,-0.0281493146588418,0.002057645888442,2.9775777252400086,-0.0909286811947822,-0.0225438345223665,-0.0596763417124748,0.0761169109074399,-0.0009627897385507,-9.746995666623116,14942.0
17.99,2.5,115.0,23.60366058349609,25.27868843078613,-79.78277056890316,40.459087184640325,278.518733833313,0.0020954087376594,0.0004785782657563,-0.7582359910011292,0.6519767642021179,-0.024259869580067,-0.0490548310004107,3.063984990038126,0.1161109060049057,-0.0073731048032641,0.0207266304641962,0.0671773541439324,0.0456770599633455,-10.029194573163986,14943.0
18.19,2.400000095367432,116.0,23.487218856811523,27.3063907623291,-79.78277063086405,40.45908720794949,278.8262365798949,0.0036601829342544,0.0015146144432947,-0.7583988904953003,0.6517786979675293,-0.0323079270420133,-0.0472452529301438,3.085753641655569,0.0189800020307302,0.0254497677087783,-0.0307202134281396,0.0155138599779456,0.2546269823983312,-10.010505702495577,14943.0
18.3,2.299999952316284,121.0,23.59364318847656,24.30857276916504,-79.78277057403307,40.45908715060811,279.4652594070434,0.0042800037190318,0.0016495245508849,-0.7583286166191101,0.6518563628196716,-0.0233573977754496,-0.0182240410452023,3.126976525111669,0.024950822815299,0.0796020254492759,0.0508200637996196,0.0671664637047797,-0.1340276844799518,-9.969654715061187,14944.0
18.49,2.299999952316284,122.0,23.67753028869629,23.5849609375,-79.78277066020178,40.459087217050936,280.1040123443604,0.0039986413903534,-0.0008103214786387,-0.7584929466247559,0.6516686081886292,-0.0173486497183955,-0.0214961902297327,3.1028076339165853,0.1158375889062881,0.0461710728704929,0.0571206696331501,0.0261516354605555,0.0545544489473104,-9.763036333322525,14945.0
18.6,2.299999952316284,123.0,23.58112335205078,24.32447624206543,-79.78277069519434,40.45908722303806,280.41327271270745,0.004023355897516,-0.0027513462118804,-0.7583730816841125,0.6518025994300842,-0.0047899397402671,-0.0115662502730907,3.084515744518076,0.0987693667411804,0.1592058539390564,0.0901264995336532,0.1331900708377361,-0.1844429260119796,-9.678704865574836,14945.0
18.79,2.299999952316284,122.0,23.50474739074707,25.827362060546875,-79.78277073793551,40.459087156436894,281.0488089065552,0.0034301495179533,-0.0039183017797768,-0.7586178183555603,0.6515150666236877,0.0156503774065,0.0065488226988828,3.052358721384933,0.1138786524534225,0.010390973649919,0.1057786270976066,0.0603304473403841,0.2231094119511544,-9.548381538391114,14946.0
18.9,2.400000095367432,118.0,23.53104019165039,25.35820770263672,-79.7827707696662,40.45908715368166,281.35328469085687,0.0029205540195107,-0.0041755167767405,-0.758635938167572,0.6514949798583984,0.0169922988229562,0.0032469709135086,3.0380252034671766,0.0663841515779495,0.1084667146205902,0.090223304927349,0.1423319732397794,-0.1389861142169684,-9.65267773926258,14946.0
19.1,2.5,116.0,23.51852035522461,25.95458984375,-79.78277089536287,40.45908706917925,281.6853016357422,0.0021671005524694,-0.0035127862356603,-0.7584247589111328,0.6517476439476013,-0.0069508661968685,0.0088384184588234,3.0401822825936144,-0.2610717117786407,-0.2413452565670013,-0.1727490276098251,0.0264382381062023,0.2818754641525448,-9.46473828792572,14946.0
19.2,2.5999999046325684,105.0,23.48471450805664,26.67820167541504,-79.78277095593202,40.45908705127319,282.28614792633056,0.0015640505589544,-0.0015393955400213,-0.7580091953277588,0.6522401571273804,0.014047920335534,-0.0073679007472277,2.981305659940076,-0.1652829200029373,-0.022598423063755,-0.0495822206139564,0.0288142541865818,0.1019445786438882,-9.535514155626297,14947.0
19.39,2.5999999046325684,99.0,23.529788970947266,25.159412384033203,-79.78277088404126,40.45908693082177,282.61332115936284,0.0009469900978729,-0.0040646707639098,-0.758230447769165,0.6519733667373657,0.0226097069839668,0.0013226596568869,2.993887149106109,0.0046557248570024,0.048471663147211,-0.0227093994617462,0.0768042282667011,0.1192265087272972,-9.554531055092813,14947.0
19.49,2.5999999046325684,86.0,23.59364318847656,24.761823654174805,-79.7827710550142,40.45908696427749,283.2284439544677,-0.0024901565629988,-0.0151864644140005,-0.7578165531158447,0.6522862911224365,0.0515757171288326,0.0114165214314634,2.9519670233235606,-0.0821057111024856,0.0262287016957998,0.0136499982327222,0.0494639406586065,-0.1227296761237085,-9.585623624324802,14948.0
19.69,2.700000047683716,80.0,23.44089317321777,26.781574249267567,-79.78277111487886,40.45908694846805,283.8148697357177,-0.0019038001773878,-0.0100830355659127,-0.7576339244842529,0.6525990962982178,0.0665498889972383,0.0143290175575951,2.9342217032373945,0.0677605420351028,0.0823841840028762,-0.028688970953226,0.1316878023650497,0.373389889150858,-9.543678622841837,14948.0
19.8,2.900000095367432,64.0,23.320695877075195,28.451446533203125,-79.78277097124635,40.45908690367632,284.13598236846923,0.0006522691692225,-0.0112282847985625,-0.7561616897583008,0.6542882919311523,0.083355224029354,0.0192188454650323,2.9780807274606453,0.2155522108078003,0.0872207805514335,-0.0520243048667907,0.195656825825572,0.0700205993000418,-9.8740270113945,14949.0
19.99,3.0,53.0,23.43713760375977,26.7418155670166,-79.78277098757891,40.45908687525712,284.43504509735106,0.0037847366183996,-0.0088749071583151,-0.7539271712303162,0.6568872928619385,0.0910143616310092,0.0525733101551047,2.9953168920332387,0.1489937454462051,0.0884832888841629,-0.008301431313157,0.3179331782832741,0.0710404953220859,-9.918116186857224,14949.0
20.09,3.0,38.0,23.40834045410156,27.02012825012207,-79.78277096291025,40.45908664330169,285.047222946167,0.002138270298019,-0.0102381696924567,-0.7517270445823669,0.6593914031982422,0.0788152268950549,0.0660000196433353,3.054247182315857,-0.3560669422149658,-0.0605364553630352,-0.1505334824323654,0.1187063349410891,0.5190009078383446,-10.048816659450534,14950.0
20.29,3.0,29.0,23.43838882446289,26.23290252685547,-79.7827709508687,40.459086558488494,285.35396275329583,-0.0028915477450937,-0.0164146292954683,-0.7527753710746765,0.65806645154953,0.1245989508543877,0.0818966460197454,3.0776332901470287,-0.1550424844026565,0.0060693435370922,0.0243222452700138,0.2974942542426288,0.4113038201630116,-10.079008172750472,14950.0
20.39,3.0999999046325684,18.0,23.448406219482425,26.240854263305664,-79.78277082046728,40.45908616056638,285.95634350585937,-0.0134756872430443,-0.0204656738787889,-0.7557243108749391,0.6544312834739685,0.2298796784706438,0.1170932036897776,3.066451437154709,0.2041333317756652,0.1230170801281929,0.2609986662864685,0.3158381574600935,0.0927954403124749,-9.926991090774536,14950.0
20.5,3.0999999046325684,13.0,23.453413009643555,26.23290252685547,-79.78277073580416,40.45908607491744,286.25304493713384,-0.0133023299276828,-0.0180334951728582,-0.7564975023269653,0.6536126732826233,0.2094199996757601,0.1177049617277857,3.0668740826351897,-0.1784975975751876,-0.1238720044493675,-0.1628978848457336,0.0751305724214762,0.5635366278514267,-9.948214144706728,14951.0
20.7,3.0,7.0,23.529788970947266,24.539175033569336,-79.78277056823171,40.459085919807954,286.87084469604486,-0.0009687164565548,-0.0139134135097265,-0.7572019100189209,0.6530320048332214,0.1600821483373463,0.1266552603813919,3.0921337086078915,-0.0019436764996498,0.1390439569950103,-0.0601046942174434,0.1736719162389636,0.2592817680537701,-9.896695497035983,14951.0
20.89,3.0,4.0,23.42962455749512,26.28061294555664,-79.78277049677033,40.45908587322557,287.16648945617675,0.0022537175100296,-0.0170411989092826,-0.7573068737983704,0.652833104133606,0.1371579273282613,0.1430587993847791,3.052364999715286,0.0423631742596626,0.0746605843305587,0.1457294374704361,0.226199172064662,0.037008325215429,-9.716100148558615,14952.0
21.0,2.900000095367432,357.0,23.50975608825684,26.11362648010254,-79.78277040110024,40.459085694096224,287.772995803833,0.0006604513619095,-0.0250869076699018,-0.7569157481193542,0.6530304551124573,0.1418369026969985,0.1822597918627608,3.046073391931321,-0.1223508492112159,0.0545519851148128,0.0714908987283706,0.2847177591361106,-0.003566399551928,-9.900449409484864,14952.0
21.19,3.0,357.0,23.3782901763916,26.76567077636719,-79.78277033686024,40.4590856233088,288.07919964599614,-0.0020355256274342,-0.0276632234454154,-0.7568010091781616,0.6530565619468689,0.1515814866494036,0.1841592148278876,3.062995138872441,-0.1768653094768524,-0.1390790492296219,-0.1336766332387924,0.3629337153956294,0.478561125844717,-9.937334815263748,14953.0
21.29,2.900000095367432,359.0,23.43212890625,26.479406356811523,-79.78277028086917,40.45908555842958,288.3867004852295,-0.0043695927597582,-0.0265896394848823,-0.7566059827804565,0.6533156037330627,0.1853892439336456,0.1774466393957772,3.0701622310069903,0.1010796576738357,0.0158561412245035,0.0012306909775361,0.309713308699429,0.4458136484026909,-9.906477888822558,14953.0
21.39,2.900000095367432,359.0,23.563594818115234,24.38809013366699,-79.7827703529674,40.45908546169047,288.99070820617675,-0.0069243093021214,-0.0217197965830564,-0.7556710839271545,0.6545546054840088,0.1802375284188852,0.1242125064853169,3.0856787551545444,0.1955619901418686,0.0896735191345214,0.0600297003984451,0.1467650397866964,0.4327660252153874,-9.958970682621002,14953.0
21.6,2.900000095367432,358.0,23.56860160827637,24.17339324951172,-79.78277024814045,40.45908534407373,289.60190663146966,-0.003563311882317,-0.022900428622961,-0.7560763359069824,0.6540731191635132,0.181527339295725,0.1310035993042947,3.039612781665369,0.1808540374040604,0.1819594800472259,0.1595422029495239,0.3255974527448416,0.2304322455637157,-9.650979707837106,14954.0
21.79,3.0,359.0,23.628700256347656,22.63870048522949,-79.78277019752029,40.459085277725904,289.9055927734375,0.0005566239124163,-0.0244858413934707,-0.7563386559486389,0.6537216305732727,0.163723893169148,0.1431071170146694,3.0228204800987064,-0.1661648452281952,-0.0360723957419395,-0.1235605999827385,0.2405532824993133,0.7977062492072583,-9.562210203409196,14954.0
21.9,3.2000000476837163,0.0,23.537302017211918,24.58688545227051,-79.78277015342607,40.459085077836505,290.50302777099614,-0.0024432553909718,-0.0280434470623731,-0.756738007068634,0.6531119346618652,0.2025098686838066,0.1659187042732026,2.936204196904049,-0.0921427085995674,-0.0077978763729333,0.0725234225392341,0.2863869016617537,0.4285008468478918,-9.230382469296456,14955.0
22.09,3.299999952316284,1.0,23.40834045410156,26.43169593811035,-79.78277014129806,40.459085072559,290.8075417022705,-0.010135275311768,-0.0309388153254985,-0.7570228576660156,0.6525768637657166,0.2298775034024547,0.1502374090353369,2.899223717878858,-0.2389230877161026,-0.1651771366596222,-0.2040542960166931,0.2367720891349017,0.9222716769576074,-9.1102286195755,14955.0
22.19,3.5,1.0,23.569854736328125,23.545202255249023,-79.78277012140674,40.45908483283655,291.37921986389165,-0.0188409183174371,-0.0353000164031982,-0.7562261819839478,0.6530858278274536,0.3198122528170597,0.0954704602016669,2.7940319266562947,0.0864864438772201,0.1570742130279541,0.1335144490003585,0.3138439280167222,0.3463428257033229,-9.32472144663334,14956.0
22.39,3.5,0.0,23.341981887817383,26.86904335021973,-79.78277021266545,40.45908461626921,291.67690167236333,-0.0195515379309654,-0.0389225333929061,-0.7553549408912659,0.6538668274879456,0.3121077318072279,0.1279446382437965,2.7990580520464827,-0.1868096441030502,-0.0268664937466382,-0.2254831641912461,0.2882400853000581,1.0583318535983564,-9.310578201413156,14956.0
22.5,3.700000047683716,1.0,23.19423866271973,29.604454040527344,-79.78277036531466,40.45908416945552,292.254404876709,-0.0159714445471763,-0.0379684455692768,-0.7541524767875671,0.6554062962532043,0.2988107698488098,0.1269921261700348,2.805782021995619,-0.0926887542009353,-0.0630346164107322,-0.1573027074337005,0.2345363696850836,0.6646123650670052,-9.727801011800766,14957.0
22.69,3.799999952316284,0.0,23.32445335388184,27.266632080078125,-79.78277035137855,40.45908409786455,292.53773388671874,-0.0136643527075648,-0.0350973382592201,-0.754389226436615,0.6553459763526917,0.2670083942290303,0.1227370155023223,2.8295175937215244,-0.0360875837504863,-0.1397394090890884,-0.1101751402020454,0.1935324410162866,0.6290618055313826,-9.915038212537766,14957.0
22.79,4.0,4.0,23.29315185546875,28.30831527709961,-79.78277034347218,40.4590840413922,292.82344517517083,-0.0139665193855762,-0.0315331034362316,-0.7548489570617676,0.6549915075302124,0.2392054428360013,0.1130664554988208,2.8594012496331414,0.004808229394257,-0.1415016949176788,-0.0819987952709198,0.3135825209319591,0.7146917206048966,-10.005238530635834,14957.0
22.89,4.099999904632568,6.0,23.35325050354004,26.26470947265625,-79.78277029698656,40.4590838438839,293.3942802886964,-0.0163305792957544,-0.0281946491450071,-0.7553596496582031,0.6545000672340393,0.2624464600839618,0.0819363470280777,2.875511979912666,0.2334615588188171,0.0795915871858596,0.0932687520980835,0.2698206250928342,0.5033797057718039,-9.854499650001529,14958.0
23.09,4.199999809265137,6.0,23.268110275268555,28.499156951904297,-79.7827704256879,40.45908378088123,293.95388302612304,-0.0146962571889162,-0.0241116527467966,-0.7557024955749512,0.6543061137199402,0.20113555680009,0.0532518121805596,2.8500341688236137,-0.2113134413957596,-0.1165847554802894,-0.1721059679985046,0.0991458819620311,0.6865514836460352,-9.645751712322236,14958.0
23.19,4.199999809265137,7.0,23.36076164245605,26.33627510070801,-79.78277043143584,40.459083730791065,294.23950848388665,-0.0154206538572907,-0.0249739121645689,-0.7557858228683472,0.6541607975959778,0.20827243014981,0.0541692962382452,2.8475999628920023,0.0401801951229572,-0.0175730288028717,0.1048615798354148,0.1697251918539405,0.5273165621235967,-9.774366483092306,14959.0
23.4,4.300000190734863,7.0,23.42461585998535,25.42977333068848,-79.78277055333551,40.45908366996282,294.5129974822998,-0.01599289663136,-0.0244555231183767,-0.7556816339492798,0.6542870998382568,0.2300024097754584,0.0492849578632443,2.8330834980418413,0.1649626940488815,0.0490856431424617,0.0063911862671375,0.1640874527022242,0.4270766843855381,-9.726067312359811,14959.0
23.59,4.199999809265137,7.0,23.248077392578125,27.831209182739247,-79.78277059008718,40.45908355120225,295.3454140167236,-0.0152459219098091,-0.0274414364248514,-0.7555934190750122,0.6542883515357971,0.2240333003781534,0.0580910804329108,2.766796316765816,0.1777743250131607,0.0463246703147888,0.1080925241112709,0.2471044115535915,0.7829117703437806,-9.520599662661551,14960.0
23.69,4.199999809265137,8.0,23.17045021057129,28.936504364013672,-79.78277059530087,40.45908351266871,295.6227577667236,-0.0147565575316548,-0.0279369931668043,-0.755545973777771,0.6543333530426025,0.2113965217323078,0.0596369050607237,2.7657576157289903,0.0691818967461586,0.1046008914709091,0.1133818551898002,0.3095190715044737,0.3345929554849863,-9.790214776396752,14960.0
23.8,4.199999809265137,9.0,23.246826171875,27.37795829772949,-79.78277067180204,40.45908342940085,295.89304432678216,-0.0157043021172285,-0.0269352681934833,-0.7553852200508118,0.6545389294624329,0.2022930652018726,0.0666301325781748,2.7783747264921583,-0.0168331041932106,-0.0751590654253959,0.1225346252322197,0.2918172473832965,0.4518753472343087,-9.80945270061493,14960.0
23.99,4.199999809265137,10.0,23.089067459106445,30.82902717590332,-79.78277072712602,40.45908332543684,296.43914875793456,-0.0132887987419962,-0.022696753963828,-0.7547634840011597,0.6554695963859558,0.1829139231147504,0.0559561816616464,2.8243013584609584,-0.1060468778014183,-0.0902837738394737,-0.1676914691925048,0.250480648688972,0.4903330327570439,-9.905150570869449,14961.0
24.19,4.199999809265137,10.0,23.126628875732425,29.84300804138184,-79.78277072358166,40.45908328988183,296.7242592315674,-0.0112789832055568,-0.0246334727853536,-0.7543030977249146,0.655967116355896,0.170609250964688,0.0585785902418492,2.86335894885326,-0.1488585919141769,-0.0523740164935588,-0.0126705979928374,0.1168050488177687,0.5162097759917379,-10.067254099845886,14961.0
24.3,4.099999904632568,10.0,23.109100341796875,30.3042106628418,-79.78277076762231,40.45908315334884,297.26903614807134,-0.0105659905821084,-0.0296753887087106,-0.7543997168540955,0.6556591987609863,0.1759985732223743,0.0758478344684379,2.855784041597753,-0.0929698571562767,0.0247677862644195,-0.1289502382278442,0.2476031790487468,0.7937606942653657,-10.04940138101578,14962.0
24.49,4.099999904632568,12.0,23.089067459106445,30.121318817138672,-79.78277077869464,40.45908312585932,297.55719075012206,-0.0106297135353088,-0.0289477352052927,-0.7547248601913452,0.6553163528442383,0.1773015162342016,0.0833794128434431,2.894679566370516,-0.1357738524675369,-0.1040177270770073,-0.0861253589391708,0.2585658678598702,0.6534693992882967,-10.162364909648897,14962.0
24.6,4.099999904632568,13.0,22.83489990234375,34.057449340820305,-79.78277095371791,40.45908307474927,297.82310566711425,-0.0114039592444896,-0.0282188951969146,-0.7549588680267334,0.6550655364990234,0.1704611668560055,0.0635555348576601,2.9161194306484,-0.0939356684684753,-0.1129252016544342,0.0283714812248945,0.2047011162713169,0.3748046595230699,-10.321351872682571,14962.0
24.69,4.0,13.0,23.11410903930664,29.23867225646973,-79.78277102956605,40.459083058670906,298.41941914367675,-0.0134360836818814,-0.0290130041539669,-0.7553298473358154,0.6545644402503967,0.1715317967114254,0.0450840473464387,3.0465427160600465,0.0166518967598676,0.0241087637841701,0.010513313114643,0.2493300993740559,0.4837195760384202,-10.479591561555864,14963.0
24.9,4.0,11.0,23.05776596069336,30.74950981140137,-79.78277118580705,40.4590831039935,299.0025413970946,-0.0118534173816442,-0.0251368228346109,-0.7555235028266907,0.6545318961143494,0.1608561303042434,0.026930943873138,3.07393915439266,0.1355955302715301,-0.0435088314116001,0.0708945542573928,0.1581957799382508,0.3995866943523288,-10.131539558172229,14964.0
24.99,4.0,12.0,23.052757263183597,30.32011413574219,-79.78277140501977,40.45908310676108,299.2741859893799,-0.0122289163991808,-0.0248982328921556,-0.7551078200340271,0.6550135016441345,0.1300314037792221,0.0087562337516006,3.0604587613933383,0.0341046229004859,0.0039124558679759,-0.017984939739108,0.2195453512854874,0.4867132408171893,-10.169628320932391,14964.0
25.19,4.0,13.0,23.21302032470703,27.218921661376957,-79.78277153370145,40.45908317636064,299.89285359191894,-0.0123672103509306,-0.0241955555975437,-0.7548069953918457,0.6553840041160583,0.1158122939422278,0.0123572402461603,3.1044009435883395,-0.0802822634577751,-0.0964941680431366,-0.0628498345613479,0.2319824886135757,0.6192399450391531,-9.887814745903016,14964.0
25.39,4.0,13.0,23.181718826293945,28.22084617614746,-79.7827717009025,40.45908314004771,300.1659134368896,-0.01236068084836,-0.022385174408555,-0.7549332976341248,0.6553029417991638,0.121189212572458,0.0133481867967998,3.051943441656673,-0.0270092971622943,-0.0132586499676108,-0.0373320803046226,0.1860981631278992,0.6331888434290887,-9.821303837299348,14965.0
25.49,4.0,12.0,22.988903045654297,31.27432632446289,-79.78277175275538,40.459083172332726,300.4717434387207,-0.0119221517816185,-0.0221285577863454,-0.7550420761108398,0.6551945209503174,0.1181600468130932,0.0036104796651582,3.0585499441168182,0.0818179845809936,0.0567430108785629,0.1166130825877189,0.2115120261535048,0.4392364809662104,-9.829381181001663,14965.0
25.59,4.0,12.0,23.12788009643555,28.22084617614746,-79.78277196317596,40.45908325962365,301.0746792297363,-0.0109401233494281,-0.0230711214244365,-0.7551246285438538,0.6550838351249695,0.1075393360705016,0.0155114903360907,3.0927453562428013,0.1047709882259368,-0.0297243278473615,0.0044164429418742,0.2463999499753117,0.5242370894551277,-10.081849919557571,14966.0
25.79,4.0,11.0,23.079050064086918,29.38975715637207,-79.7827721126787,40.45908338780989,301.6831806640625,-0.007843124680221,-0.0229865089058876,-0.754918098449707,0.6553692221641539,0.0983083430924156,0.0323637726323862,3.074564636766674,0.1145527139306068,0.102804034948349,0.0395898446440696,0.3157122230529785,0.5634419395029545,-9.729969744086269,14966.0
25.89,4.099999904632568,11.0,23.05776596069336,30.224693298339844,-79.78277214481636,40.45908343081579,301.9905842285156,-0.0070273196324706,-0.0237573832273483,-0.7547027468681335,0.655599057674408,0.0978216534130639,0.0406493682315999,3.0711228297237523,0.1413559466600418,0.0714633390307426,0.0500297248363494,0.2700210384093225,0.3561302241683006,-9.713732610940934,14966.0
26.1,4.099999904632568,11.0,23.370779037475582,24.769775390625,-79.78277227551337,40.45908349758014,302.2988155822754,-0.0066042835824191,-0.024856736883521,-0.7545196413993835,0.6557734608650208,0.1027123726624402,0.0369422702774954,3.100580809857046,0.1382827758789062,0.0482742562890052,-0.0262486469000578,0.2286951291561127,0.3533534545451403,-9.871975808143617,14967.0
26.29,4.099999904632568,9.0,23.28188323974609,26.19314384460449,-79.7827724630454,40.45908350596607,303.2282055358886,-0.0081448862329125,-0.0262577030807733,-0.7551155090332031,0.6550150513648987,0.1072632945212318,0.0551863058984093,3.0413656077262416,-0.1270422637462616,-0.1420516669750213,-0.1113267317414283,0.2079774939268827,0.3634189977496863,-9.487282227873802,14968.0
26.39,4.099999904632568,8.0,23.12036895751953,28.690000534057607,-79.78277250905434,40.45908352655759,303.53046688842767,-0.0108815804123878,-0.026904035359621,-0.7549452185630798,0.655145525932312,0.1348047964032922,0.0424223554102554,3.000625678610937,0.0805417299270629,0.1144677400588989,0.084118016064167,0.2797796210646629,0.4255171588808298,-9.441707274913789,14968.0
26.49,4.099999904632568,7.0,23.21427154541016,26.908802032470703,-79.78277260450629,40.45908359355597,303.8389042358398,-0.0135574024170637,-0.0276644583791494,-0.7546740770339966,0.6553761959075928,0.1378524736308149,0.0373738471667373,3.0182279355131305,-0.0496564321219921,-0.0942321419715881,-0.0388845540583133,0.2356199318356812,0.4443838945403695,-9.564139199852944,14968.0
26.69,4.099999904632568,6.0,23.30692481994629,26.11362648010254,-79.78277269243063,40.45908364470196,304.44160733032226,-0.0140034472569823,-0.0269094798713922,-0.7545049786567688,0.6555928587913513,0.1509020236439912,0.0222100749083626,2.9917549182094283,0.1879285871982574,0.0578269138932228,0.0828037708997726,0.2173617634177208,0.3625126062333584,-9.630455396175384,14969.0
26.89,4.099999904632568,5.0,23.20050048828125,27.76759529113769,-79.78277265619714,40.45908370116251,305.05644497680663,-0.0125690922141075,-0.0234641954302787,-0.7544844746589661,0.6557779312133789,0.1346305546632101,0.0394858626245561,3.007468187582413,-0.0227827318012714,0.0180027410387992,0.0612762421369552,0.2548666816949844,0.2748779732733965,-9.613641142845154,14970.0
26.99,4.0,5.0,23.049001693725582,29.96228408813477,-79.78277282424892,40.4590836722908,305.3727673034668,-0.0117899067699909,-0.0220941491425037,-0.7545228600502014,0.6557958722114563,0.107502506335998,0.0363621713729711,3.067651105379648,-0.1331382989883422,-0.1278327405452728,-0.2200096845626831,0.2318193330243229,0.6597684585303069,-9.897726945877077,14970.0
27.09,4.0,5.0,23.195491790771484,27.55289649963379,-79.78277284447438,40.45908370588232,305.68131909179687,-0.0110908495262265,-0.0216376911848783,-0.7545089125633241,0.6558393836021423,0.0982278035192603,0.0395393114420812,3.1003130152504097,-0.1270871758460998,-0.0902146846055984,-0.1114264577627182,0.1355739623866975,0.6513725877553225,-9.984988453388215,14970.0
27.29,4.0,6.0,23.261850357055664,26.82928466796875,-79.78277285914908,40.45908373794565,305.992384765625,-0.0103774154558777,-0.0223576985299587,-0.7547463774681091,0.6555534601211548,0.1046013089945844,0.0409062558185356,3.1127018035518743,0.0223199687898159,0.0191828850656747,0.0416900627315044,0.1868350219354033,0.5748410864174366,-9.926557227373124,14970.0
27.39,4.0,6.0,23.05150604248047,29.65216445922852,-79.78277283834207,40.459083709387954,306.6072529296875,-0.0095448931679129,-0.024273220449686,-0.7550373077392578,0.6551629304885864,0.1332286569434953,0.0640925671557521,3.0801721784976657,0.0407340414822101,0.1386528760194778,0.0613310113549232,0.2797788353450596,0.3586411282047629,-9.631636533737185,14971.0
27.6,4.0,7.0,23.14540863037109,27.91072654724121,-79.78277296434787,40.45908374899771,307.221201751709,-0.0079043786972761,-0.0227712783962488,-0.7556312680244446,0.6545537114143372,0.1131441652430085,0.0611052307702941,3.0925767168382663,-0.148913636803627,-0.1456795036792755,-0.0568673834204673,0.1462320295348763,0.5046744254976512,-9.793654108643532,14972.0
27.79,4.0,7.0,23.35825729370117,24.539175033569336,-79.78277298410171,40.45908376044323,307.5305965881348,-0.0075296820141375,-0.0210766941308975,-0.7559463381767273,0.6542509198188782,0.1117334059454843,0.0575732890315682,3.09132413772762,-0.1313414573669433,-0.0698248073458671,-0.2074611634016037,0.0881064210366457,0.6895052046328783,-9.756710815429688,14972.0
27.89,4.0,10.0,23.129133224487305,28.50710868835449,-79.78277302178843,40.45908377536164,307.8331364135741,-0.0082780960947275,-0.019487664103508,-0.7562180757522583,0.6539771556854248,0.1182920764063536,0.0502981364746573,3.0848688813976777,0.046898253262043,-0.0227895975112915,0.0846017971634864,0.1753615422919392,0.4037722774967552,-9.67094502568245,14972.0
27.99,3.900000095367432,10.0,23.069034576416016,29.66011619567871,-79.78277313944609,40.45908374603368,308.44064221191405,-0.0116054192185401,-0.019666027277708,-0.7561716437339783,0.6539748907089233,0.1146437613039812,0.0389323853458018,3.0602834267678936,-0.2346429079771042,-0.0234435386955738,-0.1298381239175796,0.2252061503939331,0.5540894642472267,-9.68455734372139,14973.0
28.19,4.0,11.0,23.19799613952637,26.84518814086914,-79.78277315724245,40.45908373130796,309.05660137939446,-0.0123284952715039,-0.0194208081811666,-0.7555140256881714,0.6547284722328186,0.1479236869055251,0.0437915028843893,3.098743719543595,-0.0549611821770668,-0.0949586257338524,-0.197896420955658,0.184654339402914,0.7754016065597534,-9.922757706642152,14974.0
28.39,3.900000095367432,11.0,23.121620178222656,28.181087493896484,-79.78277313424097,40.459083683192574,309.3537929992676,-0.0116779385134577,-0.0194804482161998,-0.7552475929260254,0.6550461053848267,0.1475426988615874,0.0617520532984546,3.0988848987483046,-0.1044346168637275,-0.0198556464165449,-0.0654728263616561,0.1563056857511401,0.6436995059251786,-9.76009810745716,14974.0
28.5,3.900000095367432,10.0,23.112855911254893,28.212894439697266,-79.78277309338698,40.45908365168747,309.9734867553712,-0.0125524559989571,-0.02477921359241,-0.7549810409545898,0.6551581621170044,0.1684835297224724,0.0756585209888954,3.0968678099877938,0.0582484938204288,0.1213604286313057,0.0276167094707489,0.2953761917352676,0.3331946669518948,-9.831632359027864,14974.0
28.59,3.900000095367432,11.0,23.17045021057129,27.79940223693848,-79.78277315312683,40.45908369099289,310.26843914794915,-0.0126573666930198,-0.0261904019862413,-0.7549540996551514,0.6551322340965271,0.1580197544090522,0.0880364476440928,3.099346904476948,-0.0524240843951702,0.0023616864345967,0.1356482505798339,0.2845726750977337,0.3220719471573829,-9.853588653802872,14975.0
28.8,3.900000095367432,12.0,23.102840423583984,28.79337310791016,-79.78277312683855,40.45908368779804,310.57898602294915,-0.0116204591467976,-0.0243817865848541,-0.7549487948417664,0.6552273631095886,0.154803092718964,0.0932048189207935,3.1053458699445247,-0.0608619526028633,-0.0115752033889293,0.0349071957170963,0.2290037890523673,0.4151011116430164,-9.890512651205064,14975.0
28.89,3.900000095367432,12.0,23.389558792114247,23.306650161743164,-79.78277318825397,40.45908368878784,311.1887577514648,-0.0104688284918665,-0.0229004900902509,-0.7546489238739014,0.6556456089019775,0.122721161834274,0.0870631851426098,3.1174590204351897,-0.1407828629016876,-0.1226225346326828,-0.0621165595948696,0.1218597474787384,0.5531221155077221,-9.787314557433133,14976.0
29.09,3.799999952316284,12.0,23.126628875732425,27.91072654724121,-79.78277320454887,40.45908368707663,311.4855144958496,-0.0110299941152334,-0.0218371227383613,-0.7543644309043884,0.6559998393058777,0.155994609560965,0.0858660440527061,3.0707819064792523,0.2734052240848541,0.1257480680942535,0.0756813660264015,0.2711429911851883,0.3049770092032849,-9.54711269259453,14976.0
29.2,3.799999952316284,12.0,23.00893592834473,29.97023582458496,-79.78277314039148,40.45908368249477,312.1004360656738,-0.0087400330230593,-0.0200115162879228,-0.7542843222618103,0.6561846733093262,0.1201917362074091,0.0773683685891254,3.0861549462817046,-0.127823606133461,-0.0051674433052539,-0.0565341152250766,0.2058654065430164,0.5182860491797329,-9.953463774919513,14977.0
29.39,3.799999952316284,11.0,23.205507278442383,27.03603172302246,-79.7827732051542,40.459083728227455,312.3988255004884,-0.0072748009115457,-0.0219605956226587,-0.7547600865364075,0.6555928587913513,0.1104875452720077,0.0849997241745006,3.131161214752239,-0.1429914683103561,-0.0587880350649356,-0.2383754849433899,0.242710740622133,0.6949752017855645,-10.108839497566224,14977.0
29.49,3.799999952316284,11.0,23.321949005126957,25.350255966186523,-79.78277314683244,40.459083716383645,313.0315273742676,-0.005865363869816,-0.0237235594540834,-0.7550034523010254,0.6552652716636658,0.1274851189458366,0.1070168920922172,3.162945074127297,-0.0371959209442138,0.0382713489234447,-0.0933785513043403,0.2175461151637137,0.5968473748862744,-9.837947351932526,14978.0
29.7,3.700000047683716,10.0,23.24056434631348,25.95458984375,-79.78277320222006,40.45908366165151,313.6297901611328,-0.0082823373377323,-0.0259276293218135,-0.7543929219245911,0.65585857629776,0.1396115119950929,0.1114415872213998,3.068539820240452,-0.2513367235660553,-0.0935709998011589,-0.2217103540897369,0.2572528938576579,0.7999819855391981,-9.384125649333,14978.0
29.79,3.700000047683716,11.0,23.24557304382324,26.240854263305664,-79.78277326145125,40.45908366986085,313.9220646362305,-0.0093063544481992,-0.026378720998764,-0.7544990181922913,0.6557049155235289,0.1716490480721181,0.1032441332116575,3.0240403842263563,0.1551032811403274,0.0373318530619144,0.1384941041469574,0.1942547548748553,0.3169437928497791,-9.353042435646056,14978.0
30.0,3.700000047683716,12.0,23.315689086914062,24.57098197937012,-79.78277324497044,40.45908365436596,314.2229755859375,-0.0096090696752071,-0.0260099451988935,-0.7546188235282898,0.6555773019790649,0.1596329584670967,0.0938829336265107,2.9832928118074933,0.0182064864784479,0.0238256957381963,0.038741759955883,0.2574280179664493,0.2644332381337881,-9.433262726068495,14979.0
30.19,3.700000047683716,12.0,23.184223175048828,27.18711471557617,-79.78277339138405,40.45908352263167,315.1142872314453,-0.0079676266759634,-0.0244103278964757,-0.7553085684776306,0.6548662185668945,0.1399377882818903,0.0836177739135412,2.94129427736848,-0.2035382837057113,-0.1499491930007934,-0.1567029058933258,0.2324843076243997,0.0669745197147131,-9.493342866897583,14980.0
30.3,3.700000047683716,12.0,23.05401039123535,28.56277275085449,-79.78277347537905,40.45908338969663,315.4178341369629,-0.0084328493103384,-0.0225799996405839,-0.755676805973053,0.6545010209083557,0.1430456505216213,0.0767396246479834,2.991834283813274,-0.0172547884285449,-0.0438361726701259,0.028974262997508,0.1685094643570482,0.5263254956156016,-9.84085107922554,14980.0
30.39,3.700000047683716,12.0,23.30692481994629,24.88905143737793,-79.78277348087991,40.45908337380238,315.71811947631835,-0.0097235823050141,-0.0209091827273368,-0.7558994889259338,0.6542815566062927,0.1527833177628186,0.0634501902693197,2.996428868394221,0.1045939400792122,-0.0456966608762741,-0.044033620506525,0.199249373394996,0.4218312203139067,-9.815729101896288,14980.0
30.59,3.700000047683716,11.0,23.12788009643555,27.696027755737305,-79.7827734290009,40.45908334389095,316.3137844543457,-0.0109207881614565,-0.019874170422554,-0.7553328871726991,0.6549489498138428,0.1490298902809002,0.0616755502875733,2.9748614384374474,-0.0565126426517963,-0.0551269426941871,-0.0485331080853939,0.1093159441463649,0.4133968310058117,-9.633257381916048,14981.0
30.79,3.700000047683716,11.0,23.14666175842285,27.497234344482425,-79.78277341545468,40.45908331332412,316.6112278442384,-0.0095504214987158,-0.0190280210226774,-0.7548193931579591,0.6555870771408081,0.1433431318973708,0.0688684013924238,2.9666594455315485,-0.1316935271024704,-0.1315598785877227,-0.0795484632253646,0.1364054181799292,0.6563915453106165,-9.650650509595874,14981.0
30.9,3.700000047683716,11.0,23.0177001953125,29.413612365722656,-79.78277349619512,40.459083286847466,316.89502224731444,-0.010021461173892,-0.0191355515271425,-0.7539410591125488,0.6565868258476257,0.1610921087937235,0.0652958269536724,2.951449178479772,0.1385841071605682,0.1928805857896804,0.0398340374231338,0.2085528782196343,0.334377266317606,-9.629845531582832,14981.0
31.09,3.799999952316284,13.0,23.06027030944824,28.34012222290039,-79.78277354405769,40.45908321396504,317.4704006652832,-0.012464290484786,-0.0232903715223074,-0.7528904676437378,0.657615602016449,0.1646967506986322,0.0827422500908209,2.9856646079965383,-0.1431913524866104,-0.0338464081287384,-0.085185632109642,0.2171415974758565,0.5691239713132382,-10.046612259149551,14982.0
31.19,3.799999952316284,13.0,23.27311897277832,26.02615547180176,-79.78277351130733,40.459083179589314,317.7721012573241,-0.0123599022626876,-0.0213081575930118,-0.7530316114425659,0.6575232148170471,0.1827457772382596,0.092996789204048,3.0362798206165618,0.0160172749310731,0.026414155960083,0.0680463686585426,0.2202808944694698,0.2041442786157132,-9.950920236110688,14982.0
31.29,3.799999952316284,13.0,23.185474395751957,26.94856262207031,-79.78277357880482,40.45908323082226,318.3467854003906,-0.0103561896830797,-0.0192038789391517,-0.7537389993667603,0.6568115949630737,0.1329386832505255,0.0706749415903633,2.9916518548812467,-0.1814935803413391,-0.0478747375309467,-0.2047905027866363,0.1022287350520491,0.6947945959120989,-9.580297980308533,14983.0
31.5,3.799999952316284,12.0,22.9788875579834,30.04180145263672,-79.78277361930796,40.45908316674068,318.9203518371582,-0.0075153415091335,-0.0198517031967639,-0.7549229860305786,0.6554698348045349,0.1467014544865356,0.0837054904886565,2.9743977268425734,0.1150339618325233,0.0616119429469108,0.1108142733573913,0.2967079316452146,0.382385318800807,-9.88512151837349,14983.0
31.59,3.799999952316284,12.0,22.90376281738281,31.53673553466797,-79.78277358929317,40.45908314010031,319.2198208312988,-0.0074912733398377,-0.0215775221586227,-0.7554420828819275,0.6548172831535339,0.1497538078097765,0.0848205970210511,3.0079272002303017,0.0775350108742713,0.1647378504276275,0.121028371155262,0.1931700780987739,0.2200741040334105,-10.034447711706164,14984.0
31.8,3.900000095367432,12.0,23.079050064086918,28.32421875,-79.78277356427314,40.459083113668754,319.5233067016601,-0.008151538670063,-0.0244036763906478,-0.7556810975074768,0.6544342041015625,0.1575204193237085,0.0930632602689685,3.0500275471005023,0.0551831237971782,0.120475523173809,-0.0235942993313074,0.2791549922525883,0.4532077449560166,-10.142303112745283,14984.0
31.99,3.900000095367432,12.0,23.07404327392578,28.268556594848643,-79.78277358751264,40.45908300662475,320.10710797119134,-0.009846681728959,-0.0205677524209022,-0.7555655837059021,0.6546760201454163,0.1894250173211741,0.0990561150665957,3.047781755706102,0.1635522246360778,0.061072863638401,0.1189156994223594,0.2447473989240825,0.2447698376141489,-9.92123860001564,14985.0
32.09,3.900000095367432,14.0,23.314435958862305,24.97652244567871,-79.78277367177854,40.4590830550182,320.3815067749024,-0.0102284997701644,-0.0191740375012159,-0.7551423907279968,0.6552006602287292,0.1637310898939248,0.0747485153193627,3.0198710674797544,0.0477479398250579,-0.0101519059389829,0.0654014497995376,0.1863473458774388,0.2259918882697821,-9.829268914461135,14985.0
32.2,3.900000095367432,14.0,23.147912979125977,27.27458381652832,-79.78277363000844,40.45908297998654,320.9825733642578,-0.0106726726517081,-0.0177085567265748,-0.7546242475509644,0.6558313369750977,0.1465046971795509,0.0706257542706571,2.9654119063455315,-0.1427928358316421,-0.0850390344858169,-0.1346554905176162,0.1290171140246093,0.6574098379164934,-9.43496601998806,14985.0
32.39,3.900000095367432,14.0,22.95760154724121,30.34396934509277,-79.78277357588594,40.45908286005392,321.5572308044433,-0.0110005484893918,-0.0171214453876018,-0.7543569803237915,0.6561490297317505,0.1853776763169148,0.0800333603844245,2.9425568591907165,0.1331157982349395,0.1074244379997253,0.0595950782299041,0.1807143758609891,0.4676625736802817,-9.760768198370933,14986.0
32.49,3.900000095367432,15.0,23.06527900695801,28.642290115356445,-79.78277359645313,40.459082794266216,321.8436497192384,-0.0103852329775691,-0.0177300330251455,-0.7541840672492981,0.6563416719436646,0.1949773637811394,0.0808967342546525,2.9797092275514205,0.1148967519402504,0.1025448366999626,0.1012901216745376,0.1522983970027417,0.3773597100377083,-9.938189678192137,14986.0
32.7,4.0,15.0,23.01018714904785,28.37988090515137,-79.78277354728151,40.45908272279575,322.14253887939446,-0.0106288166716694,-0.0199333298951387,-0.7540231347084045,0.6564594507217407,0.2018985536138687,0.0895484921859551,2.9812891305254268,0.1108406633138656,0.1047835275530815,0.0189245007932186,0.1534287277422845,0.2730384575016796,-9.859078019857408,14987.0
32.89,4.0,17.0,23.022708892822266,29.2863826751709,-79.78277348338777,40.45908256680597,323.0267170410156,-0.0135721741244196,-0.0265287794172763,-0.7536538243293762,0.6565957069396973,0.2250593027276789,0.1162397073150746,2.9868719076129704,0.1059050858020782,0.0810012891888618,0.0030401451513171,0.1716909161210059,0.2951052463799715,-9.852237946987152,14988.0
33.0,4.0,17.0,22.92379570007324,30.67794418334961,-79.78277353729692,40.459082468035454,323.31025204467767,-0.0137511799111962,-0.0239905808120966,-0.7537460327148438,0.6565839648246765,0.2277313468200042,0.1058974993500512,3.0021352177980365,0.1244705021381378,0.031905747950077,0.0909086987376213,0.2068375061452388,0.3793884015083313,-9.978236088752746,14988.0
33.09,4.099999904632568,17.0,22.99140739440918,29.24662399291992,-79.78277349610529,40.459082417217424,323.613348815918,-0.0137508744373917,-0.0221480205655098,-0.7539404630661011,0.656425416469574,0.2044881282177725,0.0951644492869971,3.041821572357596,0.0363073572516441,-0.0238983109593391,0.0425684452056884,0.1301707239914685,0.4840371163934469,-10.105754506587983,14988.0
33.29,4.099999904632568,18.0,23.20175170898437,26.01820373535156,-79.78277351357481,40.45908232790799,324.20210919189446,-0.0120958192273974,-0.0199607107788324,-0.7548345923423767,0.6554998755455017,0.1795063886582218,0.0912495719381724,3.0040816687507443,-0.0365997478365898,-0.0719021782279014,-0.0198863018304109,0.1998635320365429,0.6665143181383609,-9.845415415763854,14989.0
33.49,4.099999904632568,17.0,22.955097198486328,29.65216445922852,-79.78277346989566,40.459082286830686,324.5005177001953,-0.0116458488628268,-0.0189843196421861,-0.7553859353065491,0.6549016833305359,0.1794881786758504,0.0835412740415513,2.9559041097340657,0.1281193941831588,0.1018073484301567,0.0858745202422142,0.2276259475015104,0.4764060248807073,-9.453206993937492,14989.0
33.6,4.099999904632568,18.0,22.955097198486328,29.95433235168457,-79.78277342684197,40.4590821840422,325.08667645263665,-0.012679717503488,-0.0203508473932743,-0.7561100125312805,0.6540051698684692,0.1937850588188471,0.0949898558332869,2.9736140728273552,0.105899766087532,0.0100409546867012,0.0578100830316543,0.2171412502974272,0.3230660834535957,-9.893591794967652,14990.0
33.8,4.099999904632568,17.0,23.089067459106445,27.497234344482425,-79.78277335172575,40.45908209203711,325.6694134216308,-0.0133603252470493,-0.018492467701435,-0.7561356425285339,0.6540172696113586,0.1909976173308916,0.1015090270554017,2.9916175520734734,0.1430257856845855,0.0154499085620045,0.0761212110519409,0.219123474676162,0.3289217044785619,-9.788838926553726,14990.0
33.99,4.099999904632568,18.0,23.00893592834473,28.76951789855957,-79.78277328157542,40.4590820465661,325.9681232910156,-0.012819580733776,-0.0182131212204694,-0.7556995153427124,0.6545396447181702,0.1712050877194946,0.099912043159484,2.967282354908145,-0.0398310869932174,-0.0090217245742678,0.1280549168586731,0.0475048264861106,0.15915094088763,-9.618644020557404,14990.0
34.09,4.099999904632568,17.0,22.967618942260746,29.23867225646973,-79.78277326624922,40.45908202227947,326.25122723388665,-0.0122431088238954,-0.0205317940562963,-0.7551349997520447,0.6551334261894226,0.1415578353700549,0.1097707291645044,2.9532473919331075,-0.1555659174919128,-0.004175862763077,-0.1723600327968597,0.0647754915431141,0.6880809690803289,-9.482916111946109,14991.0
34.19,4.099999904632568,19.0,22.95885467529297,29.42156410217285,-79.7827730915288,40.45908195398747,326.842352722168,-0.0090843271464109,-0.0230466462671756,-0.7534949779510498,0.6569869518280029,0.1607536782288778,0.1242551353377964,2.961867106594153,0.0425231419503688,0.0674070194363594,0.0238362587988376,0.1124586489703506,0.5557036612182856,-9.909472832679748,14991.0
34.39,4.099999904632568,20.0,23.1003360748291,26.87699508666992,-79.78277300805324,40.459081909944814,327.4285343627929,-0.0068936021998524,-0.0290329232811927,-0.7522820234298706,0.6581651568412781,0.1650725597387569,0.1570699747370145,2.973697304876451,0.0385383516550064,0.041005402803421,0.045863039791584,0.1466579991951584,0.4104642696306109,-9.82557581305504,14992.0
34.49,4.099999904632568,19.0,22.93005752563477,30.3042106628418,-79.78277307610371,40.45908190587396,327.7089680175781,-0.0088170878589153,-0.0274544861167669,-0.7525156140327454,0.6579428315162659,0.1771694513458469,0.149762688792297,2.9557620039224086,0.0862559005618095,-0.0822813510894775,-0.0420383922755718,0.3068262825161219,0.5666325458139181,-9.6457522970438,14992.0
34.7,4.099999904632568,20.0,22.98389434814453,29.16710662841797,-79.78277299915698,40.45908185029185,328.3077457885741,-0.0110507030040025,-0.0250684116035699,-0.7528201341629028,0.6576560139656067,0.1721769921113224,0.1036873226479566,3.0294617521962834,0.0825485959649086,0.0062969736754894,0.1428881734609604,0.2165745271928608,0.33100112054497,-10.220594991445545,14993.0
34.89,4.099999904632568,19.0,23.09031867980957,26.39193725585937,-79.78277303861927,40.459081817068274,328.90303692626946,-0.0141953118145465,-0.027784377336502,-0.7511273622512817,0.6594197154045105,0.1654040406527114,0.0899819517501548,3.1023406598846908,-0.1072762235999107,0.0581179596483707,-0.0652028396725654,0.2710152660682797,0.54792730294168,-10.160828261375428,14993.0
35.0,4.099999904632568,18.0,22.943828582763672,29.62035751342773,-79.78277305595319,40.459081793449386,329.18800244140624,-0.0153609365224838,-0.0298727676272392,-0.7506915330886841,0.6597985029220581,0.1634074628873141,0.0859839924433045,3.050239605371332,-0.1001622751355171,-0.0611140131950378,-0.1008093208074569,0.2369964943081141,0.5857996456325054,-9.74405393242836,14994.0
35.09,4.099999904632568,18.0,22.84366607666016,31.648059844970703,-79.78277303913818,40.45908180565068,329.4925220947265,-0.0142554547637701,-0.0297415610402822,-0.7512631416320801,0.6591782569885254,0.1600184121763451,0.085428345815464,3.034511084781084,-0.0722970142960548,0.0096557009965181,-0.0694727525115013,0.263575524687767,0.6471955561637879,-9.698221701979636,14994.0
35.3,4.099999904632568,18.0,22.966365814208984,27.640365600585927,-79.7827732188331,40.459081838371546,330.09078869628905,-0.008151046000421,-0.0262956991791725,-0.7543806433677673,0.6558598279953003,0.1513573006063455,0.0662088670412268,3.085243654141644,0.145842045545578,0.0247965008020401,0.0986485332250595,0.2050791387632489,0.3670416767522693,-9.944369015693663,14995.0
35.49,4.099999904632568,19.0,23.23680877685547,24.08592414855957,-79.7827732391025,40.45908186557927,330.40068707275384,-0.0062170606106519,-0.0234648007899522,-0.7557061910629272,0.6544608473777771,0.125632562875119,0.0640762130908063,3.095319168917116,0.1724970489740371,-0.0407689251005649,0.0922915190458297,0.1568163669481873,0.2359307844378054,-9.885653614997864,14995.0
35.59,4.199999809265137,20.0,23.046497344970703,27.98229217529297,-79.78277338167483,40.459081991866704,330.6890820007324,-0.0073052514344453,-0.0213229767978191,-0.7565274834632874,0.6535735130310059,0.0936240019407629,0.0415948149438544,3.0737293500780853,0.1096439436078071,0.0186947043985128,0.0086360583081841,0.0417433090880513,0.4242647583782673,-9.367960436940193,14995.0
35.69,4.199999809265137,20.0,23.1103515625,26.29651641845703,-79.7827734846106,40.45908206932321,331.29483303833007,-0.0112949628382921,-0.0212829317897558,-0.7572312951087952,0.6527023911476135,0.0850457415915013,0.0110961917672858,2.993737862892236,-0.0855123773217201,-0.0753029361367225,-0.0473535992205143,0.1297927471809089,0.6868323692679406,-9.49598814725876,14996.0
35.9,4.199999809265137,18.0,23.1103515625,26.39988899230957,-79.7827736712094,40.45908215288949,331.8880833129884,-0.0131386332213878,-0.0181172378361225,-0.7563571929931641,0.6537760496139526,0.1288156921731226,-0.0012308288979642,3.000140170461583,0.08682731539011,0.0398950986564159,0.086649589240551,0.1916563070565462,0.2615927886776626,-9.790291374921797,14996.0
35.99,4.099999904632568,18.0,23.08781433105469,27.544944763183597,-79.78277382469547,40.45908214704114,332.1844128112793,-0.0133532779291272,-0.0181630719453096,-0.7555915713310242,0.6546550989151001,0.0957426616704113,-0.0065008911985721,3.0076075530388366,-0.1889585852622985,-0.0106624439358711,-0.2047425955533981,0.1391060186829418,0.6782297994196416,-9.518963027000428,14997.0
36.19,4.099999904632568,17.0,23.13163757324219,26.01025199890137,-79.7827738630112,40.45908217213668,332.4833134155273,-0.013765575364232,-0.0201606322079896,-0.7546673417091371,0.6556534171104431,0.1212756614473826,-0.0061946937413736,2.96910549732072,0.1584816873073578,0.0857727378606796,-0.0351998694241046,0.1342454110365361,0.3890038552880287,-9.508780685663224,14997.0
36.39,4.099999904632568,18.0,22.94508171081543,28.83313179016113,-79.78277409377651,40.45908226888786,333.07512554931634,-0.0131827956065535,-0.0246766712516546,-0.7524217963218689,0.6580872535705566,0.1170800501606752,0.0082700168511134,2.969677975427444,-0.1052604913711548,0.0092470198869705,-0.0671194419264793,0.1523550601769238,0.4962369298562408,-9.587690615057944,14998.0
36.5,4.0,18.0,23.046497344970703,27.147356033325195,-79.78277422096635,40.45908231510096,333.66089520263665,-0.0118528502061963,-0.0233316570520401,-0.7520784139633179,0.658553957939148,0.124205965567164,0.0411406082973734,3.0090637045418567,-0.114979900419712,-0.1391553878784179,-0.1659316569566726,0.0440855118166655,0.7017714936286211,-9.91772676229477,14998.0
36.59,4.0,17.0,22.996416091918945,28.10951995849609,-79.78277425031813,40.45908233945495,333.96295056152337,-0.0118097383528947,-0.0214581917971372,-0.7525096535682678,0.6581256985664368,0.11675907647003,0.0364697238657443,3.0293510955617937,-0.055865503847599,-0.0452192649245262,-0.1177373304963112,0.2479180150665343,0.8286636015772819,-9.95234578728676,14998.0
36.79,4.0,16.0,22.96511459350586,28.523012161254893,-79.78277444530336,40.459082401448775,334.55384716796874,-0.0157463960349559,-0.0180263873189687,-0.7534989714622498,0.6570132374763489,0.1268989155443311,0.0172828565572271,3.0275694507380906,0.1682391911745071,0.024883234873414,0.0921324416995048,0.2460055552795529,0.4088080823421478,-9.871427339315415,14999.0
36.89,4.0,15.0,23.09282302856445,26.89289855957031,-79.78277445830712,40.45908242925419,334.8572758178712,-0.0166647545993328,-0.0183961000293493,-0.7538784742355347,0.6565449237823486,0.1168091027678518,0.0107244695726827,3.032918515409245,-0.0890562608838081,0.0809959769248962,0.0423887223005294,0.1639605315774679,0.3592103911936283,-9.833894062042235,14999.0
37.09,3.900000095367432,13.0,23.16043472290039,25.24688148498535,-79.78277451658177,40.45908251301478,335.1461475830078,-0.016429616138339,-0.0228682961314916,-0.7540376782417297,0.6562274098396301,0.0883825196162117,0.0012862567160229,3.0183458719174263,-0.1954069137573242,-0.0191196538507938,-0.0819542109966278,0.1153077413421124,0.6613635058701038,-9.737003944516182,15000.0
37.29,3.900000095367432,13.0,23.05401039123535,26.95651435852051,-79.78277452438194,40.459082600158894,335.7441853027344,-0.0156463850289583,-0.0289540886878967,-0.7538228034973145,0.6562530994415283,0.1362499516546604,0.0519667757405644,2.9446178282107245,0.1303810179233551,0.1621616631746292,0.1977004259824752,0.2760475260391831,0.2372776357457041,-9.448471918702127,15000.0
37.39,3.900000095367432,13.0,23.03147315979004,27.370006561279297,-79.78277462902696,40.45908272354884,336.3187168579101,-0.0147192571312189,-0.0266834981739521,-0.7536870241165161,0.6565266251564026,0.1140475064752059,0.0477424487880037,2.8786180653008446,0.2002673149108886,0.083561010658741,0.0711522176861763,0.0650178129505366,0.5054477197676898,-9.421818555593491,15001.0
37.49,3.900000095367432,13.0,23.28689193725586,23.592912673950195,-79.78277466887248,40.45908275596483,336.6082523803712,-0.0144133502617478,-0.0258075390011072,-0.7534418106079102,0.6568498015403748,0.1091892174456294,0.0447294292873529,2.8947012860735586,0.0341892465949058,0.0002056028461083,0.0543802306056022,0.2566938452236355,0.3525021364912391,-9.51766728401184,15001.0
37.69,3.900000095367432,14.0,23.34573745727539,21.310754776000977,-79.78277468514128,40.45908286461699,337.1712330322265,-0.0126753561198711,-0.0236739180982112,-0.7539265751838684,0.6564096808433533,0.0775643901581304,0.0405679893438494,2.7014064415248145,-0.0429175123572349,0.0196448564529418,-0.051418911665678,0.1985811828263104,0.5571748572215438,-8.708437780737878,15002.0
37.79,3.900000095367432,14.0,23.453413009643555,20.698467254638672,-79.78277472033629,40.459082948845904,337.43170056152337,-0.0125698745250701,-0.0230322331190109,-0.7542011141777039,0.656119167804718,0.0716884955523024,0.0423666225274272,2.587734509944963,-0.060289479792118,0.0188170336186885,-0.0867763310670852,0.1734226055815816,0.5245598923042417,-8.440605483055116,15002.0
38.0,4.0,14.0,23.50850486755371,19.31485939025879,-79.78277481185216,40.45908305453457,337.9136494140625,-0.0123622845858335,-0.0229178890585899,-0.7546175718307495,0.6556480526924133,0.0639143786079211,0.0333857183336961,2.316848661289951,-0.0373971126973629,0.0367317199707031,0.0126997046172618,0.1285262950882315,0.4208290075510741,-8.337970476150513,15002.0
38.19,3.900000095367432,14.0,23.38830757141113,22.082077026367188,-79.78277480946194,40.45908313251953,338.34404644775384,-0.0108996797353029,-0.0229719001799821,-0.7548107504844666,0.655449628829956,0.052447532865009,0.0348240724972843,1.996396699084048,0.0087453434243798,-0.0379802659153938,-0.01345378998667,0.185109417233616,0.4795442986115814,-8.170320863127706,15003.0
38.29,3.900000095367432,13.0,23.3782901763916,22.0025577545166,-79.78277488099165,40.4590831612914,338.53243908691405,-0.0106428330764174,-0.0233309045433998,-0.7547647356987,0.6554941534996033,0.0559074124327948,0.0337344939428596,1.8942825246039352,0.0421895906329155,-0.024968447163701,0.0201549176126718,0.1351857164036482,0.4445684838294983,-8.528438848257066,15003.0
38.39,3.900000095367432,12.0,23.60115623474121,18.83775329589844,-79.78277487986745,40.45908318841914,338.71636090087884,-0.0105479946359992,-0.023303635418415,-0.7546173334121704,0.6556664109230042,0.0586014910307773,0.0346634821926767,1.7782550612833563,0.0480392836034297,-0.0396274924278259,0.0409092381596565,0.1420818220451474,0.4166180621087551,-8.568517418503761,15003.0
38.59,3.799999952316284,12.0,23.368274688720703,22.424001693725582,-79.7827749413902,40.45908322795108,339.0461262207031,-0.0092703765258193,-0.0211030524224042,-0.7538188099861145,0.6566780209541321,0.0633522347712281,0.0374419227024587,1.5619972496170422,0.0299542173743248,0.0140276858583092,-0.0158637315034866,0.268053614795208,0.3254549999535084,-8.67611144900322,15004.0
38.79,3.799999952316284,12.0,23.45216178894043,21.024490356445312,-79.78277493596111,40.45908323440519,339.1976154785156,-0.0100079765543341,-0.0200237073004245,-0.7534752488136292,0.657095193862915,0.0653603414555836,0.0339919658221757,1.4714571741116964,0.0128613281995058,0.0330335460603237,0.0426704622805118,0.2197355685196817,0.3104159247502685,-8.883265435695648,15004.0
38.9,3.700000047683716,12.0,23.389558792114247,21.533403396606445,-79.78277500795639,40.45908323189472,339.3414600830078,-0.0108924731612205,-0.0198434423655271,-0.7532093524932861,0.6573913097381592,0.0704668805254129,0.0306406884653816,1.4169342189044944,0.0288074798882007,0.0455198362469673,0.0049782958813011,0.2584950251877308,0.2848415556550026,-8.972793323993681,15004.0
38.99,3.5999999046325684,12.0,23.40959167480469,21.899185180664062,-79.78277508821152,40.4590832201454,339.60193524169915,-0.0106909349560737,-0.0210946705192327,-0.7527612447738647,0.6578688025474548,0.0759805422195047,0.0277839947177308,1.2484329036344075,-0.0028380663134157,0.0585866048932075,0.1231232360005378,0.1460167332272976,0.2777796905860305,-8.855342642068862,15004.0
39.19,3.5999999046325684,12.0,23.35825729370117,22.83749389648437,-79.78277507419935,40.4590831713601,339.8374393920898,-0.0115559641271829,-0.0209836158901453,-0.7532106637954712,0.6573431491851807,0.0794515519718226,0.0339238006662126,1.116313911636566,-0.0478435344994068,-0.0294312126934528,-0.0956929847598076,0.157470505926758,0.4582568522170186,-9.169354494810102,15004.0
39.3,3.5999999046325684,12.0,23.30817604064941,23.068096160888672,-79.782775167399,40.459083151184586,339.9256809692384,-0.0146447038277983,-0.0198128540068864,-0.7534955143928528,0.6569913625717163,0.0890210597550434,0.0364086846786547,1.0754466906021598,-0.0293644051998853,-0.1372309625148773,0.0499878600239753,0.1102940097358078,0.4666425999999047,-9.278241929411893,15004.0
39.51,3.5999999046325684,13.0,23.46718597412109,20.022565841674805,-79.78277526205788,40.45908312746693,340.1063526611328,-0.0168996788561344,-0.0190323814749717,-0.7540540099143982,0.6563191413879395,0.0826784972233323,0.0284531530565628,0.99051080301825,-0.0001511512382421,-0.0187388937920331,0.0095737678930163,0.0874027543142438,0.5172070917114616,-9.271514707803728,15005.0
39.69,3.5999999046325684,12.0,23.88912773132324,15.760416030883787,-79.78277523807718,40.45908308647285,340.201987121582,-0.0144929382950067,-0.0213441625237464,-0.7539986968040466,0.656369149684906,0.0857608699610667,0.0340731462969019,0.9122156107626505,0.0144940307363867,0.0471792221069336,0.0091025354340672,0.1729121071100235,0.5487641125917435,-9.075306708812716,15005.0
39.79,3.5,12.0,23.450910568237305,20.467866897583008,-79.78277530647803,40.45908303877773,340.307684753418,-0.0110010784119367,-0.0248372573405504,-0.7364342212677002,0.6759635806083679,0.0335042710448073,0.037433948703597,0.4225969837384545,-0.0108698075637221,0.0698829442262649,-0.7222336530685425,0.1420853486470878,0.2194815618172288,-7.492183011174202,15005.0
39.89,3.5,13.0,23.37328338623047,21.54135513305664,-79.78277528279916,40.45908302581906,340.3416203002929,-0.011722357943654,-0.0260968171060085,-0.7089617252349854,0.7046664953231812,0.0291371961016392,0.0229683075900948,0.2683830370903078,0.006204558070749,0.0056578144431114,-0.7953276038169861,0.092126701567322,0.1570195211470127,-8.143122539520265,15005.0
40.09,3.5,12.0,23.42586898803711,21.469789505004886,-79.78277543156666,40.45908299537032,340.2955692749024,-0.0093692298978567,-0.0214694067835807,-0.6459561586380005,0.7630151510238647,0.026805390552913,-0.0024391165351125,0.095929042800631,-0.0170404836535453,0.0072202119044959,-0.7972843647003174,0.1605988393910229,0.4349997346848249,-9.123578397631643,15005.0
40.29,3.5,6.0,23.39206314086914,22.217256546020508,-79.78277552987919,40.45908287352734,340.2259891967773,-0.009448803961277,-0.0198898818343877,-0.5940625071525574,0.8041174411773682,0.0592413755151708,-0.0233494670929776,0.0009846553460934,0.0637430325150489,-0.0192988235503435,-0.6617053747177124,0.0279873094288632,0.2507890893146396,-9.324580528736115,15005.0
40.4,3.5,9.0,23.275623321533203,29.898670196533203,-79.78277554753079,40.459082828771855,340.2244251708984,-0.011197879910469,-0.0192940440028905,-0.5792924761772156,0.814814567565918,0.0579448421369345,-0.0339666686000229,-0.029969038147847,-0.0843590050935745,-0.0594120100140571,-0.3968072235584259,-0.0406417119316756,0.6556860056519509,-9.451243498921396,15005.0
40.49,3.5,11.0,23.230548858642567,24.523271560668945,-79.78277542960764,40.45908260235642,340.19258770751946,-0.0124305943027138,-0.008644700050354,-0.5676385760307312,0.8231386542320251,0.0911659970196423,0.0039050444140549,-0.0022422889775306,0.0540821067988872,-0.3293580710887909,-0.4619259536266327,0.1735410482436418,1.0931863752007485,-9.8099310028553,15005.0
40.69,3.5,4.0,23.185474395751957,25.135557174682607,-79.78277521830724,40.45908243897453,340.193198059082,-0.048537228256464,0.0307279769331216,-0.5578694939613342,0.8279382586479187,0.1620969444664986,0.1275302557004153,0.0276421179109467,0.1865613162517548,-0.4373181462287903,0.0535479038953781,-0.0391522981971502,0.2244815524667501,-9.993186249732972,15005.0
40.79,3.5,356.0,23.080303192138672,27.354103088378903,-79.7827744269868,40.45908219468257,340.26515850830083,-0.071941390633583,0.0427985899150371,-0.5566131472587585,0.8265437483787537,0.1762760746230302,0.2611757370523609,0.153097812759171,-0.2044429928064346,-0.4278146624565125,0.0092110484838485,-0.0628848857246339,0.4132036901637912,-10.252091603279114,15005.0
40.99,3.5,359.0,23.15417289733887,26.3521785736084,-79.78277397663688,40.45908213497994,340.24797711181634,-0.0990923717617988,0.0546946190297603,-0.5604595541954039,0.8204110860824585,0.2000825072300609,0.5278309165076849,0.3647958984774371,-0.0515540540218353,-0.2097268402576446,0.0426870211958885,-0.258504325915128,0.5134034413844347,-10.540911312103274,15005.0
41.19,3.5999999046325684,1.0,23.08405876159668,26.71000862121582,-79.78277311844116,40.45908219502879,340.2763203125,-0.1061988323926925,0.0559090711176395,-0.5627299547195435,0.8178821206092834,0.2360590935935261,0.7217378386415281,0.4793204541695517,0.1408676505088806,0.0638996958732605,0.2824635803699493,-0.1033645384199917,0.0750584598071873,-10.632213245630265,15005.0
41.29,3.799999952316284,358.0,23.268110275268555,23.839418411254893,-79.78277082280734,40.45908239580304,340.26897320556634,-0.1133960336446762,0.0544590689241886,-0.5678507089614868,0.8134624361991882,0.2379874672565502,1.1050934066013829,0.6675514420384944,0.0921284630894661,0.1396631300449371,0.1160884425044059,-0.2405592758953571,0.3304179704189301,-10.633631780147551,15005.0
41.49,3.799999952316284,0.0,23.28939437866211,23.282794952392567,-79.78276924360286,40.45908264863714,340.30900463867187,-0.1165214255452156,0.0517585948109626,-0.5690830945968628,0.8123351931571959,0.21356570336456,1.3213016986142765,0.7561613470838615,-0.219904527068138,-0.0917241796851158,-0.1601857095956802,-0.4581814231351018,0.6828988742083312,-10.376470066308976,15005.0
41.6,4.0,4.0,23.275623321533203,24.83338928222656,-79.78276732023733,40.45908294090361,340.29831585693364,-0.1188864633440971,0.0498863160610199,-0.5692241191864014,0.8120107054710388,0.2109280361347572,1.5162745538845006,0.8171892248534853,0.0159224178642034,0.0611454509198665,0.0202119722962379,-0.3559434421733022,0.6877905817329883,-10.37112571120262,15005.0
41.69,4.199999809265137,6.0,23.260597229003903,23.736045837402344,-79.78276299094051,40.45908380913619,340.38421520996087,-0.1208273470401764,0.0524263568222522,-0.5695633292198181,0.8113260865211487,0.2007862404755354,1.9294587935254324,0.9478650447660087,-0.0139114968478679,-0.156295046210289,0.0230983383953571,-0.405900810174644,0.625590021237731,-10.17691395163536,15005.0
41.89,4.5,11.0,23.13664436340332,25.652421951293945,-79.78275757922795,40.45908503728472,340.43408856201165,-0.1212353631854057,0.0571426041424274,-0.5687510967254639,0.8115164637565613,0.1787429227440419,2.3266531449607184,1.0554754530369987,-0.1674561500549316,-0.0905045792460441,-0.1800279319286346,-0.6090252247452737,0.77097840718925,-10.03574696302414,15005.0
42.1,4.599999904632568,12.0,23.32445335388184,23.282794952392567,-79.78275445309758,40.45908587021108,340.45793041992187,-0.1243262365460395,0.0565770305693149,-0.5670048594474792,0.8123100399971008,0.1644144939868419,2.525519279218851,1.1051449687970336,0.0763161554932594,-0.0530972182750701,0.0023361400235444,-0.4600100667402148,0.5745123267173767,-9.978652410507204,15005.0
42.2,4.900000095367432,16.0,23.208011627197266,25.74784469604492,-79.78275124935962,40.4590866339442,340.49874005126946,-0.1303331851959228,0.0609718710184097,-0.5655310750007629,0.8120778203010559,0.1923319896519012,2.743727520325824,1.165232497290345,0.0885757207870483,-0.0843337848782539,0.0038212134968489,-0.4390120575204492,0.3951501194760204,-9.986528609991074,15005.0
42.39,5.099999904632568,17.0,23.03898429870605,27.57675170898437,-79.78274395646649,40.45908863552956,340.56389508056634,-0.1433635205030441,0.0743669271469116,-0.5627433657646179,0.8107011318206787,0.1787522250106177,3.1413306089689086,1.3522760451049387,0.1117094308137893,-0.0250434558838605,-0.0666729286313057,-0.632556759417057,0.6914899688959122,-9.954009904861447,15005.0
42.5,5.5,18.0,22.97763442993164,28.76951789855957,-79.78273555916165,40.45909105935535,340.63791546630864,-0.1450347006320953,0.0757456868886947,-0.5618279576301575,0.8109111785888672,0.160614703156907,3.5928505463102884,1.6160903417504346,-0.0729319229722023,-0.0287797730416059,0.091813750565052,-0.6515392334014177,0.572540499418974,-10.34572423696518,15005.0
42.69,5.599999904632568,18.0,23.075294494628903,26.78952598571777,-79.78273102157628,40.45909221667564,340.6776340942384,-0.1440648734569549,0.0804203823208808,-0.5623974800109863,0.8102388381958008,0.207051895632168,3.8370829018595423,1.7258336391027012,0.0842171609401702,-0.1208675950765609,0.0832305625081062,-0.8294440586864948,0.5720499545708299,-10.379866129159929,15005.0
42.8,6.0,21.0,23.03773307800293,27.60060691833496,-79.7827208915388,40.45909515173162,340.76165661621087,-0.1447602212429046,0.0846057310700416,-0.5611283779144287,0.8105685710906982,0.1866235683242289,4.298141715711002,1.9510059641107464,-0.1052268743515014,-0.0612048991024494,0.0851276069879531,-0.8853902911394835,0.4349996615946293,-10.215103286504746,15005.0
42.99,6.099999904632568,22.0,23.19048309326172,24.70616149902344,-79.78270973015053,40.45909857879936,340.85526928710937,-0.1429981589317321,0.0786997303366661,-0.5576436519622803,0.8138744235038757,0.210393891137556,4.752673152113525,2.0942284275939302,-0.131558671593666,-0.0286650508642196,-0.1979744136333465,-0.8254780384898186,0.7902756806463004,-10.099694452285767,15005.0
43.09,6.4000000953674325,23.0,23.28188323974609,23.68833541870117,-79.78270382031384,40.459100100860354,340.89759716796874,-0.1405202895402908,0.0759545639157295,-0.5562130808830261,0.8155440688133241,0.2789604563367748,4.9826773834130496,2.101725105026445,-0.1141692474484443,-0.0177585892379283,-0.1466870903968811,-1.0596675038337708,0.7264585112035274,-9.606081862449653,15005.0
43.19,6.599999904632568,24.0,23.12788009643555,26.07386589050293,-79.78269766560264,40.45910167048548,340.93502697753905,-0.1403223723173141,0.075476199388504,-0.5543371438980103,0.8168986439704895,0.3314394554521469,5.211559259895144,2.0780227911666875,-0.024867920204997,-0.0363050624728202,0.039306454360485,-0.9100835213810206,0.5400678045675159,-9.550381870865822,15005.0
43.4,6.9000000953674325,26.0,23.16669464111328,24.57098197937012,-79.78268476392886,40.45910600510221,341.0120609741212,-0.1388508528470993,0.0747353807091713,-0.5495031476020813,0.8204764127731323,0.3868357139824672,5.6113014907530845,2.18571110066894,0.0236580502241849,0.088498830795288,-0.2343860864639282,-1.0985429363697767,0.8704749941825867,-9.835597940683368,15006.0
43.59,7.0,27.0,23.33321762084961,22.257015228271484,-79.78267807302127,40.45910901288497,341.05568585205083,-0.1336388289928436,0.0762351229786872,-0.5467560887336731,0.8230350613594055,0.3202077338731991,5.814214603773537,2.2134987177636,-0.0197384487837553,-0.009869092144072,-0.28461554646492,-1.0128232665359975,0.8219403999298811,-9.714996778964997,15006.0
43.69,7.300000190734862,29.0,23.22554016113281,24.61074066162109,-79.78266386118054,40.45911287060857,341.1029041748047,-0.1344661116600036,0.0789433270692825,-0.5460199117660522,0.8231337070465088,0.3986619830428781,6.198494338610859,2.1263454098098893,-0.0560369230806827,-0.0626936256885528,0.0688005313277244,-1.026821646988392,0.4039655279740692,-9.128744997382164,15006.0
43.89,7.5,30.0,23.151670455932607,25.37411117553711,-79.78265661339395,40.45911597758617,341.13502392578124,-0.1391083747148513,0.0782914012670517,-0.5429338812828064,0.8244648575782776,0.3640435160874229,6.38561361910138,2.152204633031272,0.0886159092187881,-0.157128557562828,0.1765706688165664,-1.07698198646307,0.3938196220993996,-9.18455550134182,15006.0
43.99,7.900000095367432,32.0,23.11911582946777,26.137481689453125,-79.7826413438671,40.45912143961015,341.1707294921875,-0.1513726115226745,0.0929648056626319,-0.5400572419166565,0.8226677179336548,0.3756338489047557,6.7255837476968585,2.32654763290216,0.0639654472470283,-0.08763038367033,0.0698989778757095,-1.3893873167037964,0.7697474952042104,-9.37376964569092,15006.0
44.19,8.0,33.0,23.33071327209473,22.757976531982425,-79.78263334495135,40.45912369415415,341.1683186035156,-0.154385969042778,0.0952508151531219,-0.5406169891357422,0.8214777112007141,0.4325974169985721,6.867844134617759,2.5270000366881766,-0.0433499328792095,0.0226951297372579,-0.0224734786897897,-1.6201267786324025,0.6555269613862038,-9.665608271956444,15006.0
44.3,8.300000190734862,31.0,23.036481857299805,28.5468692779541,-79.78261682114389,40.45912973044752,341.1953495483398,-0.1518521904945373,0.0981120243668556,-0.5388170480728149,0.8227947950363159,0.3923551038380876,7.261287403316847,2.672196107670959,0.0381066426634788,0.0252425353974104,-0.0670227035880088,-1.4230178698897362,0.5718112054467201,-9.396890121102334,15006.0
44.49,8.399999618530272,31.0,23.112855911254893,26.1772403717041,-79.78260815579705,40.459132179774095,341.1858204345703,-0.143439382314682,0.0925598293542862,-0.5401021242141724,0.8241040706634521,0.4745239638671378,7.423017259587043,2.7405393680354986,-0.0314380228519439,0.440094530582428,-0.2296284139156341,-1.6263751132786275,0.6327185080200434,-9.940477108955385,15006.0
44.59,8.699999809265138,33.0,23.29189872741699,22.83749389648437,-79.78259928538931,40.459134660078654,341.18058666992187,-0.1286506801843643,0.0772782638669014,-0.5421496629714966,0.8267713189125061,0.4964909457621064,7.611907890544798,2.6888643563893795,-0.070277139544487,0.4663446843624115,0.0968301221728324,-1.8444283099472525,0.3936985481902957,-10.14366785287857,15006.0
44.69,8.899999618530273,33.0,23.45466613769531,20.952924728393555,-79.7825814355558,40.45914132780084,341.218588684082,-0.1052382215857505,0.0547270961105823,-0.5416669249534607,0.8321819901466371,0.5058346264242894,8.026194420802046,2.1526153446612746,-0.0468733049929142,0.160558819770813,-0.0344757959246635,-1.617529299259186,0.7576111605763436,-9.639187043309214,15006.0
44.89,9.199999809265137,43.0,23.45591735839844,20.412202835083008,-79.78256302513853,40.45914764883491,341.2181614379884,-0.1083086505532264,0.0483706593513488,-0.5374544262886047,0.8349084854125977,0.4991546097215844,8.221180233580881,1.897254059159334,-0.2298126071691513,-0.1011291369795799,-0.1854342073202132,-1.4992145450413228,0.6873708978295326,-9.283727202415466,15006.0
44.99,9.399999618530272,45.0,23.495983123779297,19.36256980895996,-79.78255348053038,40.459151464301954,341.2275303344726,-0.1042720228433609,0.0405992977321147,-0.5338426232337952,0.8381475210189819,0.4530778396919754,8.275529835034744,1.89710968246184,0.0777753889560699,0.183478444814682,0.2880186140537262,-1.8732132755219937,-0.0288799828290939,-9.412420325875283,15006.0
45.19,9.699999809265137,47.0,23.50224304199219,19.65678596496582,-79.78253479884984,40.45915714253203,341.2034901123047,-0.0817073434591293,0.0417603738605976,-0.5377730131149292,0.8380812406539917,0.4910030079613171,8.398440062163385,1.4933319903253617,0.0442119389772415,0.1547589898109436,-0.08228000998497,-1.6266652813553808,0.4241551596298814,-9.100439795851708,15006.0
45.39,9.800000190734863,47.0,23.276874542236328,23.21122741699219,-79.78251566407442,40.45916381130197,341.17310223388665,-0.0717243179678917,0.0376018099486827,-0.5411608815193176,0.8370106816291809,0.3622421875077388,8.4610444052887,1.2185222548307544,-0.1345768719911575,0.0396771691739559,-0.0316730551421642,-1.6250178283452992,-0.1135808118805289,-9.142624533176422,15006.0
45.49,10.0,52.0,23.41835594177246,21.461837768554688,-79.78250593158558,40.45916746903204,341.1692570190429,-0.070594348013401,0.0288311932235956,-0.5414569377899171,0.8372631669044495,0.2750011037113395,8.479443279974472,1.1586018391528263,-0.2101375460624694,0.1157904639840126,0.1879839748144149,-1.788567373752594,0.0019796114042401,-9.569016362428666,15006.0
45.59,10.100000381469728,54.0,23.31944465637207,22.75002479553223,-79.78249663339231,40.45917041147718,341.1482304077148,-0.0710617527365684,0.012615137733519,-0.5410245656967163,0.8379043340682983,0.2563208829692201,8.44824096959847,1.061072208502064,-0.3046810030937195,0.1852549910545349,-0.0300881341099739,-1.8800460393726828,0.1266700690705329,-9.718442543148996,15006.0
45.81,10.300000190734863,55.0,23.54230880737305,19.34666633605957,-79.7824873938457,40.45917335583752,341.12814984130864,-0.0708778351545333,0.0007598878582939,-0.5408757925033569,0.8381105065345764,0.2544776120837057,8.420788565810378,0.9101418993603412,-0.089619867503643,0.0035711391828954,0.1120463535189628,-1.7865318118035791,0.4230046834051609,-9.612757628560066,15006.0
45.99,10.300000190734863,56.0,23.28188323974609,22.996530532836918,-79.78246855439487,40.45917995385707,341.08599743652337,-0.0709196850657463,0.0179773084819316,-0.5410358905792236,0.8378111720085144,0.1733263523050432,8.392056352483339,0.8216141403818833,0.1592357158660888,-0.1415936946868896,-0.0422642081975936,-1.5762850865721705,0.416769285723567,-9.468949452638627,15006.0
46.09,10.399999618530272,61.0,23.50850486755371,19.61702537536621,-79.78245882595373,40.45918309727696,341.06490979003905,-0.0699637234210968,0.0284100770950317,-0.5411413908004761,0.8375345468521118,0.1287774606850764,8.368699224818641,0.9394551816978718,0.1057610288262367,0.0569875314831733,0.0911372452974319,-1.740447858721018,0.3157487316057086,-9.655037090778352,15006.0
46.29,10.399999618530272,59.0,23.42837333679199,20.730274200439453,-79.78244065873568,40.45918912262883,341.01668438720696,-0.0701459497213363,0.0436656437814235,-0.541346549987793,0.8367297649383545,0.1327951615658598,8.309591793209773,1.052257966455831,0.0713303759694099,-0.0357899516820907,-0.0169244222342968,-1.793640271872282,0.2571134377643466,-9.163959268927576,15006.0
46.39,10.399999618530272,60.0,23.274370193481445,23.147613525390625,-79.7824221158912,40.45919524362,340.95310101318364,-0.0728967487812042,0.0403970144689083,-0.5407099723815918,0.8370704054832458,0.1448297745296371,8.31956669748902,1.093610891275017,-0.0337737686932086,-0.0431411191821098,0.0593362972140312,-1.7432774725556377,0.3193337691575289,-9.616311566233636,15005.0
46.59,10.399999618530272,60.0,23.23806190490723,24.04616355895996,-79.78241286674256,40.45919816911183,340.91349682617187,-0.0727875083684921,0.0372524037957191,-0.5405775904655457,0.8373112678527832,0.1552747324284552,8.29505077989583,1.106914293918439,-0.1267252415418625,-0.0206836313009262,-0.0873931050300598,-1.8226716975867747,0.3007851585745812,-9.569556060433388,15005.0
46.69,10.300000190734863,57.0,23.25559043884277,23.4179744720459,-79.78240381554885,40.45920112974699,340.88603863525384,-0.0689119547605514,0.0316863767802715,-0.5409622192382812,0.8376199007034302,0.1758655776953249,8.273606280180532,1.080312745169115,-0.0069582001306116,0.087663821876049,0.1122871041297912,-1.869456147104502,0.21292018186301,-9.69971098780632,15005.0
46.89,10.300000190734863,59.0,23.26435470581055,23.52134704589844,-79.78237659077324,40.459209822924606,340.7996357421875,-0.0585072673857212,0.0221781153231859,-0.5430982708930969,0.8373346924781799,0.1613657485554165,8.192637251000244,0.8625529086225475,-0.0065570548176765,0.137514129281044,-0.0811681896448135,-1.633909396827221,0.2645106771960854,-9.961704840660095,15005.0
47.0,10.199999809265137,59.0,23.29690742492676,22.320629119873047,-79.7823673697111,40.45921264016955,340.7557209472656,-0.0549651309847831,0.0193533767014741,-0.5436821579933167,0.8372658491134644,0.1512170197752415,8.163541428984598,0.8042080262404081,-0.0280229225754737,0.1918903887271881,-0.0159146878868341,-1.5230540817976002,0.2981041371077299,-10.006827803850175,15005.0
47.09,10.199999809265137,59.0,23.49723625183105,19.72835159301757,-79.78235850830949,40.45921552229908,340.7374180297852,-0.051828783005476,0.0168589670211076,-0.5443220734596252,0.8371040225028992,0.1357204636178636,8.101804370649381,0.7455825680610789,-0.0457365550100803,0.1036201268434524,-0.1313851922750473,-1.6675821961462498,0.4592365897446871,-9.897697709798813,15005.0
47.29,10.100000381469728,63.0,23.29064750671387,22.89315795898437,-79.78234075982586,40.45922108155548,340.67696270751946,-0.0487431325018405,0.008417191915214,-0.5443797111511229,0.8373792767524719,0.0942408398218553,7.981235256391899,0.5680623083849642,-0.2719396352767944,-0.0684782341122627,0.1621399670839309,-1.746694877743721,-0.0593552322685718,-9.79486623644829,15005.0
47.39,10.100000381469728,64.0,23.2180290222168,24.56303024291992,-79.78233213813795,40.45922390330929,340.6562412719726,-0.0469379760324955,-0.0006093211704865,-0.5441889762878418,0.8376484513282776,0.1053698680145508,7.901168550413812,0.5183680316605492,-0.0962911173701286,0.0656223818659782,-0.1144321784377098,-1.8187349134683608,0.3716815520077944,-9.892919365167616,15005.0
