time,wind_speed,wind_angle,battery_voltage,battery_current,position_x,position_y,position_z,orientation_x,orientation_y,orientation_z,orientation_w,velocity_x,velocity_y,velocity_z,angular_x,angular_y,angular_z,linear_acceleration_x,linear_acceleration_y,linear_acceleration_z,node_ids
0.0,0.5,134.0,24.431264877319336,-0.0874695107340812,-79.78274299389507,40.45905644311252,267.6591652889252,0.0079951612278819,0.0080040991306304,-0.6948659420013428,0.7190502882003784,0.0001087094991866,-0.0123045967275248,0.0024546525945639,0.0030833696946501,-0.0004522356321103,-0.0016404124908149,-0.0048913700535194,-0.2128969391807914,-9.809015913605691,14932.0
0.1,0.5,133.0,24.43001365661621,-0.0954212844371795,-79.78274305189026,40.459056497594254,267.6492278833389,0.0079607544466853,0.0080062448978424,-0.6948680877685547,0.7190486788749695,-0.0008369608450455,-0.0124520862418186,0.0007003086662512,-0.0104515068233013,-0.0024118297733366,-0.0055225943215191,-0.0019840524901519,-0.2279137584194541,-9.810923860073087,14932.0
0.3,0.5,131.0,24.431264877319336,-0.1033730581402778,-79.78274306703611,40.45905649740424,267.6492909450531,0.0079570338129997,0.0080050211399793,-0.6948591470718384,0.7190573215484619,0.0001300326383001,-0.0132652999474261,0.0005784366144381,-0.0009760179673321,0.0031031239777803,0.0003050587838515,-0.0041999339475296,-0.2177614571526646,-9.80980938076973,14932.0
0.4,0.4000000059604645,131.0,24.43376922607422,-0.0874695107340812,-79.78274311069502,40.459056535404784,267.6417635936737,0.0079442504793405,0.0080256666988134,-0.6948606967926025,0.7190556526184082,0.0019954711397349,-0.0105317649493463,0.0028554170183342,-0.0074234697967767,-0.0012868208577856,-0.0098791504278779,-0.0023956716328393,-0.2265401012822985,-9.812168147563932,14932.0
0.6,0.4000000059604645,136.0,24.42876052856445,-0.1033730581402778,-79.78274312344949,40.45905653271825,267.64202925157554,0.0079496102407574,0.008013904094696,-0.6948668360710144,0.7190499305725098,0.0031190053116906,-0.0112765782441545,0.0026003978708654,0.0030996196437627,0.0032782228663563,0.0038595222868025,-0.003090648901707,-0.2220331770926714,-9.810337969064712,14932.0
0.7,0.4000000059604645,135.0,24.431264877319336,-0.0874695107340812,-79.78274317914959,40.45905658059989,267.63579967212684,0.0079076560214161,0.0080143604427576,-0.694866418838501,0.7190507054328918,0.0009418418197541,-0.0116174852906802,0.0051944298133976,-0.0023156171664595,-0.0010964528191834,-0.0083638662472367,-0.0008285190520109,-0.2245963040739298,-9.811700370311735,14932.0
0.91,0.4000000059604645,135.0,24.431264877319336,-0.0795177370309829,-79.78274319303475,40.45905657881647,267.6363163847924,0.0079010436311364,0.0080267572775483,-0.6948784589767456,0.7190390229225159,0.0019318020503147,-0.0123537679272681,0.0051139193200019,0.0051310365088284,0.0028501972556114,0.0090338224545121,-0.0036806044101831,-0.22656952008605,-9.81127937078476,14932.0
1.0,0.4000000059604645,137.0,24.43376922607422,-0.0795177370309829,-79.78274324731676,40.45905663227057,267.63067456674577,0.0078938025981187,0.0080301584675908,-0.6948756575584412,0.7190417051315308,0.0002025569887387,-0.0124150715214572,0.0066561511439412,0.001146292546764,0.0007132389582693,-0.0038020864594727,-0.003761683992343,-0.2205888417363166,-9.811151901483536,14932.0
1.2,0.4000000059604645,140.0,24.43376922607422,-0.0795177370309829,-79.7827432671568,40.4590566849536,267.6247680444717,0.0078753717243671,0.0080359671264886,-0.6948785781860352,0.7190390825271606,-0.0004014030486852,-0.0083028351830892,0.0072172555852926,0.0072045666165649,-0.000358818389941,0.0057125878520309,-0.0013240784300433,-0.2289482770487666,-9.812103828191756,14932.0
1.3,0.4000000059604645,140.0,24.43001365661621,-0.0954212844371795,-79.78274328731517,40.45905668530223,267.62623932552344,0.0078569194301962,0.008024176582694,-0.6948944926261902,0.7190240025520325,-0.0003094961909192,-0.0089753572388415,0.0073200470032942,0.0001096290798159,0.0013911105925217,0.0011005144333466,-0.0056903800810687,-0.217265722900629,-9.811096937656403,14932.0
1.5,0.5,142.0,24.43001365661621,-0.0874695107340812,-79.7827433086977,40.4590567377821,267.6197806854248,0.0078272838145494,0.0080353189259767,-0.694886326789856,0.7190321683883667,-0.0006850201961608,-0.0067246161069993,0.004718027578354,-0.0001826022780733,-0.0001312719978159,0.0024084823671728,-0.0011239139342796,-0.2271194872632623,-9.812212586402891,14932.0
1.61,0.5,143.0,24.425004959106445,-0.1033730581402778,-79.78274337498647,40.45905677572628,267.61421373081214,0.0078365048393607,0.008050181902945,-0.6948914527893066,0.7190269827842712,0.0032840524338479,-0.0130189531180841,0.002450478102382,0.008589768782258,-0.0012131837429478,0.0073969773948192,-0.0070177836867515,-0.2126227413117885,-9.809295995235445,14932.0
1.8,0.5,147.0,24.43376922607422,-0.0874695107340812,-79.78274339019484,40.459056772748006,267.6144621033669,0.0078233182430267,0.0080575793981552,-0.6948800683021545,0.7190380096435547,0.0025989092115877,-0.0130529016239298,0.0025705282845468,-0.0006806014571338,-0.0005160592263564,-0.0011806059628725,-0.0017815723770763,-0.2230067202262581,-9.811819653511048,14932.0
1.9,0.5,147.0,24.43251800537109,-0.055662415921688,-79.78274340407016,40.45905680924693,267.6110590953827,0.0077937906607985,0.0080671701580286,-0.6948783993721008,0.719039797782898,0.0054662959329994,-0.005530380762125,0.0049197781599451,0.005007829517126,0.0020629670470952,0.0101884612813591,-0.0067040777119109,-0.2109759461134673,-9.809147475957872,14932.0
2.1,0.5,147.0,24.43001365661621,-0.0954212844371795,-79.78274341037782,40.459056804394,267.61154576730735,0.0077946507371962,0.0080531239509582,-0.6948770880699158,0.7190412282943726,0.0046367534828368,-0.0054716227545449,0.0050435906500042,-0.0056319972500205,-0.0008351205615326,-0.0056217196397483,-0.0066065799590433,-0.2154783204384149,-9.809833939075473,14932.0
2.2,0.5,151.0,24.43001365661621,-0.0795177370309829,-79.78274346226846,40.45905688161971,267.6093623895645,0.0077865398488938,0.0080413250252604,-0.6948885321617126,0.7190303802490234,-0.0027110576503591,-0.0080629222345779,0.0067184156202224,0.0012273612665012,0.0020515301730483,0.0022784473840147,-0.0030488307459745,-0.219152345303446,-9.810377730131153,14932.0
2.4,0.5,154.0,24.43251800537109,-0.0874695107340812,-79.78274347196044,40.459056883587095,267.61004146528245,0.00778642995283,0.0080425860360264,-0.6948956251144409,0.7190235257148743,-0.0029803460216688,-0.0082070550824175,0.0068237673557341,-0.0039309277199208,-0.000673675967846,-0.00622118730098,-0.0063058166590053,-0.2104981555044651,-9.808963873386382,14932.0
2.5,0.5,155.0,24.43376922607422,-0.0954212844371795,-79.78274352208655,40.459056923229866,267.6060028333664,0.0077683883719146,0.0080308876931667,-0.6949003338813782,0.7190192937850952,0.0003539561483041,-0.0095474162719024,0.0045915687541732,-0.0053286980837583,-0.0001384330826113,-0.0036749031860381,-0.0023410198665806,-0.2271846654452383,-9.81255991101265,14932.0
2.7,0.6000000238418579,152.0,24.43001365661621,-0.0954212844371795,-79.78274352636966,40.459056988044274,267.6017692346573,0.0077785737812519,0.0080285901203751,-0.6949126124382019,0.7190073728561401,4.880358613265463e-05,-0.0023056795123988,0.0025173181511685,0.0026581645943224,0.0005269035464152,-0.0035422910004854,-0.003906423136359,-0.2141492117755115,-9.80904164135456,14932.0
2.8,0.6000000238418579,153.0,24.43001365661621,-0.0795177370309829,-79.78274353217769,40.45905698795813,267.60227438402177,0.0077741681598126,0.0080496491864323,-0.6949170827865601,0.7190028429031372,-0.0005908689636575,-0.0025260228358512,0.0026457574540275,-0.0025222010444849,-0.0038271767552942,-0.0093463761731982,-0.0015752513171173,-0.227863655090332,-9.811429059505462,14932.0
3.01,0.6000000238418579,153.0,24.425004959106445,-0.0954212844371795,-79.78274359340683,40.45905703489358,267.6004501838684,0.0077906833030283,0.0080422675237059,-0.6949105858802795,0.7190089821815491,0.0035999445513781,-0.0107707101714127,0.0054674630804338,0.0061097568832337,0.0025120528880506,0.0052497517317533,-0.0026449111985857,-0.2247047333791852,-9.81168048977852,14932.0
3.1,0.6000000238418579,151.0,24.427509307861328,-0.0795177370309829,-79.78274359781011,40.45905709433345,267.5992661376,0.0077552571892738,0.0080493511632084,-0.6949189901351929,0.7190011739730835,0.0047971512708091,-0.0034142452575773,0.0069947263228233,-0.00121581251733,-0.0006378538673743,-0.0058393864892423,-0.0023112313292222,-0.223225460909307,-9.812117861509323,14932.0
3.3,0.5,149.0,24.42250061035156,-0.0397588685154914,-79.78274360169125,40.45905708975455,267.5999506969452,0.0077544525265693,0.0080562336370348,-0.6949031949043274,0.7190163731575012,0.005220924718252,-0.0036129291456754,0.0068525535625355,0.0032232017256319,-0.0013420664472505,0.0054543111473321,-0.0003296984522603,-0.2282807260192931,-9.812075761556626,14932.0
3.4,0.5,148.0,24.431264877319336,-0.0954212844371795,-79.78274363158519,40.45905716994361,267.59787341547013,0.0077338465489447,0.0080567458644509,-0.6949180960655212,0.7190022468566895,-0.0006014848511919,-0.0060839005326113,0.0043700219807842,0.0037119002081453,-0.0029188995249569,0.0034908046945929,-0.0052148250042228,-0.2168105537071824,-9.810525079965592,14932.0
3.61,0.5,146.0,24.431264877319336,0.0159035474061965,-79.78274363867217,40.45905717050869,267.5983125228882,0.0077327070757746,0.008037625811994,-0.6948948502540588,0.7190248966217041,-0.0008883888192872,-0.0060494908444154,0.0042985377483615,-0.0011780349304899,0.0001594349887454,-0.0002313131990376,-0.0003151960441027,-0.226415555588901,-9.811581087112428,14932.0
3.71,0.5,142.0,24.42876052856445,-0.0159035474061965,-79.78274365208298,40.45905725091743,267.5958789248466,0.00771174300462,0.0080152954906225,-0.6949087977409363,0.7190119028091431,-0.0008488378403558,-0.004189940516507,0.0022884430926982,0.0049214814789593,0.0018144794739782,0.0035226279869675,-0.0055249729711795,-0.2100604365952313,-9.808711273670196,14932.0
3.9,0.5,137.0,24.425004959106445,0.0079517737030982,-79.78274365682779,40.45905725202519,267.5961218733788,0.0077039212919771,0.0080119231715798,-0.6949138045310974,0.7190071940422058,-0.001763224067944,-0.0039991817472421,0.0024282522262269,-0.0024277737829834,-0.0032155821099877,-0.0010941325454041,-0.00344891734072,-0.2223991214297712,-9.81177989244461,14932.0
4.0,0.5,138.0,24.41749382019043,-0.0795177370309829,-79.78274369849306,40.45905731744816,267.59383692932136,0.0076917083933949,0.0080081010237336,-0.6949017643928528,0.7190189957618713,0.0026003205504213,-0.0073857009042669,0.0012408362807893,0.0059157512150704,0.0026876374613493,0.0045835962519049,-0.0057402561453636,-0.2112203231826424,-9.810178924798969,14932.0
4.2,0.5,140.0,24.412485122680664,0.0238553211092948,-79.78274370177056,40.45905739203511,267.59155323696143,0.0076801413670182,0.0080009819939732,-0.6949092745780945,0.7190119028091431,0.0037903167717053,-0.0046025309469749,0.0007482403772243,-0.0070389173924922,-0.0057794279418885,-0.0065837334841489,-0.0060633108130423,-0.2168002114444971,-9.810620974302292,14932.0
4.3,0.5,142.0,24.418745040893555,0.0079517737030982,-79.78274371285677,40.45905738422136,267.5916741747856,0.0076753380708396,0.0080131953582167,-0.6949201226234436,0.7190014123916626,0.0042049277361795,-0.0050419760080363,0.0006344823930505,0.0010320486035197,0.0007656757952645,0.0048010861501097,-0.004191457197885,-0.2162137722596526,-9.810079522132874,14932.0
4.5,0.5,145.0,24.427509307861328,-0.0318070948123931,-79.78274371605136,40.45905748543512,267.59098681402213,0.0076500535942614,0.0080151995643973,-0.6949148774147034,0.7190067172050476,-0.0020338017436459,-0.0032579593339672,0.0035140107170065,-0.0068589434958994,-0.0025243118871003,-0.0057587502524256,-0.0065162433322984,-0.212314921952784,-9.809252141118051,14932.0
4.6,0.5,144.0,24.426258087158203,-0.0318070948123931,-79.78274373868965,40.45905757840787,267.5895568985939,0.007651797030121,0.0080154705792665,-0.6949206590652466,0.7190010547637941,-0.0026074286948711,-0.0059696244280029,0.0020284818148584,-0.0005739980842918,0.0002112517686327,0.0021715657785534,-0.0047713553812354,-0.2214606250450015,-9.810573027133945,14932.0
4.8,0.4000000059604645,145.0,24.42124938964844,-0.0477106422185897,-79.78274374596427,40.45905758054179,267.5897624154091,0.0076478663831949,0.0080150654539465,-0.6949256062507629,0.7189962863922119,-0.0030622638574407,-0.0060525012381845,0.002056302164209,-0.0027082359883934,-0.0015335550997406,-0.0068571004085242,-0.0066634755372069,-0.2101797563396394,-9.809193668961523,14932.0
4.91,0.4000000059604645,145.0,24.41373634338379,-0.0159035474061965,-79.78274377918841,40.45905766027607,267.5879829187393,0.007631545420736,0.0079859839752316,-0.6949284076690674,0.7189940810203552,0.0006366697156631,-0.0079993583172196,0.0013177307565841,-0.0060392329469323,-0.002166090067476,-0.0016118376515805,-0.0030362638004589,-0.2276072912290692,-9.81158810377121,14932.0
5.1,0.4000000059604645,147.0,24.42250061035156,0.0,-79.78274378875672,40.45905765918617,267.5881043334008,0.0076311859302222,0.0079720802605152,-0.694927990436554,0.718994677066803,0.0007168624326445,-0.0081734158119134,0.0012492684533198,0.0024985587224364,-0.0008491026237607,-0.0038746749050915,-0.0049454550852533,-0.211658096909523,-9.809594203233722,14932.0
5.2,0.4000000059604645,146.0,24.426258087158203,-0.0238553211092948,-79.78274382048828,40.45905776505492,267.58613529396064,0.0076224417425692,0.0079515911638736,-0.6949343681335449,0.718988835811615,-0.0023245715754683,-0.0089610960542215,0.0005972252421329,-0.0074327285401523,-0.0004253431106917,-0.004105273168534,-0.0011358404840575,-0.2282461543567479,-9.81177989244461,14932.0
5.4,0.4000000059604645,149.0,24.42250061035156,-0.0318070948123931,-79.78274383139669,40.45905776637295,267.58618941497804,0.0076266466639935,0.007953654974699,-0.6949394345283508,0.7189838886260986,-0.0018420538555271,-0.00937772248812,0.0004636695907059,0.0005276155425235,-0.0018899575807154,0.0038645435124635,-0.0037859562184894,-0.2182072159834206,-9.810224533081056,14932.0
5.5,0.4000000059604645,149.0,24.42375373840332,0.0238553211092948,-79.78274383443878,40.45905786372693,267.58431753110887,0.0076054902747273,0.0079291220754385,-0.6949334144592285,0.7189902067184448,-0.0027196048930989,-0.0066444437795433,0.0002824334929809,-5.243116902420297e-05,0.0015388308092951,0.004463090095669,-0.0008507024974096,-0.2263077110052109,-9.812688549757004,14932.0
5.6,0.4000000059604645,148.0,24.425004959106445,-0.0159035474061965,-79.7827438595872,40.45905798039936,267.58245649528504,0.007591925561428,0.0079566612839698,-0.6949378848075867,0.7189857363700867,-0.0068549587001373,-0.0080415265018705,-0.0001735012947691,0.0066595301032066,-0.0002341769722988,0.0057313367724418,-0.0072698135278187,-0.2110949734970927,-9.80868496119976,14932.0
5.8,0.3000000119209289,144.0,24.425004959106445,-0.0159035474061965,-79.78274386915481,40.459057986966855,267.5824671049118,0.0075907227583229,0.0079458896070718,-0.6949256062507629,0.7189976572990417,-0.0080659497332211,-0.0077747572212996,2.8716394419744357e-05,-0.0033886516466736,-0.0011796326143667,0.0008576288237236,-0.0039160630479455,-0.2224832116998732,-9.812161130905151,14932.0
5.9,0.3000000119209289,143.0,24.426258087158203,0.0238553211092948,-79.78274386251195,40.45905809717793,267.580282892704,0.0075775543227791,0.0079659642651677,-0.6949171423912048,0.719005823135376,-0.006059671732078,-0.0009804593250086,-0.0003132681676338,0.0028287938330322,0.0016373821999877,0.0058562341146171,-0.0054915610444732,-0.2114997287280857,-9.80934920489788,14932.0
6.1,0.3000000119209289,139.0,24.425004959106445,-0.0079517737030982,-79.78274386377474,40.45905810317229,267.58027883958823,0.0075678206048905,0.0079698543995618,-0.6949102878570557,0.7190124988555908,-0.0073571025208305,-0.0006768455892709,-4.448561907691039e-05,-0.0084104454144835,-0.0039056541863828,-0.0060443612746894,-0.0055782580078812,-0.2184019465371966,-9.811814975738525,14932.0
6.21,0.3000000119209289,137.0,24.42375373840332,-0.0159035474061965,-79.78274389774306,40.45905819180668,267.5776663680077,0.0075802733190357,0.0079846382141113,-0.694909930229187,0.7190125584602356,-0.0013550316104365,-0.0053013429342933,-0.0003207243862837,0.0028871237300336,-0.0017273295670747,0.0041781035251915,-0.0041269459639443,-0.2155445949733257,-9.809466733932496,14932.0
6.4,0.3000000119209289,131.0,24.427509307861328,-0.0477106422185897,-79.78274390389333,40.45905819321676,267.5776446123123,0.0075919884257018,0.0079930806532502,-0.6949144601821899,0.7190079689025879,-0.0024363282781689,-0.0050209626806956,-0.0001664770642182,-0.0035252543166279,-0.0019497970351949,-0.008748235180974,-0.0063147776311961,-0.2128821018710733,-9.809474335312844,14932.0
6.5,0.3000000119209289,130.0,24.431264877319336,-0.0715659633278846,-79.78274393763539,40.45905831524252,267.5750792284012,0.0076115927658975,0.0079928785562515,-0.6949095726013184,0.7190124392509459,-0.0059986790140397,-0.006515769385387,-0.0004169917771919,0.0018634042935445,0.0006637003389187,0.0012980493484064,-0.0043036363727878,-0.2204107757471502,-9.810163722038268,14932.0
6.7,0.3000000119209289,125.0,24.42375373840332,-0.0636141896247863,-79.78274395168567,40.459058422024974,267.5738493461609,0.0076014101505279,0.0080128097906708,-0.694915771484375,0.7190063595771791,-0.0055577717175115,-0.0042037313226185,0.0033303677169056,-0.0034199571236968,-0.0006032736855559,-0.007325570564717,-0.0067196579149458,-0.2112314328923821,-9.809158000946043,14932.0
6.81,0.3000000119209289,124.0,24.431264877319336,-0.0954212844371795,-79.78274396210428,40.45905843150847,267.5745136399269,0.0075974995270371,0.0080050770193338,-0.6949113011360168,0.7190108299255371,-0.0060403986493606,-0.0042072135926344,0.0032197903159721,-0.0016071222489699,0.0009435643441975,-0.0005185853806324,-0.0022702480005682,-0.2246053672581911,-9.8120593893528,14932.0
7.0,0.3000000119209289,118.0,24.427509307861328,-0.0954212844371795,-79.78274399296095,40.45905855338198,267.57140335035325,0.0075863408856093,0.0079818787053227,-0.6948955059051514,0.7190264463424683,-0.0097275077588708,-0.0065973564653187,0.0015678702863542,-0.0025151765439659,0.0002990833017975,-0.0069646653719246,-0.0063030769187025,-0.210414083506912,-9.80893873035908,14932.0
7.1,0.3000000119209289,115.0,24.427509307861328,-0.0795177370309829,-79.78274403500991,40.45905866658916,267.56842919778825,0.0075932312756776,0.0079948175698518,-0.6948891282081604,0.7190324664115906,-0.0077305295530886,-0.0081639313678053,0.0005922096485121,-0.0049862968735396,-0.0019675469957292,-0.0015818923711776,-0.001903651561879,-0.2277866911143065,-9.81248740553856,14932.0
7.3,0.3000000119209289,110.0,24.42876052856445,-0.0954212844371795,-79.78274404511863,40.459058673081344,267.5684942860604,0.0075938669033348,0.0079986909404397,-0.6948810219764711,0.7190401554107666,-0.0076369293005648,-0.0083691760204106,0.0004651829331041,0.0017776200547814,-0.0003728689043782,-0.0024442912545055,-0.0051281931367702,-0.2119710873998701,-9.809446268677712,14932.0
7.41,0.3000000119209289,109.0,24.425004959106445,-0.0795177370309829,-79.78274407447286,40.45905878187485,267.56553545188905,0.0076148859225213,0.0079941730946302,-0.6948739290237427,0.7190468311309814,-0.0076099888085775,-0.0060074267125559,0.0001548872950591,-0.0059532197192311,-0.0052975658327341,-0.0056313681416213,-0.0023433377679612,-0.2275943177193404,-9.811952970027924,14932.0
7.61,0.3000000119209289,107.0,24.42250061035156,-0.0954212844371795,-79.78274408206231,40.45905878824155,267.5655626316071,0.0076152640394866,0.0079910894855856,-0.6948722004890442,0.7190485596656799,-0.0073629586945263,-0.0063113932821716,0.0001106707524475,0.0009919123258441,0.0037545636296272,0.0015173709252849,-0.004895767456619,-0.2153435969352722,-9.809564967155456,14932.0
7.7,0.3000000119209289,107.0,24.427509307861328,-0.0874695107340812,-79.78274412369595,40.45905889698253,267.56244840812684,0.007632081862539,0.0079977568238973,-0.6948832273483276,0.7190376520156859,-0.0071640698214667,-0.0077662832329663,-0.0001601349421563,-0.0032050784211605,-0.0030448695179075,-0.0095679853111505,-0.0014610798633657,-0.2276617616973817,-9.811619678735733,14932.0
7.9,0.3000000119209289,105.0,24.431264877319336,-0.0715659633278846,-79.78274413328884,40.45905890265505,267.56244095754624,0.0076442807912826,0.0080042155459523,-0.6948907375335693,0.7190301418304443,-0.0065500795956837,-0.0080660829552943,-0.0002602305070737,0.002165216486901,-0.0009751945035532,0.0042308764532208,-0.0033789842989062,-0.218530987277627,-9.810225702524184,14932.0
8.01,0.3000000119209289,105.0,24.42876052856445,-0.0874695107340812,-79.7827441506258,40.45905900503053,267.5596580762863,0.0076446975581347,0.0080118821933865,-0.6948841214179993,0.7190364599227905,-0.0064799032303408,-0.0048082233278834,-0.0002644022930323,-0.0025570809375494,-0.0012121716281399,-0.0050883032381534,-0.0004483955024625,-0.2262206057645381,-9.81182783961296,14932.0
8.2,0.3000000119209289,105.0,24.43001365661621,-0.0795177370309829,-79.78274418919626,40.45905911942872,267.557435359478,0.0076361279934644,0.0080032022669911,-0.6949059963226318,0.7190155386924744,-0.0092720727390479,-0.0074649840050702,-0.0005844640152674,0.0080179115757346,0.0017025164561346,0.0096496026962995,-0.0030448339114082,-0.2259356636367738,-9.811887481212615,14932.0
8.3,0.3000000119209289,104.0,24.427509307861328,-0.0795177370309829,-79.78274420728513,40.45905913707138,267.5573727149964,0.0076518738642334,0.0079878428950905,-0.6949108839035034,0.7190108895301819,-0.0104523752694226,-0.0073882540135173,-0.0005757108791542,0.0004553275066427,-0.0020106337033212,-0.0034622033126652,-0.0042780285375192,-0.2222625889442861,-9.811229084730147,14932.0
8.5,0.3000000119209289,102.0,24.412485122680664,-0.198794350028038,-79.78274426849882,40.45905920922312,267.5554744262696,0.0076616420410573,0.0079883243888616,-0.6949021220207214,0.7190191149711609,-0.0029224839367099,-0.0135712855699968,-0.0005622214803312,0.0022689544130116,-0.0006272669997997,0.0032442465890198,-0.0022327524446882,-0.2283974327892065,-9.811610323190688,14932.0
8.61,0.3000000119209289,103.0,24.43001365661621,-0.0874695107340812,-79.78274430243974,40.45905929692632,267.55569609594346,0.007696415297687,0.0079935351386666,-0.6948967576026917,0.7190240025520325,-0.0032313662838099,-0.0098285245498457,0.0025036521927894,0.0033169977832585,0.0030153384432196,0.001808620756492,-0.0062447515135863,-0.2152000660635531,-9.810259616374973,14932.0
8.8,0.3000000119209289,106.0,24.431264877319336,-0.0874695107340812,-79.78274431410708,40.459059299898726,267.5559582967758,0.0076929195784032,0.007982674986124,-0.6948910355567932,0.7190296053886414,-0.0038019775598666,-0.0098746461801743,0.0024918673502285,-0.0009911997476592,1.620581497263629e-05,0.0041817431338131,-0.0014263437478803,-0.225828805770725,-9.811281709671023,14932.0
8.9,0.3000000119209289,108.0,24.431264877319336,-0.0795177370309829,-79.78274433876079,40.45905937298101,267.5556592006684,0.0076906611211597,0.0080014644190669,-0.6948868632316589,0.7190334796905518,0.0005188802848478,-0.0071190066141783,0.0013784872531199,0.0051850536838173,-0.0003387001925148,0.0100669842213392,-0.0075548904156312,-0.2096019052527845,-9.808685545921326,14932.0
9.1,0.4000000059604645,109.0,24.427509307861328,-0.0954212844371795,-79.78274434710285,40.45905937283135,267.5558045167923,0.0077003412880003,0.0079967565834522,-0.6948801875114441,0.7190399169921875,-0.0005925998952796,-0.0071136408387288,0.0015522131298997,-0.0064099417068064,-0.0029144554864615,-0.0009781984845176,-0.0056354082596953,-0.2208668768405914,-9.81170972585678,14932.0
9.2,0.4000000059604645,109.0,24.427509307861328,-0.0874695107340812,-79.78274439259096,40.45905946058929,267.5580638308525,0.0077115343883633,0.00796430837363,-0.6949018836021423,0.7190191149711609,-0.0014411608483352,-0.0090963948748872,0.0047014385380227,0.0040343203581869,0.0016055272426456,0.0077522946521639,-0.0055306528788059,-0.2124949248321354,-9.809978365302086,14932.0
9.4,0.4000000059604645,109.0,24.435022354125977,-0.0079517737030982,-79.78274440328009,40.4590594619492,267.5585454363823,0.0077163921669125,0.0079653225839138,-0.694903552532196,0.7190174460411072,-0.002477095333766,-0.0090082095874316,0.0048736058028202,-0.0058773960918188,-0.0044906241819262,-0.0052961837500333,-0.006114190154476,-0.2139207500964403,-9.810002338886262,14932.0
9.51,0.4000000059604645,110.0,24.431264877319336,-0.0795177370309829,-79.78274444797485,40.45905956760964,267.56165256690986,0.0077182836830616,0.0079776411876082,-0.6948888301849365,0.7190315127372742,-0.007496320963909,-0.0101749578201753,0.0072141743147096,-0.0007316810078918,-0.0023588689509779,0.0023505687713623,-0.0041912333591608,-0.2210632701963186,-9.811307437419892,14932.0
9.7,0.4000000059604645,109.0,24.427509307861328,-0.0795177370309829,-79.78274447489977,40.459059643388585,267.5628654022217,0.0077136014588177,0.0079726260155439,-0.6949070692062378,0.7190139889717102,-0.0066096466019257,-0.0104688905712679,0.005222921474901,-0.0045203207992017,-0.003375910455361,-0.0070085190236568,-0.0057082426396664,-0.2102571588568389,-9.809127595424652,14932.0
9.8,0.4000000059604645,109.0,24.427509307861328,-0.0874695107340812,-79.7827445006982,40.45905965427336,267.5639282722473,0.0077115935273468,0.0079863239079713,-0.6948729753494263,0.7190468311309814,-0.0071304177730946,-0.0109812527421692,0.0052909058691996,-0.0034805093891918,3.895732788805617e-06,-0.0026149116456508,-0.0021042792953085,-0.2267798919416964,-9.811648914813995,14932.0
10.0,0.4000000059604645,107.0,24.42876052856445,-0.0874695107340812,-79.78274453118031,40.45905972491988,267.5674346346855,0.0077311461791396,0.0079809892922639,-0.694878876209259,0.7190409302711487,-0.0052420463962929,-0.0110965967212088,0.007336799808302,-0.0002108295593643,1.94163694686722e-05,-0.0006101794424466,-0.0046933864150196,-0.2132769168354571,-9.80991638481617,14932.0
10.1,0.4000000059604645,106.0,24.427509307861328,-0.1033730581402778,-79.78274455031412,40.45905979784592,267.5723526735306,0.0077260201796889,0.0080165732651948,-0.6948791742324829,0.7190403938293457,-0.0050348092032565,-0.0072665117317985,0.0086366391720391,-0.0025121995713561,-0.0038044028915464,-0.0059428722597658,-0.000399910150445,-0.2276325438916683,-9.81277041077614,14932.0
10.3,0.5,102.0,24.426258087158203,-0.0954212844371795,-79.78274455933851,40.45905980157955,267.5732165236473,0.0077315499074757,0.0080218464136123,-0.6948814988136292,0.7190379500389099,-0.0043268384871454,-0.0077487589614026,0.008535668274887,0.0056394035927951,0.0004263698938302,0.0026754208374768,-0.0044522635726025,-0.2192433608695864,-9.811037296056748,14932.0
10.4,0.5,99.0,24.43001365661621,-0.0715659633278846,-79.78274456927154,40.459059869351016,267.57901694965364,0.0077127763070166,0.0080136870965361,-0.6948859691619873,0.71903395652771,-0.00433249972994,-0.0045072367552895,0.009635243131444,-0.0077146091498434,-0.0013487663818523,-0.0097002862021327,-0.0011518089787568,-0.226282202526927,-9.81259148597717,14932.0
10.6,0.5,95.0,24.42876052856445,-0.0795177370309829,-79.78274457495658,40.45905987270461,267.5799819488525,0.0077155176550149,0.0079935807734727,-0.6948763132095337,0.719043493270874,-0.0037241317250139,-0.004961576532376,0.0094433915602107,0.0066338307224214,0.0030257122125476,0.0074795028194785,-0.0023821625090204,-0.2261999760568142,-9.811329656839373,14932.0
10.7,0.5,96.0,24.43001365661621,-0.0874695107340812,-79.78274460277187,40.45905994737114,267.58628174257285,0.0076984534971416,0.0079884333536028,-0.6948636174201965,0.7190559506416321,-0.0074085035985577,-0.0067283448829665,0.009760840733007,0.0001836569281294,-0.0005457698716782,-0.0065145972184836,-0.0045139031612779,-0.222715145163238,-9.811225576400757,14932.0
10.9,0.5,94.0,24.42876052856445,-0.0954212844371795,-79.78274461104013,40.45905995349318,267.58726903390885,0.0076869023032486,0.0079921660944819,-0.6948643922805786,0.7190552949905396,-0.0069990143550995,-0.006969771335428,0.0096570269193323,0.0041960733942687,1.3582225619757082e-05,0.0038677377160638,-0.0004113593298825,-0.227788079828024,-9.812233636379242,14932.0
11.0,0.5,94.0,24.427509307861328,-0.0954212844371795,-79.78274460293487,40.459059996960704,267.5948827524185,0.007694118656218,0.0079994220286607,-0.6948525905609131,0.7190666198730469,-0.0025069302241685,-0.00168041049915,0.0102609610925968,0.0013331597438082,0.0007696105167269,-0.0004552975005935,-0.0055480597657151,-0.2169454599358141,-9.810740257501603,14932.0
11.2,0.5,94.0,24.41999626159668,-0.1351801604032516,-79.78274462553735,40.45906005632872,267.6018633503914,0.0077013354748487,0.0079890675842762,-0.6948537230491638,0.7190654873847961,-0.0028625380087751,-0.0051720001215354,0.010696269984996,0.0028737359680235,0.0011010840535163,0.0050275581888854,-0.0011855446721892,-0.2269960744678974,-9.812143589258197,14932.0
11.3,0.5,95.0,24.41999626159668,-0.1351801604032516,-79.78274463853495,40.45906006105356,267.60402145576484,0.0077330213971436,0.0080025782808661,-0.6948654651641846,0.7190536856651306,-0.0027808251132954,-0.0059009266612743,0.0106657373944231,0.0050784535706043,0.0002754561719484,0.0080144703388214,-0.0080181828991044,-0.2100484315305948,-9.80915975511074,14932.0
11.5,0.5,99.0,24.42876052856445,-0.1033730581402778,-79.78274463910346,40.4590600662747,267.6117711920739,0.00775948446244,0.0080180596560239,-0.6948680877685547,0.7190506458282471,0.0082484642830695,-0.0040519204659593,0.0114690292103307,-0.0050538219511508,0.0006676488555967,-0.0018440524581819,-0.0032510693187941,-0.2217366318963468,-9.81172726750374,14932.0
11.62,0.5,96.0,24.41749382019043,-0.1113248318433761,-79.78274466465736,40.459060133024295,267.6206314821244,0.0077430815435945,0.007987055927515,-0.6948551535606384,0.7190637588500977,-0.0008414336523009,-0.0063028630530604,0.0114186385903199,0.0023994971998035,0.002101145684719,0.006058283150196,-0.0064144652348477,-0.2109367332234978,-9.808962703943251,14932.0
11.81,0.5,97.0,24.418745040893555,-0.1431319266557693,-79.78274467222289,40.45906013382777,267.6217863817215,0.0077426163479685,0.0079675167798995,-0.6948369145393372,0.7190815210342407,-0.0019820965981304,-0.0063860240972033,0.0116605792183252,-0.0033801540266722,-0.0053245006129145,-0.0092563601210713,-0.0075739772350061,-0.2149433732964098,-9.810583552122118,14932.0
11.9,0.5,99.0,24.42124938964844,-0.1351801604032516,-79.78274467957198,40.459060184946594,267.6329814453125,0.0077653997577726,0.0079687247052788,-0.6948215961456299,0.7190960645675659,-0.0022319884403669,-0.0046685872635046,0.0153712648676504,0.0013710473431274,0.0012586172670125,0.0009670571307651,-0.0033702814264688,-0.2213403368555008,-9.811480515003202,14932.0
12.1,0.5,102.0,24.42375373840332,-0.1113248318433761,-79.78274468543694,40.459060186449335,267.63452538442607,0.0077884010970592,0.0079743722453713,-0.6948209404945374,0.7190963625907898,-0.0025491076203732,-0.0050260364143306,0.0154864874808569,-0.0008045239956118,0.0016199222300201,-0.0068952613510191,-0.0059861110069323,-0.210377118140459,-9.809588940739634,14932.0
12.2,0.5,103.0,24.42876052856445,-0.1033730581402778,-79.78274471679534,40.45906023718504,267.64240648937226,0.0078119928948581,0.0079738581553101,-0.694808304309845,0.7191083431243896,-0.0031867852500224,-0.0076698489316071,0.0100077828923735,-0.0053611397743225,-0.0028944322839379,-0.0025915137957781,-0.0010729758494562,-0.2282742027193308,-9.81246752500534,14932.0
12.41,0.6000000238418579,103.0,24.42375373840332,-0.0636141896247863,-79.7827447262737,40.45906023906306,267.6434054632187,0.0078389085829257,0.0079753408208489,-0.6948080658912659,0.7191083431243896,-0.0023755216217938,-0.0083491258208221,0.0098941433270587,0.0022357280831784,0.0023187671322375,-0.0022700761910527,-0.0043489808449521,-0.2168323711305856,-9.809791254401206,14932.0
12.51,0.6000000238418579,106.0,24.43001365661621,-0.0795177370309829,-79.78274473227219,40.45906028744255,267.6539801020623,0.0078676212579011,0.007999138906598,-0.6947998404502869,0.7191156148910522,-0.002864284222236,-0.0058781226849009,0.0109829848944451,-0.0002703881182242,-0.002987554995343,-0.0084381280466914,-0.0002941851824289,-0.2260742243751884,-9.81269907474518,14932.0
12.7,0.6000000238418579,106.0,24.426258087158203,-0.0874695107340812,-79.78274474806379,40.45906035500226,267.6634609360695,0.0078583238646388,0.0079718204215168,-0.6948084235191345,0.7191077470779419,-0.0083128089164299,-0.0074892810558084,0.0111071784287074,0.0048257387243211,0.0012184034567326,0.0095027768984437,-0.0011013077220559,-0.2285752064175904,-9.812336547374723,14932.0
12.8,0.6000000238418579,104.0,24.408727645874023,0.3339745104312897,-79.78274476715123,40.45906037014168,267.6657424230576,0.0079209469258785,0.0079792719334363,-0.694652795791626,0.7192572951316833,-0.0062338357624924,-0.0082066367265361,0.0109322323605625,0.0099811283871531,-0.0009028163040056,0.0247638151049613,-0.0064068267383845,-0.2162063901498913,-9.810529757738117,14932.0
13.0,0.6000000238418579,110.0,24.41373634338379,0.2067461162805557,-79.78274480471191,40.45906040623856,267.6758114953041,0.0078789563849568,0.0079818554222583,-0.6948971152305603,0.7190217375755309,-0.0051979873040796,-0.013404341402841,0.0113764702756017,0.0009695321205072,-0.0030525589827448,0.023237781599164,0.0012175056443084,-0.23039650445804,-9.813897753953936,14932.0
13.1,0.6000000238418579,110.0,24.411231994628903,0.198794350028038,-79.78274481487753,40.45906045262127,267.6874977607727,0.0079223848879337,0.0079860650002956,-0.6947565674781799,0.7191569805145264,-0.0029687759060016,-0.0097421362220229,0.0116729478877127,0.0028429217636585,-0.0031478984747081,0.0233587604016065,-0.0049608679802622,-0.2326912807859481,-9.80936674654484,14932.0
13.3,0.699999988079071,115.0,24.408727645874023,0.1908425688743592,-79.78274482640082,40.45906045609296,267.6886862773896,0.0079122828319668,0.0079853497445583,-0.6948574781417847,0.7190597057342529,-0.0050735118062498,-0.0096744813847955,0.0120183337506243,-0.0022908879909664,-0.0021754370536655,-0.008469901047647,-0.0028655916269053,-0.224232698623091,-9.818777840137482,14932.0
13.4,0.699999988079071,117.0,24.412485122680664,0.2146978974342346,-79.78274482556317,40.45906049755176,267.7005634565353,0.0079273572191596,0.0079987840726971,-0.6948001980781555,0.7191147208213806,-0.001691430093719,-0.0063395011986988,0.0115828468737577,0.0035288170911371,0.0004922164371237,0.0121945487335324,0.0012059245599084,-0.2189615250751376,-9.812437119483947,14932.0
13.6,0.699999988079071,120.0,24.408727645874023,0.2544567584991455,-79.78274483345619,40.45906049972781,267.7017577548027,0.0079319979995489,0.0080082155764102,-0.6947851777076721,0.7191290259361267,-0.0039219503198974,-0.0070635461814308,0.012201572376896,-0.0017234971746802,-0.0017417746130377,-0.0159283094108104,-0.006130268855486,-0.2138002060912549,-9.814093050956728,14932.0
13.7,0.699999988079071,121.0,24.4074764251709,0.3101191818714142,-79.78274484369699,40.45906052534402,267.71228465032584,0.0079469745978713,0.0080321673303842,-0.6947757005691528,0.7191377282142639,0.0008728306452099,-0.0088296213718451,0.0121259787875525,0.0088408384472131,0.0021281891968101,0.0105698639526963,-0.0077107860927935,-0.2222293877229094,-9.812936471700668,14932.0
13.9,0.699999988079071,123.0,24.40372085571289,0.3578298389911652,-79.78274486424327,40.459060523437145,267.71473750066764,0.007965032942593,0.0080320304259657,-0.6948069930076599,0.7191073298454285,0.0001865121735654,-0.0093771620679812,0.0125351778041445,0.0023242686875164,-0.0015694109024479,-0.0050791702233254,-0.0055062601680401,-0.2092311186902225,-9.81130509853363,14932.0
14.0,0.699999988079071,123.0,23.83779335021973,7.665510177612305,-79.78274488860325,40.459060564528656,267.7268911857605,0.0080010592937469,0.007677842862904,-0.6949502229690552,0.718972384929657,-0.0004539674990177,-0.0109912687779559,0.011871928560827,-0.0091006495058536,0.0092594437301158,0.000172978718183,-0.0249813106795772,-0.2577415018156171,-9.857102830410003,14932.0
14.2,0.699999988079071,120.0,24.39996337890625,0.1590354740619659,-79.78274488122814,40.4590605963805,267.73807140779496,0.0080102803185582,0.007679374422878,-0.6948897242546082,0.7190306782722473,0.0034161487726226,-0.0092006433252303,0.0119031096299462,0.0243742354214191,-0.0053653274662792,0.006463342346251,-0.0058148287015501,-0.2320359723642469,-9.812281583547591,14932.0
14.3,0.8000000119209291,122.0,24.40622520446777,0.1510837078094482,-79.78274489995366,40.45906059098893,267.7405665774345,0.0079864170402288,0.0075669046491384,-0.6950642466545105,0.7188634276390076,0.0008283593376743,-0.0114979466016652,0.0130858279623493,-0.004232388921082,0.0228529181331396,0.0013649986358359,0.0036925589398015,-0.2181025690957904,-9.80876857638359,14932.0
14.5,0.699999988079071,130.0,24.36991500854492,0.5645759701728821,-79.78274491804883,40.45906063214715,267.7522319216729,0.0080249579623341,0.0074032968841493,-0.6950144171714783,0.7189129590988159,0.0008689858618171,-0.0105577743550065,0.01226068950398,-0.0198011957108974,-0.0403327122330665,-0.0039849588647484,0.0073112739413045,-0.1855731927976013,-9.794714793562887,14932.0
14.6,0.699999988079071,128.0,24.398712158203125,0.1749390214681625,-79.7827449117173,40.45906068228053,267.76433667135245,0.0080093592405319,0.0072892773896455,-0.6949730515480042,0.71895432472229,-0.0027258024470344,-0.0083831618488604,0.0123463972345273,0.0057957549579441,0.0021276529878377,0.0015846194000914,-0.0051077050413005,-0.2127311157993972,-9.797978709340097,14932.0
14.8,0.8000000119209291,132.0,24.386192321777344,0.6838525533676147,-79.7827449200284,40.45906068602571,267.7655945081711,0.0080097503960132,0.0072676497511565,-0.6949449777603149,0.7189815640449524,-0.0045098112463463,-0.0079595955042719,0.01275700397797,-0.0083342585712671,0.0070228758268058,-0.0066722095943987,-0.0050099834497086,-0.2020887447707355,-9.805349709391594,14932.0
14.9,0.699999988079071,131.0,24.26975059509277,3.156854152679444,-79.78274494514874,40.45906072430844,267.7779345173836,0.008011519908905,0.0071852575056254,-0.6949683427810669,0.7189598083496094,-0.0024959422112312,-0.0112364786563132,0.0125982047746728,0.0116291008889675,0.0293306484818458,-0.0044751265086233,0.0240797020029276,-0.2113197623938322,-9.818980153799057,14932.0
15.1,0.8000000119209291,137.0,24.15205764770508,5.375399112701416,-79.78274495639374,40.459060726822926,267.779219414711,0.0080377170816063,0.0070964130572974,-0.6949939131736755,0.7189356684684753,-0.0040743368488905,-0.0107517839097733,0.0124522676790173,-0.0114004453644156,-0.0087587628513574,0.0040515707805752,0.0130403918260708,-0.2167571795918048,-9.825392210483551,14932.0
15.2,0.8000000119209291,138.0,24.0856990814209,6.599972248077393,-79.78274496434507,40.45906076583111,267.79223444652564,0.0080841155722737,0.006799301598221,-0.6951311826705933,0.7188053131103516,-0.0041855790785852,-0.0104834763933791,0.0124463234663741,-0.0207907278090715,-0.0102250482887029,0.0059004928916692,0.0042001954733859,-0.2185406534560025,-9.819345020055769,14932.0
15.4,0.8000000119209291,137.0,23.96675491333008,8.985504150390625,-79.78274497425069,40.45906076818457,267.79357692193986,0.008078534156084,0.0066396673209965,-0.6952757239341736,0.7186670303344727,-0.0024529327750766,-0.0089233559646078,0.0145588950560747,-0.0427424907684326,0.0150331174954772,0.0865447372198104,-0.0087868873332627,-0.1827755559235812,-9.817411930561066,14932.0
15.5,0.8000000119209291,138.0,23.88411903381348,10.448631286621094,-79.78274498579437,40.45906082196301,267.8068616051674,0.008087451569736,0.006161238066852,-0.6952512860298157,0.7186949253082275,-0.0014972198642968,-0.0096024831507927,0.0111083573277165,0.0001863957440946,-0.0516617931425571,-0.0153496116399765,-0.0015013655518123,-0.264961406160146,-9.794368638396262,14932.0
15.7,0.8000000119209291,143.0,23.74013328552246,13.343076705932615,-79.78274499266702,40.4590608603876,267.81702509117133,0.0082494867965579,0.0060446667484939,-0.6953033208847046,0.7186437249183655,-0.0007935235842719,-0.0093442935110416,0.0080239080837892,0.0088430484756827,-0.006044992711395,-0.0976322442293167,0.0521101483516395,-0.0958859130553901,-9.770079889297486,14932.0
15.81,0.8000000119209291,143.0,23.643726348876957,15.36282730102539,-79.78274501562083,40.459060865962336,267.81940355491645,0.0086533688008785,0.0054877642542123,-0.695384681224823,0.7185647487640381,-0.0041159816881431,-0.0082297227731119,0.0167262822823391,-0.0553968995809555,0.0664009973406791,0.0378644950687885,0.0289907258958555,-0.1846733063086867,-9.795870788097384,14932.0
16.0,0.8999999761581421,139.0,23.46217918395996,18.94907760620117,-79.78274503369352,40.45906091984894,267.83144333553315,0.0090841948986053,0.005291105248034,-0.6952889561653137,0.7186534404754639,-0.0064105843592772,-0.0115952245511523,0.0140180950601264,-0.0086846621707081,0.0033697185572236,0.0093436483293771,0.0323044092440977,-0.2879965670406818,-9.855940403938297,14932.0
16.1,0.8999999761581421,138.0,23.36451911926269,20.4281063079834,-79.78274505307256,40.459060929152216,267.8440010209084,0.0119926445186138,0.0035681084264069,-0.6954569816589355,0.7184588313102722,0.0003251503434402,-0.02665643410033,0.0312378159736644,-0.0046511022374033,0.023112665861845,0.0302308704704046,-0.040826913351193,-0.2491474469751119,-9.874586005210876,14932.0
16.3,0.8000000119209291,138.0,23.151670455932607,24.483510971069336,-79.78274508434947,40.4590609274787,267.847476448536,0.0121490638703107,0.0007926488760858,-0.6953639984130859,0.7185545563697815,-0.0036226229423602,-0.0224209799264101,0.0388952123548713,-0.0832206979393959,-0.0159608386456966,0.1021373867988586,0.2894648759812117,-0.3903314656019211,-9.966000205278396,14932.0
16.4,0.8000000119209291,139.0,23.049001693725582,27.091693878173828,-79.78274517722303,40.45906082465437,267.8646740574837,0.0004912546137347,-0.0067093349061906,-0.6934677958488464,0.7204562425613403,-0.0161158135621303,-0.0294598647342414,0.1816544578014098,-0.2447193562984466,-0.0207977816462516,-0.0537480227649211,0.1848851216956972,-0.1619518485479057,-10.29521598815918,14932.0
16.6,0.8000000119209291,143.0,23.25058174133301,22.217256546020508,-79.78274521513579,40.459060831457904,267.88999738883973,-0.0039452309720218,-0.0106497779488563,-0.6910302042961121,0.722736656665802,0.0070811066482742,-0.0226728528221739,0.3110174143937244,0.0925459712743759,-0.0284666754305362,0.0639268830418586,0.172460519336164,-0.1858936202153563,-10.925424213409425,14932.0
16.7,0.8000000119209291,142.0,23.2856388092041,21.12786293029785,-79.78274544479481,40.45906081624791,267.9624177474976,-0.0044960924424231,-0.0047082155942916,-0.688863217830658,0.7248621582984924,-0.0188117965098007,-0.0027636943565035,0.3159570071913583,0.1946653872728348,0.0238420963287353,-0.0349334329366684,0.2075854381173848,-0.0274944485351443,-10.315487115383153,14932.0
16.9,0.8999999761581421,143.0,23.21051597595215,22.50352096557617,-79.78274545211511,40.45906085245429,267.9920258779526,-0.0012184822699055,-0.0008073749486356,-0.6889723539352417,0.7247861623764038,-0.0522082757172843,0.0060097109156051,0.2724697163517134,-0.0052770287729799,-0.061366606503725,-0.0240926258265972,0.0356734332907945,0.0091001701843924,-9.482202751636503,14932.0
17.02,0.8999999761581421,141.0,23.15417289733887,23.608816146850582,-79.78274563150049,40.459061165436665,268.03231712770463,0.0013310757931321,-0.0028545842505991,-0.6911378502845764,0.7227161526679993,-0.0470822363424083,0.0014707706699944,0.1820488523379484,0.1333996802568435,0.1317903399467468,0.0916004925966262,0.154195882435888,0.0529331622272729,-9.484359204769136,14933.0
17.2,1.0,138.0,23.121620178222656,23.903032302856445,-79.7827456472612,40.45906134808949,268.06486025047303,0.0035160391125828,-0.0026990589685738,-0.6924900412559509,0.7214139103889465,-0.0786557553135275,0.007948587844461,0.1643706471365646,0.0798622444272041,0.0494539514183998,0.0341032929718494,0.1433707859180867,0.0116705125384032,-9.570553595423696,14933.0
17.3,1.0,139.0,23.05526161193848,25.262784957885746,-79.78274562989124,40.459061507630665,268.09639232945443,0.003614688757807,-0.0031475143041461,-0.6940411329269409,0.7199194431304932,-0.0898386178652743,0.0153074597659914,0.1576011375961141,-0.0406068451702594,0.0959442108869552,-0.0359928794205188,0.127082781996578,0.0050272898375988,-9.743712455034256,14933.0
17.5,1.0,141.0,23.08531188964844,24.38809013366699,-79.78274572910621,40.459061540414616,268.13491536271573,0.0013552559539675,-0.0039904275909066,-0.6945015788078308,0.7194788455963135,-0.0878854809099358,0.0097557389544414,0.1815332020121103,-0.1910808980464936,-0.0740521773695945,-0.1068947613239288,0.0429848465602845,0.2425230815447867,-9.821014984846116,14933.0
17.6,1.100000023841858,142.0,22.98389434814453,26.20109558105469,-79.78274585066572,40.45906175970954,268.17939841341973,0.0039565358310937,-0.0041021523065865,-0.6946138739585876,0.7193602323532104,-0.0900130705883648,0.0056159422022273,0.2183545246992652,0.0548192523419857,-0.0759065598249435,-0.0270391032099723,0.0534789130138233,-0.0590894032269716,-9.900286856889725,14933.0
17.8,1.100000023841858,142.0,23.069034576416016,24.157489776611328,-79.78274585076903,40.45906184591055,268.2026229609251,0.0040572797879576,-0.002465835539624,-0.6947051286697388,0.7192790508270264,-0.0892813319786188,-0.0030713729241922,0.2456708913211133,0.1112698912620544,0.0547065287828445,0.1014353334903717,0.0209726103767752,-0.1968402109108864,-10.103911464214326,14933.0
17.9,1.2000000476837158,141.0,22.95760154724121,26.86109161376953,-79.78274564951555,40.459062028369736,268.2720426653028,0.0062332740053534,-0.0041231135837733,-0.6950703263282776,0.7189029455184937,-0.0771557563751043,0.0442525655788931,0.2775058785644191,-0.0300442762672901,-0.0689831227064132,0.035128429532051,0.0565800751978531,0.2848466719686985,-9.915040551424028,14933.0
18.1,1.2000000476837158,138.0,23.09407615661621,23.219179153442383,-79.78274560464655,40.45906209085389,268.3014850352406,0.0070774611085653,-0.0016702987486496,-0.6950936317443848,0.7188825011253357,-0.0586653846992959,0.0424033609971181,0.3118424744172185,0.1600620299577713,0.0236024279147386,-0.0123003087937831,0.1263476682174951,-0.0333512024581432,-10.1285165476799,14933.0
18.2,1.2999999523162842,131.0,22.97137451171875,25.89097595214844,-79.78274569801623,40.45906221972693,268.37051230170584,0.0096255792304873,-0.0005929066101089,-0.6944126486778259,0.7195124626159668,-0.0481683843546983,0.0108445080040816,0.3180777754390632,0.0493129566311836,0.0860759988427162,0.0886834487318992,0.0463313085772097,0.139783939383924,-9.93638873577118,14933.0
18.4,1.2000000476837158,124.0,22.967618942260746,24.491464614868164,-79.7827456840088,40.459062257729336,268.4034185629785,0.0102250538766384,-0.0008710442343726,-0.6942314505577087,0.7196786999702454,-0.0395568976287056,0.0133646251484703,0.3430948411279618,0.0336667299270629,-0.0113530056551098,-0.0479748547077178,0.0838160722330212,0.0802748248446732,-10.036020612716674,14933.0
18.5,1.2000000476837158,122.0,23.05150604248047,24.714113235473643,-79.78274572616952,40.4590625211104,268.485382217586,0.0097277779132127,-0.001719630905427,-0.6932281255722046,0.7206504940986633,-0.0495472542500271,0.0017420959595032,0.3296608167066581,0.0816367119550705,0.0576442070305347,0.1174040883779525,0.0440707658696919,0.0770366276800632,-9.936243724823,14933.0
18.7,1.0,123.0,22.86995887756348,28.07771301269531,-79.78274574711425,40.45906258095635,268.5242978740931,0.0094971023499965,-0.0038123275153338,-0.6930056214332581,0.7208595871925354,-0.0507289100596702,0.0007238313323887,0.1847761035342039,-0.0954416692256927,0.0128070749342441,-0.0625653639435768,0.1314490715134889,0.0282386871683411,-8.630476269721985,14933.0
18.8,1.0,128.0,22.6959228515625,30.60637855529785,-79.78274576971037,40.459062674232776,268.54979402911664,0.0004600332467816,-0.0145722953602671,-0.692456066608429,0.7213127017021179,-0.0431061461012849,-0.0045863030198572,0.1490322209218402,0.0324277430772781,0.0180739481002092,0.0842312052845954,0.1661513553746044,0.0303987833904102,-9.095007732510568,14933.0
19.0,1.0,133.0,22.61704444885254,32.39552688598633,-79.78274579738441,40.45906279986856,268.5900701392889,-0.0017780651105567,-0.0144649446010589,-0.6923799514770508,0.7213858962059021,-0.0484229974485462,0.00647788594773,0.2773044923017462,0.0264157280325889,-0.0046303388662636,0.077545516192913,0.2656483626365661,-0.0552453340217471,-10.606285521984098,14933.0
19.1,0.8999999761581421,137.0,22.35161018371582,37.25406265258789,-79.78274584768545,40.4590629630336,268.6825172264576,0.0018419731641188,-0.0070352153852581,-0.6931811571121216,0.7207267284393309,-0.0553549470204092,0.021983974512038,0.5889798912453055,0.1025190874934196,-0.0097341053187847,0.0212439149618148,0.2066960766166448,-0.0127369624469429,-11.093960849046708,14933.0
19.31,0.8000000119209291,151.0,22.336584091186523,37.66755294799805,-79.78274583765406,40.45906302310981,268.75223153424264,0.0053493124432861,-0.0029635548125952,-0.6937457323074341,0.7201941609382629,-0.0634924699357466,0.0264027503465632,0.7993305588386281,0.068169429898262,-0.0508826598525047,-0.0358501784503459,0.2144382469542324,0.1145359271485358,-11.799413384199145,14933.0
19.4,0.8999999761581421,165.0,22.426733016967773,35.337684631347656,-79.78274578210927,40.45906322512106,268.9595879573822,0.0068707740865647,-0.0032445562537759,-0.6937857270240784,0.7201414704322815,-0.0670242501841974,0.0328148388455995,1.2164277232009877,0.0113211823627352,0.0655677542090416,-0.0326805002987384,0.2341680864617228,0.038811496887356,-11.940229539871217,14933.0
19.6,1.0,201.0,22.23516845703125,38.1367073059082,-79.78274576561276,40.459063279896405,269.09225412797934,0.0060891699977219,-0.0055041713640093,-0.693263053894043,0.7206379175186157,-0.0674211728716082,0.0353928757254667,1.4356881650753517,-0.0423144772648811,0.0173362083733081,-0.0167393218725919,0.1708071642927825,0.132626371840015,-12.01192692875862,14934.0
19.7,1.0,206.0,22.163801193237305,39.082969665527344,-79.78274575439238,40.45906337721927,269.2554872293473,0.005324029829353,-0.0079530477523803,-0.6924282908439636,0.7214232683181763,-0.0593639964534253,0.0373346984845538,1.6642058108239617,-0.02505917660892,0.0704441741108894,-0.0400584042072296,0.1059434528835118,-0.0014245187770575,-12.158163453340531,14934.0
19.9,1.100000023841858,207.0,22.11622428894043,40.808502197265625,-79.78274574887737,40.45906348809553,269.63917103004457,0.0074233775958418,-0.0092193875461816,-0.691112756729126,0.7226500511169434,-0.0481512230788297,0.0440250359191421,2.173012275286815,0.006151552312076,0.0389615297317504,-0.0574175901710987,0.1669353025406599,0.2498182687908411,-12.295092380046848,14934.0
20.0,1.2000000476837158,208.0,22.06989860534668,41.08681488037109,-79.78274575045641,40.45906368678579,270.12349024009706,0.0084145693108439,-0.0044264229945838,-0.6907801628112793,0.7230024337768555,-0.0655695733429844,0.0444719429273418,2.666584368507805,0.0671516358852386,0.0368529558181762,0.0071104438975453,0.2229993381164968,0.1145477677602321,-12.36934500217438,14935.0
20.2,1.399999976158142,211.0,22.449268341064453,33.55648422241211,-79.78274573790573,40.45906360990013,270.44100060653693,0.0094674946740269,-0.0025518280453979,-0.6911225914955139,0.7226711511611938,-0.0606361581321262,0.0431222176611156,2.9267660915224085,0.1060216501355171,0.1047030985355377,0.0355188511312007,0.2586782257631421,0.0784995096735656,-12.247282036542892,14935.0
20.3,1.600000023841858,213.0,22.52689552307129,31.918420791625977,-79.7827457359402,40.459063650568936,270.74288096618653,0.0102652935311198,-0.0013178081717342,-0.6912074685096741,0.7225823402404785,-0.0649157822194451,0.0448608902893925,3.100582992376909,0.0541206821799278,0.1543537229299545,0.0464589782059192,0.1116099073458463,-0.0678647354571148,-11.630433529615402,14935.0
20.4,1.7000000476837158,208.0,22.5494327545166,31.34589195251465,-79.78274573065431,40.45906363594575,271.4351920146941,0.0133422492071986,-0.0037447251379489,-0.6912181973457336,0.7225132584571838,-0.0803274354560618,0.0509987723992523,3.2922855101651454,-0.1485792100429535,0.0939462408423423,-0.0517885349690914,0.0289494938892312,-0.0189330741483718,-11.031258816719058,14936.0
20.6,1.7999999523162842,207.0,22.624555587768555,30.90059280395508,-79.78274573654666,40.45906365385074,271.7650763053894,0.0148020414635539,-0.0071119558997452,-0.691184937953949,0.7224913835525513,-0.0667421989901505,0.0677853092607195,3.3031363037741337,-0.1353294253349304,0.1007594987750053,-0.0822303220629692,0.1366059959493577,-0.0169018336571753,-10.078231662511827,14936.0
20.7,2.0,203.0,22.53065299987793,31.767335891723643,-79.78274570683614,40.459063552752255,272.1311434764862,0.0159522425383329,-0.007928242906928,-0.6912569403648376,0.7223894596099854,-0.0318144647588518,0.0872650356651425,3.327282986144581,0.0166899897158145,-0.0488482750952243,0.0037759931292384,0.175870195236057,-0.0981945399753749,-9.98704433441162,14937.0
20.9,2.0999999046325684,199.0,22.6420841217041,28.87289047241211,-79.7827457841317,40.45906352121765,272.80478873443604,0.021053023636341,-0.0068928333930671,-0.6907126903533936,0.7227899432182312,-0.0298282732641366,0.0681286298988059,3.4200867521799125,0.0483704768121242,0.0864751264452934,0.060839906334877,0.1577674165740609,-0.239026903398335,-10.279635497331617,14937.0
21.0,2.400000095367432,190.0,22.68340301513672,28.268556594848643,-79.78274579439922,40.45906346829414,273.1791340370179,0.0200721751898527,-0.0086663123220205,-0.6897923946380615,0.7236770987510681,-0.0398987657329591,0.0722846770614991,3.4542315621349733,-0.078105628490448,-0.0179050881415605,-0.0184902530163526,0.2281399543024599,0.0258937367051839,-10.064618175029755,14938.0
21.1,2.5,188.0,22.73598861694336,26.84518814086914,-79.782745882327,40.45906342986875,273.5244103927613,0.0172788612544536,-0.0067527643404901,-0.6891282796859741,0.7244019508361816,-0.008608388199666,0.0594142419877671,3.4481235188803803,-0.0233630873262882,-0.1601331532001495,-0.0780298858880996,0.243189828582108,0.1361777513567358,-9.819431558847429,14938.0
21.3,2.5999999046325684,186.0,22.581987380981445,30.176982879638672,-79.7827458535476,40.45906325207893,274.222211982727,0.0156399011611938,-0.0034965113736689,-0.6893227696418762,0.7242771983146667,0.0300935174595698,-0.0105618968740778,3.3576632576082828,0.132016584277153,0.0533889643847942,0.0176694225519895,0.15072908654809,-0.0582822864688933,-9.380865826606753,14939.0
21.4,2.700000047683716,182.0,22.70218276977539,28.1015682220459,-79.7827459583886,40.4590631899619,274.55578866195685,0.0166828110814094,-0.0066748857498168,-0.68979412317276,0.7237825989723206,0.0320122285918495,-0.0222614752379072,3.3273280847690474,0.032783918082714,0.1706970334053039,0.0063035143539309,0.180407323949039,0.0381304972618818,-9.476039201617242,14939.0
21.6,2.700000047683716,176.0,22.6571102142334,28.67409706115723,-79.7827457459948,40.459062794012425,275.1792541999817,0.0162029936909675,-0.0105516007170081,-0.6908523440361023,0.7227373719215393,0.0907048999730728,0.0036713185241354,3.218534306024772,0.0610021613538265,0.0607101954519748,0.1070558577775955,0.1991039787232876,-0.0361561209429055,-9.428618867397311,14940.0
21.7,2.5999999046325684,171.0,22.70969581604004,27.05988693237305,-79.78274580369978,40.45906293504434,275.4320098419189,0.0135938059538602,-0.0094516230747103,-0.6916720867156982,0.7220219373703003,0.0787778606758047,-0.0100659268431022,3.108498116816462,0.232301190495491,0.0534461438655853,0.1455644816160202,0.277138251028955,-0.2177781034447252,-9.480301821827886,14940.0
21.9,2.400000095367432,164.0,22.603271484375,29.310237884521484,-79.78274610703255,40.45906277565896,276.04555669021613,0.0048398356884717,-0.0057785240933299,-0.6921340823173523,0.721729576587677,0.0757483513037992,-0.0714422843335687,3.0292473548550944,0.0147573295980691,-0.0643847957253456,0.0614605024456977,0.1590087987296283,-0.1810060971044004,-9.465291434526444,14941.0
22.0,2.400000095367432,159.0,22.6420841217041,28.24470138549805,-79.7827463368736,40.459062431123314,276.46568217468257,0.0026609469205141,-0.0051908660680055,-0.6919834613800049,0.7218897938728333,0.0881432909268723,-0.1088660791741184,3.078657086983828,-0.1650448739528656,-0.0986465141177177,-0.1080694645643234,0.0533511970331892,0.1879061222076416,-9.6799555850029,14941.0
22.2,2.400000095367432,157.0,22.63958168029785,28.61843490600586,-79.7827470384671,40.459062349031264,277.1577703018189,0.0066743167117238,-0.0041354093700647,-0.6917569637298584,0.7220878005027771,0.0475372022098147,-0.1418520750942914,3.0871476893101786,-0.1934136301279068,-0.0989255756139755,-0.1694974452257156,0.1146792296133935,0.3311380550265313,-9.516638174057007,14942.0
22.3,2.5,160.0,22.493091583251957,30.733606338500977,-79.78274724533604,40.459062287124674,277.4646359939576,0.006973713170737,-0.0031913775019347,-0.6914097666740417,0.7224221229553223,0.057242873418953,-0.132007531928284,3.0569778546804587,0.0932597443461418,0.0400804132223129,0.058892510831356,0.2107176453620196,-0.0262629335559904,-9.584149541258812,14942.0
22.5,2.400000095367432,176.0,22.50060272216797,30.79722023010254,-79.78274756133439,40.4590620081424,278.15873065185554,0.0026307553052902,-2.2141170120448805e-05,-0.6917548775672913,0.7221276760101318,0.0760110544934182,-0.1077492056459646,3.134743714271353,0.0628078952431678,0.0660357549786567,-0.0063229058869183,0.2354930472560227,0.0663597580790519,-9.971943315267565,14943.0
22.61,2.5,182.0,22.61579132080078,27.07579040527344,-79.78274766797294,40.45906177595189,278.80149760437007,0.0022607485298067,-0.0061253802850842,-0.6914348006248474,0.7224093675613403,0.0906626861454146,-0.0836829844905336,3.152230767279413,-0.0395997650921344,0.1445794999599456,0.1263243854045868,0.2007073035277426,-0.2266389557719231,-9.978809115886689,14943.0
22.81,2.299999952316284,199.0,22.55444145202637,29.175058364868164,-79.78274776678384,40.45906169164058,279.11476721954347,0.0039320057258009,-0.0114397583529353,-0.690790057182312,0.7229542136192322,0.1204204633538606,-0.0475391694577502,3.1099793030653213,0.1569352895021438,0.1757280975580215,0.1244360581040382,0.2976264195889235,-0.2435336814075708,-9.518849006295204,14944.0
22.9,2.400000095367432,205.0,22.68089866638184,27.71193122863769,-79.78274785341229,40.459061608800006,279.42436709594733,0.0078535499051213,-0.012558595277369,-0.6906237602233887,0.7230626344680786,0.1077462370824884,-0.0068672206056746,3.084006022092837,-0.1303778290748596,-0.0260797273367643,-0.1358394026756286,0.2295524040609598,0.1781493119895458,-9.5048104262352,14944.0
23.1,2.400000095367432,237.0,22.56696128845215,28.642290115356445,-79.78274832070701,40.45906155050398,280.08030142974854,0.0112571828067302,-0.0112389838322997,-0.690816342830658,0.7228553295135498,0.0452676474805125,0.0018545738064849,3.063084921995918,-0.2050793766975402,-0.1488177925348282,-0.0922929272055626,0.2282635498233139,0.2373014996945858,-9.5406322234869,14945.0
23.21,2.5,251.0,22.519384384155277,30.200838088989247,-79.78274842149011,40.45906120053919,280.4239808578492,0.0089575015008449,-0.0107551841065287,-0.6912863254547119,0.7224454283714294,0.076249687435117,0.0153809003445458,3.082700166584261,0.1046491488814354,0.0744034275412559,0.064421609044075,0.2511496797949076,0.0259993337653577,-9.673859277963636,14945.0
23.4,2.700000047683716,263.0,22.48056983947754,32.109264373779304,-79.78274859770339,40.45906107547479,281.0390779037476,0.0042453361675143,-0.0111077297478914,-0.6907086968421936,0.7230353355407715,0.0912849960307625,-0.0084509103216105,3.0593876004639164,0.0767202526330947,0.1518245786428451,0.0837801024317741,0.2004959449544549,-0.0971632007695734,-9.66420318603516,14946.0
23.51,3.0,272.0,22.47055435180664,31.679866790771484,-79.78274855361614,40.459061105208406,281.671939994812,0.0063938307575881,-0.0132956355810165,-0.6895405054092407,0.7240968346595764,0.1022866542560648,0.0186777258735945,3.107853640874716,0.0214859973639249,0.0474887266755104,0.0232737325131893,0.2817282056808472,-0.1298917295783758,-9.840097957849505,14946.0
23.71,3.299999952316284,280.0,22.525644302368164,30.526859283447266,-79.78274854639074,40.45906107972197,281.98404040527345,0.0074271233752369,-0.0101833380758762,-0.6902422904968262,0.7234686017036438,0.1196174583531967,0.0415567721382909,3.125434651148723,0.1406891793012619,0.063903160393238,0.0704623833298683,0.2571508051268757,0.0377355178445577,-9.982174773216247,14946.0
23.81,3.400000095367432,288.0,22.439252853393555,31.306133270263672,-79.78274859320278,40.45906100964804,282.2967416305542,0.0038836314342916,-0.0090532498434185,-0.6908292770385742,0.72295081615448,0.0970866735906682,0.0316402700919085,3.1286422974191983,0.0099601801484823,-0.0077362796291708,0.1331443935632705,0.2290086860954761,-0.2101638044044375,-9.904222033023837,14947.0
24.01,3.299999952316284,295.0,22.511871337890625,29.310237884521484,-79.78274864304358,40.459060799414296,282.90769210052486,-0.0029730380047112,-0.0168857164680957,-0.690727949142456,0.722911536693573,0.1459410822603754,0.0205080177653422,3.146243190281024,-0.1116935163736343,0.0212070047855377,0.0427327565848827,0.1889033465646207,0.0762026502750814,-9.941061830520631,14947.0
24.1,3.400000095367432,304.0,22.4567813873291,31.727577209472656,-79.78274867908564,40.45906072525074,283.22291484069825,-0.0017402891535311,-0.0183201804757118,-0.6902653574943542,0.7233222723007202,0.1699000355235138,0.0277667854918656,3.1489161899024136,0.0658725053071975,0.0861518457531929,0.0699419602751731,0.236789886597544,0.0896193880867213,-9.863581545352936,14948.0
24.2,3.2000000476837163,314.0,22.511871337890625,29.548791885375977,-79.78274878834009,40.459060806373245,283.5204383392333,0.0013219498796388,-0.0173954330384731,-0.6897140741348267,0.7238717079162598,0.1508940826595792,0.0406681487156635,3.1294128751392765,0.120852455496788,-0.0147968409582972,0.0609686188399791,0.332524831853807,-0.0394000556878745,-9.898081287145615,14948.0
24.41,3.2000000476837163,322.0,22.65961456298828,26.59073257446289,-79.78274880863586,40.45906074037486,284.4473182220458,0.0001209418551297,-0.0126110389828681,-0.6895200610160828,0.7241567969322205,0.096785633244306,0.0510689511676141,3.101421428003085,0.0593030601739883,0.0127810137346386,0.1150285601615905,0.2788611331209541,-0.0469988824473694,-9.874540396928786,14949.0
24.6,3.2000000476837163,330.0,22.551937103271484,27.640365600585927,-79.7827488153265,40.45906070263533,284.7561790008545,-0.0004105383413843,-0.0123370615765452,-0.690002977848053,0.7237012386322021,0.082604731195699,0.0510805171288583,3.0790428360736586,-0.1772236377000808,-0.1158945262432098,-0.116929642856121,0.1599949681945145,0.3037011832930148,-9.600663247704508,14949.0
24.7,3.2000000476837163,333.0,22.538164138793945,28.825180053710927,-79.78274882782799,40.45906078260565,285.0528728027344,-4.591688775690273e-05,-0.0118336044251918,-0.6906362771987915,0.7231055498123169,0.0788379984881886,0.0448013727340036,3.0638840596497694,-0.0778658390045166,-0.047482743859291,-0.0837484821677208,0.1512992174830287,0.3009182923659682,-9.61347917497158,14950.0
24.9,3.0999999046325684,338.0,22.539417266845703,29.47722625732422,-79.7827488235252,40.45906073687821,285.66098895263667,0.0008513204520568,-0.0143478401005268,-0.6910992264747621,0.7226170301437378,0.0863301109610734,0.0540747301316271,3.0135895718992383,0.1356408447027206,0.2160892635583877,0.0450285337865352,0.1574712368287146,0.1192935050278902,-9.538421391248702,14950.0
25.0,3.2000000476837163,342.0,22.46429443359375,29.94638061523437,-79.78274882301677,40.459060797300246,286.25482669067384,0.0028872713446617,-0.0156634338200092,-0.6906288862228394,0.7230340242385864,0.0585330064060668,0.0827942521079461,2.9923158833970667,-0.1334859281778335,-0.0530673563480377,-0.0868003815412521,0.2809148214384913,-0.0892605974525213,-9.606289438605303,14951.0
25.2,2.799999952316284,336.0,22.483074188232425,29.97023582458496,-79.78274891102045,40.45906097351305,286.53939547729493,0.002901648171246,-0.0157827995717525,-0.6907469630241394,0.7229185104370117,0.0340521660969115,0.0753928190274014,2.9693821398221134,-0.057759441435337,-0.0957004651427269,-0.1120243296027183,0.2291300340928137,0.2966836474277079,-9.544930511713028,14951.0
25.3,2.700000047683716,337.0,22.422975540161133,29.74758529663086,-79.78274891384048,40.45906098919246,286.8352405090332,0.0030680913478136,-0.015761625021696,-0.6908174753189087,0.7228509783744812,0.0322802450859968,0.0752946667853416,2.9514856094458737,-0.030253617092967,-0.0056433267891407,-0.0491533204913139,0.1753542880900204,0.2566560027748346,-9.611276528835296,14951.0
25.5,2.5999999046325684,337.0,22.38791847229004,31.377700805664062,-79.78274902494663,40.459061226030606,287.41105380249024,0.0023841538932174,-0.0150090456008911,-0.6905094385147095,0.7231637835502625,0.023559692374598,0.0634158146099583,2.9425664750027947,0.1070267632603645,-0.0253868270665407,0.0911303758621215,0.2662337420135736,-0.0632177932932973,-9.724955756664276,14952.0
25.61,2.5999999046325684,335.0,22.44300842285156,31.34589195251465,-79.78274904522517,40.45906126462359,287.7059604187012,0.003364831674844,-0.0132658025249838,-0.6901947855949402,0.723494291305542,0.0069268019125671,0.058289063213499,2.9588079375416303,-0.0343797765672206,0.0460429452359676,0.0022968770936131,0.2777273214608431,0.0732176466844976,-9.909965168237688,14952.0
25.81,2.5,333.0,22.412960052490234,29.15915489196777,-79.78274908172297,40.459061464869,288.2891589660645,0.0056389328092336,-0.0146404858678579,-0.6896187663078308,0.7240027189254761,-0.0050360658448546,0.062840076325995,3.040216103412239,0.0423685945570468,0.0021135052666068,0.0038878479972481,0.2770446773059666,0.018983241431415,-10.329867757558825,14953.0
25.9,2.5999999046325684,333.0,22.56946563720703,27.79145050048828,-79.78274910097588,40.45906150831827,288.5957614440918,0.0070100529119372,-0.0148597918450832,-0.6893984079360962,0.7241961359977722,0.0011319380347948,0.0720624090955121,3.079889278857879,0.1320685148239135,0.0495739020407199,-0.005119175184518,0.3318874122574926,0.049172333618626,-10.1738511800766,14953.0
26.1,2.5999999046325684,331.0,22.422975540161133,30.2962589263916,-79.7827489955657,40.45906155070393,289.16891207885743,0.006451298482716,-0.0132876019924879,-0.6888976693153381,0.7247081995010376,0.0266785496775569,0.087706373099367,2.9984179751825204,0.1752475053071975,0.0305355787277221,0.1149745509028434,0.3170135574415326,-0.1293401909619569,-9.604013702273368,14954.0
26.2,2.5999999046325684,331.0,22.47931861877441,28.76951789855957,-79.78274900293025,40.45906170823344,289.75103297424323,0.0082929888740181,-0.0117268925532698,-0.6889702081680298,0.7246474027633667,-0.006206397569912,0.0797848709043592,2.980736879810804,-0.1083206757903099,-0.0402441695332527,-0.0872955694794654,0.1604921277053654,0.3438421542942524,-9.707978950738909,14954.0
26.4,2.5999999046325684,328.0,22.350357055664062,31.29818153381348,-79.78274900573871,40.4590617225571,290.0488196868897,0.0079849660396575,-0.0139540061354637,-0.6891360282897949,0.7244536280632019,-0.0042619239763049,0.0807918080871963,2.9713934184321094,-0.1129359379410743,-0.0685400962829589,-0.0314027220010757,0.216781335901469,0.2292972461879253,-9.726024627685549,14955.0
26.51,2.5999999046325684,329.0,22.455530166625977,30.36782455444336,-79.78274896269465,40.459061811268576,290.327834274292,0.007376552093774,-0.01600625179708,-0.6892817616462708,0.72427898645401,0.0124999803531698,0.0946021639989485,2.9670492061923155,0.0070037702098488,0.0940949618816375,-0.025855490937829,0.3110754541307688,0.2930487806349993,-9.794256956577302,14955.0
26.7,2.5,326.0,22.473058700561523,28.181087493896484,-79.78274898702583,40.45906191800152,290.9075767059326,0.0066570518538355,-0.01451635081321,-0.6897129416465759,0.7239067554473877,0.034363120827226,0.0923431475482806,2.9612979334327667,0.0667354986071586,0.0607906058430671,0.0131514780223369,0.1851242362707853,0.1138511725142598,-9.721595361828806,14955.0
26.8,2.5,324.0,22.515628814697266,28.642290115356445,-79.78274899394061,40.45906193023609,291.2034923095703,0.0065700435079634,-0.0140722645446658,-0.6896330714225769,0.7239925265312195,0.0345155167865656,0.0765146988440394,2.9495807835902004,0.20130455493927,0.1224959343671798,0.0998025611042976,0.2543118905648589,-0.1272032163664698,-9.711876119971276,14956.0
27.0,2.5999999046325684,323.0,22.37790298461914,30.28035545349121,-79.78274890554448,40.4590620732256,291.7827521820068,0.0082460660487413,-0.0148462895303964,-0.6891711354255676,0.7243995666503906,0.0256391750165219,0.0898409709825272,2.939472771096771,0.0025912960991263,-0.0462256669998168,-0.0324333347380161,0.2523510450683534,0.066115106921643,-9.753404799699783,14956.0
27.1,2.5999999046325684,324.0,22.39668273925781,30.69384765625,-79.78274895740594,40.459062241214575,292.3535815734864,0.0109205115586519,-0.0118039157241582,-0.689417839050293,0.7241853475570679,0.0004563681910646,0.0884776021602622,2.973199900261438,-0.0404810681939125,-0.035806804895401,-0.0277167204767465,0.2191310577839613,0.0922085077688098,-9.892727576494217,14957.0
27.3,2.5999999046325684,327.0,22.376649856567383,30.38372802734375,-79.78274897474711,40.45906224788634,292.6521636505127,0.0103701632469892,-0.0088881142437458,-0.6896153688430786,0.7240471243858337,0.0032149763450443,0.0784803428245829,2.9959881424474704,0.0180041566491127,-0.1131038516759872,0.0299416873604059,0.3021785500645638,-0.0220669898763299,-10.035100260972976,14957.0
27.4,2.5999999046325684,327.0,22.432992935180664,29.30228614807129,-79.78274899847321,40.45906224561448,292.95308604431165,0.0096382442861795,-0.0071587883867323,-0.6900054812431335,0.7237045764923096,-0.0043424153881658,0.0607263056266074,3.021666925579156,-0.1153534576296806,-0.114909254014492,0.0253503452986478,0.1722059279121458,0.0308497818745672,-10.029498628377915,14957.0
27.6,2.400000095367432,324.0,22.478065490722656,27.52108955383301,-79.78274913113299,40.45906228393197,293.5370608825684,0.0084718707948923,-0.008331443183124,-0.6907231211662292,0.7230218052864075,0.0169943451508958,0.0383837552946706,3.0539110656708184,-0.1223002150654792,-0.0817297101020813,-0.0580955892801284,0.1675857687368989,0.1072417997103184,-10.064001878499983,14958.0
27.71,2.400000095367432,324.0,22.489334106445312,28.992168426513672,-79.78274908744035,40.45906241615954,294.11317362976075,0.008045919239521,-0.0133030861616134,-0.6911152005195618,0.7225773930549622,0.0258292907895869,0.060545288768945,3.0102721381122644,-0.099079817533493,0.0537819527089595,-0.0756530165672302,0.1591047661565244,0.2072570438683032,-9.833628598451616,14959.0
27.91,2.400000095367432,323.0,22.466798782348643,29.071685791015625,-79.7827491165855,40.459062396174296,294.41345896911616,0.0077825817279517,-0.0150925610214471,-0.6909545660018921,0.7226986885070801,0.0589597692085309,0.0601351333774911,2.992264431452308,0.1508325040340423,0.0713463723659515,0.0245442073792219,0.2429129994660616,-0.008230622978881,-9.657791714072228,14959.0
28.01,2.299999952316284,322.0,22.446765899658203,29.85095977783203,-79.78274921626392,40.45906251041289,294.6957465667725,0.0082787880674004,-0.0154377790167927,-0.6904400587081909,0.7231775522232056,0.0544122722595858,0.0576911530648604,2.972431582959618,0.0825639963150024,0.1369886696338653,0.0482319816946983,0.2733101337589324,0.0187218183581717,-9.64375956594944,14959.0
28.2,2.200000047683716,319.0,22.47681427001953,28.32421875,-79.7827492730768,40.459062637981305,295.27537646484376,0.0093617495149374,-0.0152610959485173,-0.68951016664505,0.724054753780365,0.037398616213591,0.0616986197012663,2.9673357411987173,-0.1851339489221573,-0.0689841136336326,-0.1690344661474228,0.2086793973483145,0.3479133878275752,-9.673271048069,14960.0
28.3,2.299999952316284,320.0,22.453025817871094,28.538917541503903,-79.78274932371204,40.45906261619199,295.57195964050294,0.0095449704676866,-0.015008931979537,-0.6891384720802307,0.7244113683700562,0.0480512106628532,0.053993578602575,2.963177122593379,0.0027854666113853,-0.0749837309122085,-0.0851864665746688,0.2623329548165202,0.1750064701214432,-9.73697938621044,14960.0
28.5,2.299999952316284,320.0,22.324064254760746,30.63023376464844,-79.78274949913369,40.45906264082645,296.15404811096187,0.0083242114633321,-0.0139117632061243,-0.6885804533958435,0.7249787449836731,0.0517149393648599,0.0379042129732651,2.990518919691308,0.1135071590542793,0.0742168575525283,0.082877404987812,0.2717698492482304,-0.0191787257278338,-10.003588446378709,14961.0
28.6,2.200000047683716,320.0,22.306535720825195,31.6560115814209,-79.78274964400927,40.45906260478618,296.75953211975104,0.0063946326263248,-0.0129659529775381,-0.6883741617202759,0.7252117395401001,0.042196499386839,0.0235169077074059,3.0631996003671818,-0.0470566898584365,-0.0131092984229326,-0.0499701686203479,0.3146910068392753,0.1161146296933293,-10.141633021831511,14961.0
28.8,2.0999999046325684,312.0,22.49809837341309,27.298439025878903,-79.7827498099754,40.45906267444292,297.0455333251953,0.0064088245853781,-0.0127093559131026,-0.6881643533706665,0.7254152297973633,0.0439937715734599,0.0071634290317457,3.0707910227273008,0.0263931956142187,0.0441283844411373,-0.011911017820239,0.2506721632741392,0.1403400461375713,-9.979221929311754,14962.0
28.91,2.0,307.0,22.463041305541992,28.149280548095703,-79.78274989508684,40.459062659421456,297.352191116333,0.0062746875919401,-0.012294054031372,-0.6879656314849854,0.7256119847297668,0.0367137014436869,0.0101787623939273,3.0596529338784424,-0.0376369766891002,-0.0869085490703582,0.0077789546921849,0.2298278627358377,0.1203252370934933,-9.75329077899456,14962.0
29.1,1.8999999761581416,307.0,22.47430992126465,27.05988693237305,-79.78275009110908,40.45906278677516,297.93949237060554,0.0054128626361489,-0.0100828688591718,-0.6876906752586365,0.7259136438369751,0.0249158884757991,0.0036494492464177,3.0301101185845982,0.0532747954130172,0.0068766213953495,0.0726787149906158,0.1657857216708362,0.0085580213740468,-9.716273810863497,14962.0
29.2,2.0,308.0,22.538164138793945,26.28856468200684,-79.78275028518458,40.459062874368016,298.52934756469733,0.0057872105389833,-0.0098754046484828,-0.6875834465026855,0.7260152101516724,0.0186110666740917,-0.0021813721152684,2.9777330985031782,-0.0355807617306709,0.0506415665149688,0.0170844420790672,0.2035111347958445,-0.0967549554817378,-9.624028136730193,14963.0
29.4,2.0999999046325684,304.0,22.43424415588379,27.3620548248291,-79.7827503586083,40.459062871519926,298.8265620727538,0.0062010027468204,-0.010446828790009,-0.687778115272522,0.7258193492889404,0.0149341955791838,0.0053137014984021,2.9729652294843314,-0.0745824053883552,-0.0932547822594642,-0.000745219818782,0.2758044280484318,-0.0399386756122112,-9.727388783097268,14963.0
29.5,2.0999999046325684,307.0,22.49434280395508,26.209047317504893,-79.78275047377775,40.45906295406688,299.1182929534912,0.0062324278987944,-0.0121524427086114,-0.6882335543632507,0.725360631942749,0.0121265701643213,0.0058007631082036,2.9895963294437844,-0.1475453227758407,-0.013797540217638,-0.1096451133489608,0.186632068734616,0.2310212063603103,-9.696482155323029,14964.0
29.7,2.200000047683716,308.0,22.395431518554688,27.958436965942383,-79.78275063141344,40.45906294150785,299.71000018310554,0.007959478534758,-0.0138248335570096,-0.6895634531974792,0.7240496277809143,0.0491215123429422,0.0123513474616152,2.9344418101451075,0.2203676253557204,0.0992084443569183,0.1033375784754753,0.2708303478732705,0.0030474957078695,-9.633805850744247,14964.0
29.81,2.299999952316284,310.0,22.49809837341309,27.83916091918945,-79.78275086861166,40.45906303099226,299.99801554870606,0.0089621907100081,-0.0125245442613959,-0.6902915835380554,0.7233673334121704,0.0223730489805707,0.0188598005429938,2.9600857933899225,0.1350217014551162,0.0684921070933342,0.086981326341629,0.2496538523957133,0.0062556665064767,-9.661947914958,14964.0
30.01,2.200000047683716,306.0,22.42422866821289,27.37795829772949,-79.78275087085687,40.45906322251209,300.5798198242188,0.00803904235363,-0.0087361596524715,-0.6910445690155029,0.7227146625518799,-0.0059980885822995,0.0225348719128055,2.9512685669874155,-0.2265780717134476,-0.1268045753240585,-0.1389089524745941,0.1999491754733026,0.2789942120946944,-9.732558306455614,14965.0
30.11,2.0999999046325684,305.0,22.28650283813477,31.61625289916992,-79.78275093737912,40.45906321635805,300.87479510498054,0.0072675622068345,-0.0088385660201311,-0.6910243630409241,0.7227409482002258,0.008846699038623,0.0151391390749168,2.9478492492745008,-0.0292933508753776,-0.0519246645271778,-0.051655575633049,0.2653477974794805,0.1516163558419793,-9.777087777256966,14965.0
30.3,2.299999952316284,303.0,22.2426815032959,30.852882385253903,-79.78275115740749,40.45906327175712,301.45926013183595,0.0076538324356079,-0.010513893328607,-0.6906070113182068,0.7231132984161377,0.0346876763299908,0.0252438133176723,3.0118596095662715,0.1232947409152984,0.1509939283132553,0.0052498704753816,0.3017508445121348,0.1031723203416913,-10.051170748472217,14966.0
30.4,2.5,303.0,22.486831665039062,27.34615135192871,-79.78275120366403,40.45906325699384,301.7618037719727,0.0080287167802453,-0.0108879711478948,-0.6903568506240845,0.7233425378799438,0.0413157918562101,0.0384392576390842,3.034210160997672,0.1551771014928817,0.0473674982786178,0.0011745252413675,0.3545592600479722,-0.0117783753946423,-10.012386167049408,14966.0
30.6,2.5999999046325684,302.0,22.44300842285156,28.578676223754893,-79.78275144155567,40.45906333103596,302.33837237548835,0.0077461693435907,-0.0089433118700981,-0.6892740726470947,0.7244041562080383,0.0332581259284576,0.0428006495474116,2.987409591528619,0.1209836155176162,0.0336151495575904,0.0447454042732715,0.3502781480178237,-0.1524974672868848,-9.678519508838654,14967.0
30.7,2.700000047683716,298.0,22.379154205322266,29.143251419067383,-79.78275156224609,40.45906350361968,302.616933013916,0.008377082645893,-0.0083210468292236,-0.6888579726219177,0.7248001694679259,-0.0053698598668343,0.0577096938643547,2.960198923021244,-0.1306669265031814,-0.0528599470853805,-0.1045941263437271,0.2407875000312925,0.2806273211538792,-9.641074524521828,14967.0
30.9,2.700000047683716,297.0,22.449268341064453,26.93265914916992,-79.78275157598965,40.4590634911178,303.2083636779785,0.0102589065209031,-0.0082484846934676,-0.6881827116012573,0.7254180312156677,0.017437596268901,0.0688110009933511,2.955588039631148,0.1365745663642883,0.1346721053123474,0.0408498309552669,0.2761638308130205,0.1016565667279064,-9.771455739140512,14968.0
31.0,2.700000047683716,295.0,22.426733016967773,28.76156616210937,-79.7827516473955,40.45906358560652,303.77941622924806,0.0109875239431858,-0.009293102659285,-0.6880565285682678,0.7255144715309143,0.0168704357947142,0.0824683819515852,2.9233652971930826,-0.0439432822167873,0.0114703113213181,-0.0474833659827709,0.2827205512672663,-0.1218999379500746,-9.646918816566467,14968.0
31.2,2.900000095367432,290.0,22.32781982421875,29.10349273681641,-79.78275176294356,40.45906369284965,304.0587970275879,0.0109853558242321,-0.0124152889475226,-0.6887101531028748,0.7248472571372986,0.0046788012688124,0.0929682356388123,2.9569985709911064,-0.2467476129531861,-0.0286774095147848,-0.1555849909782409,0.2605031052231789,0.363200311884284,-9.89678671360016,14969.0
31.31,2.900000095367432,289.0,22.30904006958008,30.789268493652344,-79.7827517525528,40.45906366863442,304.3559199829102,0.0105080921202898,-0.0158494338393211,-0.6891766190528871,0.7243438959121704,0.0342749777149346,0.1037743954458554,2.980208770254132,-0.0466142110526561,0.0326442830264568,-0.0003568342362996,0.3501281303912401,0.1189987596776336,-10.024348400831222,14969.0
31.5,3.0,288.0,22.11997985839844,33.4531135559082,-79.78275173204351,40.45906372283946,304.9312869567871,0.0104960855096578,-0.0171237792819738,-0.6895190477371216,0.7239891290664673,0.0512192140950083,0.1374293303589902,3.0342580131045183,-0.0446139387786388,0.046150017529726,-0.0823712572455406,0.4112249923869968,0.2791409223899245,-10.246832617521289,14969.0
31.6,3.0,289.0,22.365381240844727,28.4912052154541,-79.78275171285998,40.45906370383893,305.2383166809082,0.0108264926820993,-0.0159404184669256,-0.689349353313446,0.724172830581665,0.0482126075279978,0.1324657905524561,3.09907171383215,-0.0173288397490978,-0.0482008531689643,-0.0546430870890617,0.3368968680873513,0.1982919466495514,-10.404453670978548,14970.0
31.8,3.0,287.0,22.40795135498047,27.64831733703613,-79.78275187485308,40.459063912454575,305.81781497192384,0.0133207803592085,-0.0145543664693832,-0.6889546513557434,0.7245358824729919,0.0144655979802076,0.1272789640358115,3.093264907547064,-0.1530783027410507,-0.0527675449848175,-0.1439909487962722,0.3368262995034457,0.3325408751517534,-9.905832356214525,14970.0
31.9,3.0999999046325684,286.0,22.371641159057614,29.47722625732422,-79.78275194493253,40.45906403556084,306.40725817871095,0.0148866968229413,-0.0149498861283063,-0.6885631084442139,0.7248694896697998,0.0211339669595598,0.1175137638136594,3.041889633544792,0.051871433854103,0.1317724287509918,-0.0511541552841663,0.3844520902633667,0.0617496122606098,-9.735561436414716,14971.0
32.11,3.0,285.0,22.44050407409668,27.83916091918945,-79.78275195367232,40.459064021013866,306.71060290527345,0.0145602645352482,-0.0153888016939163,-0.6883184313774109,0.7250993251800537,0.0349670795095494,0.1166550403703882,3.010887812591123,0.1163688823580742,0.0195030309259891,0.1385829448699951,0.4100188945233822,-0.2616653124243021,-9.508304137587547,14971.0
32.21,3.0,287.0,22.34284400939941,28.83313179016113,-79.78275197256413,40.45906416790543,306.99923434448243,0.0139145925641059,-0.0151583757251501,-0.6885805130004883,0.7248679399490356,0.0190198913170245,0.1244347720160628,2.9733666217489167,-0.1312116533517837,-0.1241398602724075,-0.0449910387396812,0.3079953967407346,0.204597492646426,-9.387228181958198,14971.0
32.4,3.0,286.0,22.39042282104492,28.66614532470703,-79.78275198845644,40.45906412054956,307.5913707275392,0.0128122335299849,-0.0154507337138056,-0.6889687776565552,0.7245131134986877,0.0580157880207452,0.1019966365177066,2.95035853608025,0.2127913236618042,0.1135249361395836,0.1339706182479858,0.3921250624582172,-0.2290939823538065,-9.752721260190013,14972.0
32.5,3.0,286.0,22.260210037231445,30.654088973999023,-79.782752073497,40.45906421000151,307.88409533691413,0.0129321133717894,-0.0165671538561582,-0.6890014410018921,0.7244552373886108,0.0290430197165089,0.1061286306040616,2.9791822437284843,-0.13196462392807,-0.0192242637276649,-0.0785990878939628,0.3372343986108899,0.1718448075279593,-9.746778150200845,14972.0
32.7,2.900000095367432,283.0,22.39042282104492,29.039878845214844,-79.78275227079233,40.45906426931873,308.4715129394532,0.013816243968904,-0.0189478565007448,-0.6888146996498108,0.7245581150054932,0.0319940022274582,0.1022343027534809,3.0090345269191747,-0.1569425016641616,-0.0296829976141452,-0.1362390667200088,0.29522237341851,0.3916264045983553,-9.758869022727014,14973.0
32.8,2.900000095367432,285.0,22.47055435180664,26.16133689880371,-79.7827523576841,40.459064230152336,309.07097354125983,0.0150094768032431,-0.017432365566492,-0.6883364319801331,0.7250268459320068,0.0465129519380866,0.0969510614674784,2.9782075023481838,0.0749178081750869,0.0950384959578514,0.0341761112213134,0.4481029429659248,-0.0098338198754936,-9.778721489310264,14974.0
33.0,3.0,287.0,22.220144271850582,29.71577835083008,-79.78275244308128,40.45906435597895,309.35991397094733,0.0139078814536333,-0.0161069091409444,-0.6881232857704163,0.7252817153930664,0.0241960146208812,0.0869325218915755,2.9731925129751,-0.1236992254853248,-0.1628451496362686,-0.0021885607857257,0.3222396526113153,0.011214411444962,-9.684870169758796,14974.0
33.1,3.0,286.0,22.446765899658203,26.622539520263672,-79.78275250397633,40.45906433685602,309.657574798584,0.0125007927417755,-0.015554572455585,-0.6881604790687561,0.7252840995788574,0.0296923007443671,0.0680618886476378,2.978945125434004,-0.0108061460778117,0.0187054965645074,0.0282656885683536,0.377590601965785,0.1523296796064824,-9.803840543031692,14974.0
33.3,2.900000095367432,287.0,22.26146125793457,30.34396934509277,-79.78275263031745,40.45906435502618,310.243138458252,0.0100510837510228,-0.0136706354096531,-0.6884399652481079,0.7250949144363403,0.0537801552182599,0.0579579677858603,2.9613465208400886,0.1418992727994918,0.0466684140264988,0.0665044859051704,0.3969437894225121,-0.1466801455244422,-9.697450454235078,14975.0
33.4,2.900000095367432,288.0,22.43800163269043,27.02012825012207,-79.78275282762074,40.45906438975994,310.82355609130866,0.0112482095137238,-0.0128178782761096,-0.6885343790054321,0.7250032424926758,0.0497618180514983,0.0544778803476531,2.964443336178181,0.093515008687973,-0.0027516693808138,0.009627160616219,0.302315886542201,0.3278859798610211,-9.765559991598131,14975.0
33.6,3.0,289.0,22.2426815032959,30.717702865600582,-79.78275287549792,40.45906435760804,311.1192256469727,0.0106568923220038,-0.0125948442146182,-0.6884160041809082,0.7251284718513489,0.0553659031238687,0.055496158040116,2.9431773176392126,0.1561977267265319,0.1232732981443405,0.1556784212589264,0.4047937495261431,-0.1813709085434675,-9.635643630623818,14976.0
33.7,3.0,289.0,22.34910583496093,28.729759216308597,-79.78275294746015,40.45906448806374,311.40611376953126,0.0093180602416396,-0.0123948892578482,-0.688399612903595,0.7251659035682678,0.0239175582581177,0.0633240638809694,2.9552843735851133,-0.2360756248235702,-0.1407177895307541,-0.0931054875254631,0.2487478263303637,0.2204773974604904,-9.73231740117073,14976.0
33.9,3.0,289.0,22.39042282104492,27.86301612854004,-79.78275302657522,40.45906442576047,311.99795642089845,0.0105250757187604,-0.0131622282788157,-0.6888568997383118,0.724701464176178,0.0547309893221876,0.0578087407725716,2.9613893215545404,0.0578188970685005,0.1491520255804062,-0.0165985953062772,0.3079397020116448,0.1452451931219548,-9.808496680855752,14976.0
34.0,3.0,290.0,22.24768829345703,30.773365020751957,-79.78275317136445,40.459064476031536,312.27844729614264,0.01096848025918,-0.0139091201126575,-0.6885740756988525,0.7249497175216675,0.0660443369884165,0.069352272841283,2.9561488141671126,0.1455627828836441,0.0526159107685089,0.0910264775156974,0.4679253329336643,-0.2351962827891111,-9.78840798676014,14977.0
34.2,3.0,291.0,22.319055557250977,28.729759216308597,-79.78275334345426,40.45906452347651,312.85452380371095,0.010531180538237,-0.0143487323075532,-0.6881136894226074,0.7253845334053041,0.0461571967081413,0.0746772751833713,3.000478743878284,-0.0577592216432094,-0.089561142027378,-0.1357222646474838,0.3207206190750003,0.2288333609886468,-10.05189580321312,14977.0
34.31,3.0,291.0,22.41546440124512,27.7039794921875,-79.78275340929572,40.45906444863057,313.457997467041,0.011355404742062,-0.0132744442671537,-0.687564492225647,0.7259132266044617,0.0664024632334777,0.071521811889635,3.0165243442196914,0.1429968774318695,0.0393733270466327,-0.0123601295053958,0.2975255368463695,0.363699152469635,-9.95834503054619,14978.0
34.5,2.900000095367432,292.0,22.336584091186523,29.13529968261719,-79.78275349334041,40.45906455973415,313.73273196411134,0.0111048500984907,-0.0128006413578987,-0.6873047947883606,0.7261714339256287,0.0544255296207358,0.0780005866310885,3.00545486949881,0.0701081603765487,0.1049347817897796,-0.0241936054080724,0.3291512807831168,0.1039808349497616,-9.901014250516893,14978.0
34.6,2.900000095367432,292.0,22.44050407409668,27.028079986572266,-79.78275352062616,40.45906452357956,314.03358950805665,0.0101290633901953,-0.0125729674473404,-0.6871362924575806,0.7263491153717041,0.0672408903163743,0.0742711359576409,3.0099951137930607,0.161573126912117,0.0714542791247367,0.1311219632625579,0.3791810811683536,-0.2727545751817524,-9.913729605674744,14979.0
34.8,2.900000095367432,291.0,22.44175720214844,26.69410514831543,-79.78275365720928,40.45906453710989,314.61201205444337,0.0110625540837645,-0.0137980887666344,-0.6877350211143494,0.7257463932037354,0.0429687084425487,0.0795645678302094,2.991684952936088,-0.1634344607591629,-0.1282143741846084,-0.0670637637376785,0.2320097695291042,0.163574651889503,-9.838318065404891,14979.0
34.9,3.0,292.0,22.360374450683597,28.642290115356445,-79.78275379471232,40.459064536698726,315.18912997436524,0.0124280611053109,-0.0151657676324248,-0.6884108185768127,0.725055992603302,0.0656210924006897,0.0918920100365213,2.958065496197032,0.0695325136184692,0.1135121509432792,0.0562556274235248,0.3519350662082434,0.056216684449464,-9.707315291762352,14980.0
35.1,2.900000095367432,294.0,22.29401588439941,29.62830924987793,-79.78275381849437,40.459064491433566,315.4850131530762,0.0121678030118346,-0.0148927373811602,-0.6884232759475708,0.7250542044639587,0.0800648288265579,0.0892729315914271,2.9559518674930305,0.1451044082641601,0.0098359156399965,0.1002467051148414,0.414560938552022,-0.1324040771462023,-9.788310338258745,14980.0
35.2,2.900000095367432,294.0,22.42422866821289,27.15530776977539,-79.7827539318902,40.459064595005216,315.7707873840332,0.0119613036513328,-0.013777608051896,-0.6884168982505798,0.7250857949256897,0.0469094925703376,0.0896227133883678,2.971848587024004,-0.1861687451601028,-0.1126495748758316,-0.1508740931749344,0.2768527241796255,0.2977119351178408,-9.79566438138485,14980.0
35.4,2.799999952316284,298.0,22.299022674560547,28.97626495361328,-79.78275400822108,40.45906450243088,316.36291232299806,0.0107222087681293,-0.0141094168648123,-0.6880846619606018,0.7254140377044678,0.0645378560122721,0.0607179424478778,2.9677997841940384,0.0067812409251928,0.0863145962357521,-0.0511196851730346,0.3014077956788242,0.2345423813536764,-9.942018435001373,14981.0
35.5,2.900000095367432,298.0,22.366634368896484,28.62638664245605,-79.78275409760228,40.45906455653877,316.647435333252,0.0091371210291981,-0.0148273026570677,-0.6879481077194214,0.7255508899688721,0.0791555520558015,0.0704295543273076,2.9972396521852374,0.1462905555963516,0.0685925185680389,0.0697951093316078,0.3565974166989327,-0.0440840454446151,-9.965659897327424,14981.0
35.7,2.799999952316284,299.0,22.246437072753903,29.683971405029297,-79.78275426319439,40.45906454630045,317.2273761291504,0.005272414535284,-0.0137669015675783,-0.6881480216979979,0.7254206538200378,0.0960914812448557,0.0587086441695234,2.995796005658109,0.1309589445590973,0.0655919164419174,0.1614854782819748,0.279352957047522,-0.2083124662935734,-9.859655724763869,14982.0
35.8,2.700000047683716,299.0,22.376649856567383,27.48928260803223,-79.78275429510207,40.45906450115285,317.527447845459,0.004710104316473,-0.0140469158068299,-0.6881819367408752,0.7253869771957397,0.0732555085530813,0.0541644681099829,3.001209866107493,-0.2096983194351196,-0.1313692778348922,-0.0618230402469635,0.2209815919026732,0.1531309765577316,-9.842388896942142,14982.0
36.0,2.5999999046325684,301.0,22.253950119018555,29.779394149780277,-79.78275450203269,40.45906450361124,318.11273303222663,0.0077814245596528,-0.0139068122953176,-0.6888514161109924,0.7247274518013,0.0742667642430638,0.0494387931935948,2.984047879002412,-0.0620387867093086,0.0224292408674955,-0.1087957024574279,0.2169765415415168,0.3969610387086869,-9.733314936161042,14983.0
36.1,2.700000047683716,302.0,22.432992935180664,26.89289855957031,-79.78275465402021,40.45906452305461,318.6972247619629,0.0094081610441207,-0.0144037697464227,-0.6886947154998779,0.7248473763465881,0.0716125330102919,0.0660026862078328,2.978501640025652,-0.0094579374417662,0.0157009083777666,0.0696412399411201,0.3122353589907288,-0.0660849937610328,-9.864039967060087,14983.0
36.3,2.5999999046325684,305.0,22.20887565612793,30.526859283447266,-79.78275469378146,40.45906447816036,318.99472918701167,0.0092569813132286,-0.0137832313776016,-0.6883530020713806,0.7251858711242676,0.0754918065616171,0.0607429482707313,2.9747944994051783,0.0265116598457098,-0.0463103279471397,0.0103407129645347,0.3152544591575861,-0.0349018657766282,-9.822356336116789,14983.0
36.4,2.5999999046325684,308.0,22.26521682739257,30.15312576293945,-79.78275473755843,40.459064430405135,319.2934695739746,0.0091486694291234,-0.0132306683808565,-0.6879374980926514,0.7255917191505432,0.0659814871176175,0.0579889601976039,2.9972053989522096,-0.1339500099420547,-0.1425938755273819,-0.0271374583244323,0.269616392813623,0.1118785594962537,-9.9499811732769,14984.0
36.61,2.5999999046325684,309.0,22.24142837524414,31.20276069641113,-79.78275486451102,40.45906444390808,319.8842021484375,0.0073144631460309,-0.0116806346923112,-0.6873867511749268,0.7261608242988586,0.0769345281195037,0.0586720561624339,3.024557955553294,-0.011724904179573,-0.0869830325245857,-0.0384650938212871,0.3295070107653737,0.050006374977529,-9.873889017105103,14984.0
36.7,2.5999999046325684,310.0,22.35787010192871,26.7497673034668,-79.7827549929987,40.45906442742392,320.4696208496094,0.0067156516015529,-0.0093973390758037,-0.687682569026947,0.7259196043014526,0.0798218961808646,0.0535104129369445,3.007540507510409,-0.0486227385699749,-0.0663510113954544,-0.0703763514757156,0.2383683059178293,0.2141199391521513,-9.839375241994858,14985.0
36.9,2.5,309.0,22.39417839050293,27.632413864135746,-79.78275500987817,40.45906436292419,320.76916995239264,0.0074656791985034,-0.0099628902971744,-0.6879691481590271,0.7256331443786621,0.0734232604476178,0.0533760741553972,2.9814842036919136,-0.1722205579280853,-0.0293002128601074,-0.1075656339526176,0.1991414557211101,0.3219297867268324,-9.523253713846207,14985.0
37.0,2.5,308.0,22.41421127319336,27.17121124267578,-79.78275512463725,40.459064423277376,321.0513240356445,0.0077827367931604,-0.0119395479559898,-0.6881206631660461,0.7254563570022583,0.0934832175026404,0.0549096193904888,2.9470708071756584,0.1593485921621322,0.1498634666204452,0.093569740653038,0.2851002584025264,-0.1735908226668834,-9.489706483483316,14986.0
37.21,2.5,308.0,22.262714385986328,30.0736083984375,-79.78275518037759,40.45906441233535,321.6340610046387,0.0067401505075395,-0.0156842991709709,-0.6892911195755005,0.7242833971977234,0.0889490313547782,0.085349548511522,2.941701168903614,-0.1380131244659423,-0.1500811725854873,-0.100281648337841,0.3196226216107607,0.2471684933826327,-9.717153232097626,14986.0
37.3,2.5999999046325684,307.0,22.322813034057614,28.75361442565918,-79.78275518198981,40.45906435382274,321.9284259338379,0.0057670040987432,-0.015114321373403,-0.6899508833885193,0.7236754298210144,0.0860963793608697,0.0918294122217278,2.9459709646353867,-0.1836735159158706,-0.1030131429433822,-0.1325095146894455,0.2500272884778679,0.4246208903566003,-9.778884041905403,14986.0
37.41,2.5999999046325684,309.0,22.31529998779297,29.42951583862305,-79.78275518487398,40.45906430042447,322.2233897705078,0.0051066987216472,-0.0144237214699387,-0.6901441812515259,0.723510205745697,0.1143484030743844,0.0754830482586561,2.947389413377333,0.2063145488500595,0.125035673379898,0.0608914084732532,0.2684624813497067,-0.0468713628966361,-9.836167459487916,14987.0
37.6,2.5999999046325684,308.0,22.26897430419922,28.9444580078125,-79.78275524918897,40.45906425795104,322.8089877624512,0.0077370656654238,-0.016513530164957,-0.689483106136322,0.7240722179412842,0.0933745362950886,0.0841756153041176,2.9818945346303525,0.0416341535747051,0.0447902344167232,0.0789580568671226,0.2876068501174449,-0.0653685453906655,-9.9727654337883,14987.0
37.7,2.700000047683716,309.0,22.300275802612305,28.76951789855957,-79.782755385261,40.45906433538421,323.09452548217774,0.0093632768839597,-0.0168310590088367,-0.689006507396698,0.7244992852210999,0.0684581950314227,0.0940460068973716,2.9904290219391525,-0.1317919194698333,-0.1162358373403549,-0.0927609726786613,0.3148387586697936,0.1340967455785721,-9.871311564445495,14988.0
37.9,2.700000047683716,310.0,22.20136260986328,29.88276672363281,-79.78275540986411,40.4590642683708,323.6905261535645,0.0085226679220795,-0.016862379387021,-0.6877231597900391,0.7257271409034729,0.0791777177785245,0.0942897980514201,2.9660568683635256,0.1411160230636596,0.0120740327984094,-0.0006707513239234,0.3244300926849246,0.0223958592116832,-9.748778482675553,14988.0
38.01,2.700000047683716,309.0,22.272729873657227,29.898670196533203,-79.78275552041684,40.45906431014159,324.2732211608887,0.0048311245627701,-0.0157297533005476,-0.6866334080696106,0.7268176674842834,0.0877755680447604,0.0817135662467589,2.9769268542420804,0.1645152568817138,0.0268815699964761,0.0889652818441391,0.3209194974973798,0.0530983003880828,-9.831859230995178,14989.0
38.2,2.700000047683716,309.0,22.153785705566406,30.96420669555664,-79.78275562154639,40.45906439660642,324.55825915527345,0.0049044997431337,-0.0150151634588837,-0.6861532330513,0.7272855639457703,0.0639204025657601,0.0811451812587168,2.9930470464811765,-0.1368357688188552,-0.074119359254837,-0.0777376443147659,0.2274519562907517,0.1844217846728861,-9.929398974180224,14989.0
38.3,2.700000047683716,310.0,22.297771453857425,28.864938735961918,-79.78275562815516,40.45906437421619,324.8593455810547,0.004829378798604,-0.0150330457836389,-0.685903012752533,0.7275216579437256,0.0643151160910441,0.0777132518415958,3.025043604568129,-0.0659658536314964,-0.0335064232349395,0.020389474928379,0.2977695301920176,0.0726099565252661,-10.08914841413498,14989.0
38.5,2.799999952316284,311.0,22.33157730102539,28.39578437805176,-79.78275575827159,40.45906443934662,325.44350161743165,0.0037035008426755,-0.0170731805264949,-0.686629593372345,0.7267975211143494,0.0578998540644224,0.0783162094306405,3.00939435534814,-0.1744102537631988,-0.0336478054523468,-0.1434370726346969,0.2822806579247117,0.4486512290686369,-9.786114124059678,14990.0
38.6,2.700000047683716,312.0,22.22515296936035,30.328065872192383,-79.78275592191558,40.459064576173226,326.0284968872071,0.003447740105912,-0.0185452830046415,-0.6876084804534912,0.7258366346359253,0.0558265877185635,0.0662147865960534,2.965211148811409,0.0605691447854042,0.1377056390047073,-0.0088396752253174,0.2932908553630113,0.2012102554365992,-9.628956170082091,14991.0
38.8,2.5999999046325684,317.0,22.22640419006348,29.31818962097168,-79.78275594811247,40.45906458947704,326.32478442382813,0.0024323996622115,-0.0181413628160953,-0.6877627372741699,0.7257048487663269,0.060485791641335,0.0631103348918107,2.9618722023177044,0.1906076371669769,0.0491611137986183,0.0452293828129768,0.2451787589862943,-0.0104555068071931,-9.77555054426193,14991.0
38.9,2.5999999046325684,318.0,22.326568603515625,27.640365600585927,-79.7827559792488,40.4590646082999,326.6213923950196,0.0025361352600157,-0.0161252189427614,-0.6882473230361938,0.7252925634384155,0.0474966976311047,0.0594498726276625,2.9643621986371547,0.0835002809762954,0.008729638531804,0.0806498751044273,0.2025963013619184,0.0344456733204424,-9.754302932024002,14991.0
39.1,2.5,324.0,22.262714385986328,29.24662399291992,-79.78275601863271,40.45906471169495,327.205052520752,0.0058451746590435,-0.0100679043680429,-0.6890009045600891,0.7246670126914978,0.0115511133400026,0.0502271249460876,2.94485228839548,-0.0863163769245147,-0.0993664115667343,-0.0102058220654726,0.2231902497075498,0.0496152327954769,-9.742627796530725,14992.0
39.2,2.5,325.0,22.233917236328125,29.66011619567871,-79.78275611946816,40.45906480443192,327.49125399780274,0.0067381225526332,-0.0108882216736674,-0.6897855997085571,0.7239005565643309,-0.0114874186206385,0.0610041943001246,2.9535894641223503,-0.1896373927593231,-0.0243639685213565,-0.1211883425712585,0.2043503746949136,0.3583960933238268,-9.697169203162192,14992.0
39.4,2.5,327.0,22.09619140625,31.822999954223643,-79.78275613757177,40.4590648255178,328.08093753051764,0.0070439465343952,-0.0149032184854149,-0.6908238530158997,0.7228353023529053,0.0335301374982467,0.075155807608434,2.935846545334453,0.1318325847387313,0.0443974398076534,0.0712173208594322,0.2276251252368093,0.1128063298948109,-9.712053290605548,14993.0
39.5,2.5,330.0,22.41045570373535,26.63049125671387,-79.7827562572427,40.45906495767828,328.3682605285645,0.0070289829745888,-0.0147755043581128,-0.6905189752578735,0.7231292724609375,0.0359729104574657,0.0775222687398061,2.9555703683525176,0.1648878008127212,0.153625026345253,0.0408330075442791,0.2695313523709774,0.0187306988169439,-9.81874977350235,14993.0
39.7,2.400000095367432,334.0,22.12874412536621,31.870710372924805,-79.78275632482344,40.45906507985164,328.94994845581056,0.0078828958794474,-0.0134308654814958,-0.6898986101150513,0.7237384915351868,0.0143105325927174,0.0839942625029125,2.938996951352393,-0.1956593692302704,-0.1686984747648239,-0.152343213558197,0.249690872579813,0.2716334994882345,-9.760264753103256,14993.0
39.8,2.5,336.0,22.14251708984375,31.22661590576172,-79.78275633469885,40.45906507682211,329.2444697875977,0.0069144167937338,-0.0124506410211324,-0.6894010305404663,0.7242398858070374,0.0246755223443803,0.0819435899942579,2.9553159350753084,-0.1002736613154411,-0.0583040080964565,-0.1195708140730857,0.2420415816083551,0.3487400744855404,-9.913641897439955,14994.0
40.0,2.5,336.0,22.143768310546875,30.28035545349121,-79.78275643331331,40.45906514650595,329.8272792358398,0.0028551835566759,-0.0123358815908432,-0.6874759197235107,0.7260968685150146,0.0430082402604204,0.0646686355667721,3.018744634611088,-0.0110566671937704,0.0455176271498203,0.0141043718904256,0.2652808285877108,0.2290688758715987,-10.192943508625032,14994.0
40.1,2.5,335.0,22.193851470947266,30.66204071044922,-79.78275643712807,40.4590651313358,330.1311618347168,0.0034375796094536,-0.0146868368610739,-0.6863255500793457,0.727138102054596,0.0650412643141749,0.0609291386565918,3.0493389462724805,0.0494917854666709,0.0282591357827186,-0.0487943738698959,0.2831746606528759,0.2692084033414721,-10.087971954345702,14995.0
40.3,2.5999999046325684,335.0,22.23892402648925,29.13529968261719,-79.78275650098577,40.459065193952,330.7233516235352,0.0043533015996217,-0.0176952481269836,-0.6846222877502441,0.7286702990531921,0.0589582199310235,0.0825034046237399,3.0674785458119733,-0.0982671007514,0.0154365710914134,-0.1042897030711174,0.2758649832755327,0.4145545797049999,-10.006762315034868,14995.0
40.4,2.700000047683716,336.0,22.251445770263672,28.92060089111328,-79.78275658474007,40.4590652837244,331.3109981079102,0.0030827089212834,-0.0164174418896436,-0.6853150725364685,0.7280551791191101,0.0653628411704885,0.0926700272287419,3.022948675261577,-0.1466902643442154,-0.158382698893547,-0.0884690061211586,0.2378718224912882,0.2768168003484607,-9.874621088504792,14996.0
40.6,2.799999952316284,338.0,22.047361373901367,33.27022171020508,-79.78275658218708,40.45906526594555,331.6125575561524,0.0040098885074257,-0.015066978521645,-0.6860424280166626,0.7273944616317749,0.0841316243014399,0.0792254053064452,3.004616716991685,0.1178488433361053,0.0573836676776409,0.107535570859909,0.2683560985699296,0.2536550837941468,-9.656890073418618,14996.0
40.7,2.799999952316284,339.0,22.17882537841797,30.2962589263916,-79.782756610788,40.45906536585482,331.90691104125983,0.0043659606017172,-0.0152825517579913,-0.6865939497947693,0.7268673181533813,0.0634836235197401,0.0844239819640784,3.022262496587174,0.1047740876674652,0.019531762227416,0.0982375964522361,0.3599164059385658,0.1519765808712691,-9.930327512025832,14996.0
40.8,2.799999952316284,339.0,22.218891143798828,29.723730087280277,-79.78275660507484,40.45906535858483,332.2102328796387,0.0035448677372187,-0.0162076223641634,-0.6866850256919861,0.7267658114433289,0.0639146606394526,0.0843411203891712,3.0362286713716387,0.0423561669886112,0.042581807821989,0.1384563148021698,0.2551631903462112,0.1301004112232476,-9.899099872112275,14997.0
41.0,2.900000095367432,341.0,22.33282852172852,27.03603172302246,-79.78275665016204,40.459065397361535,332.8052302856445,0.0021564648486673,-0.0191296730190515,-0.6864664554595947,0.7269065976142883,0.0915406141644369,0.0906612918824398,2.9962441714230006,0.162563681602478,0.0703673288226127,0.0845003873109817,0.218350874762982,0.0168523310380987,-9.538447118997574,14997.0
41.2,2.900000095367432,343.0,22.23641967773437,28.864938735961918,-79.78275667524127,40.45906543529121,333.3990565795898,0.0081271892413496,-0.0179205201566219,-0.6872339844703674,0.7261696457862854,0.0782942225954564,0.0889179736924433,2.948392826215543,-0.0360341258347034,-0.0942089185118675,-0.0087950192391872,0.250307150837034,0.1641178034059703,-9.521348106265073,14998.0
41.3,2.900000095367432,347.0,22.26897430419922,27.15530776977539,-79.78275672030105,40.4590653923304,333.9844295043945,0.0085587063804268,-0.0182990282773971,-0.6883341073989868,0.7251124978065491,0.0560571972843413,0.07617509595717,2.8869096059845605,-0.101969301700592,-0.051471821963787,-0.0183204393833875,0.1639721529185772,0.3608865321055055,-9.499565473794938,14998.0
41.5,3.0,355.0,22.19510269165039,29.25457572937012,-79.7827568725795,40.45906542046029,334.27745928955085,0.00544557813555,-0.0174685511738061,-0.6891878247261047,0.7243516445159912,0.073708363142159,0.0677477124881449,2.9010323544600403,0.0939039066433906,-0.028013952076435,0.0117146866396069,0.2503624801151454,0.2611822958663106,-9.559995278120038,14999.0
41.6,3.0,357.0,22.23641967773437,28.864938735961918,-79.78275692819423,40.459065395405545,334.5675212402344,0.0019350121729075,-0.0160948410630226,-0.6900297403335571,0.7235994935035706,0.0925153204230585,0.0376828315440862,2.8940939738658,0.144234225153923,0.00728306081146,0.1360023021697998,0.2060409143753349,0.1111129031516611,-9.674801264405252,14999.0
41.8,3.0999999046325684,2.0,22.083669662475582,30.88468933105469,-79.78275704381538,40.459065455494645,335.1481257934571,-0.0042370068840682,-0.0133102601394057,-0.6904386878013611,0.7232561111450195,0.0953391617925866,0.0046988898477423,2.907247771293924,-0.1226290240883827,-0.093147337436676,-0.0946150049567222,0.1249666289705783,-0.0110834338143467,-9.628567914962767,15000.0
41.9,3.0,4.0,22.1888427734375,30.15312576293945,-79.78275709790519,40.45906542229336,335.43961444091804,-0.0062194843776524,-0.0127531206235289,-0.6899539828300476,0.7237142324447632,0.0952130032496317,-0.0095666139498583,2.9185052399851554,-0.1769961267709732,-0.1182986795902252,-0.1211694180965423,0.1113218223396688,0.4014280191063881,-9.860598295927046,15000.0
42.1,3.0,5.0,22.084922790527344,31.61625289916992,-79.78275723827105,40.45906540217044,336.0214091796875,-0.0053556687198579,-0.0128105422481894,-0.6888211965560913,0.724798321723938,0.0965003806799824,-0.004117565508776,2.944807504624324,-0.0523834712803363,-0.0714017748832702,-0.1577256321907043,0.1394517535809427,0.3721453458443284,-9.91016163468361,15001.0
42.2,3.0,2.0,22.07740974426269,32.2682991027832,-79.78275742284708,40.45906539539535,336.60589709472663,-0.0032582748681306,-0.0127500174567103,-0.6873236298561096,0.7262321710586548,0.097296748480215,0.0192529892469118,2.987256367464992,-0.0490177422761917,-0.0148277841508388,-0.1023202016949653,0.1731493578851223,0.3362622990086675,-9.965372214317322,15001.0
42.4,3.0999999046325684,5.0,22.151281356811523,29.57264709472656,-79.78275743732709,40.4590653725918,336.90575518798835,-0.0013227130984887,-0.0120680686086416,-0.6865717172622681,0.7269607782363892,0.0852695086386557,0.0280524900400605,3.0057102393566093,-0.06837959587574,0.0233983267098665,-0.1688887327909469,0.180434933770448,0.4694794132187962,-9.961010191440582,15001.0
42.5,3.0999999046325684,6.0,22.285249710083008,27.29048728942871,-79.78275757423485,40.45906544293747,337.1862956542969,0.000526679737959,-0.0121874511241912,-0.6857049465179443,0.727777361869812,0.0768240539686039,0.0315232828035492,2.985128419969004,-0.022783625870943,0.0265117846429348,-0.0739163234829902,0.2183589877746999,0.3742427055537701,-9.846628128290178,15002.0
42.6,3.0999999046325684,7.0,22.37289428710937,25.024232864379893,-79.78275758090547,40.45906542015755,337.4835368652344,0.0014219034928828,-0.012864732183516,-0.6852668523788452,0.7281770706176758,0.0784560256666366,0.0441523887386761,2.9529564078302792,0.0324789248406887,0.0245254747569561,0.0354172475636005,0.2258538208901882,0.2414792804606259,-9.589374028444286,15002.0
42.8,3.0,6.0,22.465545654296875,24.165441513061523,-79.7827576188825,40.459065447945534,338.0406962890625,0.001978401094675,-0.0151145355775952,-0.6859627962112427,0.7274770140647888,0.0577951400562879,0.064247371787612,2.762559702392964,-0.2257523983716965,-0.0970163494348526,-0.0867352187633514,0.1801988707110285,0.4877059518545866,-8.857059969305991,15003.0
42.9,3.0,5.0,22.4567813873291,23.74399757385254,-79.78275761360537,40.459065421410905,338.31131091308595,0.0023216125555336,-0.0153759596869349,-0.686698317527771,0.7267762422561646,0.0867647034054221,0.0665153430286594,2.6445266930678093,0.0176820699125528,0.0348674021661281,0.0233766604214906,0.1861584259942174,0.1480444653891027,-8.674461949467661,15003.0
43.11,2.900000095367432,3.0,22.493091583251957,23.02833747863769,-79.7827577107547,40.45906540120533,338.81513323974616,-0.0001482666702941,-0.0157406013458967,-0.6868788599967957,0.7266014814376831,0.0923770040487132,0.0606603645334098,2.410354494214709,0.0161940529942512,-0.0737614780664444,0.0338337458670139,0.1499162870272994,0.2411585606820881,-8.525874844193458,15003.0
43.2,2.900000095367432,1.0,22.488082885742188,23.43387794494629,-79.78275779831883,40.45906539667339,339.2713710327148,0.0008165524923242,-0.0141015890985727,-0.6869762539863586,0.726542592048645,0.101166678495789,0.0411399285216266,2.1860115400395808,0.0280406232923269,-0.0488692782819271,0.0588767044246196,0.1579083527438342,0.2406375372223556,-8.585393067598343,15004.0
43.4,2.900000095367432,1.0,22.475563049316406,23.89508056640625,-79.78275779748503,40.45906534936744,339.4844676513672,0.0012811656342819,-0.0145840290933847,-0.6873210072517395,0.7262063026428223,0.1065610160991509,0.0383211751820476,2.0698368119925274,0.061675801873207,0.0067101665772497,0.0257344860583543,0.1860584020614624,0.1838043917901814,-8.647268303632737,15004.0
43.5,2.900000095367432,3.0,22.466798782348643,24.332427978515625,-79.78275788838184,40.459065363913865,339.68784442138667,0.000887096801307,-0.0151233067736029,-0.6876296401023865,0.7259036302566528,0.1142652528111198,0.0388832492930653,1.976810290038836,0.0458368510007858,0.0207356102764606,0.1042933240532875,0.2286577800661325,0.1134342477656901,-8.6620512342453,15004.0
43.61,2.900000095367432,4.0,22.44300842285156,24.96061897277832,-79.78275788538578,40.45906529663207,339.8806163330078,-0.000828374933917,-0.0152731770649552,-0.6878131031990051,0.7257267236709595,0.1245668975637019,0.0419401526633227,1.8734719450893915,0.0291770212352275,0.0503158196806907,0.0277599953114986,0.262571484670043,0.1801336925290525,-8.767714514136317,15004.0
43.8,2.799999952316284,4.0,22.50060272216797,23.64857482910156,-79.78275794162873,40.45906526381619,340.25030627441413,-0.0077303810976445,-0.0160734038800001,-0.6881470680236816,0.7253519892692566,0.1180402342001936,0.0347150191876535,1.7223977572691676,-0.1544647961854934,-0.0430784076452255,0.0060029383748769,0.1040336700249463,0.3892117603495717,-8.875470512509347,15005.0
43.91,2.799999952316284,5.0,22.50436019897461,24.3721866607666,-79.7827579263262,40.45906519410444,340.4179469604492,-0.0096468636766076,-0.0173251330852508,-0.6881342530250549,0.7253124117851257,0.1188512510581371,0.0340210447200739,1.6269911058684012,-0.1358660459518432,-0.0334344878792762,-0.0291994083672761,0.1289932409394532,0.3577681389078498,-8.851089377403259,15005.0
44.11,2.700000047683716,6.0,22.32030868530273,27.00422477722168,-79.78275793320479,40.45906516216081,340.7422496337892,-0.0094148460775613,-0.0187917184084653,-0.6873549222946167,0.7260175347328186,0.1165817414732586,0.0506772516614049,1.4886290407824323,0.075915016233921,0.016640480607748,0.0941182076930999,0.2023313494026661,0.073992238305509,-9.030778407454491,15005.0
44.2,2.700000047683716,5.0,22.290258407592773,27.12350082397461,-79.78275798863825,40.45906520969167,340.9072886962892,-0.0074472050182521,-0.0171380341053009,-0.6871393322944641,0.7262853384017944,0.0973540403458157,0.0583098858733385,1.4758143119143292,0.0642410889267921,-0.046694379299879,-0.0765774771571159,0.2431746623665094,0.3781642869114876,-9.246025525331495,15005.0
44.4,2.700000047683716,7.0,22.322813034057614,27.61651039123535,-79.78275787963855,40.45906515550863,341.19452777099616,-0.0029680768493562,-0.0124513544142246,-0.6864947080612183,0.7270222306251526,0.057726377158365,0.0738828712095742,1.3827053549527677,-0.0420216172933578,-0.0739501267671585,-0.1015549525618553,0.1191551635600626,0.291487976051867,-9.232102135419844,15006.0
44.5,2.5999999046325684,7.0,22.50436019897461,23.871225357055664,-79.78275779919652,40.45906522739215,341.49839892578126,0.0004819231689907,-0.0141561590135097,-0.6865319013595581,0.7269617915153503,0.0523560993292477,0.068364242609522,1.302459200732342,0.1046664416790008,0.2004373520612716,0.0560437552630901,0.1486497983895242,0.0024112090095877,-9.343202741146088,15006.0
44.7,2.5,8.0,22.66211700439453,20.61894989013672,-79.78275783530043,40.45906538132664,341.63311877441413,0.0047396733425557,-0.0181636624038219,-0.6832529902458191,0.7299404740333557,0.0147903515312333,0.0661125854005822,1.050263334536142,-0.0177293494343757,0.1281794756650924,-0.271550714969635,0.0209596779802814,-0.0340677467593923,-7.3431181883811965,15006.0
44.81,2.5,8.0,22.52814865112305,23.40207099914551,-79.78275778554222,40.459065393400174,341.72342791748054,0.0077058896422386,-0.0213098507374525,-0.666458010673523,0.745198130607605,0.005942469947094,0.0629151412267351,0.7726967991588708,0.026572611182928,0.0940974801778793,-0.5335676670074463,0.1707042350247502,0.0453841235954314,-7.294404450058937,15006.0
45.0,2.299999952316284,9.0,22.429235458374023,24.904956817626957,-79.78275793161772,40.45906551441251,341.80609240722663,0.008193121291697,-0.0193327777087688,-0.6233817338943481,0.7816357016563416,-0.0116039014188034,0.0237158487322218,0.4604833913053382,-0.0400128811597824,-0.0463411062955856,-0.5965951085090637,0.1582495743222534,0.3052770079113543,-8.37324789762497,15006.0
45.1,2.200000047683716,10.0,22.429235458374023,25.42977333068848,-79.78275793686251,40.45906552604267,341.847703125,0.006543512456119,-0.0161954388022422,-0.6017996072769165,0.798456072807312,-0.0111717078892822,0.0033807975583947,0.3779852621845633,-0.0323445461690425,-0.0828538313508033,-0.5641955733299255,0.1031835305504501,0.2990192811749875,-8.828466500043866,15006.0
45.3,2.0999999046325684,10.0,22.11997985839844,31.17890548706055,-79.78275813005996,40.459065671188654,341.8191081542969,0.0054215663112699,-0.0135871721431612,-0.5828229188919067,0.8124676346778871,-0.0064712686293901,-0.0107445145606186,0.3102002717528653,0.0468586422502994,-0.0040352880023419,-0.4084289371967316,0.1050718248914927,0.3246238182485104,-9.437777945995329,15006.0
45.4,2.0999999046325684,7.0,22.24142837524414,27.56879997253418,-79.78275818644276,40.459065660776965,341.8773662109375,0.0029916774947196,-0.0052140890620648,-0.5584752559661865,0.8294994235038757,0.0239642177339836,0.0004341492870477,0.2995603924174093,0.1907711029052734,-0.2497415393590927,-0.213564246892929,0.3653441935032606,0.4258808191493153,-9.876596277952194,15006.0
45.6,2.0,10.0,22.223899841308597,29.175058364868164,-79.78275824057123,40.45906575022836,341.8967372436524,-0.0321394763886928,0.0306884311139583,-0.5464314818382263,0.8363240361213684,0.039078961374995,0.1191058403667826,0.3439765758519946,-0.0906726345419883,-0.704624354839325,-0.0915901064872741,0.1966733459942043,0.1292558631487191,-9.981756112575534,15006.0
45.7,2.0,12.0,22.27898979187012,26.92470741271973,-79.78275770988647,40.45906587937328,341.93680682373054,-0.0572055839002132,0.043205089867115,-0.5434556603431702,0.8363712430000305,0.0686947682735957,0.2288773446706505,0.4136379417921276,-0.0082709453999996,-0.4238811433315277,0.0338299646973609,0.0915250504855066,0.0827888900320977,-10.148078992366791,15006.0
45.9,1.8999999761581416,3.0,22.2526969909668,27.99819564819336,-79.78275669756157,40.45906604535285,342.0199214477538,-0.0914567932486534,0.0523504465818405,-0.5433201193809509,0.8328856229782104,0.1189489888249697,0.5261350809997877,0.5324341877887103,0.0582866445183754,-0.204961210489273,0.2236437052488327,0.0086592512950301,-0.1155746758729219,-10.150920739173891,15007.0
46.0,1.7999999523162842,358.0,22.281494140625,26.51916694641113,-79.78275535043673,40.45906649566735,342.18719592285163,-0.1023487225174904,0.0574324615299701,-0.5481829643249512,0.8280832767486572,0.1003301500633839,0.8873335965327382,0.7178126104214066,-0.0435225628316402,-0.1797983348369598,0.0153163075447082,0.0219708717009052,0.3752613636106253,-10.109618346691132,15007.0
46.21,1.8999999761581416,5.0,22.292762756347656,27.61651039123535,-79.78275483175858,40.459066877309816,342.1785975952148,-0.1059489250183105,0.0601500496268272,-0.5509124398231506,0.8256224393844604,0.089326045816988,1.0456830704797144,0.7595126768958859,0.173934206366539,0.0678676515817642,0.1664339751005172,-0.0466203985735774,0.0124838054180145,-10.06477020263672,15007.0
46.3,2.0,8.0,22.263965606689453,27.902774810791016,-79.78275337352468,40.459067289401546,342.2276698608398,-0.1102369129657745,0.0626466944813728,-0.5530980825424194,0.8234111070632935,0.0632728937237414,1.2797723350818913,0.8153669710303986,0.0009155166335403,-0.153709277510643,0.0784659087657928,0.0399964077305048,0.0686175507679581,-9.990682471990588,15007.0
46.5,2.0999999046325684,11.0,22.31529998779297,26.11362648010254,-79.78275023599029,40.4590685118657,342.2428905029297,-0.1170955300331115,0.06895162910223,-0.554573655128479,0.8209642767906189,0.0205708599674236,1.7044415907172057,0.8931252375367468,0.2068759351968765,0.0508686043322086,0.1273255497217178,-0.1532360619865358,0.0827503532264381,-9.880596942901612,15007.0
46.6,2.299999952316284,13.0,22.322813034057614,26.39193725585937,-79.78274587225695,40.45907021950264,342.2614451904297,-0.1254722625017166,0.0761484056711196,-0.5512121319770813,0.8213546276092529,-0.0688011851474839,2.1752355705611746,0.9820934247536648,-0.1300558894872665,-0.2309730648994445,-0.1191435158252716,-0.0241265802271664,0.027596866171807,-9.842779490947724,15007.0
46.8,2.5999999046325684,18.0,22.46053695678711,23.608816146850582,-79.78274317246317,40.45907110802641,342.29339709472663,-0.1290760040283203,0.0794236361980438,-0.5501527190208435,0.8211963176727295,-0.0244126827534941,2.4267310245881566,1.0538513299271342,0.1484994739294052,0.0008722771890461,0.0198449492454528,-0.2046992890164256,0.2176787373237312,-9.82406021475792,15007.0
46.9,2.700000047683716,21.0,22.192598342895508,29.23072052001953,-79.78274017896746,40.459072083491655,342.3208552856445,-0.1342999339103698,0.0828553661704063,-0.5483217239379883,0.8212440609931946,-0.0124226636073514,2.6851948380672632,1.0931869435802015,0.1305449306964874,-0.0610358007252216,0.0677458643913269,-0.2988052182644606,-0.0077971067558974,-9.585540009140969,15007.0
47.1,3.0999999046325684,23.0,22.233917236328125,28.29241180419922,-79.78273339741165,40.459074595732886,342.32053485107417,-0.1416986435651779,0.0910146459937095,-0.5418477654457092,0.8234312534332275,-0.0154522838463956,3.1996877069065626,1.2504620519727572,-0.0675753727555275,-0.2177338600158691,-0.16165691614151,-0.578754847124219,0.2972253005951643,-9.717502310872078,15007.0
47.2,3.299999952316284,23.0,22.37790298461914,24.63459587097168,-79.78272944246835,40.459076200607626,342.3050090332032,-0.1439418941736221,0.0933581963181495,-0.5361047387123108,0.8265329599380493,-0.0402343947807001,3.4557883262266635,1.3557996065573676,-0.0398055836558342,-0.1158140301704406,-0.2300350069999695,-0.4162187338247895,0.4139342997595668,-9.882161657810212,15007.0
