time,wind_speed,wind_angle,battery_voltage,battery_current,position_x,position_y,position_z,orientation_x,orientation_y,orientation_z,orientation_w,velocity_x,velocity_y,velocity_z,angular_x,angular_y,angular_z,linear_acceleration_x,linear_acceleration_y,linear_acceleration_z,node_ids
0.0,0.2000000029802322,199.0,23.344486236572266,-0.0954212844371795,-79.78275360407719,40.45905879717323,264.8801869020462,-0.0150750586763024,0.0020733575802296,-0.8565537929534912,0.5158334374427795,-0.0208951818945349,-0.0123128987129153,0.0154945467954345,0.0038774835411459,-3.617798574850895e-05,0.0006140085170045,-0.2008490985073149,0.185682809818536,-9.808321849107744,14929.0
0.1,0.2000000029802322,197.0,23.336973190307607,-0.1590354740619659,-79.78275360473125,40.459058821159,264.88171933746344,-0.0150886997580528,0.0020521741826087,-0.8565415740013123,0.5158534049987793,-0.0253606886594099,-0.0140072459450668,0.0158276104008428,-0.0049024294130504,0.000153495275299,-0.0076827509328722,-0.2062400851584971,0.2019857424125075,-9.807209708690644,14929.0
0.3,0.3000000119209289,214.0,23.33196449279785,-0.1510837078094482,-79.78275362353864,40.45905879296121,264.8819181785584,-0.0150409890338778,0.002082583727315,-0.8565307259559631,0.5158727765083313,-0.0159631862051155,-0.0128533318360919,0.0175458368349964,-0.0014394943136721,-0.0016017295420169,-0.0012031756341457,-0.2002563187479973,0.187651622146368,-9.809163263440134,14929.0
0.4,0.3000000119209289,225.0,23.33446884155273,-0.1431319266557693,-79.7827536278186,40.459058811525615,264.88367246246344,-0.0150228347629308,0.002092701382935,-0.8565278053283691,0.5158779621124268,-0.0193896156533919,-0.0145649803970382,0.0178278563405383,-0.0032729085069149,-0.0002307164977537,-0.0056865829974412,-0.2038852835074068,0.203814934194088,-9.806675857901574,14929.0
0.6,0.4000000059604645,236.0,23.34698867797852,-0.0795177370309829,-79.78275362064991,40.45905877905568,264.8846511707306,-0.0150153655558824,0.0021125781349837,-0.8565132617950441,0.5159023404121399,-0.0159023440795333,-0.0103139076944752,0.019076558788104,-0.0052529713138937,-0.0034386035986244,-0.0012913040118291,-0.2036877937987447,0.1849670192599296,-9.8079558134079,14929.0
0.71,0.4000000059604645,239.0,23.348241806030277,-0.0397588685154914,-79.78275362258556,40.45905879578125,264.8865493402481,-0.0149978371337056,0.0021268823184072,-0.8565118312835693,0.5159051418304443,-0.0183912340508035,-0.0120555400210092,0.0193303938595208,0.0027874917723238,0.0061500766314566,0.0015106063801795,-0.2023390969634056,0.1964584242738784,-9.808119535446169,14929.0
0.9,0.5,236.0,23.348241806030277,-0.0715659633278846,-79.78275363953391,40.45905880274046,264.887968050003,-0.0149925015866756,0.0021065191831439,-0.8564925193786621,0.5159374475479126,-0.0212621572547075,-0.0158120408021004,0.020117864906187,-0.0029258462600409,-0.0026047166902571,-0.0064193899743258,-0.2009120474383235,0.1854727120511234,-9.809566721320152,14929.0
1.0,0.6000000238418579,240.0,23.35074615478516,-0.0715659633278846,-79.78275364747066,40.4590587746951,264.8853500947952,-0.0149763831868767,0.0021179430186748,-0.8564836978912354,0.5159525871276855,-0.0129853932942921,-0.0145771675063693,0.0159572355649692,0.0067567070946097,0.0047797411680221,0.005695023573935,-0.2011184724234044,0.1843465200439096,-9.808679698705674,14929.0
1.2,0.6000000238418579,240.0,23.35199737548828,-0.055662415921688,-79.78275366142749,40.45905881355648,264.8885911569596,-0.0149802379310131,0.0021223865915089,-0.8564698696136475,0.5159753561019897,-0.020159189936375,-0.0176018360138044,0.0166035941899472,0.0055759353563189,0.0011056603398174,0.0002014518395299,-0.2008400718681514,0.1988115631230176,-9.807537152767182,14929.0
1.41,0.6000000238418579,228.0,23.34323310852051,-0.0954212844371795,-79.78275367796208,40.459058824017966,264.8896592721939,-0.0149800321087241,0.0021402793936431,-0.8564474582672119,0.5160125494003296,-0.0210508093969684,-0.0191373260087481,0.0185249670802083,-0.0055469376966357,-0.0044117434881627,-0.0068788141943514,-0.1999021053873002,0.1851548427902162,-9.809505325555802,14929.0
1.51,0.6000000238418579,229.0,23.34573745727539,-0.0477106422185897,-79.78275363433109,40.45905881763887,264.88806544399256,-0.0150171024724841,0.002151787513867,-0.856429398059845,0.5160412192344666,-0.0209200577590794,-0.0094251440028126,0.0152700933513877,-0.0047320406883955,-0.0031445769127458,-7.836573058739306e-05,-0.1991846702992916,0.1851240535452962,-9.809283716082572,14929.0
1.71,0.6000000238418579,228.0,23.34698867797852,-0.055662415921688,-79.7827536327403,40.459058838249966,264.88957213020325,-0.015003552660346,0.0021654565352946,-0.8564326167106628,0.516036331653595,-0.0235532367072491,-0.011170483729374,0.0155532892383166,0.000807095086202,0.0056239301338791,0.001332817133516,-0.2071082139573991,0.1965312769263983,-9.806242579221726,14929.0
1.81,0.5,228.0,23.34698867797852,-0.0795177370309829,-79.78275363529681,40.459058822001865,264.88743578052515,-0.014991738833487,0.0021765059791505,-0.85642009973526,0.5160573124885559,-0.0179030831268949,-0.0108615805338874,0.0143578163737053,-0.0012001289287582,-0.0011083865538239,0.002795121166855,-0.2019342320971191,0.1855349483527243,-9.808763313889504,14929.0
2.0,0.5,228.0,23.34698867797852,-0.0795177370309829,-79.7827536225557,40.459058829822176,264.8880607948303,-0.0149758532643318,0.0022249014582484,-0.8564168810844421,0.5160629153251648,-0.0152607344107454,-0.0090425048973836,0.0168400378072277,0.0046247416175901,0.0008833190659061,0.0067801540717482,-0.2062264721095562,0.203219888638705,-9.807040139436722,14929.0
2.1,0.5,223.0,23.344486236572266,-0.0715659633278846,-79.78275362227039,40.45905884805246,264.8897447452545,-0.0149765871465206,0.002205247292295,-0.8563950657844543,0.5160992145538329,-0.0195579339418665,-0.0101086180739347,0.0173000532465793,-0.0017043243860825,-0.0043119988404214,-0.0004180604591965,-0.2026482867635786,0.188315884117037,-9.809107714891434,14929.0
2.3,0.4000000059604645,223.0,23.3494930267334,-0.0715659633278846,-79.78275360979896,40.45905885694026,264.889221654892,-0.0149709433317184,0.0022184799890965,-0.8563867211341858,0.5161132216453552,-0.0179836158215552,-0.0092608601480935,0.0150129070330624,0.0059005371294915,0.0040127481333911,0.0044462755322456,-0.2043400507047773,0.2048616406135261,-9.806401623487472,14929.0
2.4,0.4000000059604645,220.0,23.3494930267334,-0.0795177370309829,-79.78275360838227,40.45905887618771,264.8907110557556,-0.0149484910070896,0.0022297473624348,-0.8563829064369202,0.5161200165748596,-0.0222861944545924,-0.0102413776553341,0.015402428902623,-0.0037907378282398,-0.0023094932548701,-0.0013277230318635,-0.2043007829971612,0.1924817329086363,-9.807175210118292,14929.0
2.6,0.3000000119209289,218.0,23.3494930267334,-0.0636141896247863,-79.78275362411944,40.4590588754989,264.8901965484619,-0.0149208260700106,0.0022544192615896,-0.8563674688339233,0.5161464810371399,-0.0156753144306179,-0.0125771402597706,0.0131642274774082,0.0051927417516708,0.0011659869924187,0.0026972240302711,-0.2042829489894211,0.2045663379505276,-9.80655832886696,14929.0
2.7,0.3000000119209289,213.0,23.35074615478516,-0.0397588685154914,-79.78275362775815,40.45905889411471,264.89151166534424,-0.0148861780762672,0.0022540991194546,-0.8563638925552368,0.5161533951759338,-0.0198095397480034,-0.0136790166061687,0.0136183008914178,-0.0056077595800161,-0.0050124013796448,-0.0031822207383811,-0.2064620418101549,0.1933204429037869,-9.807654097080231,14929.0
2.9,0.3000000119209289,227.0,23.348241806030277,-0.0715659633278846,-79.78275363529558,40.4590589075244,264.8915657863617,-0.0148670375347137,0.0023032452445477,-0.8563463687896729,0.5161827206611633,-0.0180619512425509,-0.0152421504935063,0.0130045361887064,0.0063495519571006,0.0015886483015492,0.0053682345896959,-0.2029604549892247,0.203185700699687,-9.807837114930154,14929.0
3.0,0.3000000119209289,232.0,23.3494930267334,-0.0715659633278846,-79.78275362204518,40.45905890468208,264.89169083690643,-0.0148575343191623,0.0023047944996505,-0.8563389778137207,0.5161952972412109,-0.0161875469495908,-0.0114596300780217,0.0154757067672604,-0.0062096784822642,-0.0028213842306286,-0.0027182102203369,-0.2052386581152677,0.1922336282394826,-9.808232971429826,14929.0
3.2,0.3000000119209289,246.0,23.35199737548828,-0.055662415921688,-79.78275362740433,40.45905894436189,264.8948000535965,-0.0148258525878191,0.0023106115404516,-0.8563265204429626,0.5162168741226196,-0.0212035246625613,-0.0143787677049772,0.0160406734907193,0.005725756753236,0.0030424944125115,0.0052547608502209,-0.2032049965113401,0.2036208797246217,-9.806917932629586,14929.0
3.31,0.3000000119209289,248.0,23.344486236572266,-0.0715659633278846,-79.7827536117729,40.45905894475385,264.8944769964218,-0.0148126138374209,0.0023575136438012,-0.856312096118927,0.5162408947944641,-0.018601061875836,-0.0109505582011047,0.0139371942215021,-0.0009019930148497,0.0008113438962027,-0.0038536842912435,-0.2059450200386344,0.1936297057941556,-9.807320221066476,14929.0
3.5,0.2000000029802322,258.0,23.34573745727539,-0.0715659633278846,-79.78275359906922,40.45905894355364,264.8932615385056,-0.0148204332217574,0.0023698781151324,-0.8562989830970764,0.5162623524665833,-0.0141461404683323,-0.0084589753544514,0.0126540021685864,0.0067403768189251,0.00304342713207,0.0084246704354882,-0.2011366718821227,0.1861065502278507,-9.80927786886692,14929.0
3.61,0.2000000029802322,249.0,23.344486236572266,-0.0636141896247863,-79.78275359912017,40.45905896043004,264.8945230112076,-0.0148282730951905,0.0023496525827795,-0.8562886714935303,0.516279399394989,-0.0181746838696465,-0.0095646273774713,0.0129896916605348,-0.0044957203790545,-0.0010986999841406,0.0004892182769253,-0.2050150021165609,0.1922431299649179,-9.807311450242995,14929.0
3.8,0.1000000014901161,257.0,23.3494930267334,-0.0636141896247863,-79.78275359164792,40.45905896377143,264.8969371185304,-0.014794623479247,0.0023851844016462,-0.856272280216217,0.5163074135780334,-0.0139906953713587,-0.0077906775508248,0.0164292082346823,0.0077283508144319,0.0024577900767326,0.0067971902899444,-0.203255574926734,0.2050350836478174,-9.80591104209423,14929.0
3.92,0.1000000014901161,257.0,23.344486236572266,-0.0477106422185897,-79.78275359089828,40.45905897910772,264.8985818490982,-0.0147975627332925,0.0024184095673263,-0.8562595844268799,0.5163281559944153,-0.0177350528042456,-0.0087296097402775,0.0168581821955287,-0.0030309485737234,-0.002981700701639,7.474874291801825e-05,-0.2048716174252332,0.1898806538432836,-9.808797812461853,14929.0
4.01,0.2000000029802322,253.0,23.3494930267334,-0.0715659633278846,-79.78275358188812,40.45905899551821,264.9013310537338,-0.0147985937073826,0.0024251951836049,-0.8562512993812561,0.5163419246673584,-0.0172511845007605,-0.0087319217473166,0.0183778791591313,0.0056039299815893,0.0023512782063335,0.0063307527452707,-0.2050381168909371,0.2045517381839454,-9.806863553524018,14929.0
4.21,0.2000000029802322,257.0,23.35074615478516,-0.0477106422185897,-79.78275358039359,40.45905901360275,264.90316532707214,-0.0147915044799447,0.0024298038333654,-0.8562367558479309,0.5163662433624268,-0.0209673192149014,-0.0095669463367481,0.0188475724148662,-0.0042511951178312,-0.0021392465569078,-0.00106405117549,-0.2047756134532392,0.1906815031170845,-9.808608947396277,14929.0
4.4,0.2000000029802322,268.0,23.341981887817383,-0.0874695107340812,-79.78275359135381,40.45905901389771,264.90628062343603,-0.0147759383544325,0.0024602159392088,-0.8562108278274536,0.5164093971252441,-0.0144665250558406,-0.0104594946023599,0.0196338251708498,0.0060315676964819,0.0021215165033936,0.0078532993793487,-0.2036303083598613,0.2025789607129991,-9.806814436912536,14929.0
4.5,0.2000000029802322,262.0,23.3494930267334,-0.0715659633278846,-79.7827535956977,40.45905901414019,264.90725194072724,-0.0147682195529341,0.0024629468098282,-0.8562141060829163,0.5164041519165039,-0.0106772639364868,-0.0109483506161524,0.0199824508623563,-0.0052555226720869,-0.0043590660206973,-0.0022811202798038,-0.206068524196744,0.1952549759298563,-9.807224326729775,14929.0
4.7,0.3000000119209289,254.0,23.341981887817383,0.0874695107340812,-79.78275360569451,40.459059044649045,264.91127096271515,-0.0147759085521101,0.0024784845300018,-0.8561991453170776,0.5164286494255066,-0.0154019216641686,-0.0135604257179173,0.0205416665790573,0.0044981692917644,0.0003956824948545,0.0080436887219548,-0.2028577815368772,0.2021025040000677,-9.807016750574114,14929.0
4.8,0.3000000119209289,249.0,23.344486236572266,0.0318070948123931,-79.78275356886449,40.459059055324026,264.91252325630194,-0.0147750889882445,0.0024932457599788,-0.8561874032020569,0.5164481401443481,-0.0186123173225234,-0.0068284748644119,0.0209570362412907,-0.0035653081722557,-0.0012872087536379,-0.0036141595337539,-0.2064323123730719,0.1977064393647016,-9.808347576856614,14929.0
5.0,0.3000000119209289,256.0,23.34698867797852,-0.0874695107340812,-79.78275357462299,40.45905907773143,264.91489909744257,-0.0147463716566562,0.0025141078513115,-0.8561769723892212,0.5164660811424255,-0.0164261090739681,-0.0094656893291506,0.01849629886706,0.0008682089392095,-0.0002877866791095,0.0021169937681406,-0.2023604027554393,0.1978953775204718,-9.808239988088609,14929.0
5.1,0.3000000119209289,249.0,23.344486236572266,0.0318070948123931,-79.78275357464864,40.4590590965186,264.9167370662689,-0.0147473271936178,0.0025117963086813,-0.8561607003211975,0.5164932012557983,-0.0199455861260188,-0.0105646085864914,0.0187979912387544,-0.0080504240468144,-0.0041200467385351,-0.007637333124876,-0.206548452693969,0.201039352286607,-9.807137203216556,14929.0
5.31,0.3000000119209289,248.0,23.3494930267334,0.0,-79.78275359605435,40.45905913792453,264.92029868221283,-0.0147295072674751,0.0025527428369969,-0.8561586141586304,0.5164968371391296,-0.0211171561727454,-0.0159485132103269,0.0197295743806122,0.0007837265147827,-0.0007753532845526,0.0026604542508721,-0.2001561669073999,0.1937297662720084,-9.809097774624824,14929.0
5.4,0.3000000119209289,237.0,23.340728759765625,0.0,-79.78275360034414,40.459059162257056,264.92226778125763,-0.0147255668416619,0.0025590674486011,-0.85615473985672,0.5165033340454102,-0.0243089734352081,-0.0170747510155649,0.0201264966969325,-0.0081046195700764,-0.0033655073493719,-0.0054383198730647,-0.2078351142257452,0.2013884493336081,-9.808215429782868,14929.0
5.61,0.3000000119209289,230.0,23.336973190307607,0.0159035474061965,-79.7827536070116,40.45905916194707,264.92419706439966,-0.0147119089961051,0.002597366226837,-0.856135904788971,0.5165347456932068,-0.0175615719706104,-0.011617221238765,0.017281631465407,0.0006093656993471,-0.0016986614791676,0.0020816540345549,-0.202001986708492,0.1930502284504473,-9.808763898611067,14929.0
5.71,0.3000000119209289,227.0,23.336973190307607,0.0874695107340812,-79.78275360901365,40.45905918119707,264.9259219036103,-0.0147112160921096,0.0025942367501556,-0.8561366200447083,0.5165336728096008,-0.02062098911403,-0.0125732682167987,0.0176336576439337,-0.0065218023955821,-0.0031547923572361,-0.0068180225789546,-0.2063994400575757,0.2007230727374553,-9.80753481388092,14929.0
5.9,0.2000000029802322,211.0,23.336973190307607,-0.0477106422185897,-79.78275361789753,40.45905918665225,264.92759750938416,-0.0146888652816414,0.0026409255806356,-0.8561392426490784,0.5165296792984009,-0.0179061966399556,-0.0100304943556476,0.015427812598871,0.0029718216974288,-0.0006460971198976,0.003967551048845,-0.2013331200554967,0.1952001765556632,-9.80927202165127,14929.0
6.01,0.2000000029802322,197.0,23.338224411010746,0.0079517737030982,-79.78275363074017,40.45905919007616,264.92820011234284,-0.0146806556731462,0.0026537049561738,-0.8561390042304993,0.5165302753448486,-0.0160273582506131,-0.0083203963464507,0.0143165621312776,-0.0072438973002135,-0.0047555891796946,-0.0053192363120615,-0.2063351755030453,0.2005343903973698,-9.808402540683748,14929.0
6.2,0.2000000029802322,169.0,23.340728759765625,0.0159035474061965,-79.78275362951022,40.45905922585421,264.93105958557135,-0.0146730421110987,0.0026662123855203,-0.8561405539512634,0.5165278911590576,-0.0201569512191394,-0.0102148480930826,0.0147438068279548,0.0022052724380046,-0.0006401455611921,0.0007517096819356,-0.20055726762861,0.1973397275805472,-9.808420082330702,14929.0
6.3,0.1000000014901161,138.0,23.340728759765625,0.0159035474061965,-79.7827536419994,40.4590592253597,264.9341956243515,-0.0146525129675865,0.0026924302801489,-0.8561355471611023,0.5165365338325499,-0.0187165766659624,-0.009018542578508,0.0175427935472916,-0.0060454751364886,-0.0046097664162516,-0.0049024056643247,-0.2060775508359074,0.2003296830318868,-9.808687300086024,14929.0
6.5,0.2000000029802322,125.0,23.336973190307607,-0.0238553211092948,-79.78275365867209,40.45905924645753,264.9389561281204,-0.0146405110135674,0.0026997516397386,-0.8561080694198608,0.5165823698043823,-0.0174276492230823,-0.0088921972692933,0.0192236376454138,-0.0007069176062941,-0.0002079297846648,0.0043333522044122,-0.2010708176158368,0.193784858006984,-9.809106545448303,14929.0
6.6,0.1000000014901161,115.0,23.338224411010746,-0.0159035474061965,-79.78275365770655,40.459059265475226,264.94086001968384,-0.0146291898563504,0.0026940116658806,-0.856105387210846,0.5165872573852539,-0.0202889042789288,-0.0099669896262427,0.0193932445848277,-0.007487139198929,-0.002340224571526,-0.0085841752588748,-0.2065584477782249,0.2037405101023614,-9.806374141573906,14929.0
6.8,0.1000000014901161,89.0,23.341981887817383,-0.0079517737030982,-79.78275367374133,40.45905926931864,264.94664143180853,-0.0146179543808102,0.0027362615801393,-0.8560864925384521,0.5166187286376953,-0.0169021832872195,-0.0082206987834608,0.0203546480235903,-0.0083791734650731,-0.0050627356395125,-0.0004626406589522,-0.20007288062945,0.1854039341770113,-9.809421125650406,14929.0
6.9,0.1000000014901161,72.0,23.33196449279785,-0.0079517737030982,-79.78275367270868,40.45905928643766,264.9486608371734,-0.0146035505458712,0.0027521906886249,-0.8560801148414612,0.5166295170783997,-0.0186693216636645,-0.0093311254482363,0.0204869221492858,0.001132616540417,0.0071463277563452,-0.0008486819569952,-0.2014929134957492,0.2013613694161176,-9.807147728204724,14929.0
7.1,0.1000000014901161,57.0,23.34698867797852,0.0159035474061965,-79.78275369112289,40.45905929138385,264.9549442396164,-0.0145923495292663,0.0027457824908196,-0.8560597896575928,0.5166636109352112,-0.0171408108960992,-0.0078607431370707,0.0209819770640322,-0.0071715400554239,-0.0022106964606791,-0.0059059858322143,-0.2006046300753951,0.1839528014324605,-9.808305476903916,14929.0
7.2,0.2000000029802322,46.0,23.344486236572266,0.0159035474061965,-79.78275368968723,40.45905930805078,264.9570283756256,-0.0145664270967245,0.0027642289642244,-0.8560607433319092,0.51666259765625,-0.0181810214168053,-0.0089385408987737,0.0212299482453574,0.006438401993364,0.0033928430639207,0.0050182384438812,-0.2019118847697972,0.1914491328969597,-9.809647412896156,14929.0
7.4,0.2000000029802322,22.0,23.34323310852051,-0.0079517737030982,-79.78275373262409,40.45905930338331,264.96372495746607,-0.0145368780940771,0.0027804095298051,-0.8560606241226196,0.5166634917259216,-0.0140661220019879,-0.0109813567568149,0.0214627887536348,-0.0018083463655784,0.0011182952439412,-0.0050200456753373,-0.2024815862998366,0.1887819620221853,-9.809065614938737,14929.0
7.51,0.2000000029802322,22.0,23.341981887817383,0.0318070948123931,-79.78275375257674,40.459059286891495,264.9661381111145,-0.0145223056897521,0.0028115955647081,-0.8560581803321838,0.5166679620742798,-0.0089815185569483,-0.0072576382313215,0.0168021630244985,0.0025904865469783,0.0024901104625314,0.0068068150430917,-0.1999310673773288,0.1844901422783732,-9.809249802231788,14929.0
7.7,0.2000000029802322,346.0,23.344486236572266,0.0159035474061965,-79.78275375584599,40.45905931161693,264.9695354566574,-0.0144963711500167,0.0028183457907289,-0.856052041053772,0.5166788101196289,-0.0132255703094081,-0.0092064044388243,0.0173121621649602,0.0086170593276619,0.0044277594424784,0.0040419888682663,-0.207175548300147,0.1969734543375671,-9.807113229632376,14929.0
7.8,0.2000000029802322,325.0,23.3394775390625,0.0079517737030982,-79.78275380502356,40.45905931602193,264.97370134449,-0.0144993811845779,0.0028095466550439,-0.8560474514961243,0.5166863203048706,-0.0115079773315263,-0.0124092576508596,0.0188278676251884,-0.0003637890622485,-1.6688516552676447e-05,-0.0036590425297617,-0.2016718017496168,0.1880346330441534,-9.80813766181469,14929.0
8.0,0.2000000029802322,318.0,23.344486236572266,-0.0318070948123931,-79.78275383614623,40.45905933081178,264.9793720111847,-0.0144866062328219,0.0028372348751872,-0.8560407161712646,0.5166977047920227,-0.0105788881167367,-0.0103889119446649,0.0197078879053952,0.0038435407914221,0.0021643876098096,0.0090446704998612,-0.2053869398497044,0.2041099993139504,-9.807324898838996,14929.0
8.11,0.2000000029802322,310.0,23.3494930267334,-0.0636141896247863,-79.78275384011276,40.45905934518027,264.9813558921814,-0.0144892800599336,0.0028308541513979,-0.8560353517532349,0.5167065262794495,-0.0136665399850116,-0.0110888653173033,0.020130678688077,-0.0032970726024359,-0.0055886725895106,-0.0032558282837271,-0.2072829360701144,0.1990600515156984,-9.8078733676672,14929.0
8.3,0.2000000029802322,300.0,23.344486236572266,-0.0715659633278846,-79.78275387795118,40.45905935821194,264.9849667415619,-0.01447987370193,0.0028513551224023,-0.856037437915802,0.5167033076286316,-0.0109904874553982,-0.0085122648328248,0.0166413072590996,-0.0041713649407029,-0.0026120285037904,0.000389504013583,-0.2005811681225896,0.193920549955219,-9.80869256258011,14929.0
8.41,0.3000000119209289,306.0,23.34573745727539,-0.0715659633278846,-79.78275388031463,40.45905937110982,264.98663269138336,-0.0144749078899621,0.002860807813704,-0.856038510799408,0.5167014002799988,-0.013097038866598,-0.0094466183231649,0.0168966255768552,0.0001898439513752,-0.0018927688943222,-0.007880968041718,-0.2043456969223916,0.2058128729648888,-9.807440088987349,14929.0
8.6,0.2000000029802322,306.0,23.35074615478516,-0.0715659633278846,-79.7827539206203,40.45905937626883,264.98990713214874,-0.0144816376268863,0.0028667557053267,-0.8560357689857483,0.5167058110237122,-0.0095597415089149,-0.0064549016093236,0.0152617022753227,-0.0068120751529932,-0.0049709104932844,-0.0022018076851964,-0.2014018979296089,0.1847101437672972,-9.808948085904122,14929.0
8.7,0.2000000029802322,283.0,23.348241806030277,-0.0715659633278846,-79.78275392215909,40.45905938637296,264.9914309844972,-0.0144775044173002,0.0028890066314488,-0.8560436367988586,0.5166928172111511,-0.0104462903864394,-0.0074681833868367,0.0154039615744694,0.0008674893761053,0.0034789775963872,0.0030407111626118,-0.2010767013765872,0.1968741247616708,-9.807809048295024,14929.0
8.9,0.2000000029802322,232.0,23.341981887817383,-0.0874695107340812,-79.78275399447337,40.45905939937753,264.9961880311966,-0.0144870243966579,0.0028878755401819,-0.8560371994972229,0.5167032480239868,-0.0078856531668867,-0.0104849126464911,0.0180016587437751,-0.0037556975148618,-0.0013841937761753,-0.0056697181425988,-0.2012721811048686,0.1860093768127262,-9.809242785573009,14929.0
9.0,0.2000000029802322,193.0,23.34573745727539,-0.0874695107340812,-79.78275403414021,40.45905942113437,264.9976072177887,-0.014501336030662,0.0028745748568326,-0.85603928565979,0.5166993737220764,-0.009251185032907,-0.0099518691145698,0.0157343413446054,0.0057881278917193,0.0068226582370698,0.0095533775165677,-0.2017006723769008,0.1856440171971917,-9.80960999071598,14929.0
9.2,0.2000000029802322,175.0,23.3494930267334,-0.055662415921688,-79.78275404251019,40.4590594479555,265.00080441093445,-0.0144936861470341,0.0028522401116788,-0.8560417294502258,0.5166955590248108,-0.0136733314069961,-0.0114243299649846,0.016306315715101,-0.0008599045104347,0.0008455312927253,-0.0013891336275264,-0.2052488724701106,0.1931700050085783,-9.808362194895745,14930.0
9.3,0.1000000014901161,165.0,23.3494930267334,-0.0715659633278846,-79.78275408447806,40.45905946639228,265.00254736995703,-0.0144890872761607,0.0028547109104692,-0.8560408949851991,0.5166972279548645,-0.0134387905781459,-0.01019222400101,0.0142201589186839,0.0049688494764268,0.001397238811478,0.0055151446722447,-0.2006752169318497,0.1847699863649904,-9.80948076725006,14930.0
9.5,0.1000000014901161,177.0,23.35074615478516,-0.0715659633278846,-79.78275415108834,40.459059482586994,265.005835639,-0.0144478389993309,0.0028644655831158,-0.8560473322868347,0.5166875720024109,-0.0085387119160836,-0.0115119135768077,0.0128123033764419,0.0015828057657927,0.0006174490554258,0.0017657675780355,-0.206958525236696,0.1975096074678004,-9.808085036873818,14930.0
9.61,0.1000000014901161,178.0,23.340728759765625,-0.0715659633278846,-79.78275415753419,40.45905949543307,265.0071366891861,-0.0144621552899479,0.0028543956577777,-0.8560484051704407,0.5166855454444885,-0.0105036846850766,-0.0121015816264809,0.0130836813968644,0.0025994156021624,-0.0022056079469621,0.003124073613435,-0.2016701024025678,0.1850953839160502,-9.808586143255232,14930.0
9.8,0.1000000014901161,180.0,23.34573745727539,-0.0715659633278846,-79.78275420806048,40.45905951144663,265.01057206249243,-0.0144538739696145,0.0028613212052732,-0.8560554385185242,0.5166740417480469,-0.0089219389658347,-0.0088552591438951,0.012232613078513,0.0004052165022585,0.0062902644276618,0.0054264785721898,-0.2058165457472205,0.202200974766165,-9.808351085186006,14930.0
9.9,0.1000000014901161,190.0,23.34573745727539,-0.0795177370309829,-79.78275421139227,40.45905952300338,265.0118094549179,-0.0144415870308876,0.002864763373509,-0.8560554981231691,0.5166742801666261,-0.0115968237819568,-0.0093036376895431,0.0125867671667943,-0.0040686554275453,0.0001604982680873,0.0001142243709182,-0.2027299102395773,0.1895568460039794,-9.809105960726738,14930.0
10.1,0.1000000014901161,215.0,23.34573745727539,-0.0636141896247863,-79.78275427831008,40.45905954553586,265.015172706604,-0.014432062394917,0.0028537118341773,-0.8560426831245422,0.5166958570480347,-0.009684532453702,-0.0115191514986661,0.0122107001369745,0.0052511286921799,0.0006440636352635,0.005549275316298,-0.2050149655714631,0.2042554488033056,-9.80672672867775,14930.0
10.21,0.1000000014901161,221.0,23.35199737548828,-0.055662415921688,-79.78275428424256,40.459059558687095,265.0164124832153,-0.0144229428842663,0.002841078909114,-0.8560409545898438,0.5166990160942078,-0.0124715537929041,-0.0121668334645541,0.0126238054192452,-0.0063283471390604,-0.0027936503756791,-0.0064176027663052,-0.2074237443320453,0.1984481769427657,-9.80754826247692,14930.0
10.4,0.1000000014901161,233.0,23.344486236572266,-0.0874695107340812,-79.7827543355098,40.45905955371809,265.02147899723053,-0.0143888229504227,0.0028777744155377,-0.8560410737991333,0.5166996121406555,-0.0062004420785445,-0.0076940626339296,0.0154741582093681,-0.0013924092054367,-0.000432752771303,-0.0009377530659548,-0.2017538454942404,0.1966106711514294,-9.808709519505502,14930.0
10.51,0.1000000014901161,246.0,23.34573745727539,-0.0715659633278846,-79.78275437724808,40.45905957408886,265.0235634908676,-0.0143636837601661,0.0028790072537958,-0.8560421466827393,0.5166985988616943,-0.0095581156726892,-0.0077731241963691,0.013477845216934,-0.0025967028923332,-0.0017577139660716,-0.0079732667654752,-0.2067117179185152,0.2035565786249936,-9.806995700597763,14930.0
10.7,0.2000000029802322,274.0,23.348241806030277,-0.0715659633278846,-79.78275438244631,40.45905959856229,265.0262993440628,-0.014357372187078,0.002870038151741,-0.8560377955436707,0.5167059898376465,-0.0131285987086302,-0.0095273640399844,0.0141223138897123,-0.0068047097884118,-0.0054712113924324,-0.0024682991206645,-0.2001723198406398,0.1874480476789176,-9.810509877204897,14930.0
10.81,0.2000000029802322,279.0,23.34698867797852,-0.0715659633278846,-79.78275445155222,40.45905960113206,265.03036724185944,-0.0143285188823938,0.0028808417264372,-0.8560371994972229,0.5167076587677002,-0.0069395213842685,-0.0111977140173592,0.0169497054652046,0.0005625780322588,0.0005194564000703,-0.00148199533578,-0.2026422202773392,0.2012101275287569,-9.807244207262992,14930.0
11.01,0.3000000119209289,291.0,23.34573745727539,-0.0715659633278846,-79.7827545163008,40.45905962180678,265.0352074966431,-0.0143067212775349,0.0029076533392071,-0.8560305833816528,0.5167190432548523,-0.0065387793188627,-0.012228098024152,0.0183806757983046,-0.0051138144917786,-0.0016243439167737,-0.0098523395135998,-0.2057530303671956,0.2029382172971964,-9.80760381102562,14930.0
11.11,0.3000000119209289,290.0,23.354501724243164,-0.0715659633278846,-79.78275452527741,40.4590596328006,265.03706173753744,-0.0143067939206957,0.0029123181011527,-0.8560203909873962,0.5167359709739685,-0.0071259838219225,-0.0134890551442094,0.0184843181862501,0.0061688716523349,0.0016667643794789,0.0059993895702064,-0.202813616786152,0.1879740229994058,-9.809235768914226,14930.0
11.31,0.4000000059604645,298.0,23.3494930267334,-0.0795177370309829,-79.78275455477676,40.45905966420774,265.0420445666313,-0.014326212927699,0.0029173851944506,-0.8560068607330322,0.5167577862739563,-0.0126269540113353,-0.0084659554104593,0.0197416493630988,0.000951217371039,0.000634775031358,-0.003255768911913,-0.2054689105041324,0.1935632668063044,-9.807994405031202,14930.0
11.4,0.4000000059604645,302.0,23.34323310852051,-0.0874695107340812,-79.78275455595717,40.45905967827913,265.0440150365829,-0.0143242795020341,0.0029207821935415,-0.8560005426406859,0.5167683362960815,-0.014101462559364,-0.00919559195859,0.0199727420997659,0.0030479740817099,0.0008746466482989,0.0062932157889008,-0.2008028872311116,0.1852837373502552,-9.808778516650197,14930.0
11.6,0.4000000059604645,308.0,23.348241806030277,-0.0874695107340812,-79.78275460369882,40.45905971324209,265.0489166841507,-0.0143353408202528,0.0029086268041282,-0.855993926525116,0.5167790651321411,-0.0144729876302167,-0.0097454403644067,0.0206314083824755,0.0057376651093363,0.0031872743275016,0.0018344291020184,-0.2077184988185763,0.2042019833251834,-9.806790463328364,14930.0
11.7,0.4000000059604645,310.0,23.340728759765625,-0.0636141896247863,-79.78275460464029,40.459059729812935,265.05097799158096,-0.0143390139564871,0.0029116480145603,-0.8559833765029907,0.5167963504791261,-0.0171934511254515,-0.0102579057034913,0.0209613677541501,-0.0064665232785046,-0.0041757156141102,-0.0044421800412237,-0.2063551473990083,0.1950760511308908,-9.807045401930807,14930.0
11.9,0.4000000059604645,315.0,23.341981887817383,-0.0954212844371795,-79.78275465258609,40.45905971522666,265.05582522010803,-0.0143664311617612,0.0029348833486437,-0.8559756875038147,0.5168080925941467,-0.00802872036406,-0.0055473116796212,0.0212091211171667,0.0005173833924345,0.001297463546507,-0.0007484857342205,-0.2010117241926491,0.1967900710366666,-9.80836394906044,14930.0
12.0,0.5,321.0,23.344486236572266,-0.0874695107340812,-79.7827547085017,40.45905972508093,265.05801062440867,-0.0143407331779599,0.0029251030646264,-0.855965793132782,0.5168253779411316,-0.0057840598562718,-0.0079345176144548,0.0211229127758547,-0.0031427512876689,-0.0006839744164608,-0.0059103998355567,-0.2049125662073492,0.203227526564151,-9.808500189185144,14930.0
12.21,0.5,326.0,23.34573745727539,-0.0636141896247863,-79.78275471762683,40.4590597434376,265.0622771844864,-0.0143316285684704,0.0029420282226055,-0.8559471964836121,0.51685631275177,-0.0091176677574042,-0.0094525225305097,0.0216502963377461,-0.0088576879352331,-0.0037675043568015,-0.0046321107074618,-0.1992701492831111,0.1856606269441545,-9.809563797712327,14930.0
12.31,0.5,326.0,23.34323310852051,-0.055662415921688,-79.78275475605949,40.4590597583701,265.0642082557678,-0.0143347512930631,0.0029479609802365,-0.8559383153915405,0.5168709754943848,-0.0076004068212031,-0.0082237589748545,0.0214141658582661,0.0044516553170979,0.004383691586554,0.001150322263129,-0.2019810463674366,0.1978848525322973,-9.807624861001967,14930.0
12.5,0.4000000059604645,322.0,23.34573745727539,-0.0636141896247863,-79.782754820923,40.459059789915045,265.0678095088005,-0.0143156703561544,0.0029439621139317,-0.8559228777885437,0.5168969631195068,-0.0088540905397378,-0.0123812584086756,0.0211417697795313,-0.0044660549610853,0.0035490768495947,-0.0045270076952874,-0.2023860208690166,0.1861527249589562,-9.809297164678576,14930.0
12.6,0.4000000059604645,319.0,23.34573745727539,-0.0795177370309829,-79.78275482852649,40.45905980290673,265.0699368581772,-0.0143131120130419,0.0029560909606516,-0.8559146523475647,0.5169106125831604,-0.0095487053836104,-0.0133875253307057,0.0212452463441483,0.0057848873548209,0.0006628808332607,0.0079951789230108,-0.2012147504836321,0.1843290332145989,-9.80831717133522,14930.0
12.8,0.4000000059604645,314.0,23.341981887817383,-0.1113248318433761,-79.78275486829459,40.4590598390585,265.0708122119904,-0.0142907202243804,0.0029423909727483,-0.85591721534729,0.5169071555137634,-0.0122654750149723,-0.011477426193037,0.0167273571859232,0.003749068127945,0.0022223403211683,0.0008012178586795,-0.2076005312427878,0.1958282223343849,-9.807221987843514,14930.0
12.91,0.5,311.0,23.3394775390625,-0.1033730581402778,-79.78275487272963,40.459059854117,265.07249234771734,-0.014291307888925,0.0029394063167274,-0.8559122085571289,0.5169153213500977,-0.014055692591586,-0.0121152473558841,0.0170167152784914,8.33948070066981e-05,-0.0006145085790194,0.0026679190341383,-0.2017170628532768,0.1868869342468679,-9.80892118871212,14930.0
13.1,0.5,300.0,23.34573745727539,-0.0874695107340812,-79.78275492822476,40.45905987330325,265.07337193346024,-0.0142897246405482,0.0029384545050561,-0.8559001088142395,0.5169353485107422,-0.0089856894265416,-0.0121809031458954,0.0154298762480517,0.0073944297619163,0.0030106247868388,0.0054735662415623,-0.2072646087035536,0.2039379449933767,-9.807041308879851,14930.0
13.2,0.5,301.0,23.3394775390625,-0.0715659633278846,-79.7827549350458,40.45905988627214,265.0749392375946,-0.0142666473984718,0.002918757032603,-0.8558940291404724,0.5169461965560913,-0.0115505374150224,-0.0127796084657485,0.0158404919247483,-0.0061735305935144,-0.0020200975704938,-0.0076925670728087,-0.2067538178712129,0.1965234928205608,-9.80747575700283,14930.0
13.4,0.699999988079071,287.0,23.338224411010746,-0.0954212844371795,-79.78275497000783,40.4590599308368,265.0769765839577,-0.0142684681341052,0.0029305245261639,-0.8558786511421204,0.5169716477394104,-0.013610639775979,-0.0119507431301899,0.0179469360919546,0.0006756567745469,-0.0012606019154191,0.004003120586276,-0.20027932388708,0.1956403257139027,-9.80800843834877,14930.0
13.51,0.699999988079071,285.0,23.34573745727539,-0.0715659633278846,-79.7827550173265,40.4590599298792,265.07464526748663,-0.014233149588108,0.0029477069620043,-0.8558732867240906,0.516981303691864,-0.0046057225481975,-0.0102283922208829,0.0147356218692799,-0.0018102530157193,0.001853551948443,-0.0069902068935334,-0.2051928853802383,0.2043024275265634,-9.807217310070993,14930.0
13.7,0.699999988079071,273.0,23.3394775390625,-0.1113248318433761,-79.78275503323012,40.45905994803916,265.0776484475136,-0.0142416274175047,0.0029428801499307,-0.8558602929115295,0.5170026421546936,-0.0076664359206878,-0.0118161347122858,0.0152418373286391,-0.0023943441919982,-0.0048314151354134,-0.0063750362023711,-0.1987746891193092,0.1857987856864929,-9.80913051903248,14930.0
13.8,0.8000000119209291,262.0,23.34323310852051,-0.0715659633278846,-79.78275505642186,40.45905998657109,265.07441871023184,-0.0142370043322443,0.0029320956673473,-0.8558701276779175,0.5169866681098938,-0.0096415469820105,-0.0104103893194356,0.0128913096959984,0.0057617183774709,0.0032859197817742,0.0010568820871412,-0.2010596165433526,0.1930711505189538,-9.808730569481847,14930.0
14.0,0.8999999761581421,266.0,23.341981887817383,-0.1033730581402778,-79.78275510301022,40.45906003665536,265.07240645742417,-0.0142261469736695,0.0029318956658244,-0.8558725118637085,0.516982913017273,-0.010937290012585,-0.0131598239624134,0.0121992245584807,-0.0016462499042972,0.0018709590658545,-0.0035244717728346,-0.2024542505666613,0.1881226701848209,-9.808415989279748,14930.0
14.11,0.8999999761581421,267.0,23.34323310852051,-0.0715659633278846,-79.78275511042472,40.45906005167307,265.07364182329184,-0.0142307877540588,0.0029309231322258,-0.8558653593063354,0.5169945955276489,-0.0119312781051035,-0.0140550350728588,0.0124243785680483,0.0022313231602311,0.002859616652131,0.0070114154368638,-0.2006833847612142,0.1836055316403508,-9.808913002610206,14930.0
14.3,0.8999999761581421,281.0,23.340728759765625,0.1749390214681625,-79.78275514693861,40.45906008788992,265.07084666347504,-0.0142241148278117,0.0029088442679494,-0.8558513522148132,0.5170180797576904,-0.0085477210446085,-0.0108680215745648,0.0116675039693595,0.0076084556058049,0.0024908648338168,0.0063407807610929,-0.2064003536850214,0.202831048797816,-9.806904484033586,14930.0
14.4,0.8999999761581421,281.0,23.27812767028809,1.3120427131652832,-79.7827551528987,40.45906009970152,265.0720297560692,-0.0142216887325048,0.002883571665734,-0.8559100031852722,0.5169212222099304,-0.0098323360869043,-0.0110757535899228,0.0121492853264037,-0.0014137960970401,-0.0040556481108069,0.0151932751759886,-0.202986931912601,0.1793758385628462,-9.8162588596344,14930.0
14.6,0.8999999761581421,279.0,23.33071327209473,0.2226496636867523,-79.78275517772657,40.45906015500721,265.070195959568,-0.0142098972573876,0.0028894012793898,-0.8558318614959717,0.5170509815216064,-0.0112705427955337,-0.0121671136796107,0.0158149202254021,0.0039864424616098,0.0052026319317519,0.0230442266911268,-0.1951417226716876,0.1867439332790673,-9.80870601117611,14930.0
14.71,0.8000000119209291,283.0,23.32445335388184,0.2306014448404312,-79.78275518146712,40.45906017041514,265.07177327728266,-0.014221491292119,0.0028890001121908,-0.8558571934700012,0.5170086622238159,-0.0165266692322657,-0.0121381926524155,0.0158041829788356,-0.00212834472768,0.0016597404610365,-0.0206707846373319,-0.2020014202594757,0.1876396718993783,-9.80550875365734,14930.0
14.9,0.699999988079071,293.0,23.33071327209473,0.2146978974342346,-79.78275523272664,40.45906020917869,265.0663783416748,-0.0142294848337769,0.0028954145964235,-0.8558645844459534,0.5169962048530579,-0.0101476829894951,-0.0134326056814751,0.0130094384192069,-0.000893955992069,-0.0008877213113009,-0.0108168981969356,-0.21634151564911,0.1988215947523712,-9.805442095398904,14930.0
15.0,0.699999988079071,300.0,23.33321762084961,0.2306014448404312,-79.78275525868024,40.45906024077423,265.05882625436783,-0.0142054380849003,0.0029131374321877,-0.8557929992675781,0.5171151161193848,-0.007751482263797,-0.0104278631620225,0.009744087260921,0.0061576799489557,0.0042868480086326,-0.0011381554650142,-0.2012472938932478,0.1922241813316941,-9.810126299858092,14930.0
15.2,0.699999988079071,295.0,23.33071327209473,0.3021674156188965,-79.78275527282395,40.459060264577495,265.0608503088951,-0.0141806108877062,0.0029096449725329,-0.8558018207550049,0.5171012878417969,-0.0116259326899701,-0.0127754014292301,0.0103059829252195,-0.0075072487816214,-0.0009082616888917,-0.0079210428521037,-0.2086870718188584,0.1893470954149961,-9.807573405504227,14930.0
15.3,0.699999988079071,295.0,23.32570457458496,0.3339745104312897,-79.78275531298594,40.45906033091431,265.0532995328903,-0.0141862407326698,0.0028871451504528,-0.8558030724525452,0.5170992612838745,-0.0126420885182526,-0.0165722213030687,0.0097944921821385,0.0026123924180865,-0.0027876324020326,0.0132283167913556,-0.206830672211945,0.1860071658343076,-9.8087229681015,14930.0
15.5,0.699999988079071,294.0,22.18508720397949,19.386425018310547,-79.78275532972431,40.45906037203481,265.04605947589874,-0.0141898049041628,0.0029289443045854,-0.8558067083358765,0.5170928835868835,-0.0084095662661579,-0.0081509704527726,0.0097932919533168,0.0011321572819724,0.0039558005519211,0.0085945511236786,-0.2063929167576134,0.1907022607326508,-9.806657146811483,14930.0
15.61,0.699999988079071,285.0,23.27937889099121,0.8826469182968141,-79.78275533309942,40.45906038413653,265.04706470823294,-0.0141592938452959,0.0030336065683513,-0.855850338935852,0.5170209407806396,-0.0104780073924321,-0.0083098707704925,0.010381324367931,-0.0009463556925766,-0.0113500654697418,0.0077522713690996,-0.2061883555725217,0.1719422002136707,-9.796973572969437,14930.0
15.8,0.699999988079071,281.0,23.33196449279785,0.1669872552156448,-79.78275538810156,40.459060453188044,265.0387797818184,-0.0141294645145535,0.0030453163199126,-0.8558272719383241,0.517059862613678,-0.0101410806866761,-0.0137924869199576,0.008639780583898,0.0124854408204555,-0.0188860706984996,0.0134720169007778,-0.2126951371505856,0.2291479229182005,-9.804689558744432,14930.0
15.91,0.699999988079071,278.0,22.79358291625977,8.174423217773438,-79.78275539578182,40.45906046838665,265.03970234251017,-0.0141848595812916,0.0031055761501193,-0.8558541536331177,0.517013430595398,-0.0155417318063868,-0.0132377326786033,0.0106892674441069,-0.0155657408758997,-0.0078973565250635,-0.0322401188313961,-0.239170452542603,0.2215213995426892,-9.824194700717928,14930.0
16.1,0.8000000119209291,277.0,23.32320022583008,0.3021674156188965,-79.78275544416985,40.45906053604848,265.0307850704193,-0.0141455186530947,0.0031876342836767,-0.8558809757232666,0.5169696807861328,-0.0093591228394413,-0.0175466413010391,0.0084399313562019,0.0198084749281406,0.0364901088178157,0.0121888713911175,-0.179655975010246,0.1619342520833015,-9.81274819135666,14930.0
16.21,0.8000000119209291,275.0,23.32695770263672,0.1908425688743592,-79.78275545490095,40.45906055440355,265.0316511259079,-0.0141475237905979,0.0031223462428897,-0.8558622002601624,0.5170009732246399,-0.01881041504766,-0.0158259021546279,0.0082436201891533,-0.0130636887624859,-0.0358842201530933,0.0056526265107095,-0.2170625869743526,0.1949527114257216,-9.807549431920052,14930.0
16.4,0.8000000119209291,272.0,23.23931312561035,2.226496696472168,-79.78275544556138,40.45906064456269,265.02185951328283,-0.0141617599874734,0.0030402813572436,-0.8558458089828491,0.5170283317565918,-0.0242552677498116,-0.0134940518297648,0.0091332418740555,-0.0025300330016762,0.0125733278691768,0.0123880626633763,-0.2144855363108218,0.2054414834082126,-9.82204643368721,14930.0
16.5,0.8000000119209291,266.0,23.15793037414551,3.840706825256348,-79.78275549025952,40.45906066238475,265.01076065158844,-0.0141537068411707,0.0030513196252286,-0.8558433651924133,0.5170324444770813,-0.014448126841036,-0.0116100049142057,0.0095075511638826,-0.0226616542786359,0.0031812062952667,-0.0067123994231224,-0.2111219255067409,0.2028833265602588,-9.806936643719672,14930.0
16.7,0.8000000119209291,258.0,23.07404327392578,5.693470001220702,-79.78275550067491,40.45906069218345,265.0125156507492,-0.0141619313508272,0.0030676263850182,-0.8558920621871948,0.5169515609741211,-0.0179799265722772,-0.0098554765280576,0.0107539331200111,-0.0239113289862871,-0.0717133283615112,-0.0125454841181635,-0.1709562500193715,0.1709091616608202,-9.813393723964694,14930.0
16.8,0.8000000119209291,261.0,23.02396011352539,6.687441825866699,-79.78275554439722,40.45906074492419,265.00135420417786,-0.0141086438670754,0.0030663455836474,-0.8559286594390869,0.5168924331665039,-0.008530281829189,-0.0153580517482064,0.0052456326454846,0.0420526079833507,0.0057166060432791,0.0719027370214462,-0.1478879610076546,0.1494508577976376,-9.830367021560669,14930.0
17.0,0.6000000238418579,258.0,22.910024642944336,9.295623779296877,-79.78275556001759,40.45906079945666,264.99448774909973,-0.0140794301405549,0.0033569186925888,-0.8560699820518494,0.516657292842865,-0.023085139883141,-0.013123594940132,0.0078020823029827,-0.0579722821712493,-0.181756928563118,0.1160403564572334,-0.2367288014665246,0.2295800687000155,-9.802434287667277,14929.0
17.11,0.6000000238418579,259.0,22.84616851806641,10.742846488952637,-79.7827555654733,40.459060815258326,264.9955098495484,-0.0139992758631706,0.0035945088602602,-0.8561006784439087,0.5166069269180298,-0.0237291903685952,-0.0098322901812873,0.0138582920988037,-0.0546242073178291,-0.0073126824572682,0.0996450707316398,-0.1751521571539342,0.1172812771238386,-9.853379323482514,14929.0
17.3,0.6000000238418579,259.0,22.71345138549805,13.573678016662598,-79.78275564120422,40.459060868464974,264.98273728942866,-0.0130050703883171,0.0040189824067056,-0.8561075925827026,0.5166184306144714,-0.0014015483380597,-0.0195740450665173,0.0130647992162961,0.0646373480558395,0.040127258747816,-0.0325879976153373,-0.185271896738559,0.1916208948567509,-9.881152428388596,14929.0
17.4,0.6000000238418579,256.0,22.62705993652344,15.164032936096191,-79.78275565783333,40.45906087931844,264.9843245611191,-0.0117783742025494,0.0043545276857912,-0.8561744689941406,0.5165342688560486,-0.0023981613040487,-0.0213059183801439,0.0203822018595577,0.023958895355463,0.0684983804821968,-0.0253308732062578,-0.1128072617948055,0.1390815060585737,-9.937235412597657,14929.0
17.6,0.6000000238418579,260.0,22.47931861877441,18.599199295043945,-79.78275570233298,40.459060918518645,264.976345287323,-0.0075015961192548,0.0028703820426017,-0.8560791611671448,0.5167824625968933,-0.0085252169515756,-0.0315895833547012,0.0291518003267611,0.0074850860983133,0.1368495523929596,-0.043154876679182,-0.2467607231810689,0.0576991180703044,-9.89716561317444,14929.0
17.7,0.5,260.0,22.39417839050293,20.388347625732425,-79.78275571707208,40.45906094555246,264.9791015253067,-0.0076464256271719,0.0006318156956695,-0.8558696508407593,0.5171348452568054,-0.0297181389400045,-0.0129297317354668,0.0320132286108986,-0.0693831890821456,-0.0030156834982335,0.0184740908443927,0.0337576364795677,0.0008059587352909,-9.896368052959444,14929.0
17.9,0.5,262.0,22.217639923095703,23.871225357055664,-79.7827556878067,40.45906099913913,264.9737664327621,-0.0178405363112688,-0.0033669075928628,-0.8542027473449707,0.5196231603622437,-0.0772071430554326,0.0373610809135313,0.1251869446646003,-0.1572940498590469,-0.0068279053084552,-0.0671172887086868,0.0851447514910251,-0.1199464928358793,-10.093780578374863,14929.0
18.0,0.6000000238418579,266.0,22.32030868530273,18.64690971374512,-79.78275577069674,40.45906106212732,264.96301518535614,-0.0200710967183113,-0.0041935504414141,-0.8531318902969359,0.5212921500205994,-0.1039995536142232,0.0483852216339322,0.1972257400463185,-0.0871575102210044,0.0011777298059314,-0.1205068901181221,0.1241327155195176,0.1493267049640417,-10.790807275772094,14929.0
18.2,0.699999988079071,273.0,22.45427703857422,18.60715103149414,-79.78275549734329,40.459061221552965,265.0175517663956,-0.0055938591249287,-0.008827582001686,-0.8519757390022278,0.5234768986701965,-0.1389898524087323,0.0836811100340469,0.295134543147361,0.1981726586818695,0.0553023554384708,0.0107627268880605,0.0198666871944442,0.0119121190323494,-10.692322622537612,14930.0
18.3,0.699999988079071,273.0,22.40043830871582,19.61702537536621,-79.78275503331506,40.45906151064954,265.02183686351776,0.0037008267827332,-0.0051131332293152,-0.8521446585655212,0.5232683420181274,-0.146882015588739,0.0859483439091962,0.2389691886873924,0.2798644602298737,0.0511413402855396,0.0720570757985115,0.3149781051278114,-0.0411697520501911,-9.743155215382576,14930.0
18.5,0.8000000119209291,282.0,22.425479888916016,18.93317413330078,-79.78275471168091,40.45906190929737,265.03892664766306,0.0140473525971174,0.0001620765251573,-0.853080153465271,0.5215908288955688,-0.148370425735383,0.0636733863312008,0.1518985450253103,0.0320738144218921,0.1080866158008575,0.0136211346834898,0.0810725403763353,0.0329806557227857,-9.604962705373763,14930.0
18.61,0.8000000119209291,291.0,22.276485443115234,22.153642654418945,-79.78275457169224,40.4590619968658,265.05276887273794,0.0145182721316814,-0.0036877279635518,-0.8533219695091248,0.5211691856384277,-0.1318920483123462,0.0638548832977383,0.1142390080478088,-0.0449168570339679,0.0563682690262794,-0.004755800589919,0.1560586043447256,0.0262349126022309,-9.43996772825718,14930.0
18.8,0.8999999761581421,299.0,22.2714786529541,21.764005661010746,-79.78275427855938,40.459062158632285,265.07927040910715,0.0095997573807835,-0.0085961343720555,-0.8533449172973633,0.5211875438690186,-0.1039781534064265,0.0835356868212546,0.1221337804303381,-0.0853478386998176,-0.0635623410344123,-0.0179642178118228,0.2103590283170342,0.0505303220450878,-9.656586602926255,14930.0
18.9,0.8999999761581421,300.0,22.280242919921875,21.461837768554688,-79.78275414356409,40.45906221080243,265.09174041605,0.0035437154583632,-0.0106085408478975,-0.8532546162605286,0.5213747620582581,-0.1004077593532906,0.0790929309101367,0.1244555607412085,-0.0777176097035408,-0.0485913045704364,0.0281881671398878,0.2675165114924312,0.030649569556117,-9.78445702314377,14930.0
19.1,1.0,302.0,22.280242919921875,21.445934295654297,-79.78275366680965,40.45906234942508,265.12903617477417,0.0035981545224785,-0.006029455922544,-0.8535441756248474,0.520973265171051,-0.0964507149480608,0.1054183807113388,0.1869536463378919,0.1072991043329238,-0.0356202572584152,0.0445114001631736,0.1836509754694998,0.0434827506775036,-9.956796687841416,14930.0
19.2,1.100000023841858,297.0,22.30528259277344,21.15966987609864,-79.78275350486732,40.459062389319854,265.14879129982,0.0048807044513523,-0.002693798393011,-0.8539109826087952,0.5203893780708313,-0.0978090584143708,0.11144284311084,0.200280279788214,0.0656796917319297,-0.0483605377376079,0.0215415395796298,0.1891255773045122,0.0170379789930302,-9.888751469850536,14930.0
19.41,1.100000023841858,300.0,22.2426815032959,22.26496696472168,-79.78275309325919,40.45906248699296,265.1890868411064,0.0057668201625347,-0.0056334561668336,-0.8545116782188416,0.5193697810173035,-0.0951130572077923,0.1215125355761689,0.2265254146475409,0.0270661991089582,0.1258883476257324,0.068987525999546,0.1205944282840937,-0.1603880655393004,-9.900160557031631,14930.0
19.5,1.100000023841858,302.0,22.256452560424805,21.946895599365234,-79.78275291419251,40.459062540936046,265.2000647649765,0.007068998645991,-0.0085876639932394,-0.8546140193939209,0.5191447734832764,-0.0899714717821995,0.1302631469727651,0.220085219359861,0.0026948482263833,0.0294997282326221,0.0543356388807296,0.1882285047881304,0.0233957879059016,-9.779661721587182,14930.0
19.7,1.100000023841858,298.0,22.272729873657227,20.6507568359375,-79.78275256043044,40.45906257981689,265.24476586437225,0.0094537371769547,-0.0098650986328721,-0.8544092178344727,0.5194211602210999,-0.0745577001229874,0.121391768144293,0.2265031684462169,0.1227321177721023,0.0666146576404571,-0.006975713185966,0.1996910939924419,-0.018475323957391,-9.824570091962816,14930.0
19.8,1.100000023841858,293.0,22.283998489379886,21.11195945739746,-79.78275232271115,40.45906265458768,265.2630954251289,0.0113009922206401,-0.0101663218811154,-0.8542596697807312,0.5196244120597839,-0.0777471061410004,0.1256044588607239,0.2478629622916523,0.0413587652146816,-0.0113487243652343,0.0169587731361389,0.0958066101931035,0.0049766303377691,-9.931747215986253,14930.0
20.0,1.100000023841858,293.0,22.23516845703125,21.366416931152344,-79.78275199426159,40.459062652295664,265.31641172027594,0.0149008901789784,-0.0102992011234164,-0.853908360004425,0.520108163356781,-0.0573058122489317,0.1074487698932275,0.2895740842092832,-0.0075846938416361,0.0359020046889781,-0.0400471575558185,0.172127520404756,0.0993283881805837,-9.895189254283906,14930.0
20.1,1.100000023841858,288.0,22.32781982421875,14.217771530151367,-79.78275186930756,40.4590626485034,265.3465102777481,0.0154995424672961,-0.0106635447591543,-0.8538026809692383,0.5202568173408508,-0.0430850431303644,0.1002365638761726,0.3024748153890894,0.0108990054577589,-0.0164915714412927,-0.0463065505027771,0.1848077557235956,0.0371991728525608,-9.905439423322678,14930.0
20.31,1.100000023841858,285.0,21.96597671508789,26.89289855957031,-79.78275169108802,40.45906258810029,265.3853403196335,0.0126901948824524,-0.010654249228537,-0.8536610007286072,0.5205654501914978,-0.0142176983484452,0.0859936251065144,0.0692663607102522,-0.0869624614715576,-0.0570007525384426,-0.0079169003292918,0.1703597061149776,-0.0954587374068796,-8.979821092486382,14930.0
20.4,1.2000000476837158,280.0,22.09243392944336,24.10977935791016,-79.78275159187865,40.459062564025146,265.3916643724441,0.0045794523321092,-0.0091799367219209,-0.8535866141319275,0.5208500027656555,-0.0102445706670681,0.0828787944167615,0.0780617795784946,-0.0724335685372352,-0.0806199088692665,0.0687936916947364,0.1404593293368816,-0.1392195186205208,-9.693526387810708,14930.0
20.5,1.2000000476837158,275.0,22.113719940185547,24.904956817626957,-79.78275121631455,40.45906255141752,265.41421793556214,-0.0004259099659975,-0.0082045309245586,-0.8534122109413147,0.5211719274520874,-0.0050647341238538,0.0952441179036729,0.1978788160109663,-0.0792267024517059,-0.0531006567180156,-0.0904903039336204,0.0983600253146142,0.1657305203005671,-10.342088438272476,14930.0
20.71,1.100000023841858,274.0,21.838268280029297,30.62228202819824,-79.78275102441083,40.45906247946853,265.470659421444,0.0055449660867452,-0.0073788240551948,-0.8531049489974976,0.5216577649116516,0.0026391381025983,0.0944692171174657,0.3837988112581186,0.1357087045907974,0.1562587171792984,0.0578901618719101,0.1887832593731582,-0.0548993844212964,-10.874158165454862,14930.0
20.9,1.100000023841858,267.0,21.749372482299805,30.685895919799805,-79.78275060579459,40.45906247141056,265.5555407867432,0.0101685505360364,-0.0102882431820034,-0.8527321219444275,0.5221481919288635,-0.0217590345789316,0.1149071491374824,0.7499964199701578,-0.0538917556405067,-0.0270406231284141,-0.068123809993267,0.1261446510627865,0.061587114483118,-11.375384999513626,14930.0
21.0,1.100000023841858,262.0,21.72808837890625,32.14107131958008,-79.78275048757688,40.45906247999565,265.6299146876335,0.0092062633484601,-0.0105591202154755,-0.8526281714439392,0.5223302841186523,-0.023786299199073,0.11873452910536,0.9702092829425014,-0.1454737931489944,-0.0578794740140438,-0.1228471025824546,0.1801770898327231,0.0847674233559519,-12.02359095454216,14930.0
21.1,1.2000000476837158,255.0,21.70179557800293,33.97792816162109,-79.78275039332281,40.45906244908528,265.7385105655193,0.00756491208449,-0.0104052629321813,-0.8525012135505676,0.5225670337677002,-0.0179564394317397,0.1155209293093919,1.1963754784332137,-0.1299318373203277,-0.0203384160995483,-0.0924569964408874,0.2293544027209282,0.0834692683909088,-12.04995955824852,14930.0
21.31,1.2999999523162842,252.0,21.52901268005371,35.15479278564453,-79.78275030090248,40.45906241376108,266.0079415716827,0.006432675756514,-0.0098766610026359,-0.8529401421546936,0.5218757390975952,0.0053814969970794,0.1083327010294352,1.6693118862833134,0.1109424456954002,0.0300161130726337,0.0383417531847953,0.2463729979656637,-0.0694779776874929,-12.35678050518036,14931.0
21.4,1.399999976158142,245.0,21.60538673400879,34.83672332763672,-79.78275023055092,40.45906238623558,266.18860207653046,0.0075347614474594,-0.0101530812680721,-0.8533316254615784,0.5212152600288391,-0.0021713494386867,0.1107102481300321,1.9374835302486235,0.0127858715131878,0.0023105288855731,-0.0174950379878282,0.1985825715400278,0.0470832742145285,-12.392905772924426,14931.0
21.61,1.5,242.0,21.51774406433105,36.24418640136719,-79.78275015236113,40.459062365378365,266.589219139576,0.0078508341684937,-0.0100498739629983,-0.85384202003479,0.5203762054443359,-0.0058727809417764,0.1115267389967969,2.4152835769056105,0.0273418556898832,-0.0215924084186554,0.0050201485864818,0.2289441109076142,-0.0468707964476198,-12.451297237873078,14931.0
21.8,1.399999976158142,233.0,21.7456169128418,31.6560115814209,-79.78275015274377,40.45906235339877,267.0624232158661,0.0043319538235664,-0.0092220203951001,-0.8536927103996277,0.5206774473190308,-0.0172667235519743,0.0911765641676251,2.8419340386594345,-0.0811989977955818,-0.0103001901879906,-0.0578005872666835,0.2510702490247786,-0.0959973481949418,-12.436913087368012,14932.0
21.9,1.5,232.0,21.77316093444824,30.685895919799805,-79.78275011626354,40.45906234720177,267.3546817169189,0.0031912436243146,-0.0107683464884758,-0.8534988164901733,0.520973801612854,-0.0055735230171019,0.0868204044850298,2.994359123794452,-0.0563182272017002,-0.0116155399009585,-0.0275005642324686,0.1802951122261584,-0.0459138904698193,-11.46693017721176,14932.0
22.0,1.399999976158142,225.0,21.811975479125977,29.00012016296387,-79.78275018071997,40.45906237962528,267.5973523721695,0.0044762757606804,-0.0123098446056246,-0.8534080982208252,0.5210787653923035,0.0007106414358659,0.0818246434110476,3.0438835492160043,-0.0014427793212234,0.0681104585528373,0.1042222306132316,0.1649688290990889,-0.1181071506533771,-11.018435872793198,14932.0
22.2,1.399999976158142,219.0,21.843276977539062,27.91072654724121,-79.7827501286814,40.459062403250606,268.2191991672516,0.0070522702299058,-0.0121180806308984,-0.8534486889839172,0.5209883451461792,-0.0196219988731181,0.0968262637562558,3.149360803955064,-0.0198875237256288,-0.0099208448082208,0.0577246285974979,0.2143139936216176,-0.1988988876342772,-10.283875898122789,14933.0
22.4,1.399999976158142,212.0,21.870820999145508,28.03000259399414,-79.78275012554127,40.459062594714354,268.7761695251465,0.0055930684320628,-0.013045035302639,-0.853653073310852,0.5206486582756042,-0.0584917936446825,0.0762455759445455,3.1199867967357755,-0.2051135152578354,-0.0342126786708831,-0.1387870162725448,0.2181251174211502,-0.0988731458969414,-10.078816384077072,14933.0
22.51,1.399999976158142,210.0,21.88960266113281,26.21699905395508,-79.78275013044208,40.45906265628278,269.0388736591339,0.0051572392694652,-0.0139862205833196,-0.8537145256996155,0.5205279588699341,-0.0401988042425468,0.0673044479777389,3.0758076845950013,0.0498975180089473,0.0279828123748302,0.0315515324473381,0.1540961325913668,-0.007976936046034,-9.836039990186691,14934.0
22.6,1.2999999523162842,192.0,21.932172775268555,27.15530776977539,-79.7827501223147,40.45906271304069,269.34628389930725,0.0057533695362508,-0.0144358463585376,-0.8536567687988281,0.520604133605957,-0.0250403820573929,0.0619428565066429,3.0677782123545865,0.2399316132068634,0.0605231411755085,0.1446475088596344,0.2610319127887488,-0.2801140452548861,-9.774464131593705,14934.0
22.81,1.2000000476837158,189.0,21.997278213500977,24.594837188720703,-79.78275005882173,40.459062521175454,269.91449593162537,0.0085905557498335,-0.0177498944103717,-0.8534117937088013,0.5208642482757568,-0.0511435483356669,0.0690216716998375,2.9956216263040094,-0.0221016705036163,0.0863572210073471,-0.0969388261437416,0.1919100396707654,0.1539773792959749,-9.613362230658534,14934.0
22.9,1.0,166.0,21.962221145629886,25.64447021484375,-79.78275007023785,40.45906258683353,270.21230004882807,0.0079579316079616,-0.0192858688533306,-0.8532973527908325,0.5210070610046387,-0.0575642285109558,0.0687841370343819,2.9574120897072715,-0.1283633261919021,0.0016104272799566,-0.0397832728922367,0.2614209353551269,0.0478475738223642,-9.46686258137226,14935.0
23.11,1.0,151.0,21.86581420898437,27.43362045288086,-79.78275023607294,40.45906263616631,270.75493119812006,0.007252977695316,-0.0161904413253068,-0.8535061478614807,0.5207808017730713,-0.0249364985067593,0.0366249797523787,2.8410221173627965,0.1431906819343567,-0.0378049872815609,0.1381546258926391,0.2403646915219725,-0.2623552473261952,-9.566544159650803,14935.0
23.21,0.8000000119209291,151.0,21.92716407775879,25.71603775024414,-79.7827502923837,40.45906271275782,271.03847478485113,0.0076095494441688,-0.0115306777879595,-0.8537750840187073,0.5204588770866394,-0.0483377464450387,0.0185585725791388,2.832041756820951,-0.0473709180951118,-0.2183821946382522,-0.0072683687321841,0.2655954270623624,0.0776331167668104,-9.643170166611672,14936.0
23.41,0.8000000119209291,155.0,21.8670654296875,26.94061088562012,-79.78275044731879,40.45906310047382,271.721781955719,0.0083951754495501,-0.0039317938499152,-0.8540960550308228,0.5200327038764954,-0.0974287844622094,-0.0651625520112305,2.8591550326194763,-0.0327131934463977,-0.0466846227645874,0.0162553489208221,0.1834127562493085,-0.0683148888358846,-9.708512216806412,14936.0
23.5,0.8000000119209291,154.0,21.95345687866211,25.06399154663086,-79.78275032121125,40.45906294113728,272.10526441192627,0.0080657405778765,-0.0054228962399065,-0.8542003035545349,0.5198531746864319,-0.079399170210765,-0.0446188067252832,2.91322337973476,-0.1010199189186096,0.0984890088438987,-0.1414547264575958,0.1141457990929484,0.2232935626991093,-9.762028273344038,14937.0
23.6,0.699999988079071,151.0,21.910886764526367,25.66037368774414,-79.78275039327606,40.45906300982541,272.39626287078863,0.0069883586838841,-0.0093463957309722,-0.8541296720504761,0.5199291706085205,-0.0647878026812443,-0.0359237341148274,2.9083121111361137,-0.16182841360569,0.0434800647199153,-0.0038335984572768,0.186426301561296,-0.0260732827708125,-9.79132574737072,14937.0
23.8,0.699999988079071,174.0,21.962221145629886,25.326400756835927,-79.78275034377786,40.459062799579065,273.064733253479,0.0058515686541795,-0.0146879572421312,-0.85384202003479,0.5202922224998474,0.0140915872566883,0.0194118318112687,2.9230635320965868,0.236484944820404,0.0705851390957832,0.1222395971417427,0.3025044592469931,-0.2738872356712818,-9.673607847690583,14938.0
23.91,0.8000000119209291,191.0,21.905879974365234,24.809534072875977,-79.78275040479551,40.459062839293495,273.3558013305664,0.0057727051898837,-0.0149661870673298,-0.8537514209747314,0.5204336643218994,-0.0095613228599203,0.0227662617524132,2.8980137709645986,-0.080355703830719,-0.0945261344313621,-0.0939515903592109,0.2742438427358866,0.1830863719806075,-9.561400948762897,14938.0
24.1,0.8000000119209291,161.0,21.842023849487305,27.560848236083984,-79.78275033043346,40.45906258661935,274.02944158172613,0.0064693810418248,-0.0142274964600801,-0.8536379337310791,0.5206323266029358,-3.303825240004096e-05,0.0384536687766571,2.896293117131324,-0.0647367611527443,-0.0885557606816291,-0.0724575370550155,0.2344454454816878,0.1487381004821509,-9.59525515794754,14939.0
24.2,0.8000000119209291,171.0,21.8670654296875,27.05193519592285,-79.78275038526782,40.459062616994,274.3185403213501,0.0061697619967162,-0.0129790483042597,-0.8536807894706726,0.5205984115600586,0.0090747193453203,0.0306875476969097,2.8847559481538454,0.0983083620667457,0.0774134173989296,0.0830615684390068,0.2766307675279677,-0.0811244800966233,-9.688971406817435,14939.0
24.41,0.8000000119209291,150.0,21.87958526611328,26.41579246520996,-79.78275037384853,40.4590623018357,274.99048207855225,0.006764218211174,-0.0092591922730207,-0.8537830114364624,0.5205028653144836,0.0209613269080839,0.0450160061936432,2.9076097197198254,0.1036925986409187,0.0155564295127987,0.0761478245258331,0.2421622717939317,-0.08162751423195,-9.614199551939963,14939.0
24.6,0.8000000119209291,152.0,21.85329246520996,26.511213302612305,-79.78275034725495,40.45906203461324,275.68578313446045,0.0071538733318448,-0.0059627220034599,-0.8538818359375,0.5203837156295776,0.0187398671017625,0.0362235484685384,2.9607635150507043,0.1860095858573913,0.0447703562676906,0.1442140936851501,0.2227159308828413,0.0315614245645701,-9.654941781163217,14940.0
24.7,0.699999988079071,170.0,21.88709831237793,26.3521785736084,-79.78275037674939,40.459062025739385,275.9818675384521,0.0061078653670847,-0.0064926822669804,-0.853826642036438,0.5204812288284302,-0.0010429034969645,0.0405276915115276,2.958837154555228,-0.1013037413358688,-0.1057011634111404,-0.0598818287253379,0.2765807738341391,0.0886613126657903,-9.736917990446091,14940.0
24.8,0.8000000119209291,142.0,21.93968391418457,25.636518478393555,-79.78275036926993,40.45906216120608,276.3840052947998,0.0052192062139511,-0.0073224357329308,-0.8538452982902527,0.5204492211341858,0.01631231027526,0.0218727803647894,3.027701675123892,0.1673997640609741,0.1120840683579444,0.0618816167116165,0.2794316751882434,-0.0906455287523567,-9.765603845715525,14941.0
25.01,0.8000000119209291,137.0,21.82449531555176,27.76759529113769,-79.78275043862959,40.45906216056572,276.98736165618897,0.0040001771412789,-0.0111477933824062,-0.8537476658821106,0.5205522775650024,0.0177431198768963,0.0359586225252182,3.004583348123868,-0.0112637365236878,0.1305951029062271,-0.0064974133856594,0.2397509166039526,0.0562839731108397,-9.675032814145087,14941.0
25.1,0.8000000119209291,132.0,21.922155380249023,25.52519416809082,-79.78275040797041,40.459061953228655,277.3715665206909,0.0035608583129942,-0.01318094227463,-0.8537760972976685,0.52046138048172,0.026341135859327,0.0609146286088424,3.061252254113652,-0.2193005532026291,-0.0564978197216987,-0.0825372487306594,0.2210719862021506,0.1247855206020176,-9.79436396062374,14942.0
25.3,0.8000000119209291,127.0,21.888351440429688,26.36808204650879,-79.7827505191802,40.45906177171553,278.0251929626465,0.0042332480661571,-0.0157840084284544,-0.8539137244224548,0.5201579928398132,0.0666907565927656,0.0701235747007229,3.077078621154313,0.1542482078075409,0.0386523008346557,0.1214154660701751,0.3266398651152849,-0.280365091804415,-9.84340982079506,14943.0
25.5,0.8000000119209291,120.0,21.82073974609375,28.32421875,-79.78275051034376,40.459061683699176,278.6589076385498,0.0061649172566831,-0.0144437346607446,-0.8538836240768433,0.5202270746231079,0.0434538299600402,0.0710129600545162,3.090696727972765,0.1241963505744934,0.106879785656929,0.0884940847754478,0.2511774906143546,0.1175467407144606,-9.775238887667657,14943.0
25.61,0.8000000119209291,133.0,21.89961814880371,25.994348526000977,-79.78275054775371,40.459061684418174,278.9689328536988,0.0059642512351274,-0.0134276989847421,-0.8537862300872803,0.5204163789749146,0.0053193604761527,0.0686563415511021,3.1095012592594125,-0.2581948339939117,-0.1425112187862396,-0.1110296845436096,0.2036506274342537,0.2248996832035482,-9.915610070228578,14943.0
25.7,0.6000000238418579,155.0,21.885847091674805,26.16133689880371,-79.78275058673633,40.45906169088622,279.2798411712646,0.0046995910815894,-0.0122646987438201,-0.8537915945053101,0.5204492211341858,0.0249186872410515,0.0583176236709028,3.1069472639547007,0.0712551772594451,-0.0194620601832866,0.0806857869029045,0.2194034832157194,-0.1137681329157203,-9.8061841070652,14944.0
25.9,0.6000000238418579,165.0,21.842023849487305,26.08976936340332,-79.78275054757661,40.45906181889078,279.9010178909302,0.0025541535578668,-0.0086013199761509,-0.8536978960037231,0.5206913948059082,0.0088451222214499,0.0310448195898492,3.087610836288885,0.0734166279435157,-0.0411982014775276,-0.063279241323471,0.2307483058422804,0.1332308368943631,-9.731264902353288,14944.0
26.0,0.6000000238418579,199.0,21.80070686340332,26.82928466796875,-79.78275052400932,40.459061749271626,280.21310208892817,0.0024669717531651,-0.0074165146797895,-0.8536697626113892,0.5207561850547789,0.0224057004553531,0.0257824349690104,3.0779954665243507,0.1527703553438186,0.0929048731923103,0.0927381664514541,0.2686970826052129,-0.179884911775589,-9.824568922519685,14945.0
26.2,0.6000000238418579,196.0,21.8570499420166,26.46350288391113,-79.78275056399299,40.459061777369854,280.831316696167,0.0048436517827212,-0.009660474024713,-0.8537610173225403,0.5205529928207397,0.007269790330152,0.0355653779851803,3.09799874328166,0.0804187282919883,0.1497937589883804,0.0744590312242508,0.2463447120599449,-0.1257373559474945,-9.869772577285769,14945.0
26.4,0.6000000238418579,202.0,21.80821990966797,27.64831733703613,-79.78275047064822,40.45906194370236,281.4554984436035,0.0060355840250849,-0.0115273986011743,-0.8539764285087585,0.5201490521430969,-0.0068030625583245,0.0476636223647313,3.0948843391245155,0.133173182606697,0.0361382737755775,0.0201635733246803,0.2061091988906264,0.0174947230517864,-9.83449632525444,14946.0
26.5,0.699999988079071,198.0,21.87833404541016,25.93868637084961,-79.78275051511106,40.45906202880219,281.7712495193481,0.0046555264852941,-0.0118033997714519,-0.8540793061256409,0.5199880003929138,-0.0206387664951535,0.0322003961634213,3.094179473899315,0.0932750776410102,0.0653682127594947,0.1196947172284126,0.2656112693622709,-0.1857740081101656,-9.82889820098877,14946.0
26.6,0.699999988079071,197.0,21.749372482299805,28.38783264160156,-79.78275054414134,40.459062075394776,282.0802733764648,0.004071136470884,-0.0122536877170205,-0.8543163537979126,0.5195930600166321,-0.0393210213635527,0.0298017388402134,3.087303802501113,-0.1964764446020126,-0.0433314852416515,-0.1210972815752029,0.2149027899652719,0.3278944217786193,-9.729027172923088,14947.0
26.81,0.8000000119209291,206.0,21.86831855773925,25.898927688598643,-79.78275058902967,40.45906216678848,282.7040278778076,0.0035066178534179,-0.0134373381733894,-0.8546960353851318,0.5189429521560669,-0.0205177758375354,0.0326807057895141,3.1148952193273405,-0.0659843385219574,-0.0560684762895107,0.0253808628767728,0.2570432346314192,-0.0625085260346531,-9.969819606542588,14947.0
27.0,0.699999988079071,220.0,21.832008361816406,26.360130310058597,-79.78275067240135,40.45906229815347,283.32319902038574,0.003784395288676,-0.0132360868155956,-0.8547353148460388,0.5188816189765929,-0.0298067560208207,0.0216713058571352,3.0773866967077974,0.0241100788116455,0.0360031276941299,0.0489122085273265,0.2537556376308202,-0.023823402095586,-9.712936804890631,14948.0
27.1,0.699999988079071,227.0,21.823244094848643,26.28856468200684,-79.78275070381315,40.45906236821787,283.63071321105963,0.0041529568843543,-0.0131126847118139,-0.8545544743537903,0.5191797018051147,-0.0526155856045908,0.0240443684446469,3.0771412938589533,-0.1677639335393905,-0.0062773083336651,-0.1760688722133636,0.2103632310032844,0.3536441342532634,-9.737913771271709,14948.0
27.2,0.8000000119209291,230.0,21.845781326293945,25.7876033782959,-79.78275073156519,40.45906244331503,283.9383952484132,0.0033120801672339,-0.0125042600557208,-0.8542726039886475,0.519664466381073,-0.0437328953690237,0.0227427597932374,3.079856058638568,-0.0045258710160851,-0.007223205640912,0.0578824207186698,0.2253014965541661,-0.1368040886521339,-9.828037490844729,14948.0
27.4,0.8000000119209291,228.0,21.882089614868164,25.06399154663086,-79.78275074258217,40.459062504264026,284.5608908996582,0.0025372644886374,-0.0107743209227919,-0.8542458415031433,0.5197515487670898,-0.0247678019715763,0.0228348523525668,3.067915842144962,0.2917346060276031,0.0911608189344406,0.1364338248968124,0.2605506869405508,-0.2215109659172594,-9.761976233124733,14949.0
27.5,0.8000000119209291,239.0,21.87332534790039,25.67627716064453,-79.78275073025391,40.45906257033486,284.8664710388184,0.0036550133954733,-0.0103130917996168,-0.8541362881660461,0.5199341773986816,-0.0498747165320768,0.0238697138010507,3.0537738212855614,-0.042910598218441,-0.0619570352137088,-0.052720621228218,0.2492261102981865,0.1116657665278762,-9.6533150857687,14949.0
27.71,0.8000000119209291,241.0,21.82699966430664,26.28856468200684,-79.78275073772916,40.45906270236705,285.4739425048828,0.0058512073010206,-0.0093795591965317,-0.8539810180664062,0.5201867818832397,-0.0749969001140652,0.0357599839874324,3.033487108346121,-0.2040622681379318,-0.0711378902196884,-0.1064777597784996,0.2305321415886283,0.1967906374856829,-9.75524316430092,14950.0
27.8,0.8999999761581421,244.0,21.902122497558597,25.056039810180664,-79.7827506816148,40.45906274726667,285.77702020263666,0.0057443790137767,-0.0096170604228973,-0.8539378046989441,0.5202546119689941,-0.0500947221065751,0.0415090880344379,3.033804146710232,0.0183883272111415,0.0573921501636505,-0.0330581180751323,0.2131561352871358,0.0601363654620945,-9.734960342645646,14950.0
28.0,0.8999999761581421,246.0,21.82699966430664,26.527118682861328,-79.78275060533642,40.45906279024573,286.3807380065918,0.0050238338299095,-0.0114297028630971,-0.853977382183075,0.5201603770256042,-0.0238053591653073,0.0594062257051366,3.0329114890822506,0.0940225198864936,0.0347724743187427,-0.0104912100359797,0.1765141746774315,0.0559726271498948,-9.828224601745609,14951.0
28.1,0.8999999761581421,251.0,21.790691375732425,26.59868431091309,-79.78275059557626,40.459062823604285,286.68393395996094,0.0056650228798389,-0.0118208583444356,-0.8539892435073853,0.520125687122345,-0.0089053479036815,0.0616655200679584,3.0280914510104666,0.1966650933027267,0.0595915466547012,0.1107466369867324,0.3090695302560926,-0.1525723299197852,-9.831287373304368,14951.0
28.31,0.8999999761581421,259.0,21.736852645874023,28.149280548095703,-79.7827505459354,40.45906282569072,287.28057550048834,0.0077156806364655,-0.0107723539695143,-0.8544164896011353,0.51941978931427,-0.0125254096985086,0.0737980403647778,3.0426197820450764,0.0688958838582038,0.1103036701679229,0.0720358490943908,0.2551855376735329,-0.0525052511086687,-9.908055467605587,14952.0
28.4,1.0,264.0,21.765649795532227,27.099645614624023,-79.7827505463609,40.459062841739545,287.58551667785645,0.0074020321480929,-0.0105360224843025,-0.8544371128082275,0.5193954110145569,-0.0301060637211638,0.0739418593908246,3.055147282963909,-0.1916699707508087,-0.1421975046396255,-0.025403369218111,0.1812676686421036,0.0592409557476639,-9.920007176399231,14952.0
28.61,1.100000023841858,270.0,21.81072425842285,26.40784072875977,-79.78275050266579,40.4590629010455,288.1839301452637,0.0065485602244734,-0.0112415580078959,-0.8545007109642029,0.5192874670028687,-0.0099379015378241,0.0670721103841368,3.0608378912438865,-0.0855423212051391,0.0213562250137329,-0.0045148753561079,0.2584040461666882,0.0255271528288722,-9.948938030004502,14953.0
28.8,1.2999999523162842,281.0,21.815731048583984,25.914831161499023,-79.78275055937712,40.45906284872613,288.77839540100103,0.0048333159647881,-0.0129165165126323,-0.8542554378509521,0.5196705460548401,0.0345778614057301,0.0788952531577042,3.0570107927261936,0.092341810464859,0.0449442900717258,0.1333147436380386,0.2054127772338689,0.3883001428842545,-9.872068194150923,14953.0
28.9,1.2999999523162842,285.0,21.78818702697754,27.99819564819336,-79.7827505720543,40.45906283744648,289.08451341247564,0.004732453264296,-0.0135665424168109,-0.8541885614395142,0.5197649598121643,0.0264616706927864,0.078388481491271,3.0602982725029144,-0.0739145651459693,-0.0781096220016479,-0.0720799937844276,0.2953563842922449,0.1602518802322447,-9.858653512001036,14954.0
29.01,1.399999976158142,290.0,21.801958084106445,26.15338516235352,-79.78275055035239,40.4590629471024,289.3726413116455,0.0042638070881366,-0.0137999830767512,-0.8543144464492798,0.519555926322937,0.0148502986744641,0.0728451948009024,3.038799857048924,0.1102065965533256,0.0975391864776611,0.0199703741818666,0.2370654183626175,0.043572446051985,-9.832557388544084,14954.0
29.2,1.5,285.0,21.85078811645508,24.92881202697754,-79.7827505670372,40.45906297533803,289.9812476501465,0.00278598559089,-0.0130807347595691,-0.8543974757194519,0.5194478631019592,0.0115027908032957,0.0669036904079492,3.0455009854761803,-0.0575358122587204,-0.0423158071935176,-0.0961412414908409,0.1714338761754334,0.2669700709171593,-9.764033283591267,14954.0
29.4,1.7000000476837158,288.0,21.796951293945312,26.360130310058597,-79.782750621179,40.45906304709058,290.5735633239746,0.00360096571967,-0.0137748559936881,-0.8544173836708069,0.5193922519683838,0.0164110986630927,0.0512684944310873,3.016220921150376,0.0452603660523891,0.009904533624649,-0.0107973907142877,0.2138890472240746,-0.2007713853567838,-9.744796528816224,14955.0
29.5,1.600000023841858,294.0,21.83576393127441,25.533145904541016,-79.78275056401617,40.45906305324623,290.8616759643555,0.0029402810614556,-0.015373389236629,-0.8543239831924438,0.5195052027702332,0.0180909022578389,0.0691726093745771,3.0147557738516384,0.0906692743301391,0.0549100935459136,0.0628872066736221,0.316016862988472,-0.1092791615054011,-9.88614244222641,14955.0
29.6,1.7999999523162842,304.0,21.843276977539062,25.318449020385746,-79.78275056679054,40.4590630713729,291.16368173217774,0.0025235365610569,-0.0157224740833044,-0.8542348742485046,0.5196434259414673,0.0013997614834791,0.0768849324268511,3.021065651060112,-0.1086726710200309,-0.0264760889112949,-0.1280394047498703,0.212065611295402,0.3638480006530881,-9.7865444791317,14956.0
29.8,1.7999999523162842,303.0,21.783178329467773,26.98832130432129,-79.7827505960376,40.4590630957991,291.7588488922118,0.0016621663235127,-0.0137224206700921,-0.8537607789039612,0.5204821228981018,-0.0023462280201282,0.0718879298228676,3.0081630227848053,-0.2006986141204834,-0.0855693444609642,-0.17758709192276,0.1944721068441868,0.3361059225350618,-9.74929654598236,14956.0
29.9,1.7999999523162842,304.0,21.74812126159668,26.88494682312012,-79.78275059580044,40.45906312274328,292.0596186981201,0.0007775528356432,-0.0147760743275284,-0.8535683155059814,0.5207709074020386,0.0089178441687016,0.0596762108111944,3.0072045433832626,0.0101569378748536,0.0672326982021331,0.052589327096939,0.2303517732582986,-0.1075482029467821,-9.802602687478066,14957.0
30.1,1.8999999761581416,305.0,21.8570499420166,24.714113235473643,-79.7827506650867,40.459063142517294,292.6583087310792,0.0028202214743942,-0.0163427051156759,-0.853615939617157,0.5206389427185059,0.0369749168529958,0.066633529924194,3.0205579449156987,0.2009147852659224,0.0707916617393493,0.2010019421577453,0.2685880320332944,-0.2220250275358558,-9.83105348467827,14957.0
30.2,2.0,305.0,21.803211212158203,25.994348526000977,-79.78275067550564,40.459063170664365,292.9596717224121,0.0043285815045237,-0.0155088864266872,-0.8538936972618103,0.5201984643936157,0.0021888222532605,0.0682406503315397,3.0038236359126764,-0.0543981939554214,-0.1118518188595771,0.0092082833871245,0.2302304618060589,0.0824679509829729,-9.67546316921711,14957.0
30.41,1.8999999761581416,306.0,21.78067398071289,26.137481689453125,-79.78275063477744,40.45906321230472,293.5511100158692,0.0057741869240999,-0.0146605679765343,-0.8545477986335754,0.5191338062286377,0.0014634677978272,0.0683139952304207,2.9586081554052126,0.0018945990595966,-0.0872130617499351,-0.0504548326134681,0.249705326166004,0.1669058106467127,-9.538340699672698,14958.0
30.6,2.0,304.0,21.78192710876465,26.42374420166016,-79.78275072534363,40.45906329547057,294.1390864715576,0.0059858374297618,-0.0116507597267627,-0.8551961183547974,0.5181390047073364,-0.0044321162638578,0.0518971267970722,2.9343405859291734,0.02042100392282,-0.0251344013959169,-0.0699514746665954,0.3058038968592882,-0.1070465483888983,-9.570096343159676,14959.0
30.7,2.0999999046325684,307.0,21.843276977539062,24.91290855407715,-79.78275075410967,40.45906331849204,294.4319655761719,0.0039441017434,-0.01165331620723,-0.8553707003593445,0.517870306968689,-0.0033073437560668,0.0408294960547747,2.922340759304208,-0.01465346198529,0.0076675927266478,0.0147303910925984,0.2416834396496416,-0.0155015534162521,-9.70159671485424,14959.0
30.8,2.200000047683716,312.0,21.765649795532227,27.234825134277344,-79.78275070501941,40.459063317596176,294.719780670166,0.0026543564163148,-0.0128730665892362,-0.8554706573486328,0.5176845788955688,0.0083032063738212,0.0636526065876831,2.930850348225615,-0.0717886388301849,0.0434907563030719,-0.0651962459087371,0.1827483298256993,0.2370809865742922,-9.644550109505651,14959.0
31.0,2.200000047683716,313.0,21.84077262878418,24.276765823364247,-79.7827507772996,40.459063380464656,295.30398820495606,0.0032809232361614,-0.0150413066148757,-0.8550584316253662,0.5183032155036926,0.024953720140151,0.0645376986172029,2.9572281469958943,0.0215048268437385,0.031471025198698,-0.0805038958787918,0.2417972776293755,0.1755534406006336,-9.815851893424988,14960.0
31.11,2.299999952316284,306.0,21.80571556091309,25.73194122314453,-79.78275078514342,40.459063398443725,295.59948991394043,0.0030923273880034,-0.0146226976066827,-0.8545341491699219,0.519180178642273,0.0142527803375508,0.0705749551603154,2.9497310560902075,-0.0302131976932287,-0.0694294795393943,0.0716651827096939,0.2628241392038762,-0.1265981391817331,-9.79358043372631,14960.0
31.3,2.5,306.0,21.815731048583984,25.27868843078613,-79.78275080670619,40.45906338476793,296.18622850036616,0.0022240304388105,-0.0141006326302886,-0.8535917401313782,0.5207469463348389,0.0187108601454157,0.059552228732191,2.964612415006316,0.0402639396488666,-0.0049256430938839,0.0924321040511131,0.2287118119932711,-0.1624111838825047,-9.866233842372894,14961.0
31.5,2.700000047683716,304.0,21.696786880493164,27.61651039123535,-79.78275081924843,40.459063491693314,296.767201171875,0.0053689633496105,-0.0160044785588979,-0.8535269498825073,0.5207753181457521,0.0045735165796459,0.0636195752116219,2.9634879186274534,0.1557998210191726,0.0644144639372825,0.1649299710988998,0.1592824118770659,0.0772597903199494,-9.820909734964369,14961.0
31.61,2.799999952316284,301.0,21.736852645874023,27.02012825012207,-79.78275082231899,40.45906356782105,297.36324761962885,0.0082082459703087,-0.0153644504025578,-0.8543012738227844,0.5194862484931946,-0.0075238788863962,0.0801017063674593,3.002975121489903,0.2219929993152618,0.0958868265151977,0.1024723201990127,0.3633699542284012,0.1345576066710055,-9.945298722982407,14962.0
31.8,2.799999952316284,301.0,21.77316093444824,25.89097595214844,-79.78275080398208,40.45906377890047,297.6536471710205,0.0091426325961947,-0.0149699132889509,-0.8546110391616821,0.5189724564552307,-0.0649758669678274,0.0532292836946493,3.011345268593924,-0.1198558211326599,-0.0507244132459163,-0.0281383357942104,0.268161916192621,0.1327918297704309,-9.920570847988133,14962.0
31.9,2.900000095367432,299.0,21.76815414428711,25.620615005493164,-79.78275083024431,40.45906384729229,297.95482896423334,0.0099125383421778,-0.0157575625926256,-0.8551534414291382,0.518040657043457,-0.0590158433180246,0.0478419444072617,3.0119445366175466,-0.0383051745593547,0.0731168389320373,-0.0191312432289123,0.2139924150332808,0.1466082978621125,-9.819216381311415,14962.0
32.1,2.900000095367432,297.0,21.80821990966797,25.35820770263672,-79.78275098574441,40.45906394454617,298.540207611084,0.0094447862356901,-0.0169340595602989,-0.8554558157920837,0.5175127983093262,-0.0302405394433981,0.0526900471457822,2.9855824043189774,0.0334688685834407,0.0159254875034093,0.075207807123661,0.3395659758523107,0.1211713566072285,-9.793470506072047,14963.0
32.21,2.900000095367432,295.0,21.818235397338867,25.04808807373047,-79.78275104148705,40.45906399977483,298.8380095825196,0.0078499726951122,-0.0164178721606731,-0.8553839325904846,0.5176749229431152,-0.0296799708044092,0.0428661249508778,2.9718379332858675,-0.0903635323047638,-0.1276064068078994,0.019059095531702,0.2750631472840905,0.0111734626628458,-9.693505922555923,14963.0
32.3,3.0,294.0,21.75062561035156,26.479406356811523,-79.78275098909536,40.45906404101584,299.13236688232416,0.0063224229961633,-0.0155893266201019,-0.8553911447525024,0.5177094936370851,0.0017784272554743,0.048476411984071,2.9551498043426228,0.1670596301555633,0.0144094256684184,0.1566364765167236,0.2919396186433733,-0.2304099347814917,-9.66737413108349,14964.0
32.51,3.0,294.0,21.672998428344727,27.632413864135746,-79.78275108325597,40.45906412664653,299.7175490722656,0.0057024145498871,-0.0148006677627563,-0.8551088571548462,0.5182058215141296,0.0204488032934504,0.0397293428401756,2.9658421918671767,0.1994599103927612,0.0544665642082691,0.0903161764144897,0.3506138147413731,-0.1205908651370555,-9.856629205942154,14964.0
32.6,3.0999999046325684,297.0,21.67675399780273,27.640365600585927,-79.7827511326702,40.459064158261135,300.01523278808594,0.0067004328593611,-0.0148450080305337,-0.8550084233283997,0.5183582901954651,-0.0040125020161202,0.0401605019369869,2.9853012549418616,-0.0929678753018379,-0.0349111668765544,-0.0894924849271774,0.2912323430925608,0.2698718978650868,-9.895540087223054,14965.0
32.8,3.0999999046325684,301.0,21.69803810119629,27.831209182739247,-79.78275121352472,40.45906422706842,300.6030967102052,0.0064395000226795,-0.0162833668291568,-0.8548536896705627,0.5185737609863281,-0.0205039136650482,0.0568543612679496,3.0121676506341872,-0.2809172570705414,-0.1189386770129203,-0.1321742832660675,0.3044203542731703,0.2810881913825869,-9.938134714365006,14965.0
33.01,3.0999999046325684,300.0,21.7844295501709,25.723989486694336,-79.7827513910679,40.45906428621871,301.1979033813477,0.0051801516674458,-0.0165808610618114,-0.8550135493278503,0.5183147788047789,0.032048263113346,0.0421917989191321,3.037608253030512,0.108325608074665,0.0384204275906086,0.0662335902452468,0.2546490190923214,-0.0976674865745008,-9.997354145050052,14966.0
33.1,3.2000000476837163,300.0,21.74186134338379,26.46350288391113,-79.78275145324645,40.459064313108136,301.5019843444824,0.0063818763010203,-0.0163480378687381,-0.8553805351257324,0.5177027583122253,0.0122646433814404,0.041384677676086,3.039853669746158,-0.0398918539285659,-0.0249990578740835,-0.1036017537117004,0.2969037037342787,0.295611633528024,-9.783253666162487,14966.0
33.2,3.0999999046325684,298.0,21.70304679870605,28.05385780334473,-79.78275151515442,40.45906434326754,301.8052642211913,0.0072923740372061,-0.0154317244887352,-0.8556076288223267,0.5173435807228088,0.0162467478966029,0.0417393946307581,3.02629687070536,0.0590455792844295,0.1031137406826019,0.0471282824873924,0.3337216107174754,-0.0738937172899022,-9.724100309014323,14966.0
33.4,3.0999999046325684,296.0,21.70555114746093,27.05193519592285,-79.78275166076507,40.45906437357511,302.39887307739264,0.0070152818225324,-0.0138555616140365,-0.8554515838623047,0.5176500678062439,0.0106687914497234,0.0417610592947895,3.0068185820311384,0.1734591573476791,0.0453248508274555,0.1603427976369857,0.3285742702335119,-0.3126831460744143,-9.760665287375454,14967.0
33.6,3.0999999046325684,292.0,21.7205753326416,27.505186080932607,-79.78275177414591,40.45906440049352,302.99448083496094,0.0070223999209702,-0.0126645313575863,-0.8548298478126526,0.5187062621116638,0.0106264588257868,0.0410124550419863,3.003308570121144,0.1753930300474167,0.0944792926311492,0.0514259524643421,0.3651329993829131,0.076539363102056,-9.80401303589344,14967.0
33.71,3.0,290.0,21.686769485473643,26.7418155670166,-79.7827518172198,40.4590644228977,303.2945906982422,0.0065148244611918,-0.01199790276587,-0.854557991027832,0.5191765427589417,-0.0144675172246807,0.045327199818687,2.999794199853139,-0.1369424015283584,-0.089076928794384,-0.0438042916357517,0.2798391713015735,0.1348969735857099,-9.762976107001307,14968.0
33.8,3.0,289.0,21.736852645874023,25.66037368774414,-79.78275184854274,40.459064414334094,303.5860831604004,0.0067189591936767,-0.0121209621429443,-0.8545368909835815,0.5192059278488159,0.0096271424809482,0.0473827266144848,3.0119024911708228,-0.0088112307712435,0.0578050911426544,-0.094246320426464,0.2499596617743373,0.2433805574476719,-9.779423739910127,14968.0
34.0,3.0,287.0,21.70555114746093,26.702056884765625,-79.78275192863687,40.459064463509065,304.17914651489264,0.0097470581531524,-0.0131951142102479,-0.8545725345611572,0.5190730690956116,0.0035333923314491,0.0681769433430837,3.028040150218643,-0.004915839061141,-0.0379108935594558,-0.0371225588023662,0.2573115121945739,0.0880032085441053,-9.908800402879717,14969.0
34.1,3.0999999046325684,283.0,21.73184394836425,25.914831161499023,-79.78275195834354,40.45906446843661,304.48290322875977,0.0085742780938744,-0.014295008033514,-0.8546450734138489,0.5189449787139893,0.0153505524053475,0.0722966854500844,3.044473377631338,0.1211617738008499,0.0559765100479126,0.1295018345117569,0.4279471155256033,-0.2741370031423867,-9.996116874217988,14969.0
34.31,3.0999999046325684,283.0,21.69428253173828,26.455551147460927,-79.78275208783191,40.45906441789126,305.07878564453125,0.0052061798050999,-0.0169734973460435,-0.8550635576248169,0.5182191729545593,0.0351845898847501,0.0728843311154369,3.0452856359175806,0.0626993179321289,0.1491182446479797,0.0902011319994926,0.3072953023016453,-0.0511449831817299,-9.876078214645387,14970.0
34.4,3.0999999046325684,281.0,21.725584030151367,25.66037368774414,-79.78275212029676,40.45906442269857,305.3837020263672,0.0058350334875285,-0.0181905012577772,-0.8553844094276428,0.5176414847373962,0.0150252493157298,0.0800992527694791,3.0486611888163786,-0.2210212349891662,-0.0700328350067138,-0.0811685100197792,0.2978710159286857,0.2556586505100131,-9.796468958258629,14970.0
34.6,3.0999999046325684,281.0,21.725584030151367,26.240854263305664,-79.78275222480644,40.45906443492185,305.9808432922364,0.0063551301136612,-0.0157536230981349,-0.8560240268707275,0.5166569352149963,0.0191430040747853,0.0875105804853215,3.014177369397168,-0.0192278120666742,-0.1229317709803581,-0.0170927643775939,0.3008826243504882,0.0256473405193537,-9.70509159564972,14970.0
34.7,3.0,281.0,21.7456169128418,26.63049125671387,-79.78275224686847,40.459064447843474,306.28189157104487,0.008314125239849,-0.0138521781191229,-0.8558940291404724,0.5168988108634949,0.0237073566513627,0.0742651451203727,3.0035548658769926,0.2457801401615143,0.0660909637808799,0.0391121879220008,0.3742248715460301,-0.1489902342483401,-9.73551582813263,14971.0
34.91,3.0999999046325684,281.0,21.67675399780273,26.81338119506836,-79.78275229537337,40.45906451035287,306.8744704589844,0.0099141160026192,-0.0147252157330513,-0.8553200960159302,0.5177959203720093,-0.0231212815682631,0.0779081781819629,2.9930080941567314,0.0988571941852569,0.1049840748310089,0.0814466848969459,0.3120356034860015,-0.1617240446805954,-9.721283705234528,14971.0
35.0,3.0999999046325684,279.0,21.74186134338379,25.437725067138672,-79.78275231109265,40.45906455367009,307.1687247619629,0.0097254049032926,-0.0153611190617084,-0.8550450801849365,0.5182350277900696,-0.0430899727204901,0.0930945195348786,2.9971431802186843,-0.2339375466108322,-0.0725981965661048,-0.1497116237878799,0.2893553503230214,0.2890952771343291,-9.663437200784683,14972.0
35.21,3.0999999046325684,280.0,21.637939453125,28.5468692779541,-79.78275232530807,40.459064604656135,307.7658851013184,0.0088368579745292,-0.0149890352040529,-0.8544373512268066,0.5192632079124451,-0.0385280391746269,0.0891228368278187,2.9834117570643706,-0.1968613266944885,-0.1383219957351684,-0.0802647694945335,0.3065568355098367,0.1025131838209927,-9.757939900159837,14972.0
35.4,3.299999952316284,278.0,21.74186134338379,25.06399154663086,-79.78275230049306,40.45906471044946,308.3646209106445,0.0090278694406151,-0.0120715983211994,-0.8541769981384277,0.5197637677192688,-0.0286057823272823,0.0678581323858765,3.002577714172906,0.0656505301594734,-0.0521037243306636,0.050982017070055,0.3125354307889939,-0.1704342763870954,-9.86159816980362,14973.0
35.51,3.299999952316284,278.0,21.743112564086918,26.550973892211918,-79.7827522920052,40.4590647378966,308.65937112426764,0.0099360272288322,-0.0117218885570764,-0.8541929721832275,0.5197290778160095,-0.0264103133490849,0.0745738619074864,3.009339146274814,0.1072627156972885,0.0359037145972251,-0.058779802173376,0.2692694519273937,0.0201781747676432,-9.791469588875769,14973.0
35.6,3.2000000476837163,275.0,21.62166404724121,28.75361442565918,-79.7827522975093,40.45906476380373,308.9603240356445,0.0110003063455224,-0.0121278930455446,-0.8541201949119568,0.5198180079460144,-0.0264880097383692,0.0703064506932089,3.009765048765152,0.1231834888458252,0.0496408902108669,0.0318061783909797,0.345509487837553,-0.1203279322944581,-9.880506895780565,14973.0
35.8,3.0999999046325684,274.0,21.74060821533203,26.42374420166016,-79.7827523802805,40.45906478066578,309.5554091796875,0.0121849365532398,-0.0116280280053615,-0.8538839221000671,0.5201908946037292,-0.0197659678376672,0.0858146738582989,3.0373070448850985,0.0547933429479599,0.0618768297135829,0.028712747618556,0.3978634102642537,-0.0552769135544076,-9.899041399955747,14974.0
35.9,3.0999999046325684,274.0,21.73434829711914,26.07386589050293,-79.78275240290685,40.45906478510968,309.8592421875,0.0113392872735857,-0.0108400480821728,-0.8537614941596985,0.5204280614852905,-0.0260899608094929,0.082946996032904,3.0385521782791343,-0.1885629296302795,-0.0709358155727386,-0.0753372609615325,0.3777677726000548,0.1134380575921386,-9.847768335342408,14974.0
36.1,3.0999999046325684,274.0,21.72182846069336,25.461580276489247,-79.78275232475045,40.45906480723635,310.45593713378906,0.0084809027612209,-0.0128781199455261,-0.8541491031646729,0.5197996497154236,-0.0232087910266459,0.0925131134142418,3.0428689154983104,-0.1476517468690872,-0.0985153466463089,0.0565031021833419,0.2958237778209149,-0.1025979501754045,-9.8833884036541,14975.0
36.31,3.0999999046325684,274.0,21.660476684570312,27.656269073486328,-79.78275235510573,40.459064865306665,311.05568002319336,0.0066738780587911,-0.0149549627676606,-0.8551475405693054,0.5181261301040649,0.0010772547919191,0.0963587956337686,3.037608707341544,-0.0633460730314254,-0.0675515905022621,0.0423731729388237,0.3392911567166448,-0.22323331810534,-9.812257025241852,14976.0
36.41,3.0999999046325684,274.0,21.65171241760254,27.77554702758789,-79.78275235138058,40.45906486895078,311.35980294799805,0.0070528662763535,-0.0154148088768124,-0.8556839823722839,0.5172210931777954,0.0170529697993522,0.0988256009898765,3.0468205139115243,0.1883115470409393,0.0987860113382339,0.0866012126207351,0.4123844952508807,-0.1270774281397462,-9.91813022017479,14976.0
36.51,3.0999999046325684,276.0,21.664234161376957,27.529041290283203,-79.78275234124726,40.45906490884987,311.6557853088379,0.0085937650874257,-0.0163515452295541,-0.8558589220046997,0.5168794393539429,-0.0097354504785818,0.1077535169806012,3.063684857626212,-0.0414871647953987,0.0011941482080146,-0.0332728549838066,0.3846405167877674,0.004495047032833,-9.95498288154602,14976.0
36.7,3.0,277.0,21.725584030151367,26.12952995300293,-79.78275231392745,40.45906493608872,312.27117990112305,0.0129211461171507,-0.0166513174772262,-0.85533207654953,0.5176513195037842,-0.0356170512288652,0.1281615776086039,3.0845695660293115,-0.1479809582233429,-0.0402463264763355,-0.1315329223871231,0.4055986553058029,0.1483226009923964,-9.90115575313568,14977.0
36.9,3.0,279.0,21.72933959960937,25.843265533447266,-79.78275226437688,40.45906501452511,312.8700492248535,0.012349902652204,-0.0145699987187981,-0.8548493385314941,0.5185247659683228,-0.0507693083380872,0.1349209208319852,3.054551559507744,-0.1439499855041504,-0.0745282098650932,-0.0218282006680965,0.3772131641954184,-0.0978745510987937,-9.7512711507082,14977.0
37.01,3.0,281.0,21.733097076416016,25.62856674194336,-79.78275226441622,40.45906503039575,313.17199014282227,0.0105265732854604,-0.0145016824826598,-0.854458212852478,0.5192111134529114,-0.0288197376445592,0.1272040627027862,3.0577579793118232,0.0493088699877262,0.0413016229867935,0.032081663608551,0.3577364543080329,-0.0927259315364062,-9.766926485896107,14978.0
37.1,3.0999999046325684,283.0,21.699291229248047,26.272661209106445,-79.78275224730065,40.45906503541668,313.4779593811035,0.010736571624875,-0.0145057579502463,-0.853760302066803,0.5203535556793213,-0.0249234551337188,0.1229013602770128,3.0550586953888432,-0.1134929880499839,-0.0567289665341377,-0.0832102373242378,0.4025500997900963,0.1565587605535984,-9.749186618328093,14978.0
37.3,3.0999999046325684,284.0,21.685518264770508,26.71000862121582,-79.78275227409765,40.4590650867543,314.0807235107422,0.0126194860786199,-0.0157471634447574,-0.8533961772918701,0.5208720564842224,-0.0215071383188988,0.1196238080430723,3.036069179432562,-0.0955939590930938,-0.0064944229088723,-0.1015946194529533,0.3412549806386232,0.1518951127119362,-9.65955055654049,14979.0
37.4,3.299999952316284,284.0,21.70304679870605,25.89097595214844,-79.78275227054152,40.45906508368881,314.3843543395996,0.011514282785356,-0.0166175998747348,-0.8537889122962952,0.5202265977859497,-0.0144741644054469,0.1242073441472356,3.034109046101721,-0.0709663555026054,0.0257848147302866,0.0035461557563394,0.4014750526472926,0.03715607247781,-9.795566732883453,14979.0
37.6,3.299999952316284,284.0,21.72433280944824,26.10567283630371,-79.78275225737808,40.459065132052736,314.98975442504883,0.0082385828718543,-0.0193925201892852,-0.8551933169364929,0.5178807973861694,-0.0028616548656373,0.1242248241957346,3.048465279092317,-0.1278230249881744,-0.0345239080488681,0.0263461731374263,0.4039695844799279,0.0618630299717187,-9.810955435037611,14979.0
37.8,3.299999952316284,284.0,21.685518264770508,26.58278083801269,-79.78275229451008,40.45906512110802,315.59549020385737,0.0104541853070259,-0.0192506723105907,-0.8560134172439575,0.5164893269538879,0.0066908622510009,0.1415553367557128,3.0464281864774327,-0.072328120470047,-0.0245815720409154,-0.1594027727842331,0.4355893167480826,-0.0142106983345001,-9.73140231192112,14980.0
37.91,3.299999952316284,284.0,21.70429992675781,26.137481689453125,-79.78275229162294,40.45906512120733,315.9003341064453,0.011238370090723,-0.0182624012231826,-0.8560883402824402,0.5163846015930176,-0.001687439074206,0.1348264750435192,3.049086484293145,-0.0872699990868568,-0.0286542810499668,-0.0542166344821453,0.4412460958957672,0.0779655675217509,-9.811501564979556,14980.0
38.0,3.400000095367432,284.0,21.801958084106445,24.38809013366699,-79.78275226673591,40.45906511074249,316.1996619567871,0.0101901683956384,-0.0183085929602384,-0.8560341596603394,0.5164945125579834,0.0054300412712589,0.1411405611227813,3.0521334367743664,0.0004640379920601,0.0355364680290222,0.0487952604889869,0.3816647225618362,-0.0881477261334657,-9.768782392144203,14981.0
38.21,3.400000095367432,283.0,21.71932411193848,26.59868431091309,-79.78275225428047,40.45906510613701,316.8063475952148,0.007269958499819,-0.0187852904200553,-0.8556280136108398,0.5171992778778076,0.0005163825248428,0.1228578420334855,3.013022307535265,-0.1150385960936546,-0.022063398733735,-0.0313333496451377,0.3795348377153277,0.0728126036608591,-9.638640913367274,14981.0
38.3,3.299999952316284,283.0,21.74436378479004,24.89700508117676,-79.78275225507876,40.45906516002965,317.1041266784668,0.0074840039014816,-0.0192310996353626,-0.8552236557006836,0.5178481936454773,0.0129894866076795,0.1191494183123851,3.0211053153076253,0.0443492271006107,0.1060408800840377,-0.0113404775038361,0.4121388025581837,-0.0325235199462622,-9.76688730955124,14982.0
38.5,3.299999952316284,284.0,21.711811065673828,25.382062911987305,-79.78275224130886,40.45906516504146,317.707630859375,0.0119527326896786,-0.0173095967620611,-0.8543667793273926,0.5192446708679199,-0.0036007852107956,0.1239999875458295,3.0317214111099124,0.0327183343470096,0.0937179699540138,-0.0601403303444385,0.3662403158470988,0.0294995684176683,-9.777609348893169,14982.0
38.7,3.2000000476837163,284.0,21.70179557800293,26.320371627807607,-79.78275223688134,40.45906518537533,318.3153846130371,0.012403730303049,-0.0157867055386304,-0.8548484444618225,0.5184893608093262,-0.035911648699613,0.1217331171285599,3.049987120218692,-0.1339713633060455,-0.0671746134757995,-0.006676685065031,0.3338010597601533,0.0948730017151683,-9.807641817927363,14983.0
38.81,3.2000000476837163,283.0,21.699291229248047,26.25675773620605,-79.78275224952618,40.45906517559703,318.6141364440918,0.0108659109100699,-0.0149269374087452,-0.8555290699005127,0.5174256563186646,-0.0049088349377593,0.1212890299547903,3.0748324392437327,0.0623594410717487,-0.004551179241389,0.1436609029769897,0.3010640342161059,-0.1680585343949497,-9.993408443927766,14983.0
38.9,3.2000000476837163,283.0,21.686769485473643,25.89097595214844,-79.78275225339011,40.4590651729996,318.9227568969726,0.009693844243884,-0.0138299101963639,-0.856212317943573,0.5163479447364807,-0.0038553040295066,0.1104871809838711,3.092492947296644,-0.0374611392617225,-0.1033648625016212,0.0502272322773933,0.2949342518672347,-0.015119469850324,-9.964643651247023,14983.0
39.11,3.0999999046325684,282.0,21.78067398071289,24.865196228027344,-79.78275228753729,40.45906522580045,319.525013671875,0.006995165720582,-0.0176335461437702,-0.8567945957183838,0.5153087377548218,0.0019420649137352,0.0941187013391676,3.0556739746208605,0.063039407134056,0.0648890063166618,0.0138006769120693,0.3510771334916353,0.0086329022794961,-9.616222688555716,14984.0
39.2,3.0999999046325684,281.0,21.736852645874023,24.73796844482422,-79.78275229554345,40.45906523861848,319.829025970459,0.006273805629462,-0.0178837273269891,-0.8565533757209778,0.5157102346420288,0.0041037426066276,0.0990277532518042,3.0217239852157687,-0.0182485822588205,-0.0477168634533882,-0.0860745385289192,0.3273496440052986,0.1234279798530042,-9.508391845822334,14984.0
39.41,3.0999999046325684,280.0,21.730592727661133,25.86712074279785,-79.78275237781006,40.459065319024255,320.42150186157227,0.007176574319601,-0.0150060458108782,-0.8555604219436646,0.517435610294342,0.0073633701564287,0.0744220367094647,2.986253645261273,0.1498800069093704,0.0796046629548072,-0.0083957007154822,0.3323175846040249,-0.0971396565902978,-9.636487383842471,14985.0
39.6,3.0,278.0,21.709306716918945,25.93073463439941,-79.78275241098152,40.45906534628836,321.0193297729492,0.0104356352239847,-0.0129481805488467,-0.8545230627059937,0.5191471576690674,-0.0247008179866913,0.0739390995061793,2.9850138213112096,0.0353889353573322,0.0047380239702761,-0.0162923205643892,0.2967018468864262,0.0098710319213569,-9.691334851384164,14986.0
39.7,3.0,279.0,21.69803810119629,25.3900146484375,-79.78275242444256,40.4590653688439,321.31725,0.0112196588888764,-0.0131797501817345,-0.8541540503501892,0.5197319984436035,-0.0242904017424825,0.0746655435372876,2.9735781305363536,0.0878630727529525,0.0354608334600925,0.0324390977621078,0.310501403734088,-0.1246561509557068,-9.707907029986382,14986.0
39.8,2.900000095367432,280.0,21.733097076416016,25.03218460083008,-79.78275247005399,40.45906541314771,321.61450646972656,0.011156472377479,-0.0121903382241725,-0.853756308555603,0.5204105377197266,-0.0263728478733254,0.0908471654483523,2.994255582171868,-0.0103394277393817,-0.1070347353816032,0.0002099099074257,0.3723701347410679,-0.017667133687064,-9.749268479347233,14986.0
40.01,2.900000095367432,282.0,21.69303131103516,25.57290458679199,-79.7827524973057,40.45906547341233,322.205677734375,0.0083065489307045,-0.0085790809243917,-0.8543493747711182,0.5195618271827698,-0.0229257050913851,0.080518559175416,2.9849388043324017,-0.0254465583711862,-0.085750512778759,0.030529910698533,0.2274916259944439,-0.0483680262649431,-9.709632543325425,14987.0
40.2,2.900000095367432,281.0,21.64545249938965,26.90085029602051,-79.78275248680943,40.45906547569896,322.8043219909668,0.0049714632332324,-0.0107519468292593,-0.8561359643936157,0.5166150331497192,0.0071973969694329,0.0773268992182568,3.0051962815164432,0.0683346539735794,0.0616892576217651,0.1318112760782241,0.3010068594105541,-0.0620650695450604,-9.852787585258485,14987.0
40.31,2.900000095367432,282.0,21.710559844970703,25.827362060546875,-79.78275250853946,40.45906551346815,323.0954749450684,0.0067815934307873,-0.0123068690299987,-0.8570055365562439,0.5151157975196838,0.0043522179418558,0.0898446560860993,3.0247116538047183,0.0603630244731903,0.0118156448006629,0.005142169073224,0.3034077809751034,-0.0253946585766971,-9.95161605477333,14988.0
40.4,2.799999952316284,280.0,21.73810386657715,24.96061897277832,-79.78275248489275,40.45906551381866,323.39862130737305,0.0083386525511741,-0.013859380967915,-0.8575412034988403,0.5141609311103821,-0.0094644271749019,0.1067287902387216,3.0359095966044527,0.0219647902995348,-0.0193271283060312,-0.0007643623976036,0.4074042389541865,-0.0355775846354663,-9.953666088581086,14988.0
40.6,2.799999952316284,279.0,21.709306716918945,24.88905143737793,-79.7827524631824,40.45906553152344,323.98706887817383,0.0118912598118186,-0.0141994412988424,-0.8572349548339844,0.5145923495292664,-0.0170849100640741,0.1254839377922986,3.0065930722479783,0.0574246942996978,0.005169368814677,-0.0022707362659275,0.335377286374569,-0.0299814338050782,-9.775535341501236,14988.0
40.7,2.799999952316284,280.0,21.72933959960937,25.588808059692383,-79.782752443329,40.45906553194212,324.28843759155274,0.0129464901983737,-0.0127156767994165,-0.8566946983337402,0.5155045986175537,-0.0261574896572977,0.121078433839262,3.0152422889776376,0.008102242834866,-0.0297362841665744,-0.0481216236948967,0.2922795794159174,0.0030405801191227,-9.835719562768936,14989.0
40.9,2.700000047683716,281.0,21.685518264770508,25.92278289794922,-79.78275248786632,40.459065567702176,324.8752601013184,0.0141868228092789,-0.0127884242683649,-0.8551554083824158,0.5180198550224304,-0.0290682600283638,0.1131283965208446,3.0129570872437608,0.0214373283088207,0.0553727485239505,0.0195294879376888,0.3440019660070538,-0.0329210483841598,-9.880366562604904,14989.0
41.0,2.700000047683716,282.0,21.723079681396484,25.175315856933597,-79.78275252377384,40.45906561940211,325.16390679931635,0.0144574837759137,-0.0129225868731737,-0.8544925451278687,0.5191017985343933,-0.0343554832746355,0.119146897766349,3.0252948614242787,-0.0808845087885856,-0.0374401099979877,-0.0275863651186227,0.3692210802063346,0.0122933506406843,-9.98081354141235,14990.0
41.2,2.5999999046325684,281.0,21.685518264770508,25.596759796142567,-79.7827525245043,40.45906559126739,325.7716796264648,0.0143952732905745,-0.0128744365647435,-0.8541031479835509,0.5197449326515198,-0.0224891448988945,0.1172952948316424,3.0490668299393966,-0.0951781496405601,-0.0401114039123058,-0.0584856644272804,0.2569978456199169,0.1146492169518024,-9.903499317169189,14990.0
41.3,2.700000047683716,280.0,21.75813674926757,24.435800552368164,-79.78275257208637,40.4590655954676,326.06324075317383,0.0140077285468578,-0.0131710032001137,-0.8535017967224121,0.5207352042198181,-0.0023332199396391,0.1178419605522179,3.0458131586107644,0.0339877232909202,0.0516465045511722,-0.008674849756062,0.3632394882291556,-0.0588511428935453,-9.922347232103348,14991.0
41.5,2.700000047683716,280.0,21.778169631958008,23.79170799255371,-79.78275263598006,40.45906557321962,326.65926431274414,0.0125188780948519,-0.0129663469269871,-0.8525999784469604,0.5222532749176025,0.0127842087286098,0.1172087237679212,3.036786296343508,-0.0503395646810531,-0.0623498372733593,-0.0307769495993852,0.4036807320266961,0.0353683045646175,-9.860241615772248,14991.0
41.6,2.700000047683716,279.0,21.69803810119629,25.175315856933597,-79.78275265655535,40.459065533491774,326.96285699462885,0.0110426172614097,-0.0141330463811755,-0.8526329994201659,0.5222023725509644,0.0342865770196742,0.108977607399509,3.0294673920835664,0.0626652389764785,0.0413142032921314,0.0929238498210907,0.3267296564206481,-0.1586635754629969,-9.766067529916764,14991.0
41.8,2.5999999046325684,281.0,21.74060821533203,24.66640281677246,-79.78275267672231,40.45906551595876,327.5630614624024,0.0056570945307612,-0.0159119088202714,-0.8531790375709534,0.521344780921936,0.0472161325183443,0.1138929955972029,3.044313727797461,-0.0213510617613792,-0.0463754832744598,0.0444246307015419,0.3068487212061882,-0.0919405773840844,-9.91094983935356,14992.0
42.0,2.5,281.0,21.783178329467773,23.88712882995605,-79.78275272078128,40.45906548666944,328.16019891357416,0.0052977111190557,-0.0169150158762931,-0.8537510633468628,0.5203797817230225,0.0528954694877954,0.1081774779806665,3.0482424162683186,-0.0955590233206749,-0.0316341668367385,-0.0393393523991108,0.2974354714527726,0.1069969384185969,-9.880737276077271,14993.0
42.11,2.5,281.0,21.74686813354492,24.435800552368164,-79.78275273224007,40.45906546145636,328.4647414550781,0.0053590387105941,-0.0174012165516614,-0.8540345430374146,0.5198976397514343,0.0540950714196625,0.1053070531713996,3.036788621260807,0.0261264778673648,0.0787069723010063,0.0524122379720211,0.3067603551596403,-0.0429901410313323,-9.758260327577592,14993.0
42.2,2.400000095367432,285.0,21.74812126159668,23.84737014770508,-79.78275274459908,40.4590654408761,328.7682883605957,0.0059849927201867,-0.0168722812086343,-0.8544511795043945,0.5192232131958008,0.0453942733760834,0.1041645260091358,3.0294884770716304,-0.0007746582850813,-0.044355496764183,-0.0463092513382434,0.2664756157435477,0.1487718224711716,-9.729660426378253,14993.0
42.4,2.5,285.0,21.74686813354492,24.467607498168945,-79.78275281462284,40.45906545865656,329.3681533203125,0.0064651905559003,-0.0163202136754989,-0.8554783463478088,0.5175410509109497,0.0366322372914785,0.0873189871595793,3.0186307988210523,0.0778815299272537,0.0592681467533111,0.0578331351280212,0.3362116840481758,-0.104785293051973,-9.708206992149352,14994.0
42.5,2.400000095367432,285.0,21.785682678222656,23.1873722076416,-79.78275291223909,40.45906545900869,329.66539834594727,0.0062775560654699,-0.0155688477680087,-0.8560668826103209,0.5165925025939941,0.0448619865077938,0.0904892848410091,3.01208880639335,0.0532117001712322,-0.078231081366539,0.0155966859310865,0.2087929246947169,0.044557752138935,-9.58793736755848,14994.0
42.7,2.400000095367432,285.0,21.735599517822266,24.45965576171875,-79.7827529815143,40.45906543580311,330.2624785766602,0.0073696365579962,-0.0135117610916495,-0.8567348718643188,0.5155274271965027,0.027951351682673,0.0750389944271478,2.9627937949043863,-0.0227086320519447,-0.0434876382350921,0.0073268706910312,0.2831389926373959,0.0099096692260354,-9.607111557126046,14995.0
42.9,2.400000095367432,288.0,21.80070686340332,22.84544563293457,-79.7827530961908,40.4590653920409,330.86169885253906,0.0066147530451416,-0.0108870370313525,-0.8563485741615295,0.5162411332130432,0.0354080496840975,0.074741344450314,2.986910448404561,-0.0274808276444673,-0.0620871074497699,-0.1258231103420257,0.300862926542759,0.0243372010462917,-9.682955206632618,14995.0
43.01,2.299999952316284,290.0,21.71556663513184,24.849292755126957,-79.78275309471348,40.4590653752336,331.159161315918,0.0074460045434534,-0.0095486100763082,-0.8558856248855591,0.5170235633850098,0.0293948991745985,0.079906330304745,2.99099021869026,-0.0463360622525215,-0.0270814821124076,-0.0303079355508089,0.2945395282655954,0.0894260005652904,-9.70039745092392,14996.0
43.1,2.400000095367432,294.0,21.699291229248047,25.262784957885746,-79.78275311325753,40.45906534545475,331.4579207763672,0.0075382892973721,-0.0112222637981176,-0.8554816842079163,0.517656683921814,0.0267767736889164,0.0728005917173816,2.983285948551716,-0.0850916281342506,0.0584717132151126,-0.0151135232299566,0.249916410651058,0.0563318837340921,-9.740897020697592,14996.0
43.31,2.400000095367432,295.0,21.72182846069336,24.674354553222656,-79.78275316534334,40.45906532957285,332.0513884887696,0.0037109446711838,-0.0158656034618616,-0.8551591038703918,0.5181096196174622,0.0498770982415759,0.1042810225350168,3.0082237313780382,-0.1776150614023208,-0.0659500584006309,-0.0249077789485454,0.2951297133229673,0.2144089195132256,-9.83122188448906,14997.0
43.5,2.400000095367432,296.0,21.67800521850586,25.66037368774414,-79.78275325112853,40.45906534695502,332.64347528076166,0.002015063073486,-0.0190034117549657,-0.8558797240257263,0.5168217420578003,0.0833388604449106,0.0933329807358968,2.9976932860546244,0.0684466436505317,0.0522822104394435,0.0407267361879348,0.2594551197253168,0.0782523003593087,-9.763920432329178,14997.0
43.6,2.5,296.0,21.69428253173828,25.44567680358887,-79.78275327196117,40.45906532201568,332.9440810546875,0.0034541115164756,-0.0176029074937105,-0.8562307953834534,0.5162819623947144,0.0717758247285115,0.0993905410656988,3.0103330847511183,-0.0086926650255918,-0.0756439790129661,0.0120363710448145,0.2990559724532068,0.20951112722978,-9.879532749652864,14997.0
43.7,2.5,299.0,21.71807098388672,24.91290855407715,-79.78275329241573,40.45906530100977,333.24564813232416,0.0048723286017775,-0.0148477153852581,-0.8564243912696838,0.5160360336303711,0.0613986495253618,0.0931251164835312,3.0153589789867743,0.0104299634695053,0.0241706781089305,0.0068130511790513,0.283691737242043,0.0817941598780453,-9.884789396524427,14998.0
43.9,2.5999999046325684,300.0,21.713064193725582,24.865196228027344,-79.78275339003481,40.45906529941664,333.8398330078125,0.0038100180681794,-0.0131295481696724,-0.8559134006500244,0.5169385075569153,0.0329705476029901,0.0759831087487795,3.0308737409952955,-0.1457639634609222,-0.0515825152397155,-0.0843817740678787,0.2424037983454764,0.1829133309423924,-9.865467857122422,14998.0
44.0,2.400000095367432,303.0,21.67550277709961,25.46953201293945,-79.78275347029587,40.45906537630552,334.1292693481445,0.0016527926782146,-0.0143268788233399,-0.8556917309761047,0.5172850489616394,0.0312358109329927,0.0625128877078936,3.016841898566654,-0.1093019470572471,0.0318405739963054,-0.0320562086999416,0.2346772875823081,0.1326416933722794,-9.79640756249428,14999.0
44.2,2.5,307.0,21.713064193725582,24.65049934387207,-79.78275351747386,40.459065367894894,334.7327468261719,0.0026918733492493,-0.0160716325044631,-0.8553727865219116,0.5177567601203918,0.0381124084228018,0.0705393160397109,3.0175550146544032,-0.099084310233593,-0.0600683093070983,-0.0364584438502788,0.3073335650190711,0.1607714053429663,-9.814885933399204,14999.0
44.4,2.5,315.0,21.690526962280277,25.67627716064453,-79.78275359784402,40.459065377975946,335.3219344482422,0.0024881684221327,-0.011868861503899,-0.8557621240615845,0.5172273516654968,0.0349185925881808,0.0788932743648506,2.99597699775483,-0.0463856346905231,-0.0252019464969635,-0.0428047478199005,0.3235843660309911,0.0521818772424012,-9.742450625896453,15000.0
44.51,2.400000095367432,313.0,21.660476684570312,25.10375022888184,-79.78275362195909,40.45906546055136,335.61218713378906,0.0024397266097366,-0.0099042290821671,-0.8560633659362793,0.5167702436447144,0.0176178315621216,0.0633756961928918,2.992181736240868,-0.0431278944015502,-0.0534560941159725,0.0055613224394619,0.2148890672810376,0.1111878023296594,-9.730646851658822,15000.0
44.6,2.5,311.0,21.72808837890625,24.38809013366699,-79.78275362451683,40.45906546245634,335.91138909912115,0.0027532333042472,-0.0097854370251297,-0.8564557433128357,0.5161203145980835,0.0135681053474618,0.0544865716965087,2.9876562246670395,-0.0069478028453886,0.0418102331459522,0.0077749406918883,0.2024891328625381,0.0675529281143099,-9.746072975993156,15000.0
44.81,2.5,311.0,21.58159828186035,27.043983459472656,-79.7827536606023,40.45906554259751,336.4984862670898,0.0062956362962722,-0.0126204639673233,-0.8566641807556152,0.5156818032264711,0.0009257026255387,0.0794636182028042,2.977346387524036,-0.0832506343722343,0.0114466827362775,-0.0830409899353981,0.2421286137588322,0.1933704365976155,-9.707834524512291,15001.0
44.9,2.5999999046325684,312.0,21.662981033325195,26.169288635253903,-79.78275364969355,40.45906553925398,336.7964217529297,0.0069267838262021,-0.0127048874273896,-0.8561223149299622,0.5165708065032959,0.0029240873100241,0.0946128340958346,2.9806298131822486,-0.0422585904598236,0.0153828663751482,-0.0593362972140312,0.3122261130809784,0.0908088031131774,-9.847440891265869,15001.0
45.1,2.5999999046325684,313.0,21.610395431518555,26.773622512817383,-79.78275363031537,40.45906560220834,337.37981866455084,0.0062251109629869,-0.0098826372995972,-0.8546962738037109,0.5189971327781677,0.012262152758601,0.105321731572137,2.98981720418014,-0.068845734000206,-0.0643227696418762,-0.0429337657988071,0.3030668883025646,0.0874714590981602,-9.881645933389663,15002.0
45.3,2.700000047683716,312.0,21.672998428344727,25.000377655029297,-79.78275357386757,40.45906564927919,337.9642684326172,0.0046107838861644,-0.0156930051743984,-0.8547477126121521,0.5187860131263733,0.0097564208817144,0.1138188769314255,2.9881240099374784,-0.0916196778416633,-0.0277639869600534,-0.0136567978188395,0.2773027039691806,-0.0502199445292353,-9.912022218704225,15002.0
45.4,2.700000047683716,312.0,21.67675399780273,25.19917106628418,-79.7827535403149,40.45906563382509,338.26287530517584,0.0031381291337311,-0.0178893897682428,-0.8552400469779968,0.5179137587547302,0.0335013537267003,0.1272871440171084,2.977365778844386,0.0103017454966902,-0.0308790393173694,0.1229456439614296,0.3123353463783861,-0.0711055410280823,-9.741681717038157,15003.0
45.5,2.900000095367432,308.0,21.664234161376957,25.60471153259277,-79.78275357634976,40.459065719686585,338.5524871215821,0.0036747432313859,-0.0176453478634357,-0.8559194803237915,0.5167950391769409,0.040539290215267,0.1268599571839096,2.9785291897490387,0.0958038717508316,0.0245388764888048,0.123790219426155,0.3106662586703897,-0.0355752274766564,-9.778006374835966,15003.0
45.7,2.900000095367432,309.0,21.71556663513184,24.73796844482422,-79.78275351935065,40.45906570844397,339.1489226684571,0.0067168856039643,-0.0162421092391014,-0.8564328551292419,0.5159592628479004,0.0129610375062041,0.1214064721144788,2.9768974353383784,0.0169800911098718,-0.008164937607944,0.0067347660660743,0.3612753719463945,0.017318059480749,-9.799288485646253,15004.0
45.9,2.900000095367432,309.0,21.66172981262207,25.64447021484375,-79.78275347533443,40.45906582320402,339.73385308837885,0.0053894934244453,-0.0160070564597845,-0.8559035062789917,0.5168595910072327,0.0032050535252934,0.1252267085765667,2.9476709258667166,0.0375478528439998,-0.0195930451154708,-0.0712822303175926,0.3596560952067375,0.0225511895818635,-9.710811926722528,15004.0
46.0,3.0999999046325684,304.0,21.649208068847656,25.75579643249512,-79.78275343373906,40.45906589047454,340.0221221313477,0.004934664350003,-0.01596499979496,-0.8553896546363831,0.5177155137062073,0.0044232659128595,0.128990773543579,2.9572976317906936,-0.0252649895846843,-0.0543808601796627,-0.027527617290616,0.4085972536727786,0.1037899781763553,-9.76879993379116,15005.0
46.2,3.0999999046325684,304.0,21.649208068847656,25.19917106628418,-79.78275335359974,40.45906589075849,340.61706994628906,0.0061522885225713,-0.0176548119634389,-0.8547134995460509,0.5187632441520691,0.0061619636758158,0.1390400939455973,2.9866556891556053,-0.0282052215188741,-0.0310743395239114,-0.0774271711707115,0.4245117301493883,0.000916811437346,-9.91806122303009,15005.0
46.3,3.2000000476837163,304.0,21.69428253173828,24.91290855407715,-79.78275329402426,40.459065922379,340.90341638183594,0.0059621823020279,-0.017875425517559,-0.8546806573867798,0.5188120603561401,0.0114623535947666,0.1586859830947099,2.996705453412857,-0.0017899946542456,-0.0260188728570938,0.0528460703790187,0.4189805930480361,0.0148137472663074,-9.954368923902512,15005.0
46.4,3.0999999046325684,304.0,21.65171241760254,25.33435249328613,-79.78275323484355,40.4590659115878,341.20431207275385,0.0057597551494836,-0.018305879086256,-0.8549067378044128,0.5184267163276672,0.014335782402422,0.1607242553577286,3.013628225226189,0.0343362092971801,0.0733940228819847,0.0918041318655014,0.4010179831087589,0.0225062254071235,-9.977102898359297,15006.0
46.6,3.0999999046325684,302.0,21.716819763183597,24.197248458862305,-79.78275314677681,40.45906599178585,341.7964522705078,0.0097180539742112,-0.0192300099879503,-0.8554566502571106,0.5174261927604675,0.0006135320962619,0.1710516973008448,3.0336604468823523,0.0091389752924442,0.001670918543823,0.0667776986956596,0.4687581226229668,0.0985412433184683,-9.90383260846138,15006.0
46.7,3.0999999046325684,302.0,21.73434829711914,24.01435661315918,-79.78275308545771,40.45906598810471,342.0999724731445,0.0121938697993755,-0.0198862235993146,-0.8560721874237059,0.5163297057151794,-0.0081862847293111,0.1754061595753066,3.02227402356768,0.053678248077631,0.0642716437578201,0.0059758350253105,0.4484446030855179,0.0014586244896054,-9.724233040809631,15007.0
46.9,3.2000000476837163,303.0,21.57032966613769,27.74374008178711,-79.78275296062051,40.459066097568986,342.68173669433594,0.0116659225896,-0.0223496221005916,-0.8572066426277161,0.5143551230430603,-0.0199137500859797,0.1804775157754708,2.9821668236772494,0.0165626984089612,0.0253777503967285,0.068887174129486,0.4549402749538422,0.0421999126765877,-9.771862705349925,15007.0
47.1,3.2000000476837163,306.0,21.70054244995117,25.03218460083008,-79.78275288540152,40.45906619546753,343.2751281127929,0.0097732320427894,-0.0173020288348197,-0.8574526906013489,0.5141789913177489,-0.0109697689927007,0.1639686796497495,3.0309655761411967,-0.0583722218871116,-0.0811941623687744,-0.0415393784642219,0.3523435673117638,0.3097220429778099,-9.967015281915666,15008.0
47.2,3.2000000476837163,307.0,21.664234161376957,25.09579849243164,-79.78275285771116,40.45906619638915,343.5786177978516,0.0082775009796023,-0.0153681011870503,-0.8571575284004211,0.5147586464881897,-0.0060444249277143,0.1388251492569212,3.0299833480133582,-0.037300020456314,-0.0254669673740863,-0.0420059822499752,0.3180846942588687,0.1200929929967969,-9.803531225323676,15008.0
