time,wind_speed,wind_angle,battery_voltage,battery_current,position_x,position_y,position_z,orientation_x,orientation_y,orientation_z,orientation_w,velocity_x,velocity_y,velocity_z,angular_x,angular_y,angular_z,linear_acceleration_x,linear_acceleration_y,linear_acceleration_z,node_ids
0.0,0.6000000238418579,171.0,25.58440399169922,-0.1113248318433761,-79.78277859824064,40.4590714388515,264.1284374088645,-0.0018485034815967,0.0112168723717331,-0.7491140961647034,0.6623435020446777,-0.0098368084958761,-0.0095388201735182,0.014834166035168,0.0005492126801982,0.0005368722486309,0.0039206924848258,-0.1966403823159635,-0.1379655832238495,-9.809279623031616,14929.0
0.2,0.6000000238418579,167.0,25.59191703796387,-0.1192766055464744,-79.78277851892052,40.45907132655125,264.1266215757132,-0.0018318402580916,0.0112632475793361,-0.7491115927696228,0.6623455882072449,-0.0055071063714659,-0.0060489085933725,0.0135909176311464,-0.0029252059757709,-0.0009499908192083,-0.0090129263699054,-0.1981914659030736,-0.1292613357771188,-9.808679698705674,14929.0
0.3,0.5,166.0,25.578144073486328,-0.1351801604032516,-79.78277852532094,40.459071332464816,264.1280124128461,-0.0018468429334461,0.0112549411132931,-0.7491131424903871,0.6623439788818359,-0.0064173397031973,-0.0068768026685631,0.0138700362333378,0.0041888854466378,0.0027955016121268,0.0058069098740816,-0.196433226428926,-0.1424306724127382,-9.810922690629962,14929.0
0.5,0.5,169.0,25.59316825866699,-0.1113248318433761,-79.78277846829477,40.45907122661807,264.12553657001257,-0.0018552999245002,0.0112630780786275,-0.7491188049316406,0.6623373627662659,-0.0058802126930658,-0.0087640115674239,0.012299907740276,-0.0053745452314615,-0.0004603001580107,-0.0079486723989248,-0.1991318809054792,-0.1288127995189279,-9.808066910505293,14929.0
0.6,0.5,170.0,25.59066390991211,-0.1033730581402778,-79.78277847784902,40.45907123321963,264.1268038839698,-0.0018572875997051,0.0112488558515906,-0.7491255402565002,0.662329912185669,-0.0067906411870893,-0.0095966162096174,0.0125350376223541,0.0030406154692173,0.0021362316329032,0.0059885340742766,-0.19580205604434,-0.1445360811799764,-9.811457126140596,14929.0
0.8,0.5,172.0,25.59191703796387,-0.1033730581402778,-79.78277842592323,40.45907114095691,264.1249982879162,-0.0018605543300509,0.0112655125558376,-0.7491334080696106,0.6623207926750183,-0.0080683207941784,-0.0106113903782675,0.0123453329637503,0.0019832679536193,-0.0019891583360731,-0.0069654840044677,-0.1983228638023138,-0.1301023389771581,-9.809234599471091,14929.0
0.9,0.5,171.0,25.58440399169922,-0.0874695107340812,-79.78277833631452,40.45907102331672,264.1219640911221,-0.0018561765318736,0.0112964827567338,-0.7491334080696106,0.6623201966285706,-0.0010425132314098,-0.0042675168319784,0.0116960800910644,0.0069518079981207,0.0025081592611968,0.0077535742893815,-0.1945169476792216,-0.1460468646604567,-9.81163488149643,14929.0
1.1,0.5,169.0,25.59066390991211,-0.0954212844371795,-79.78277834577109,40.45907102911929,264.12440963989496,-0.0018427388276904,0.0112892398610711,-0.7491372227668762,0.6623161435127258,-0.0048643593147474,-0.0052578713473052,0.0124225310137412,-0.0001908609701786,0.0004188097082078,-0.0069760768674314,-0.1951730418205261,-0.1313307658955455,-9.81002455830574,14929.0
1.2,0.5,169.0,25.59066390991211,-0.0954212844371795,-79.78277828223487,40.45907092740315,264.1210107818842,-0.0018420114647597,0.0113107990473508,-0.7491405606269836,0.6623119115829468,-0.0032875795067819,-0.007249624623162,0.0113856309086152,0.0040789959020912,0.0009095666464418,0.0075373477302491,-0.1940361238270998,-0.1456062312796712,-9.813044060468677,14929.0
1.4,0.5,170.0,25.59316825866699,-0.1033730581402778,-79.78277822333595,40.4590708424715,264.11882908052206,-0.0018754191696643,0.0112923244014382,-0.7491336464881897,0.6623199582099915,-0.0075003082528362,-0.0090078496709918,0.0108913593538504,0.0019613397307693,0.0033780287485569,0.0002991239307448,-0.1965873371064663,-0.1350105283409357,-9.809783068299296,14929.0
1.5,0.5,168.0,25.59817695617676,-0.0874695107340812,-79.78277823248754,40.459070850300456,264.11996223932505,-0.0018779120873659,0.0112956939265131,-0.7491322755813599,0.6623215079307556,-0.0092927439407355,-0.0094569207245536,0.0111418355493517,0.0018628557445481,0.0036477530375123,0.006550196558237,-0.1943432305566966,-0.1471742809284478,-9.812247669696808,14929.0
1.7,0.5,168.0,25.59316825866699,-0.0874695107340812,-79.78277814678246,40.45907075396092,264.1192669958472,-0.0018706528935581,0.0113204000517725,-0.7491308450698853,0.6623226404190063,-0.0073433316113254,-0.0051482250862635,0.0137001445425489,0.0023114716168493,0.0024062318261712,0.0014442666433751,-0.1976903047040105,-0.1375012138020247,-9.81076013803482,14929.0
1.8,0.5,170.0,25.58440399169922,-0.1033730581402778,-79.78277815154834,40.45907076205466,264.12067815071345,-0.0018702546367421,0.0113058611750602,-0.7491120100021362,0.662344217300415,-0.0093523371279797,-0.0057243510577148,0.0140642961922426,0.001186623936519,0.0015256463084369,0.0075997314415872,-0.1956080563925206,-0.1465182141959667,-9.812334208488464,14929.0
2.0,0.6000000238418579,169.0,25.596923828125,-0.0954212844371795,-79.78277809771747,40.45907063983855,264.1184129804969,-0.0018422135617583,0.0113181564956903,-0.7491111755371094,0.6623450517654419,-0.0029228428716608,-0.0076899196196865,0.0126199055933338,0.0030460685957223,0.0013099015923216,0.0055781402625143,-0.1978680417872965,-0.1383922381047159,-9.809645074009897,14929.0
2.1,0.6000000238418579,167.0,25.58815956115723,-0.1033730581402778,-79.78277810610591,40.45907064424287,264.11971198177343,-0.001852695364505,0.0113046197220683,-0.7491015195846558,0.6623561382293701,-0.0048523603356193,-0.00820220401391,0.0129117523733504,0.0021314818877726,-0.0025040523614734,0.0054042264819145,-0.1952128028869629,-0.1457324763201177,-9.811060684919358,14929.0
2.3,0.6000000238418579,162.0,25.59191703796387,-0.0954212844371795,-79.78277805078945,40.45907054113483,264.1156746462584,-0.001834966475144,0.0113215614110231,-0.7490957379341125,0.6623625159263611,-0.0048579390822895,-0.0094477639418861,0.0085176942579427,0.0030189864337444,0.0051927687600255,0.0027707798872143,-0.198987728767097,-0.1299533994309604,-9.809363238215449,14929.0
2.41,0.6000000238418579,160.0,25.585657119750977,-0.0874695107340812,-79.78277798642053,40.4590704305641,264.11275252109766,-0.001830912893638,0.0113281235098838,-0.7490942478179932,0.6623640656471252,-0.0030652117015152,-0.0094901959674231,0.0091028347345565,0.0004751840315293,-0.0010764006292447,0.0012548624072223,-0.1939194170571864,-0.1450496585760265,-9.8119482922554,14929.0
2.61,0.6000000238418579,159.0,25.59066390991211,-0.1113248318433761,-79.78277800811647,40.459070440256255,264.1146612853408,-0.0018158736638724,0.0113156260922551,-0.7490907311439514,0.6623682975769043,-0.0058023125683069,-0.010726450808805,0.0095186707732179,0.0033645532093942,0.0025787758640944,0.0046701249666512,-0.1963813323900104,-0.1422169932257384,-9.810122791528704,14929.0
2.7,0.6000000238418579,158.0,25.589412689208984,-0.0715659633278846,-79.78277792860766,40.459070337246736,264.1122418359518,-0.0018199887126684,0.0113381361588835,-0.749081015586853,0.6623788475990295,-0.0057085159984468,-0.0075168750034977,0.0099042072811544,-0.0008625850896351,-0.0015241657383739,0.0009473399841226,-0.1950633151642978,-0.1426419670321047,-9.811986883878706,14929.0
2.9,0.6000000238418579,154.0,25.58315277099609,-0.0874695107340812,-79.78277785780071,40.45907023715315,264.11104450529814,-0.0018302833195775,0.0113297877833247,-0.7490776777267456,0.6623828411102295,-0.0053323029167182,-0.0057267656666837,0.0101160269055203,0.0057562105357646,-0.0002303672517882,0.0067797470837831,-0.1958667774125933,-0.1444030022062361,-9.810843168497088,14929.0
3.0,0.6000000238418579,153.0,25.595672607421875,-0.1033730581402778,-79.78277786348575,40.45907024299628,264.1120998874904,-0.0018207461107522,0.0113323098048567,-0.7490728497505188,0.6623882055282593,-0.0077838081129768,-0.0061442343493441,0.0105231464331224,-0.0023712650872766,-0.0018645387608557,0.0019161360105499,-0.1970854102447628,-0.1409669224731624,-9.810962451696398,14929.0
3.2,0.6000000238418579,151.0,25.58440399169922,-0.0795177370309829,-79.78277780592377,40.45907011696449,264.11129037445784,-0.0018273211317136,0.0113421799615025,-0.749068021774292,0.6623935699462891,-0.0005362076360501,-0.0077082680062293,0.0104698141717776,0.0069359731860458,0.0017888294532895,0.0056547722779214,-0.1949958346411585,-0.1444644436519593,-9.811321470737456,14929.0
3.3,0.6000000238418579,151.0,25.596923828125,-0.0874695107340812,-79.78277781467268,40.45907011930802,264.1123787701726,-0.0018212894210591,0.0113259172067046,-0.7490659356117249,0.6623961329460144,-0.0030563027880981,-0.0080200545453261,0.0109433408358039,-0.0051201563328504,-0.0016228732420131,-0.0040277442894876,-0.1969914527982473,-0.1390588115528226,-9.812380986213684,14929.0
3.51,0.6000000238418579,151.0,25.59316825866699,-0.0954212844371795,-79.7827777787318,40.45907003153751,264.11190018212795,-0.0018058678833767,0.0113411135971546,-0.7490668892860413,0.6623948216438293,-0.0067497550758063,-0.0140713386000878,0.0106248973348677,0.0063055413775146,0.0018493916140869,0.0088601186871528,-0.1954308309406042,-0.146349321026355,-9.812150605916976,14929.0
3.71,0.6000000238418579,149.0,25.595672607421875,-0.0715659633278846,-79.78277779414678,40.45907004003596,264.11302171802515,-0.001809861161746,0.0113664539530873,-0.7490637302398682,0.6623979806900024,-0.0091705241337502,-0.0145234737832189,0.0110665924605704,-0.0054626637138426,-0.0044125220738351,-0.0060524591244757,-0.1987034079059958,-0.1369290272053331,-9.812031322717669,14929.0
3.8,0.6000000238418579,146.0,25.585657119750977,-0.0238553211092948,-79.78277770664587,40.45906992231858,264.1131225616336,-0.001797494245693,0.0114028770476579,-0.7490625381469727,0.6623987555503845,-0.0049950384830242,-0.0094103108617721,0.0114177033528063,0.0081442715600132,-0.0003798129619099,0.0048605035990476,-0.1972287035733461,-0.1319423024263233,-9.810854862928393,14929.0
3.9,0.6000000238418579,147.0,25.59191703796387,-0.0874695107340812,-79.78277761556741,40.45906981283121,264.11406569337845,-0.0017856404883787,0.0114138526841998,-0.7490476965904236,0.6624153852462769,-0.0044128042375253,-0.005611236601611,0.0150038269881456,-0.0060966331511735,0.0007198342354968,-0.0063192211091518,-0.1984843383170664,-0.134112816285342,-9.8104525744915,14929.0
4.1,0.6000000238418579,148.0,25.589412689208984,-0.0874695107340812,-79.78277762747895,40.45906982309826,264.1171483860016,-0.0017791877035051,0.0114008923992514,-0.7490355968475342,0.6624293327331543,-0.0066301990453699,-0.0065620500799727,0.0154929856513714,0.002459458541125,0.0013116626068949,0.0054191518574953,-0.1940129907801747,-0.1457863803394138,-9.813019502162934,14929.0
4.2,0.6000000238418579,148.0,25.59442138671875,-0.1033730581402778,-79.78277755686031,40.4590697282236,264.1166664302945,-0.0017619767459109,0.0113921891897916,-0.7490254044532776,0.662441074848175,-0.0088148843700033,-0.0082899207170079,0.0135440033566902,-0.0036433257628232,-0.002907128771767,-0.0079959481954574,-0.197867712881416,-0.1332949004508555,-9.81106302380562,14929.0
4.4,0.6000000238418579,151.0,25.58440399169922,-0.0874695107340812,-79.78277744987494,40.45906961906245,264.1199419811964,-0.001796691911295,0.0113947493955492,-0.7489990592002869,0.6624706387519836,-0.0069575762808902,-0.0022404945530988,0.0160538123971832,-0.0008441076497547,-0.0033743015956133,0.0049437768757343,-0.1949568410217762,-0.1460769412759691,-9.811747148036956,14929.0
4.5,0.6000000238418579,153.0,25.589412689208984,-0.0715659633278846,-79.78277745115919,40.459069625615726,264.12158321744204,-0.0017955882940441,0.0114049166440963,-0.7489857077598572,0.6624855399131775,-0.0091098147463181,-0.0026166561467179,0.0164609102547982,-0.004742220044136,0.0004580909153446,-0.0092656426131725,-0.198101108148694,-0.1343140610028058,-9.811312115192411,14929.0
4.71,0.6000000238418579,153.0,25.589412689208984,-0.0795177370309829,-79.78277736633143,40.45906950090613,264.1255907059312,-0.0017901416867971,0.0114262951537966,-0.7489892244338989,0.6624812483787537,-0.0031975439597429,-0.001673437275311,0.0178500250464377,-0.0028269449248909,-0.0001846252998802,0.006689446978271,-0.1942992485314608,-0.1462281740270555,-9.811650084257128,14929.0
4.8,0.6000000238418579,155.0,25.59066390991211,-0.1033730581402778,-79.7827773676227,40.459069504531726,264.12740142053366,-0.001784297870472,0.0114328591153025,-0.7489914298057556,0.6624786853790283,-0.005279745622292,-0.0020979645958917,0.018259848329396,-0.0049633248709142,0.0008438366930931,-0.0082447789609432,-0.1989032182283699,-0.1325330173876136,-9.81028534412384,14929.0
5.0,0.699999988079071,155.0,25.58440399169922,-0.0636141896247863,-79.78277727489001,40.459069393328576,264.13194283998007,-0.0017699686577543,0.0114328265190124,-0.7489692568778992,0.6625037789344788,-0.0048483888631996,-0.0015521000520285,0.01949065236476,0.0008291433332487,0.0011235385900363,0.0014015313936397,-0.194197050165385,-0.1457702730875462,-9.81187227845192,14929.0
5.1,0.699999988079071,154.0,25.5869083404541,-0.0079517737030982,-79.78277727576351,40.45906939835126,264.1339244485497,-0.0017478978261351,0.0114217344671487,-0.7489691376686096,0.6625041961669922,-0.0068655483217715,-0.0020110094191753,0.019980103182442,-0.0016882986528798,-0.0019441843032836,-0.0108834328129887,-0.1997314580529929,-0.1301464854553342,-9.809473165869711,14929.0
5.3,0.699999988079071,156.0,25.57939529418945,-0.0318070948123931,-79.78277721165244,40.45906928352264,264.13870994901663,-0.0017332568531855,0.0114536983892321,-0.748953640460968,0.662521243095398,-0.0053573926506294,-0.0057610850445254,0.0207829376424231,-0.003174303099513,-0.0002453023043926,0.0039442386478185,-0.1952162381261587,-0.1437989939656108,-9.812528336048128,14929.0
5.5,0.699999988079071,156.0,25.569379806518555,0.0715659633278846,-79.7827771422165,40.45906916822032,264.1415628284812,-0.0017014237819239,0.01146200299263,-0.7489514946937561,0.662523627281189,-0.0036082075177931,-0.0078241966278748,0.0168501976725976,0.0063993982039392,0.0025787584017962,0.005671274382621,-0.1980643620528281,-0.1291030132770538,-9.809374347925187,14929.0
5.6,0.699999988079071,156.0,25.585657119750977,-0.0715659633278846,-79.78277715045245,40.459069173146375,264.1432925925255,-0.0017014237819239,0.01146200299263,-0.7489514946937561,0.662523627281189,-0.0057108844812433,-0.0080964535669853,0.0172465455350113,-0.0036316830664873,0.0002366606786381,0.0004975367919541,-0.1964259722270072,-0.1403798802942037,-9.812169317007063,14929.0
5.8,0.8000000119209291,153.0,25.57438850402832,-0.0636141896247863,-79.78277706283913,40.45906904109003,264.14704255914694,-0.0016882169293239,0.011489188298583,-0.7489538788795471,0.6625204682350159,-0.0007632808384659,-0.0062606954015138,0.0162191867107157,0.005150266457349,0.0049364501610398,0.0053624529391527,-0.1947748464345932,-0.1460519718378782,-9.812330700159071,14929.0
5.9,0.8000000119209291,152.0,25.57689094543457,-0.0715659633278846,-79.78277696814054,40.45906890562521,264.1507742941976,-0.0016796721611171,0.0115108210593462,-0.7489543557167053,0.6625195741653442,0.0047459838291431,-0.0031862932873941,0.0179408140765534,-0.0034612617455422,-0.0015560915926471,-0.0031370331998914,-0.1979052446968853,-0.1368873932026326,-9.81168282866478,14929.0
6.1,0.8000000119209291,149.0,25.58315277099609,-0.0318070948123931,-79.78277697694394,40.45906889851248,264.15441823905707,-0.0016928262775763,0.0115125039592385,-0.7489510178565979,0.6625232696533203,0.0030925478684221,-0.0040788125251969,0.0184608054937619,0.0026291876565665,0.0029561063274741,0.0072910017333924,-0.1930936440266669,-0.1473595919832587,-9.81269907474518,14929.0
6.2,0.8999999761581421,149.0,25.5869083404541,-0.0318070948123931,-79.78277689797342,40.45906881895922,264.1584372163415,-0.0016772507224231,0.011502499692142,-0.7489598393440247,0.6625134348869324,-0.0066457582349255,-0.0070408332087152,0.0194388099111594,-0.0058169867843389,-0.0030915383249521,-0.0093133449554443,-0.1983735883980989,-0.1331776363682001,-9.810381238460543,14929.0
6.4,0.8999999761581421,151.0,25.57939529418945,0.0,-79.78277682290407,40.45906870002848,264.1623845413923,-0.00167350564152,0.0115033229812979,-0.7489511966705322,0.6625232100486755,-0.0034592953808299,-0.0082848138266384,0.0157903135025573,0.0022068561520427,0.0005223839543759,0.0042561939917504,-0.1947936671599746,-0.1463630254380405,-9.811046651601792,14929.0
6.5,0.8999999761581421,152.0,25.57063102722168,-0.0636141896247863,-79.78277683177211,40.45906870401185,264.16400362706185,-0.0016468254616484,0.0115101654082536,-0.7489513754844666,0.6625229716300964,-0.0051160662377456,-0.0086825797846137,0.0161589833977434,-0.0042579877190291,0.0007691166247241,-0.0076260599307715,-0.1994178462959826,-0.1302290316950529,-9.809312952160836,14929.0
6.7,1.0,153.0,25.57438850402832,-0.0238553211092948,-79.78277673594812,40.459068582747776,264.16833718276024,-0.0016273194923996,0.0115490807220339,-0.7489495873451233,0.6625243425369263,-0.0029723532977028,-0.0046548567442806,0.0155340119372969,-0.0025530823040753,-0.0001470452116336,0.0073171560652554,-0.195465694963932,-0.1451445205137133,-9.811510920524595,14929.0
6.8,1.0,153.0,25.578144073486328,-0.0318070948123931,-79.78277674085281,40.45906858617504,264.1699228451252,-0.0016133319586515,0.0115304822102189,-0.7489465475082397,0.6625282168388367,-0.0043803721992751,-0.0050740924295656,0.0159937640282635,-0.004870340693742,-0.0011449377052485,-0.0097063863649964,-0.1987737572193146,-0.1287683424074202,-9.81011577486992,14929.0
7.0,1.100000023841858,155.0,25.581899642944336,-0.0159035474061965,-79.78277666793416,40.45906847067639,264.17419733262057,-0.0016041045309975,0.0115256374701857,-0.7489469647407532,0.6625277996063232,-0.0032483079311071,-0.0071274763642577,0.0142802599680237,0.0004069274582434,-0.0018698060885071,0.002368624554947,-0.194966434109956,-0.1434442415647208,-9.81130626797676,14929.0
7.1,1.100000023841858,154.0,25.58315277099609,-0.0079517737030982,-79.78277667586231,40.45906847455185,264.1756507173777,-0.001599304145202,0.0115114590153098,-0.7489404082298279,0.6625354290008545,-0.004484507453681,-0.0077136459318137,0.0145389984950902,-0.0006447241757996,0.0023371770512312,-0.0076281074434518,-0.198431329652667,-0.128851646957919,-9.80751259446144,14929.0
7.3,1.0,155.0,25.575639724731445,-0.0397588685154914,-79.78277657547798,40.459068352561815,264.1822822854519,-0.001618470181711,0.0115316463634371,-0.7489325404167175,0.6625440120697021,-0.0044188700109539,-0.0051473858341396,0.0172568967156068,-0.0047190231271088,-0.0006336212391033,-0.0028433154802769,-0.1976852432079613,-0.1400116792973131,-9.811713234186174,14929.0
7.4,1.0,155.0,25.58440399169922,0.0079517737030982,-79.78277648968576,40.45906822552988,264.1852390036583,-0.001610905281268,0.0115282172337174,-0.7489311695098877,0.6625455617904663,-0.0019707444229243,-0.0066778984230827,0.014845414435987,0.001638299669139,0.0054878401570022,-0.004204521421343,-0.1982317934185266,-0.1309380157291889,-9.809614668488503,14929.0
7.6,1.0,157.0,25.58064842224121,0.0159035474061965,-79.78277650502237,40.45906823151995,264.1882846966982,-0.0016203100094571,0.0115300212055444,-0.7489209771156311,0.662557065486908,-0.0044168886048364,-0.0076551232916742,0.0152914323890202,-0.0029796841554343,-0.0003145546361338,-0.003344438271597,-0.19771352911368,-0.1363785301242023,-9.810059641599656,14929.0
7.7,1.0,159.0,25.581899642944336,-0.055662415921688,-79.78277640398173,40.459068103055664,264.19136250174046,-0.0015906654298305,0.0115585112944245,-0.7489333152770996,0.6625427007675171,-0.0005412107204077,-0.0053644474054142,0.0144478695983637,0.0020496370270848,0.0029023068491369,-0.0035380949266254,-0.1963127006962896,-0.1337706902157515,-9.809646828174593,14929.0
7.9,0.8999999761581421,157.0,25.589412689208984,-0.0874695107340812,-79.7827763110853,40.45906799009996,264.19573068773747,-0.0015781433321535,0.0115564968436956,-0.748913049697876,0.6625657081604004,-0.0014548733017501,-0.0031755185978477,0.0133843991689466,-0.0044588977470994,-0.0029918930958956,-0.0076958411373198,-0.1983946749195456,-0.1318758177570998,-9.810868896245958,14929.0
8.0,0.8999999761581421,157.0,25.595672607421875,-0.0795177370309829,-79.7827763145536,40.45906799138928,264.19708253598213,-0.0015611867420375,0.0115465344861149,-0.7489094138145447,0.6625699996948242,-0.001604550725284,-0.0039055265018441,0.013537259022332,0.0041593154892325,0.003723360132426,0.0022590844891965,-0.1969899909943342,-0.138570596454665,-9.809679572582246,14929.0
8.2,0.8999999761581421,156.0,25.59191703796387,-0.0874695107340812,-79.78277624044348,40.459067875042,264.2011612669229,-0.001527699874714,0.0115505317226052,-0.7488915324211121,0.6625901460647583,-0.0014300983850302,-0.0065296112260781,0.0128217514738444,-0.0008615896804258,-0.0020839923527091,-0.0125505467876791,-0.1994297965429723,-0.1286537278443575,-9.809526960253717,14929.0
8.3,0.8000000119209291,157.0,25.59442138671875,-0.1033730581402778,-79.78277624812145,40.45906787699262,264.2024640307426,-0.001516135293059,0.0115342242643237,-0.7488881349563599,0.6625943183898926,-0.0014941422731084,-0.0074061323109754,0.0129430965428632,0.004907757975161,0.0025720736011862,0.0029951175674796,-0.1970790513977408,-0.1440931911393999,-9.810672429800034,14929.0
8.5,0.699999988079071,158.0,25.59316825866699,-0.0954212844371795,-79.78277620292639,40.45906775888582,264.2064711318016,-0.0014706159709021,0.011534865014255,-0.7488724589347839,0.6626121997833252,-0.0007794770301082,-0.0132365957606061,0.0124181472565027,0.0004873058351222,0.0041013564914464,-0.0108519904315471,-0.1993244004808366,-0.1286494155228138,-9.808656309843064,14929.0
8.6,0.699999988079071,157.0,25.59442138671875,-0.1033730581402778,-79.78277621844992,40.45906776114347,264.20774223065376,-0.0014590823557227,0.011539296247065,-0.7488698959350586,0.6626150608062744,-0.0009907038879046,-0.0140734020549785,0.0124626036592118,0.003011729568243,0.0006216840702109,0.0047047943808138,-0.1940260191075504,-0.1473237686511129,-9.811915547847748,14929.0
8.8,0.699999988079071,156.0,25.581899642944336,-0.0715659633278846,-79.7827761066407,40.45906760332706,264.2110680655241,-0.0014331325655803,0.0115488478913903,-0.7488535642623901,0.6626332998275757,0.0046895048306403,-0.0058696282501528,0.0125618691061517,-0.0016663663554936,0.0034068650566041,-0.0030021467246115,-0.1965945913083852,-0.1318659323081374,-9.808844005465508,14929.0
8.9,0.699999988079071,156.0,25.59442138671875,-0.0954212844371795,-79.78277603302776,40.45906750174844,264.21266827142244,-0.0014256063150241,0.0115325124934315,-0.7488399147987366,0.6626490354537964,0.0011187018275011,-0.0076183658005569,0.0119802583902393,0.0014507444575428,0.0022019676398485,0.0071848011575639,-0.1943273699842393,-0.1464319769013673,-9.81277508854866,14929.0
9.11,0.699999988079071,157.0,25.58440399169922,-0.0874695107340812,-79.78277605170514,40.45906750290357,264.2151686117649,-0.0014241120079532,0.0115441847592592,-0.748834490776062,0.6626549959182739,-0.0004608927075084,-0.0090996414244844,0.0126117664516008,0.0018967279465869,0.0038727095816284,0.0014808073174208,-0.1958360978029668,-0.1362993277609348,-9.810596415996551,14929.0
9.2,0.8000000119209291,156.0,25.59316825866699,-0.0874695107340812,-79.78277596391436,40.45906734398356,264.2160435781479,-0.0014183160383254,0.0115638766437768,-0.7488264441490173,0.6626638174057007,0.0093276067333382,-0.0050151980027457,0.0122218692350865,0.0004844660579692,0.0003672687453217,0.0046577909961342,-0.1946875584684312,-0.1455875019170344,-9.81054379105568,14929.0
9.4,0.8000000119209291,156.0,25.58315277099609,-0.0874695107340812,-79.78277588586441,40.45906725286496,264.2171648011208,-0.001428966410458,0.0115543194115161,-0.7488057017326355,0.6626873016357422,-0.0021058852395152,-0.004616185689471,0.011439165887136,0.0066358912736177,0.005189046729356,0.0063258539885282,-0.1973288371413946,-0.1427468788716942,-9.80998772084713,14929.0
9.5,0.8000000119209291,157.0,25.585657119750977,-0.0795177370309829,-79.78277589063136,40.459067255428025,264.21833984708786,-0.0014359190827235,0.011553781107068,-0.7488059997558594,0.6626870036125183,-0.0034923707943846,-0.0051380187956067,0.0117747051226583,-0.0014566952595487,-0.0021567363291978,0.0026145291049033,-0.1963850417174399,-0.1409280750341713,-9.8114688205719,14929.0
9.7,0.8000000119209291,159.0,25.585657119750977,-0.0954212844371795,-79.78277581365411,40.45906711735128,264.2186553493738,-0.0014119639527052,0.0115555636584758,-0.7487922906875609,0.6627025604248047,0.0018396437679881,-0.0034144685262961,0.0114741316219884,0.0047929733991622,0.0011868142755702,0.0077683869749307,-0.1944678676128388,-0.1462205178290605,-9.811844211816789,14929.0
9.8,0.8000000119209291,159.0,25.59066390991211,-0.0954212844371795,-79.78277581784515,40.45906711671414,264.2198249117136,-0.001406101626344,0.0115619171410799,-0.7487915754318237,0.662703275680542,0.0002068698253662,-0.003975226563229,0.0117609851592185,-0.0025030777323991,-0.0037547573447227,-0.0018785373540595,-0.1981035201251507,-0.1382728087250143,-9.810705174207689,14929.0
10.0,0.8000000119209291,159.0,25.58315277099609,-0.0636141896247863,-79.78277576984023,40.45906701788429,264.2196387217045,-0.0013846352230757,0.0115664564073085,-0.7487750053405762,0.6627219319343567,-0.0026103879488298,-0.0074317057773256,0.0112924900466262,0.006640822160989,0.0005881381221115,0.0097212623804807,-0.1940336935780942,-0.1467518835514784,-9.812264041900637,14929.0
10.1,0.8000000119209291,159.0,25.59191703796387,-0.0874695107340812,-79.78277577820829,40.45906702156439,264.2208058104515,-0.0013755828840658,0.0115729561075568,-0.7487596869468689,0.662739098072052,-0.0041790913543415,-0.0080808556224531,0.011622048304179,-0.004575268831104,-0.0026168157346546,-0.0046867229975759,-0.1988638408854604,-0.136094784848392,-9.81044789671898,14929.0
10.3,0.8999999761581421,160.0,25.59066390991211,-0.1033730581402778,-79.78277570790976,40.45906687984621,264.22002871489525,-0.0013580705272033,0.0116038834676146,-0.7487579584121704,0.6627405285835266,0.0038402829322803,-0.0058739949337576,0.0114425160291065,0.002394059440121,-0.0013413111446425,0.0057666227221488,-0.1943963305838406,-0.1460486919153481,-9.812058219909668,14929.0
10.4,0.8999999761581421,160.0,25.585657119750977,-0.0954212844371795,-79.7827756210508,40.45906675467446,264.21726425147057,-0.0013513753656297,0.0116296680644154,-0.748758852481842,0.6627391576766968,0.0055207390121447,-0.0001140228410145,0.0110920846466567,-0.0063037141226232,-0.0023618652485311,-0.0074498699977993,-0.1979436170496046,-0.1352214757818728,-9.810134485960008,14929.0
10.6,0.8999999761581421,160.0,25.58815956115723,-0.1033730581402778,-79.78277562399275,40.45906674457596,264.2195082322359,-0.0013365037739276,0.0116399209946393,-0.7487597465515137,0.6627379655838013,0.0053321025330177,-0.0016614919760727,0.0114618135651142,0.0020252098329365,-0.0003511823015287,0.0069643254391849,-0.1946509402804076,-0.1458476025145501,-9.811950631141665,14929.0
10.7,0.8999999761581421,157.0,25.581899642944336,-0.1033730581402778,-79.78277563143357,40.45906665106363,264.2155970350504,-0.0013235112419351,0.0116155259311199,-0.7487656474113464,0.6627317070960999,0.0011202949793959,-0.0133831913806552,0.0105767716072866,-0.0061752698384225,-0.0063887741416692,-0.0064412774518132,-0.1992343716323376,-0.1335814505629241,-9.810950757265092,14929.0
10.9,0.8999999761581421,156.0,25.59066390991211,-0.0954212844371795,-79.78277557471591,40.45906654594475,264.2124616966248,-0.0013317058328539,0.0116325011476874,-0.7487592101097107,0.6627386808395386,0.0012900327918573,-0.008524637782117,0.0105012970535258,0.0035480489023029,0.0023548940662294,0.0045092576183378,-0.1944464156404137,-0.1462215959094464,-9.812834730148316,14929.0
11.0,0.8999999761581421,155.0,25.58440399169922,-0.0874695107340812,-79.78277558475679,40.459066545785866,264.2135449514389,-0.0013201207621023,0.0116365300491452,-0.7487564682960509,0.6627417802810669,0.0001221325544126,-0.0090940098067853,0.010879648749336,-0.0032656481489539,-0.0038145219441503,-0.005735301412642,-0.1990693705156444,-0.1334559912420809,-9.810680615901948,14929.0
11.2,0.8999999761581421,153.0,25.59316825866699,-0.0477106422185897,-79.78277555385515,40.45906643965653,264.2074098453522,-0.0013240521075204,0.0116539988666772,-0.7487512826919556,0.6627472639083862,0.0011552267564069,-0.0101093417440861,0.0069786993851483,0.0020179857965558,-0.0022338947746902,0.00679676188156,-0.1954250750876963,-0.1459297467581928,-9.811004551649097,14929.0
11.3,0.8999999761581421,154.0,25.58440399169922,-0.0954212844371795,-79.78277556603548,40.45906643999307,264.20814640975,-0.0013077305629849,0.0116496430709958,-0.7487382292747498,0.6627621650695801,7.392421571023188e-05,-0.0107272742875095,0.0073653255527686,-0.0063559948466718,-0.0012778635136783,-0.0031628881115466,-0.1986276499181986,-0.1324597627390176,-9.810161383152009,14929.0
11.5,0.8999999761581421,152.0,25.58315277099609,-0.0954212844371795,-79.78277549318288,40.45906627563239,264.20238158261776,-0.0013176199281588,0.0117041431367397,-0.748726487159729,0.6627744436264038,0.0106010752963707,-0.0032626370311616,0.0078474783268432,0.0009252010495401,-0.0004452560388017,0.006270283833146,-0.1954862333089112,-0.1461131117865443,-9.810935554504397,14929.0
11.6,0.8999999761581421,151.0,25.581899642944336,-0.0954212844371795,-79.78277549868277,40.45906626670378,264.2031754270792,-0.001311091473326,0.0117032853886485,-0.7487200498580933,0.6627817749977112,0.0095987414728503,-0.0038397463831761,0.0081482930635031,-0.0034360627178102,-6.90931556164287e-05,-0.0092984465882182,-0.198893022146076,-0.1313356812112033,-9.809159170389176,14929.0
11.8,0.8000000119209291,149.0,25.58064842224121,-0.1033730581402778,-79.7827755341922,40.45906622538816,264.1970373258591,-0.0013247948372736,0.0117074446752667,-0.7487026453018188,0.6628013849258423,-0.0028240257786602,-0.0157296284551219,0.0079713927231452,0.0019375925185158,0.000691044027917,0.0019904163200408,-0.19434485681355,-0.1457394107524305,-9.811756503582002,14929.0
11.9,0.8000000119209291,150.0,25.58315277099609,-0.0954212844371795,-79.78277547734452,40.45906610163832,264.1900396511556,-0.0013086310354992,0.0117186047136783,-0.748701810836792,0.6628020405769348,0.0034284694727514,-0.0107566712537964,0.0081683491702049,-0.004708151333034,-0.0017504596617072,-0.0077737066894769,-0.1983131428062916,-0.1314750916231423,-9.808593744635582,14929.0
12.11,0.8000000119209291,148.0,25.58440399169922,-0.0954212844371795,-79.7827755047002,40.45906609757551,264.1917487398386,-0.0012938126455992,0.0117310592904686,-0.7486985325813293,0.6628055572509766,0.0031697259711238,-0.0121765016132253,0.0085437137170299,0.0022247831802815,0.0001627093588467,0.0056001683697104,-0.1946870833821594,-0.1459788999147713,-9.81128054022789,14929.0
12.2,0.8000000119209291,148.0,25.58064842224121,-0.0795177370309829,-79.78277544120756,40.45906600144348,264.1843327150345,-0.0012855513487011,0.0117426635697484,-0.7486836910247803,0.6628222465515137,0.0021128172901685,-0.0074503409946078,0.0086372961749451,-0.0056750681251287,-0.0010542650707066,-0.0097880689427256,-0.1994799364171922,-0.1309070072136819,-9.807739466428757,14929.0
12.4,0.8999999761581421,149.0,25.59191703796387,-0.0874695107340812,-79.78277541521656,40.45906588619872,264.1771741822958,-0.0012581114424392,0.0117859514430165,-0.7486793994903564,0.6628263592720032,0.0065561191487251,-0.0084939669323744,0.0087355125567818,0.0006538254674524,-0.0002653514966368,0.003625868121162,-0.1958153950050473,-0.1443261387292296,-9.81091918230057,14929.0
12.5,0.8000000119209291,148.0,25.5869083404541,-0.0954212844371795,-79.78277542603432,40.4590658810715,264.17806375181675,-0.0012610887642949,0.0117802303284406,-0.7486851215362549,0.6628199815750122,0.006185274258705,-0.0090108363538197,0.0089205429947424,-0.0054612369276583,0.0008490853360854,-0.0108521897345781,-0.1981029536761344,-0.1285205757804215,-9.807593286037443,14929.0
12.7,0.8999999761581421,149.0,25.58064842224121,-0.1033730581402778,-79.78277540178185,40.45906576694807,264.1704708204269,-0.0012339791283011,0.0117863779887557,-0.7486851811408997,0.6628198027610779,0.0088590072566181,-0.0094046611635299,0.0089614781172918,-0.0059142145328223,-0.0014063768321648,-0.0029387348331511,-0.1963459201902152,-0.1400206602551043,-9.811148393154143,14929.0
12.8,0.8999999761581421,150.0,25.57939529418945,-0.1113248318433761,-79.78277541437224,40.4590657597645,264.17137767529493,-0.0012354252394288,0.0117821618914604,-0.7486759424209595,0.6628303527832031,0.0089891567605426,-0.0101977879526643,0.0091762996044018,-0.0018833393696695,0.0043973354622721,-0.0041465647518634,-0.197057983148843,-0.1303280415013432,-9.809129934310914,14929.0
13.0,0.8999999761581421,153.0,25.58064842224121,-0.1033730581402778,-79.78277536865046,40.45906566304738,264.1639505491257,-0.0012524928897619,0.0117636797949671,-0.7486574053764343,0.6628515124320984,0.0067797299948085,-0.0068070909852008,0.0093550759653696,-0.0042973910458385,-0.0027140176389366,-0.0082159666344523,-0.1992940132319927,-0.1324973036907613,-9.810698157548904,14929.0
13.1,0.8999999761581421,155.0,25.58315277099609,-0.1351801604032516,-79.78277537801041,40.4590656572841,264.1648930922747,-0.0012445057509467,0.0117687210440635,-0.7486587166786194,0.662850022315979,0.0074352006170102,-0.0077081573576199,0.0094376730755064,0.0037798697594553,0.0035997871309518,0.0029898465145379,-0.1970432920195162,-0.1389116809889674,-9.80946264088154,14929.0
13.3,0.8999999761581421,156.0,25.589412689208984,-0.1033730581402778,-79.78277535787592,40.45906557307906,264.1568770647645,-0.00121996703092,0.0117743089795112,-0.7486532926559448,0.6628560423851013,0.0046714501813355,-0.0095036822247991,0.009469911556397,-0.002469957107678,0.0001008454346447,-0.0081495763733983,-0.1995942860282957,-0.1276824596431106,-9.808874995708466,14929.0
13.41,0.8999999761581421,156.0,25.581899642944336,-0.1113248318433761,-79.78277532625398,40.459065474570224,264.1475409582853,-0.0012097023427486,0.0117809167131781,-0.7486569285392761,0.662851870059967,0.0085587748521844,-0.0096752322681629,0.0090240175167908,0.0039472337812185,0.0036262257490307,0.0064111179672181,-0.1962302732281386,-0.1453445409703999,-9.8107133603096,14929.0
13.6,0.8999999761581421,157.0,25.57689094543457,-0.1351801604032516,-79.78277535186129,40.4590654621859,264.14942771351343,-0.0012158575700595,0.0117650413885712,-0.7486627101898193,0.6628455519676208,0.0078643307215946,-0.0108462787146988,0.0095846272016421,-0.0016229735920205,0.0021212548017501,-0.0018808970926329,-0.1962553431652486,-0.1314195430744439,-9.8102876830101,14929.0
13.7,0.8999999761581421,158.0,25.57188415527344,-0.1351801604032516,-79.78277529877919,40.45906536331581,264.1395922393203,-0.0012174162548035,0.0117716146633028,-0.7486595511436462,0.6628490686416626,0.0094542695225283,-0.0069264413089182,0.0090027993630999,0.0001152579061454,0.0007404269999824,0.007554730400443,-0.1950676092132926,-0.1471202764101326,-9.81220206141472,14929.0
13.9,0.8999999761581421,160.0,25.59066390991211,-0.0954212844371795,-79.7827752573507,40.4590652773915,264.1308401093483,-0.0011953997891396,0.0117754265666008,-0.7486575245857239,0.6628513336181641,0.0074817586909622,-0.0038697325888258,0.0088932913214773,0.00471150316298,0.0025187509600073,0.0054368181154131,-0.1979698198847472,-0.1409329629410058,-9.809829261302946,14929.0
14.0,0.8999999761581421,161.0,25.581899642944336,-0.1033730581402778,-79.78277526266893,40.45906527121061,264.13174268758297,-0.0011972413631156,0.0117721315473318,-0.7486511468887329,0.6628585457801819,0.0067584186440245,-0.0043468111562932,0.0091498700299227,-0.0015605889493599,-0.0005599937285296,-0.0002839172957465,-0.1968313304521143,-0.1435821536276489,-9.811105123758315,14929.0
14.2,0.8999999761581421,162.0,25.543087005615234,0.2146978974342346,-79.78277527040524,40.45906519222082,264.12248490160704,-0.0012023097369819,0.0117795309051871,-0.7486377358436584,0.6628736257553101,0.005862510542364,-0.0113325490706954,0.0085741216835383,0.0084107536822557,0.0050757438875734,-0.0014261337928473,-0.1988156196288764,-0.1626869897358119,-9.811361231803897,14929.0
14.31,0.8999999761581421,162.0,25.54809379577637,0.2067461162805557,-79.78277528440107,40.45906518841674,264.1233821824789,-0.0011875652708113,0.0117676369845867,-0.748630940914154,0.6628814935684204,0.0049639068178351,-0.0119474853205108,0.0088805210395834,-0.0057028536684811,-0.0012620487250387,-0.0028599803335964,-0.1938902540691197,-0.128049016110599,-9.810202313661575,14929.0
14.5,0.8999999761581421,162.0,25.56437110900879,0.2067461162805557,-79.78277527738295,40.45906515518487,264.1138164714575,-0.0012018484994769,0.0117690311744809,-0.7486335039138794,0.6628785729408264,-0.0026852764058175,-0.0130798438993809,0.0084783951846171,0.003022467251867,0.003956785891205,0.0122576784342527,-0.1922203258238733,-0.1453527636174112,-9.812824205160142,14929.0
14.6,0.8999999761581421,162.0,25.55185127258301,0.198794350028038,-79.78277529215319,40.45906515964649,264.11470838046074,-0.0011791447177529,0.0117735173553228,-0.7486338019371033,0.662878155708313,-0.0041612547500123,-0.0135886751385431,0.0088234483413971,-0.0018958579748868,-0.00351322744973,-0.0115796839818358,-0.1959332164004445,-0.128243746664375,-9.810073674917222,14929.0
14.8,0.8999999761581421,160.0,25.561866760253903,0.2226496636867523,-79.78277523689472,40.45906505205981,264.10478833472735,-0.0011809838470071,0.0117891412228345,-0.7486330270767212,0.6628787517547607,0.0037783500317105,-0.0059262955086948,0.0086397611009954,-0.0055830404162406,-0.0010462880600243,-0.0064009525813162,-0.1968812327831984,-0.137716382201761,-9.813419451713562,14929.0
14.9,0.8999999761581421,163.0,25.549346923828125,0.2624085247516632,-79.7827751963155,40.45906497620636,264.0941938028336,-0.0011624908074736,0.0118216546252369,-0.7486160397529602,0.6628974676132202,0.0067661999948056,-0.0018931193490035,0.0081833791444604,0.004978260025382,0.0035112258046865,0.0032071368768811,-0.1966748260706664,-0.1315148618258536,-9.806279416680336,14929.0
15.1,0.8999999761581421,165.0,25.55310249328613,0.3339745104312897,-79.78277520389966,40.45906496546885,264.09588262966275,-0.0011484764982014,0.0118167242035269,-0.7486055493354797,0.6629093289375305,0.0057998597237838,-0.003125766785973,0.0088109870893963,-0.0062743504531681,0.0014520453987643,-0.0046154879964888,-0.1944016113504768,-0.1281041078455746,-9.810975315570833,14929.0
15.2,0.8999999761581421,164.0,25.54433822631836,0.3737333714962005,-79.78277523349776,40.45906493200239,264.0834768765271,-0.0011316650779917,0.0117849055677652,-0.7486265897750854,0.6628862023353577,-0.0009117987081219,-0.0135572092030737,0.0046738517055878,0.0019156183116137,-0.0009920030133798,0.0006455738330259,-0.1969943581335246,-0.1441196954715997,-9.810561332702637,14929.0
15.4,1.0,163.0,25.470468521118164,0.8110809326171875,-79.78277521406036,40.45906484475978,264.07276737099886,-0.0010867440141737,0.0117997098714113,-0.7485684156417847,0.662951648235321,0.0089574572081298,-0.0097813416477301,0.0052025197245098,0.0039178878068923,-0.0075831580907106,0.0051050907932221,-0.1897280597873032,-0.1960138166137039,-9.81322766304016,14929.0
15.51,1.0,163.0,25.53807830810547,0.1828908026218414,-79.78277522581273,40.45906484036257,264.0733059399426,-0.0010469813132658,0.0117613421753048,-0.7485571503639221,0.6629652380943298,0.0113346221145452,-0.010714220276367,0.0050884649875585,0.0324123539030551,0.0177035927772521,0.0071383565664291,-0.2068877556547522,-0.1922758926451206,-9.800749120116237,14929.0
15.7,1.100000023841858,159.0,25.19251251220703,3.777092695236206,-79.7827751785608,40.45906476988861,264.06277769958973,-0.0010105526307597,0.0117665557190775,-0.7485541105270386,0.6629685163497925,0.0049568330906936,-0.003221602884774,0.0061182018315201,0.0178730692714452,0.008869357407093,-0.010321850888431,-0.1689280519075691,-0.140090050259605,-9.816233131885529,14929.0
15.8,1.100000023841858,162.0,25.496761322021484,0.7236114144325256,-79.78277518398512,40.45906476572705,264.06338036960364,-0.0010481517529115,0.0117704831063747,-0.7485448718070984,0.6629788875579834,0.0031975613493133,-0.0063440650770231,0.005999286931828,0.0485203266143798,0.1121973395347595,-0.0431434735655784,-0.1647410069592297,-0.1678570978157222,-9.81732422232628,14929.0
16.0,1.2000000476837158,163.0,25.549346923828125,0.1510837078094482,-79.78277521032254,40.45906470281026,264.0531715524048,-0.0009759269887581,0.0117717301473021,-0.7485837340354919,0.6629350185394287,0.0067177286254862,-0.0108286218667177,0.0030540581215278,-0.0017665998311713,-0.0011157143162563,0.0006147877429611,-0.1820565311238169,-0.1566901767253875,-9.814992352724076,14929.0
16.1,1.2000000476837158,162.0,25.53807830810547,0.7554185390472412,-79.7827752242035,40.45906469753972,264.05350624366105,-0.0009938066359609,0.0117613608017563,-0.7485659122467041,0.6629553437232971,0.0082040794939509,-0.0112461634048438,0.0032267164980969,0.003575270762667,0.016510447487235,-0.0052533820271492,-0.186525886952877,-0.1610452194884419,-9.821417273283004,14929.0
16.3,1.2000000476837158,162.0,25.188756942749023,4.739257335662842,-79.78277519644654,40.45906462005074,264.0437680666,-0.0009592566057108,0.0117750503122806,-0.7485673427581787,0.6629535555839539,0.0107742661356393,-0.006666061189913,0.0047375363889898,-0.0025086640380322,0.0046238834038376,0.0090201115235686,-0.1935711605474352,-0.1508211253769696,-9.810081861019135,14929.0
16.4,1.2000000476837158,166.0,25.062299728393555,5.56624174118042,-79.78277522480363,40.45906457892353,264.0332052939702,-0.0009528363589197,0.0117610367015004,-0.7485774159431458,0.6629424691200256,0.007640815865772,-0.0141358242364208,0.0049458643863375,-0.0042736697942018,0.0100738620385527,0.0027507687918841,-0.1847485709376633,-0.1627206660434604,-9.8306558740139,14929.0
16.6,1.2000000476837158,166.0,24.873239517211918,7.919966697692871,-79.78277525820066,40.459064575109785,264.0345285330331,-0.0008701191400177,0.0117588825523853,-0.7485207915306091,0.6630065441131592,0.0017985824572913,-0.0182116362948844,0.0035415981605112,0.0631119236350059,0.0901758968830108,-0.0142303891479969,-0.1676614170894027,-0.1349333359580487,-9.875270129442216,14929.0
16.7,1.2000000476837158,165.0,24.77808380126953,9.446707725524902,-79.78277520762445,40.459064506800615,264.02427673401684,-0.0007415537256747,0.0117694865912199,-0.7485252022743225,0.6630015373229979,0.0045514756671603,-0.0139058185831372,0.0011159164335484,0.0609653703868389,0.049195546656847,-0.0238692201673984,-0.2159704367257655,-0.1088895176723599,-9.754730948209763,14929.0
16.91,1.2999999523162842,162.0,24.4901123046875,12.51609230041504,-79.78277522016319,40.45906442881137,264.0171036139727,0.0001574955385876,0.012532252818346,-0.748447835445404,0.6630752086639404,0.0210229091221076,-0.0110712276117675,0.012713289495736,0.0445802137255668,0.0390258133411407,-0.0296130441129207,-0.1567283663526177,-0.0975028965901583,-9.838357826471327,14929.0
17.0,1.2999999523162842,161.0,24.32734489440918,14.090543746948242,-79.78277523371138,40.459064419587534,264.0185138784945,0.0009509254596196,0.0132661573588848,-0.7484461069107056,0.6630622148513794,0.0093204748843057,-0.0077297852729218,0.0110637814703982,-0.0161116123199462,-0.0505605340003967,0.0391838587820529,-0.2405633506737649,-0.0988470435608178,-9.778538471460342,14929.0
17.2,1.2000000476837158,162.0,24.04939079284668,17.843780517578125,-79.78277530472845,40.45906436531862,264.0100845505148,0.0026819256599992,0.0147259794175624,-0.7483226656913757,0.6631660461425781,0.001399414601872,-0.0166048156356197,0.0139930007333667,0.0041879308409988,-0.0166206751018762,-0.1163800880312919,-0.2120982460677624,-0.0896636716090142,-9.813752743005754,14929.0
17.3,1.100000023841858,165.0,23.901647567749023,19.50570106506348,-79.78277532983721,40.459064360255816,264.01242403282225,0.0042777028866112,0.0155411679297685,-0.7481989860534668,0.6632786393165588,0.0057923024813239,-0.0216679764796034,0.0297533122495009,-0.0050325989723205,-0.0177115313708782,-0.0238383840769529,-0.2033323379047215,-0.0418678136682137,-9.889691702127458,14929.0
17.5,1.100000023841858,161.0,23.64873313903809,23.1873722076416,-79.78277531367625,40.459064274071714,264.0082806904465,0.0046135447919368,0.0140935843810439,-0.7468013167381287,0.6648818850517273,-0.0071799097938092,-0.003840524758001,0.0364374496553675,-0.0891361236572265,-0.090196281671524,-0.0058681038208305,0.0384482568874955,-0.2807379066199064,-9.898237992525102,14929.0
17.61,1.100000023841858,161.0,23.433380126953125,25.40591812133789,-79.78277530093128,40.4590642703036,264.0137421634644,-0.0005546769243665,0.0120674166828393,-0.7453729510307312,0.6665383577346802,0.0055922471099662,0.0273946745235071,0.081076187490075,-0.1098923161625862,-0.098296508193016,-0.1291129887104034,0.0370155565766617,-0.1075708974525332,-10.264874786138536,14929.0
17.8,1.2000000476837158,159.0,23.68379211425781,21.469789505004886,-79.78277521090477,40.45906409984469,264.0299031912945,-0.0113770170137286,0.0008016332285478,-0.7418234944343567,0.6704983115196228,0.0008115309220064,0.0823510637449563,0.2876165057981685,-0.2802256047725677,-0.0774851664900779,-0.2451390326023101,0.1204189204517752,0.3634769582748413,-10.947437810897828,14929.0
17.9,1.2999999523162842,158.0,23.84154891967773,20.29292678833008,-79.78277515990274,40.45906388154521,264.05060109651095,-0.0092570362612605,-0.0028996437322348,-0.7404688596725464,0.6720207929611206,0.0171524178942306,0.091876873730079,0.3427938450176605,0.1601055562496185,0.2372252345085144,0.0406329035758972,0.0735418473836034,0.0699610216543078,-10.59741646528244,14929.0
18.1,1.399999976158142,153.0,23.67252349853516,21.74015045166016,-79.78277489213538,40.4590638911029,264.1158433050513,0.0022106431424617,-0.0068117058835923,-0.7400944828987122,0.6724648475646973,-0.0176915764734579,0.1171115757036177,0.2922301492716369,0.1348868310451507,0.1544803529977798,0.0475001186132431,0.1710371608659625,-0.0177613241085782,-9.641832323670387,14929.0
18.2,1.399999976158142,151.0,23.62118911743164,22.28087043762207,-79.78277457274723,40.45906404412972,264.1057999969125,0.0073654996231198,-0.0074075441807508,-0.7407041192054749,0.6717501878738403,-0.0426970440636984,0.1319346717222034,0.2078150456384932,0.1716590821743011,0.0239485129714012,0.0593360178172588,0.2504796436987817,-0.1728596100769937,-9.500336721539496,14929.0
18.41,1.399999976158142,154.0,23.64122200012207,21.764005661010746,-79.78277422810699,40.45906419008247,264.1394615784884,0.0103535940870642,-0.0063040959648787,-0.7423140406608582,0.6699424982070923,-0.0863719194232462,0.1149669903211594,0.1705459231189839,0.0776666104793548,-0.0589390993118286,0.0451945066452026,0.2165974957868457,-0.1879230060428381,-9.613604890108109,14929.0
18.5,1.399999976158142,158.0,23.526033401489247,23.29074668884277,-79.78277409083906,40.45906426104971,264.1556431368589,0.0093959979712963,-0.0064215897582471,-0.7428101301193237,0.6694055199623108,-0.0880878114979125,0.105009662389032,0.1433986381278547,0.0683413222432136,0.0242927856743335,0.0939248278737068,0.1196365264523774,-0.1948394216224552,-9.556196926832197,14929.0
18.7,1.5,161.0,23.40834045410156,24.87314796447754,-79.7827738923773,40.45906434982104,264.200337337017,0.0087718544527888,-0.0034130027052015,-0.7434518933296204,0.6687232255935669,-0.10011651155483,0.0809165628115461,0.1662454767020497,-0.0044876947067677,0.02585369348526,0.0017514574574306,0.203667547814548,-0.1360865347925573,-9.752704303264617,14929.0
18.8,1.600000023841858,163.0,23.45466613769531,23.680383682250977,-79.7827737920817,40.45906443156285,264.2176005110741,0.0076651750132441,-0.0031937176827341,-0.7432934045791626,0.6689140796661377,-0.1064736549032139,0.0766987847870082,0.1796628504985116,-0.0957590863108635,0.0018718969076871,-0.1194560006260872,0.0823967337235808,0.1999024342931807,-9.900024901628496,14929.0
19.0,1.7000000476837158,164.0,23.46468162536621,24.06206703186035,-79.7827732706521,40.45906454945923,264.25126908874506,0.0116952899843454,-0.0040181623771786,-0.7426983118057251,0.6695119738578796,-0.0751986497785077,0.0687885803279613,0.2218340436635601,-0.0322911255061626,0.0780590996146202,-0.0191843826323747,0.0017706666632147,0.0173286438547074,-9.927837767601012,14929.0
19.1,1.7000000476837158,164.0,23.37203025817871,24.75387191772461,-79.78277319487471,40.45906460640232,264.2736258969307,0.0147524420171976,-0.0076448218896985,-0.7423331737518309,0.6698249578475952,-0.0588714814170882,0.0569208462845126,0.2249644334516316,0.1057912483811378,0.1285050213336944,0.0459286570549011,0.2019671044126153,-0.3262949159368872,-9.921694682836534,14929.0
19.3,1.7000000476837158,165.0,23.35951042175293,24.984474182128903,-79.78277316432175,40.459064781878425,264.3305294380188,0.0168358422815799,-0.0082213608548045,-0.7417269349098206,0.6704402565956116,-0.0677421665794283,0.0097995168255806,0.2262018208628465,0.1783947646617889,0.1271350532770156,0.1372050344944,0.1777460368350148,-0.2520792043581605,-9.828160282373426,14929.0
19.4,1.7000000476837158,167.0,23.311931610107425,24.87314796447754,-79.78277293639296,40.45906468711568,264.3588887319565,0.0152894174680113,-0.0071945087984204,-0.7414289116859436,0.6708186864852905,-0.0684045413117773,0.0313077460163849,0.2491881561125893,-0.1300873756408691,-0.1271306276321411,-0.0584250465035438,0.1762754438258707,0.0063550006505101,-10.00285988330841,14929.0
19.6,1.600000023841858,169.0,23.937957763671875,11.339229583740234,-79.78277292221232,40.45906475633038,264.41227863883967,0.0175775531679391,-0.0029191665817052,-0.7414689064025879,0.6707506775856018,-0.0273130586152626,-0.00696774389606,0.2580293115502581,0.0679589584469795,0.099244050681591,-0.0025573056191205,0.1095113416481763,-0.1028872137609869,-9.756014996767044,14929.0
19.7,1.600000023841858,171.0,23.59364318847656,22.60689353942871,-79.78277284959356,40.45906481293424,264.43594171261793,0.0190208796411752,-0.0036502992734313,-0.7419293522834778,0.6701982617378235,-0.0329424648899712,-0.0062314128576476,0.1371064658610229,0.0074404412880539,-0.0081840613856911,0.0261825192719697,0.3132855554670095,-0.2129057282768189,-8.810791536569596,14929.0
19.9,1.600000023841858,171.0,22.966365814208984,29.278430938720703,-79.78277255199278,40.45906486190685,264.45887930846214,0.0011706707300618,0.0005180431180633,-0.7425863742828369,0.6697491407394409,-0.0273685131832264,0.0061695704002267,0.0629074612819749,-0.0825481563806533,-0.1266305297613144,-0.0500835217535495,0.1087486363202333,0.0100339134223759,-9.729430046081545,14929.0
20.0,1.600000023841858,171.0,22.966365814208984,29.548791885375977,-79.78277254545573,40.45906488545221,264.4693661198616,-0.0014458645600825,-0.0008094663498923,-0.7425469756126404,0.6697920560836792,-0.0147368719107758,0.0034748008976109,0.1524722172319439,0.1506133079528808,0.1336613297462463,0.161298856139183,0.0805460168793797,-0.2522979633137584,-10.48959030032158,14929.0
20.2,1.5,167.0,22.50310707092285,35.90225982666016,-79.78277250311095,40.45906481355957,264.53416563725466,0.0038389519322663,-0.0059366286732256,-0.7418423295021057,0.6705371737480164,-0.0331200865620916,0.0267578350877004,0.4242144267880864,-0.0140416491776704,0.0878631994128227,0.0004928263952024,0.2014129710942507,-0.1753768546879291,-11.239278191328046,14929.0
20.3,1.5,166.0,22.49809837341309,35.472862243652344,-79.78277246978635,40.459064843678725,264.586253033638,0.006994956638664,-0.0077435341663658,-0.741527795791626,0.6708409786224365,-0.0418822961376623,0.0306763816719756,0.6251553234127194,0.029211401939392,0.0987789332866668,-0.0502642765641212,0.262370157726109,0.0334982599318027,-11.701507605314257,14929.0
20.5,1.5,164.0,22.15879440307617,39.48055648803711,-79.78277230587939,40.459064838708784,264.7442909345627,0.011055264621973,-0.0069419019855558,-0.7410773038864136,0.671292781829834,-0.0430983255187174,0.0393966475481983,1.0668518132514613,-0.0342590510845184,-0.0521333180367946,-0.0692466124892234,0.2880393796227872,-0.1039542027097195,-12.177903653383256,14929.0
20.61,1.5,163.0,22.21388435363769,38.44682693481445,-79.78277229519145,40.45906487117148,264.86379341936106,0.0100161619484424,-0.0032267807982862,-0.7411242723464966,0.6712854504585266,-0.0481055768402227,0.03296421109703,1.324499939164122,-0.0236046016216278,-0.1013097390532493,-0.0520635657012462,0.1743020633608102,-0.0143532698974013,-12.33010433793068,14929.0
20.7,1.7000000476837158,160.0,22.24894142150879,37.81068420410156,-79.78277225545727,40.45906491391383,264.99603818511963,0.0084358295425772,-0.0010587713913992,-0.7412313222885132,0.6711958646774292,-0.053293136873846,0.0215981128971324,1.5679783458106085,-0.0798733532428741,-0.0853877887129783,-0.0297936201095581,0.0837362942844629,-0.0342296004295349,-12.34789390683174,14929.0
20.91,1.7999999523162842,159.0,22.218891143798828,38.97164535522461,-79.78277221907523,40.45906496296964,265.3428231344223,0.0057864757254719,0.000138615432661,-0.7421930432319641,0.6701611280441284,-0.0323326445465134,0.0072478330722334,2.0077804772143657,0.107930339872837,0.0052185351960361,-0.0101670091971755,0.1391521934140473,0.1564834776520729,-12.151177200078964,14930.0
21.0,1.8999999761581416,159.0,22.11246681213379,40.75284194946289,-79.78277222941627,40.45906497532874,265.55597768878937,0.0083904499188065,0.0006790377665311,-0.7422685623168945,0.6700497269630432,-0.0237938051570183,0.0057923541255437,2.25310697544626,0.0893451496958732,0.0925967693328857,0.0373167283833026,0.0910635133087635,-0.0327110808086581,-12.231869945526125,14930.0
21.2,2.0,158.0,22.258956909179688,37.40514373779297,-79.78277219174701,40.45906502936632,266.02001486873627,0.0096928887069225,-0.0014680364402011,-0.7423058152198792,0.6699895858764648,-0.034313305349273,0.0386910493825704,2.705482280863849,0.0424745008349418,0.0253177788108587,-0.0111626032739877,0.1918688533455132,0.0267260695807635,-12.246441206932069,14931.0
21.31,2.200000047683716,162.0,22.386667251586918,34.343711853027344,-79.78277218824138,40.45906502628526,266.30136059379583,0.0092758331447839,-0.0003839063865598,-0.7420436143875122,0.6702873110771179,-0.0226120463757219,0.0467225245813587,2.911253541406537,0.087906077504158,0.0286792069673538,0.0249259583652019,0.18758344726637,-0.1453920221887528,-11.941029438972471,14931.0
21.5,2.299999952316284,162.0,22.710947036743164,31.592397689819336,-79.78277217835749,40.45906505897876,266.8434848651886,0.016001172363758,0.0012896114494651,-0.741097092628479,0.671205997467041,-0.0168160026216397,0.0428631811090488,3.094868495942524,0.1121931001543998,0.0570166185498237,-0.0591021850705146,0.2086423771642148,0.0597504035476595,-10.814539954662326,14931.0
21.7,2.299999952316284,167.0,22.700931549072266,30.78131675720215,-79.78277231279895,40.459065185934186,267.3717269763946,0.0153859909623861,0.0006938321748748,-0.7399215698242188,0.672516942024231,-0.0320397340718183,0.0575186981268036,3.1177039837789864,-0.0178158544003963,-0.0352226793766021,0.0070898425765335,0.1590121974237263,-0.1968248436972499,-10.262249386310575,14932.0
21.8,2.200000047683716,173.0,23.05150604248047,26.07386589050293,-79.7827723340219,40.45906512878337,267.68470715141297,0.0142701491713523,-0.0017003525281324,-0.739646315574646,0.6728423833847046,0.0072013891905571,0.043517825036201,3.1376277845212,0.0211893115192651,0.1512289643287658,0.0844063833355903,0.0645516162738204,-0.1290670711733401,-10.01476130604744,14932.0
21.9,2.299999952316284,177.0,23.03147315979004,26.86109161376953,-79.78277255505597,40.45906525871196,267.92024944877625,0.0136559549719095,-0.0069141164422035,-0.7396165132522583,0.6728545427322388,0.0267520794815697,0.0211580915756751,3.0378082811033087,0.0859730690717697,0.208370640873909,0.0852707028388977,0.1651573469862342,-0.044108873270452,-9.51996523976326,14932.0
22.1,2.200000047683716,176.0,23.01144027709961,26.75771903991699,-79.78277269068731,40.45906511797016,268.51554511642456,0.0115793226286768,-0.0154295992106199,-0.7404682636260986,0.6718144416809082,0.105090546307733,0.0414974282516864,2.924190635914913,0.1995114982128144,0.1349805444478988,0.1403668075799942,0.241611354444176,-0.1575244647637009,-9.333496363162997,14933.0
22.3,2.0,174.0,22.78857421875,28.85698699951172,-79.78277285600109,40.45906522196425,268.97633193588257,0.0107780750840902,-0.0141649730503559,-0.7418789863586426,0.6702975630760193,0.1018709435650934,0.0089421516112208,2.756233141986052,0.2114893198013305,0.1162610948085784,0.1495380401611328,0.1891011286340654,-0.185120892394334,-9.43398076415062,14933.0
22.4,2.0,172.0,22.69467163085937,30.45529365539551,-79.78277280414474,40.4590656248665,269.2028100357056,0.0098368534818291,-0.0124542349949479,-0.7425936460494995,0.6695542335510254,0.0480627906524143,-0.008929026589836,2.69623478221991,0.0259295217692852,-0.054837342351675,0.086695946753025,0.2169975915178656,-0.1250759079493582,-9.64483837723732,14934.0
22.5,1.7000000476837158,217.0,22.89875602722168,27.81530570983887,-79.78277293035497,40.45906560489925,269.472598777771,0.0064286142587661,-0.010215944610536,-0.7432434558868408,0.6689121723175049,0.0410592195149605,-0.0277769859077306,2.701971801981947,0.0413092225790023,0.028935719281435,0.0836154744029045,0.1534842945635318,-0.146123042916879,-9.77174634575844,14934.0
22.71,1.600000023841858,245.0,22.81111145019531,29.27047920227051,-79.78277253949331,40.459065264780136,270.15180944061285,0.0027281732764095,-0.0129820900037884,-0.7428470849990845,0.6693297028541565,0.0909791106802408,-0.0473104371911002,2.7329697891882785,0.1158654168248176,0.0557212978601455,0.0516427084803581,0.2087893432751298,-0.1359560231119394,-9.676319201588631,14935.0
22.9,1.7000000476837158,310.0,22.75727462768555,29.80324935913086,-79.78277266791288,40.45906522909092,270.42421935653687,0.0033076857216656,-0.0126762557774782,-0.7423966526985168,0.6698325276374817,0.0887636493669547,-0.0425513141674334,2.721275670264213,0.0780100375413894,0.0934520661830902,0.0590870268642902,0.1306959592737257,0.0176386444992385,-9.643561345338822,14935.0
23.0,1.600000023841858,317.0,22.926300048828125,27.79145050048828,-79.78277249879909,40.45906497534215,271.08852599716187,0.0050493329763412,-0.0149146541953086,-0.7432926297187805,0.6687811613082886,0.08480963347744,-0.0439406819114135,2.7520362592209264,0.0796741023659706,0.0420466735959053,0.1210934594273567,0.1659592926129698,-0.1853983610495925,-9.737682806253432,14936.0
23.2,1.8999999761581416,323.0,22.882478713989247,27.48928260803223,-79.7827724328826,40.45906485890524,271.7293584213257,-0.0006577658350579,-0.0158340185880661,-0.74711012840271,0.6645113229751587,0.0751720654818142,-0.0428227544305653,2.8029879415256524,0.063698761165142,0.065047949552536,0.204452097415924,0.1339851551223546,-0.300043621994555,-9.848165946006777,14936.0
23.3,2.0,329.0,22.645841598510746,31.322036743164062,-79.78277257866898,40.45906486809526,272.0093386039734,-0.0034075933508574,-0.0158525947481393,-0.7489674687385559,0.6624083518981934,0.0546373522209334,-0.0666040472489626,2.800862129005676,0.0292889233678579,0.0428074784576892,0.0943506881594658,0.0178082799911499,-0.2791919028013945,-9.804964377880095,14937.0
23.4,2.0999999046325684,23.0,22.66337013244629,30.359872817993164,-79.78277250748994,40.45906469578449,272.3553473815918,-0.0028583186212927,-0.0154118603095412,-0.7493579983711243,0.661979615688324,0.0498334848545897,-0.0642957386481852,2.850874291816824,-0.0007787270005792,-0.0467646345496177,-0.0419339090585708,0.0800381679274141,-0.1278042279090732,-9.945966475009918,14937.0
23.61,2.0999999046325684,246.0,22.446765899658203,32.896488189697266,-79.78277278795638,40.459064778016895,272.92768071746826,0.0097774742171168,-0.000248430238571,-0.7431719899177551,0.6690289974212646,-0.0015349569244903,-0.0754122163588108,2.8748929176311573,0.2417115420103073,-0.0366043150424957,-0.058487594127655,0.1199965870287269,-0.2473428500443697,-9.920210659503937,14937.0
23.7,2.0,220.0,22.66337013244629,30.09746360778809,-79.78277247433168,40.45906445624239,273.31977532958985,0.0136791160330176,0.0041379588656127,-0.7392697930335999,0.6732577681541443,-0.0511163136007268,-0.0507576848346187,2.9811202093651543,0.1528869718313217,0.0406989939510822,-0.059714239090681,0.1628183510899543,-0.2039918672852218,-10.151974407434462,14938.0
23.9,2.0,217.0,22.826135635375977,28.35602569580078,-79.78277242778368,40.45906452241468,273.97540925598145,0.0085331443697214,-0.0011156976688653,-0.7345614433288574,0.6784876585006714,-0.0524169623112788,-0.0512133588332219,3.0441286091647264,-0.2288457453250885,-0.0122162830084562,-0.1397070586681366,0.1728197759203613,0.1735875701531768,-9.797829020619393,14938.0
24.1,2.200000047683716,220.0,22.62330436706543,31.20276069641113,-79.78277263193509,40.45906447947964,274.57909844970703,0.0009291610331274,-0.0075564528815448,-0.733227014541626,0.6799413561820984,0.0493158630428569,-0.0411620574476129,2.9928302235237187,0.043477114289999,0.0802490785717964,0.0525133945047855,0.2003878811001777,0.0334254575287923,-9.60634089410305,14939.0
24.2,2.299999952316284,218.0,22.73598861694336,29.008071899414062,-79.78277269203119,40.45906445280493,274.9384343490601,0.0005123874288983,-0.008718735538423,-0.7336007952690125,0.6795246601104736,0.0695753164543781,-0.0443640721018905,3.0361089880453345,0.023908020928502,0.0205618850886821,0.0887036845088005,0.1694928563944995,-0.0019655689503997,-9.829457194805146,14939.0
24.4,2.0999999046325684,217.0,22.826135635375977,28.17313575744629,-79.7827727864583,40.4590644250819,275.2419421539307,0.0006662174710072,-0.0085012288764119,-0.7344818711280823,0.6785747408866882,0.0636162778638713,-0.0354749129665037,3.0308934335737536,0.0112861171364784,0.037311665713787,-0.0337696298956871,0.1851525221765041,0.2611400314606726,-9.74176474750042,14940.0
24.5,2.0999999046325684,205.0,22.81987571716309,28.16518402099609,-79.78277283373181,40.45906455160952,275.90591214752203,0.0003235427429899,-0.0086637176573276,-0.7374573945999146,0.6753380298614502,0.0352711585034639,-0.0252166541715103,3.0352039993925075,-0.0754357278347015,-0.0099297305569052,0.0015553032280877,0.169747794996947,0.0911741170473396,-9.601853156089785,14940.0
24.7,1.8999999761581416,211.0,22.740997314453125,28.9444580078125,-79.78277290781347,40.45906455412482,276.20815442657465,-0.0012182266218587,-0.0077474396675825,-0.7392897009849548,0.6733418107032776,0.0381944888844549,-0.0182678683700881,3.0131467832558942,-0.0238984785974025,-0.1054242178797722,0.0982730090618133,0.2299194264784455,-0.1335153222084045,-9.618528830409051,14941.0
24.8,1.7999999523162842,220.0,22.758525848388672,28.1572322845459,-79.78277294260593,40.45906477939103,276.86468099212647,-3.273352922406048e-05,-0.0073723089881241,-0.7421401143074036,0.6702042818069458,-0.0009040723236973,-0.023040317617359,3.0246337323939354,-0.0417174398899078,-0.0746992155909538,-0.0226921737194061,0.1613264888338744,-0.0067112879455089,-9.691350638866425,14941.0
25.0,1.600000023841858,253.0,22.70343589782715,28.92060089111328,-79.7827730632557,40.45906474817096,277.510778175354,0.0046834875829517,-0.0070771351456642,-0.7427993416786194,0.6694604158401489,-0.0057861938328776,0.0037729845296007,3.013258797555523,0.0257755797356367,0.0016497353790327,-0.030670965090394,0.2309102371707559,0.1892724337801337,-9.62266222715378,14942.0
25.1,1.399999976158142,261.0,22.412960052490234,33.27022171020508,-79.78277309726823,40.45906477241894,277.81145833587647,0.0053292573429644,-0.0076499204151332,-0.7424677610397339,0.6698169708251953,-0.0186786859343612,0.0215674703485523,3.0039111146497137,0.0054805260151624,-0.0217471085488796,-0.011462147347629,0.2421969896368682,0.0871916515566408,-9.721628106236462,14942.0
25.3,1.7999999523162842,270.0,22.63958168029785,30.200838088989247,-79.78277291213884,40.4590649279981,278.1497351989746,0.0034984401427209,-0.0099890027195215,-0.7420895099639893,0.6702173352241516,-0.0273039849611931,0.03588070032716,3.047415099271435,-0.0403569936752319,0.0636232793331146,0.0009015752584673,0.1746008926257491,0.0765901379473507,-9.879450888633729,14943.0
25.4,1.8999999761581416,274.0,22.61203575134277,30.34396934509277,-79.7827727435229,40.45906499594172,278.7770478591919,0.0009245072724297,-0.012987027876079,-0.7410367727279663,0.6713382005691528,-0.0006591585665871,0.0581413981502033,3.0453228458180392,-0.1238225772976875,-0.1150464192032814,-0.1340362727642059,0.2996145277284086,0.1510804676637053,-9.76123012840748,14943.0
25.6,2.0999999046325684,281.0,22.66462135314941,29.44541931152344,-79.78277272910606,40.45906507314247,279.38491700744635,0.0045424182899296,-0.0108680203557014,-0.7400183677673341,0.6724835634231567,-0.010542592548324,0.0710435702594549,3.0313120989992264,0.0399629548192024,-0.0594391115009784,0.0060386946424841,0.2225028181448579,0.203482812345028,-9.719028434157371,14944.0
25.7,2.0,278.0,22.72597312927246,27.497234344482425,-79.78277263095136,40.4590651774452,279.7110202178955,0.0078407283872365,-0.0091879814863204,-0.7397150993347168,0.6728118062019348,-0.0408181860608782,0.0798832780770606,3.041978755684235,-0.0520713366568088,0.0001148690935224,0.0174676552414894,0.2279823535680771,-0.0881178322434425,-9.73936212658882,14944.0
25.8,2.0999999046325684,274.0,22.56696128845215,30.359872817993164,-79.78277260765026,40.45906523082522,280.01428197479254,0.0090028662234544,-0.0088153127580881,-0.7394247055053711,0.6731213331222534,-0.0559291499411503,0.0858863934124025,3.0192431447242307,0.099004752933979,0.0696346536278724,0.1360745429992675,0.2740423147939145,-0.2860745141655207,-9.650730031728743,14945.0
26.0,2.0999999046325684,269.0,22.6571102142334,29.69987487792969,-79.78277250556391,40.459065395815,280.63160585021967,0.0104025863111019,-0.0101740462705492,-0.738971471786499,0.6735795736312866,-0.0634062303400899,0.0980406377789148,2.9925705158890468,0.1163467466831207,0.1099115014076232,0.0001952054881257,0.3027957967668772,0.0731917362101376,-9.56817436337471,14945.0
26.2,2.299999952316284,269.0,22.60953140258789,29.588550567626957,-79.78277247855429,40.45906545246503,280.92977212524414,0.0109342485666275,-0.0095957117155194,-0.7388219833374023,0.6737436056137085,-0.0670428454781416,0.1047983313321425,2.9719612516432576,0.0497828014194965,-0.0258807633072137,0.0648466870188713,0.3020147183910012,-0.0024830452515743,-9.610919263958932,14945.0
26.3,2.200000047683716,270.0,22.61579132080078,29.26252746582031,-79.78277234232435,40.45906566338287,281.54612611389166,0.0112147610634565,-0.0065603558905422,-0.7390844821929932,0.6734874844551086,-0.0744424128817631,0.1024987809179498,3.000182641250764,-0.0055202366784214,-0.0739475041627883,0.0471028015017509,0.2755872770771384,-0.1868577895313501,-9.847951937913898,14946.0
26.5,2.299999952316284,267.0,22.50060272216797,30.66999244689941,-79.78277214049487,40.45906584005327,282.1586215362549,0.0088923620060086,-0.0079797320067882,-0.7394759058952332,0.6730769872665405,-0.067020887860501,0.1068806121958476,3.028451161659666,0.0358785986900329,0.098711259663105,-0.0328661277890205,0.2758724384754896,0.0878172670863568,-10.020544202327727,14947.0
26.6,2.400000095367432,262.0,22.475563049316406,31.544687271118164,-79.78277209271575,40.45906588422342,282.4629905090332,0.0087833125144243,-0.0083216605708003,-0.73928302526474,0.6732861995697021,-0.0581524742267857,0.1084590381388939,3.053245372060198,0.0010986840352416,-0.073215015232563,-0.0463329702615737,0.2714410164579749,0.0607292685611173,-10.0453024828434,14947.0
26.7,2.5,262.0,22.49684715270996,30.924448013305664,-79.7827720176587,40.45906596570972,282.76669953918463,0.0100070592015981,-0.0073595410212874,-0.7391113638877869,0.6734687685966492,-0.0541092831975038,0.107962706875029,3.0612764446849576,-0.0669335052371025,-0.0565498098731041,0.0294941943138837,0.2466789900697768,-0.0455863550305366,-10.047495188713077,14947.0
26.9,2.5,264.0,22.77229881286621,27.22687339782715,-79.78277185858428,40.45906616655135,283.3808486328125,0.0112849231809377,-0.0078059309162199,-0.7401401996612549,0.6723125576972961,-0.0696487738995731,0.1114852384970885,3.091288388689915,-0.003484011394903,-0.0345261506736278,0.0723180025815963,0.3098563096672297,-0.0854184834100306,-10.101105970144271,14948.0
27.1,2.400000095367432,264.0,22.56320571899414,29.89071846008301,-79.78277176664696,40.45906623099149,283.9985053405762,0.0100037548691034,-0.0101261669769883,-0.7420235872268677,0.6702226996421814,-0.0400456603451984,0.119907004730623,3.072428541035722,0.0479335226118564,0.0081640193238854,0.0461150929331779,0.3270092629641295,0.0325543640088289,-9.69643771648407,14948.0
27.2,2.5,266.0,22.273983001708984,34.049495697021484,-79.78277168824549,40.45906631669303,284.3023555145264,0.0114600667729973,-0.0100723607465624,-0.7426154017448425,0.6695443987846375,-0.0497118237639203,0.1356008821419811,3.0472847004234804,-0.1233009248971939,-0.0794408321380615,-0.0303031094372272,0.2524934064969421,0.1513129036221653,-9.75082968592644,14949.0
27.3,2.799999952316284,267.0,22.453025817871094,30.10541534423828,-79.7827716304065,40.45906634078267,284.60907815551764,0.0131129892542958,-0.0104539711028337,-0.7428029775619507,0.6693000793457031,-0.050648578941454,0.1389816657083343,3.0884830595723125,-0.1091375723481178,0.029664484784007,-0.1265310496091842,0.1782691799104213,0.1121479334123432,-10.095487965345384,14949.0
27.51,2.799999952316284,270.0,22.6132869720459,29.071685791015625,-79.78277138680437,40.45906646153521,285.22552178955084,0.0152314342558383,-0.0168357975780963,-0.7414565086364746,0.6706167459487915,-0.0409857046782311,0.1604957977621586,3.070005060921825,-0.0947187319397926,-0.0339381732046604,-0.03244623914361,0.3548742787912488,-0.1483659526146948,-9.697556288838388,14950.0
27.7,2.700000047683716,273.0,22.38165855407715,31.322036743164062,-79.78277134452044,40.459066484623776,285.53089212036133,0.0151755791157484,-0.0190370827913284,-0.740556001663208,0.6715534925460815,-0.0303038670164371,0.165130513193181,3.0300077842749134,-0.0524897724390029,0.063994713127613,-0.0588679350912571,0.326922285631299,0.068720891168341,-9.489511186480524,14950.0
27.8,2.700000047683716,274.0,22.304031372070312,32.79311752319336,-79.78277123093181,40.45906671227296,286.1404254302978,0.0150313768535852,-0.0156610272824764,-0.7393278479576111,0.6729956269264221,-0.0260095964664391,0.1464727498937213,3.0450845363577046,-0.0335699692368507,-0.1181238442659378,-0.0745464265346527,0.3124548123031855,0.195244852937758,-9.920914664268494,14951.0
28.0,3.2000000476837163,278.0,22.68214988708496,28.13337707519531,-79.78277115527024,40.45906688465404,286.4514090881348,0.015058385208249,-0.0111613320186734,-0.7395410537719727,0.6728505492210388,-0.0354052034196329,0.1238878567954221,3.0794582244803608,0.0704186931252479,0.0132838580757379,0.0884657576680183,0.2013297761790454,-0.0465003844723105,-10.03989380836487,14951.0
28.11,3.2000000476837163,278.0,22.499351501464844,30.18493461608887,-79.782771186702,40.4590669262308,287.0655314788818,0.0142951337620615,-0.0064529264345765,-0.7409168481826782,0.6714136600494385,-0.027142772420619,0.0849179521986461,3.036406017419837,0.1602660566568374,0.0055915955454111,0.052825354039669,0.302773961070925,-0.1197839767858386,-9.557888526320458,14952.0
28.3,3.400000095367432,281.0,22.54692840576172,29.77144241333008,-79.78277105536623,40.459067045145176,287.6763713226318,0.0099097704514861,-0.0083437720313668,-0.7422322630882263,0.6700174808502197,-0.007234673408757,0.0826885844768242,2.9983422040040053,0.1635916531085968,0.1104600727558136,0.2232887595891952,0.277856453564018,-0.2964193350076675,-9.60892419397831,14952.0
28.4,3.299999952316284,283.0,22.33407974243164,32.31600952148437,-79.78277107943362,40.45906711205954,287.9911525115967,0.0109323989599943,-0.0101434104144573,-0.7429186105728149,0.6692156791687012,-0.0108032578464735,0.0836279358518659,3.0179159524126087,-0.134212464094162,-0.0218095611780881,0.0401103049516677,0.2394926889427006,-0.0842901900596916,-9.706361610889436,14952.0
28.5,3.5,285.0,22.448017120361328,30.66204071044922,-79.78277107492184,40.459067107098726,288.29377626037603,0.0117607377469539,-0.0138571923598647,-0.7431963086128235,0.6688266396522522,-0.013017288933407,0.0963666963099146,3.035113121633394,-0.1990917921066284,0.0141610018908977,-0.078883022069931,0.2727966568619013,-0.0024677077308297,-9.90656325817108,14953.0
28.7,3.5999999046325684,286.0,22.283998489379886,33.44515991210937,-79.7827710099728,40.45906720256463,288.90957711791987,0.0096679143607616,-0.0171128679066896,-0.7427083849906921,0.6693265438079834,0.0251311399349125,0.1306196950474701,3.077873754699489,0.0056896768510341,-0.0859539732336998,0.0246299970895052,0.3883537545427681,-0.1356769099272787,-10.045317685604097,14953.0
28.9,3.400000095367432,283.0,22.49684715270996,29.92252540588379,-79.78277100024974,40.45906720943635,289.53325341796875,0.0100057814270257,-0.0156860202550888,-0.7408380508422852,0.6714260578155518,0.0147405110715931,0.1153891945437827,3.1488204067597194,0.0604427307844162,0.1060549989342689,-0.0834064930677414,0.324545538648963,0.0630168272322043,-10.090279265642168,14954.0
29.0,3.299999952316284,284.0,22.57572555541992,28.92060089111328,-79.78277096692281,40.459067379325205,289.84324525451666,0.0128605691716074,-0.0151753230020403,-0.7396439909934998,0.6727043390274048,0.0094346148540585,0.1102016654453033,3.127950621964988,0.1394445896148681,0.0148147782310843,0.0054510692134499,0.3573368336632848,-0.0238891512947157,-9.86043457388878,14954.0
29.2,3.700000047683716,282.0,22.449268341064453,29.930477142333984,-79.78277092173616,40.459067530929865,290.46752427673334,0.0190158709883689,-0.0133229177445173,-0.7385019659996033,0.6738514304161072,-0.0296339674235709,0.1285930208515658,3.069512091787977,0.053874522447586,-0.0238184742629528,0.0155060915276408,0.4367670556157828,-0.0458948367694392,-9.585048258304596,14955.0
29.3,3.799999952316284,282.0,22.409204483032227,30.32011413574219,-79.78277093017255,40.45906753707721,290.7742698059082,0.0193236917257308,-0.0132853994145989,-0.7383518218994141,0.6740080118179321,-0.0421452658747705,0.1269874654034577,3.062512150384947,-0.1196695417165756,-0.0869181826710701,-0.0588999465107917,0.3168690215796232,0.1725373005867004,-9.698462022542952,14955.0
29.5,3.5999999046325684,280.0,22.302780151367188,32.029747009277344,-79.78277085363854,40.4590676677409,291.09000466918945,0.0196681469678878,-0.0131428847089409,-0.7383095026016235,0.6740471124649048,-0.0269475576338301,0.1225555648472515,3.0580927699490887,-0.1147937551140785,0.0042703193612396,-0.1228999644517898,0.3536506392806769,0.2693135801330209,-9.664614245295525,14956.0
29.6,3.5999999046325684,281.0,22.3741455078125,31.46516990661621,-79.7827709169015,40.45906763801896,291.6982905731201,0.0130195375531911,-0.0189446602016687,-0.7386342883110046,0.6737143993377686,0.0003453964935437,0.1047563673534964,3.024960408257911,-0.2206682115793228,-0.089655727148056,-0.1030260547995567,0.3948368183523417,0.160722836907953,-9.645165236592293,14956.0
29.8,3.799999952316284,277.0,22.2276554107666,32.39552688598633,-79.78277087568136,40.45906772637939,292.3193633422852,0.0066597401164472,-0.0183434039354324,-0.740258514881134,0.6720391511917114,0.0757392676311189,0.103326183870011,3.0746478451737653,0.1569752544164657,0.0433863177895546,0.1688334345817566,0.3886222513765097,-0.0707175417244434,-10.059919352531432,14957.0
29.9,3.700000047683716,278.0,22.54442596435547,28.96831321716309,-79.78277090235535,40.45906770591401,292.6291186676025,0.0086237210780382,-0.0150795690715312,-0.7411261796951294,0.6711410284042358,0.0806330276072104,0.0895182751230272,3.1078409359939103,0.2124568223953247,0.0333797000348568,0.0349356047809124,0.3222309548780322,-0.022710941908881,-10.03987041950226,14957.0
30.0,3.700000047683716,279.0,22.425479888916016,30.70975112915039,-79.78277081144526,40.45906775046768,292.9448802337646,0.0122940652072429,-0.0142430290579795,-0.7413889169692993,0.6708118915557861,0.0605640509917687,0.0921247287693742,3.1003405432302955,0.1287332773208618,0.1459151953458786,0.1439737826585769,0.2406365322321653,-0.2058748717233538,-9.79197186470032,14957.0
30.2,3.5999999046325684,279.0,22.18258285522461,33.381546020507805,-79.78277084125959,40.4590678405855,293.5665423736572,0.0131079601123929,-0.0193063654005527,-0.7404912114143372,0.671660840511322,0.0237832875235589,0.10742336088349,3.091382612110777,-0.0604756698012352,0.0230839699506759,0.0122412471100687,0.3661452255025506,-0.0672912378050386,-9.911050411462783,14958.0
30.41,3.700000047683716,285.0,22.5494327545166,28.80927658081055,-79.78277088188908,40.45906782103906,293.8772322998047,0.0103787370026111,-0.0202780067920684,-0.7396548986434937,0.6726008057594299,0.0519857046342447,0.1073797931887756,3.1138632733040623,0.0720527693629264,-0.0288215391337871,-0.0061039375141263,0.3761823731660843,0.0568266769498586,-9.957527589797976,14958.0
30.5,3.5999999046325684,286.0,22.578229904174805,28.14132881164551,-79.7827709455502,40.45906792958118,294.4962966308594,0.0070050721988081,-0.0199799705296754,-0.7377575039863586,0.6747338175773621,0.0575601406031183,0.0734665619568096,3.0549674587593048,0.1173581629991531,0.1275546848773956,-0.0116213569417595,0.3068796383589506,0.1443120962753892,-9.495480608940127,14959.0
30.7,3.400000095367432,289.0,22.53315734863281,28.125423431396484,-79.7827710474445,40.459068023831854,295.1143939361572,0.0101400511339306,-0.0175843015313148,-0.7373457551002502,0.6752104759216309,0.0690640974335838,0.0580481328098316,3.013330797107108,0.2653559148311615,0.0818760842084884,0.0812636315822601,0.3449883181974292,0.0092429861426353,-9.500282927155496,14960.0
30.8,3.400000095367432,290.0,22.560701370239247,28.41168785095215,-79.78277112276339,40.45906802202696,295.4145495758057,0.0115919131785631,-0.0153305428102612,-0.7375888824462891,0.6749765872955322,0.0386765542184107,0.0544909773984451,2.986697696459488,0.0832297354936599,0.0150451147928833,0.0804326236248016,0.2635806775465608,-0.0123372184624895,-9.503207704424858,14960.0
31.0,3.400000095367432,292.0,22.138761520385746,34.53455352783203,-79.78277112334412,40.45906809652292,295.7276160583496,0.0120612364262342,-0.0144561370834708,-0.7382285594940186,0.6742879748344421,0.0392509982399351,0.0435988561333244,2.985387974108648,0.223446786403656,0.1368880271911621,0.1712768822908401,0.3392406513914466,-0.148045251108706,-9.503822831511496,14960.0
31.1,3.400000095367432,292.0,22.473058700561523,29.10349273681641,-79.7827712936418,40.45906808948481,296.32505868530274,0.0080834403634071,-0.0169801097363233,-0.7392718195915222,0.673144519329071,0.0264296844134905,0.036326863081535,3.012283319959672,-0.0180733110755682,0.1012603864073753,0.0078090266324579,0.3286043103039265,0.0212652772245928,-9.97402024626732,14961.0
31.3,3.0999999046325684,292.0,22.35787010192871,30.67794418334961,-79.78277145248306,40.45906818529775,296.93054650878906,0.007354486733675,-0.019644558429718,-0.7389976382255554,0.673381507396698,0.0505149433471553,0.0293307901943592,3.0034247644036256,-0.0556742846965789,-0.0161546226590871,0.0124610485509037,0.2669320640154183,0.2030010931380092,-9.680262563824655,14961.0
31.4,3.0999999046325684,293.0,22.29526710510254,31.70372200012207,-79.78277152120505,40.45906828286106,297.2294967041016,0.0108444634824991,-0.0178941041231155,-0.7388345003128052,0.6735621094703674,0.0599421597309732,0.030720470035773,2.9865952321226303,0.0521178692579269,0.0110236024484038,-0.1059753969311714,0.3140105005726218,0.2240166988223791,-9.632582028508187,14962.0
31.5,3.0,297.0,22.466798782348643,29.12734794616699,-79.78277162261833,40.45906827580363,297.5274817810058,0.0132071357220411,-0.0141789112240076,-0.7387099266052246,0.6737449169158936,0.0444010812729283,0.0345006674191471,2.9719426820767163,0.0761659890413284,-0.1120598837733268,0.0178827606141567,0.3783865541964769,-0.0604809126444161,-9.64013721585274,14962.0
31.7,2.900000095367432,296.0,22.260210037231445,32.20468521118164,-79.78277182177976,40.45906838119519,298.1207244262696,0.0102361543104052,-0.0091229369863867,-0.7390028238296509,0.6735628247261047,0.0126679434639882,0.004886880873828,2.9491540539762484,0.0428872965276241,0.0416985936462879,-0.0016663580900058,0.287697737775743,-0.0068215079605579,-9.681005744934083,14963.0
31.8,2.900000095367432,296.0,22.31404685974121,31.17095375061035,-79.78277193999736,40.45906836845257,298.41590570068365,0.0072661596350371,-0.0099886944517493,-0.7390866875648499,0.6734970808029175,0.0284314345896582,-0.0188053298296967,2.958396252917017,0.1011800020933151,0.0115449745208024,0.0652964785695076,0.2436255375109613,-0.1071314335148781,-9.8607000374794,14963.0
32.0,2.799999952316284,297.0,22.43800163269043,29.10349273681641,-79.78277214213716,40.45906846701296,299.0077903137207,0.0038498986978083,-0.0130822174251079,-0.7387413382530212,0.6738511323928833,0.0429010252340674,-0.0142348995119681,2.995219816977741,-0.1473984271287918,-0.0605161860585212,-0.0323146283626556,0.2449600365757942,0.1582829034514725,-9.990207678079605,14964.0
32.2,2.5999999046325684,299.0,22.270225524902344,31.695770263671875,-79.78277234094213,40.45906854691712,299.5982825622558,0.0052370284684002,-0.0105217201635241,-0.7383626699447632,0.6743014454841614,0.0762712765750175,-0.0137260279543989,2.9809080548586966,0.1353887468576431,-0.0061374031938612,0.0672254115343093,0.2832318902760744,-0.0137049050442874,-9.808055800795556,14964.0
32.3,2.5999999046325684,300.0,22.429235458374023,29.008071899414062,-79.78277243826236,40.45906852372094,299.89693521118164,0.005879973527044,-0.0078907385468482,-0.7386490702629089,0.6740183234214783,0.0541617805362928,-0.0084023790060178,2.9962701432475205,0.045855164527893,0.0447818040847778,0.0224688053131103,0.2528792496398091,0.1032849614694714,-9.929282029867172,14964.0
32.4,2.5,303.0,22.32155990600586,31.011919021606445,-79.7827725656726,40.45906860769168,300.1853682861328,0.0051949159242212,-0.006948328576982,-0.7392241358757019,0.6734036207199097,0.0495447115802473,-0.010908206772191,2.97798099796926,0.0596467293798923,0.0121962977573275,0.0668503418564796,0.2908888009004295,0.0747792918048799,-9.875348482131956,14965.0
32.6,2.5,304.0,22.01981544494629,34.78900909423828,-79.78277270588872,40.459068526935646,300.782280670166,0.0023952149786055,-0.0075476635247468,-0.7403422594070435,0.6721835136413574,0.0591394362254279,0.0086178297450805,3.00284646181934,-0.1331978589296341,-0.0787737593054771,-0.0273291952908039,0.2237516555003822,0.2191000675410032,-10.033841940164567,14965.0
32.8,2.299999952316284,308.0,22.240177154541016,31.902517318725582,-79.78277285240594,40.45906856609157,301.3808295593262,0.0018549932865425,-0.0119116716086864,-0.7402136921882629,0.6722636818885803,0.0890159224130134,0.0179222362451101,3.0675550034781787,0.0156837999820709,0.1289862841367721,0.0435267761349678,0.2286501421406865,0.0287504944112151,-10.111954894065857,14966.0
32.9,2.299999952316284,310.0,22.30904006958008,30.359872817993164,-79.7827727094272,40.459068791207216,301.67257379150385,0.0042735519818961,-0.0143449176102876,-0.7400482296943665,0.6723872423171997,0.0710879922787833,0.027194716693227,3.0478807837394704,0.0841672495007515,0.1229279935359954,0.0129046095535159,0.2921504290401936,0.0673779501859098,-10.03150071501732,14966.0
33.1,2.299999952316284,311.0,22.39042282104492,30.08156013488769,-79.78277278850761,40.45906875881538,302.2816512451172,0.0056186155416071,-0.0155275156721472,-0.7397729158401489,0.6726540327072144,0.0574457582692166,0.0644051658304111,3.0186576998770214,0.0424473658204078,-0.036103032529354,0.0412684194743633,0.2926795106939972,0.1257596027757972,-9.586548069119454,14967.0
33.2,2.200000047683716,310.0,22.310291290283203,31.234567642211918,-79.78277278231788,40.4590688641954,302.5739562377929,0.0055682519450783,-0.0145732248201966,-0.7396718859672546,0.6727868318557739,0.0625564507573701,0.0632753775603998,2.9739395477593256,0.1427168250083923,0.1044775620102882,0.028357096016407,0.2524553082324564,0.1879831958189606,-9.525039453506473,14967.0
33.3,2.200000047683716,314.0,22.319055557250977,30.328065872192383,-79.78277282093948,40.45906885020291,302.8706023559571,0.0068354187533259,-0.0146630434319376,-0.739597737789154,0.6728547811508179,0.0580842429852849,0.0516654090500216,2.9597995370412287,0.1232120841741562,0.0351584665477275,0.0295529514551162,0.30137960113585,0.0417263978440314,-9.676561861038213,14967.0
33.5,2.0999999046325684,316.0,22.20136260986328,32.013843536376946,-79.78277285226041,40.45906897212211,303.4668242797852,0.0076915016397833,-0.0133845414966344,-0.7396762371063232,0.6727858781814575,0.0303780688634013,0.0610866078642156,2.961832496080424,-0.0639262497425079,-0.0031669600866734,-0.1177296340465545,0.2520147022604943,0.3018507222644985,-9.713166600465774,14968.0
33.7,2.299999952316284,321.0,22.37790298461914,29.58059883117676,-79.78277289614559,40.459068956520255,303.76358865356445,0.0080697489902377,-0.0118918325752019,-0.7399408221244812,0.6725184321403503,0.0377081748337345,0.0518360805048343,2.975795707027705,-0.0450645238161087,-0.0945024043321609,0.0348273627460002,0.2400580416060984,0.062243957798928,-9.874727507829666,14968.0
33.8,2.299999952316284,319.0,22.258956909179688,31.55263900756836,-79.78277290897833,40.45906912084835,304.3681990966797,0.0037778301630169,-0.0109528359025716,-0.7402755618095398,0.672203779220581,0.03637468808112,0.0490443679218604,2.9935259061381085,0.0187352821230888,-0.0265100467950105,0.0479900129139423,0.2830720237456262,-0.0439961499162018,-9.733899657726289,14969.0
34.0,2.299999952316284,321.0,22.266469955444336,30.67794418334961,-79.78277285752442,40.45906918842925,304.9688193664552,-0.0014659778680652,-0.0130349807441234,-0.7399243116378784,0.672562301158905,0.0657549161305308,0.0440435457075672,2.9997505696632576,0.0535246953368186,0.1067394092679023,0.0855475589632988,0.1562844530493021,0.037730045216158,-9.8061016613245,14969.0
34.1,2.299999952316284,322.0,22.5106201171875,27.71988296508789,-79.78277286681481,40.45906917405861,305.2682082519531,0.0001911871950142,-0.0152262654155492,-0.7395021319389343,0.6729820370674133,0.0743117832152476,0.0439556416163804,2.9770047826393813,0.0340578444302082,0.1458450108766555,-0.0397908426821231,0.1762818392179906,0.2710990822501481,-9.579529071450231,14970.0
34.21,2.200000047683716,330.0,22.270225524902344,31.14709854125977,-79.78277289555459,40.45906928399889,305.5632560119629,0.0023520968388766,-0.0171870626509189,-0.7390879392623901,0.6733856201171875,0.0756291773155791,0.0585011261700843,2.920824884883072,0.0776364579796791,0.0707889199256897,0.0237127635627985,0.2477889377810061,0.1441769159585237,-9.284356947541236,14970.0
34.4,2.0999999046325684,333.0,22.240177154541016,30.821075439453125,-79.78277273625761,40.45906943704785,306.1509063110352,0.0026016666088253,-0.0187426581978797,-0.7386023998260498,0.6738756895065308,0.0664363350168939,0.0795069630343126,2.9010552796093787,-0.0932588130235672,-0.0118319345638155,-0.0629718452692031,0.1779450614377856,0.2075763201154769,-9.618695476055146,14971.0
34.6,2.0999999046325684,341.0,22.017311096191406,34.59021759033203,-79.78277275209581,40.45906942971612,306.44052575683594,0.0029310840182006,-0.0183002594858408,-0.7386006712913513,0.6738883852958679,0.0679077063518975,0.0746955763643832,2.8835282667238253,-0.0035688607022166,0.0200298745185136,0.0014945117291063,0.2204767031036317,0.1307133638765663,-9.589879227876663,14971.0
34.7,2.0999999046325684,343.0,22.230159759521484,31.53673553466797,-79.78277285827511,40.45906946654945,307.02592919921875,0.0035480882506817,-0.0159209631383419,-0.7389169335365295,0.673599123954773,0.0627543081110551,0.063481398072742,2.9031197799969584,0.0996661558747291,-0.0309854466468095,0.0927820652723312,0.224846199452877,-0.0094696753844618,-9.81545428276062,14972.0
34.9,2.200000047683716,351.0,22.123735427856445,32.47504425048828,-79.78277293197212,40.45906962722321,307.6079299316406,0.0010265940800309,-0.0121807185932993,-0.7389314770698547,0.673669695854187,0.0446035616632559,0.0367667589661217,2.943368498220317,-0.0240771826356649,-0.1125060245394706,-0.0154336774721741,0.1925310322456062,0.0663350992742926,-9.993661043643952,14972.0
35.0,2.299999952316284,352.0,22.197607040405277,31.17095375061035,-79.78277297294856,40.45906963298864,307.9033439025879,0.0003370615013409,-0.0113452030345797,-0.7389597296714783,0.6736540198326111,0.0509537124146096,0.0228590345880744,2.96112729731205,0.0986616089940071,0.0042158802971243,-0.0301203690469265,0.2198583600483835,0.1417464568186551,-9.958583596944807,14972.0
35.2,2.400000095367432,355.0,21.93342399597168,34.876480102539055,-79.78277301250962,40.4590696359645,308.19969247436524,0.0007355564739555,-0.010882799513638,-0.7390309572219849,0.6735832095146179,0.0478529002606951,0.0205654092802882,2.960240419200506,0.083176352083683,0.0075821848586201,0.0359749384224414,0.2714879769086838,0.1864272700063884,-9.809436328411104,14973.0
35.3,2.299999952316284,357.0,22.098695755004886,32.71359634399414,-79.78277305630715,40.45906975807115,308.78171228027344,0.0010728299384936,-0.0117812324315309,-0.7391055822372437,0.6734857559204102,0.0467308725230474,0.0321650613031751,2.9776602753301864,-0.0492571555078029,0.0284160673618316,0.1136215776205062,0.1581723545305431,0.0180616836994886,-10.010744268894197,14973.0
35.5,2.400000095367432,1.0,22.111215591430664,32.816970825195305,-79.78277307355809,40.45906988646875,309.36490701293945,0.0070747388526797,-0.0167534500360488,-0.7388216257095337,0.67365562915802,0.0483139386165129,0.0443288333653135,2.9835952608629097,-0.0169372092932462,0.0715955570340156,0.0472448728978633,0.1696336098387837,0.1546570815704763,-9.940639661550524,14974.0
35.61,2.5999999046325684,3.0,22.21638870239257,31.186857223510746,-79.78277311804308,40.45906987892582,309.6636092529297,0.0084980530664324,-0.0194264911115169,-0.7386696338653564,0.6737341284751892,0.0441920278971268,0.0611237620339296,2.9922667810313883,-0.0839159712195396,0.0088843135163187,0.0733411982655525,0.2555815220810473,0.0109370158798992,-9.911858496665957,14974.0
35.81,2.799999952316284,6.0,22.21012687683105,31.98998641967773,-79.78277319861722,40.45906996583575,310.2424018249512,0.0030071602668613,-0.0156747289001941,-0.7393944263458252,0.6730833649635315,0.0525882913029862,0.0640125073004335,2.9283332156607704,0.0173345245420932,-0.0913199782371521,0.0217625796794891,0.1979249607771635,0.2220568765886128,-9.526645098924638,14975.0
36.0,2.799999952316284,4.0,22.02482414245605,33.508773803710945,-79.78277329458629,40.45907010392458,310.5275771484375,-0.0007891874993219,-0.0103249726817011,-0.73941570520401,0.6731695532798767,0.040742246590073,0.0230177509646654,2.914893919671248,-0.0220517199486494,-0.0874262154102325,-0.0599032007157802,0.1513032922614366,0.3176224353164434,-9.74889952003956,14975.0
36.1,2.799999952316284,2.0,22.193851470947266,31.329988479614247,-79.78277341175487,40.45907011773381,311.1198966369629,-0.0025414701085537,-0.0061942874453961,-0.7382199764251709,0.6745268106460571,0.0379060027392928,-0.0242013700845173,3.0099288479051363,0.03296784684062,0.081363707780838,-0.0644932240247726,0.1921467057242989,0.2337571916542948,-10.254031709432605,14976.0
36.2,2.900000095367432,358.0,22.001035690307614,34.351661682128906,-79.78277339181301,40.45907025888013,311.4121444091797,-0.0004207411257084,-0.0083886887878179,-0.7376381754875183,0.6751439571380615,0.0267350344779538,-0.0129467761783356,3.023029370094713,-0.0940832123160362,0.017646986991167,-0.0869884043931961,0.1843950153887272,0.2093415397033095,-10.096062161922458,14976.0
36.41,2.799999952316284,356.0,22.07991409301757,32.562515258789055,-79.78277336866613,40.45907037711529,312.0145804748535,0.0024596690200269,-0.0123717850074172,-0.7377462983131409,0.674960196018219,0.0306484319249298,0.0293052051569348,3.0622762965939505,-0.0086521077901124,-0.0015050201909616,-0.0101575450971722,0.3246561972051859,0.289041354842484,-10.196017974615096,14977.0
36.51,2.799999952316284,352.0,22.18759155273437,31.80709648132324,-79.78277339406324,40.45907038265132,312.3227088317871,0.0012869194615632,-0.012856438755989,-0.7383485436439514,0.6742956042289734,0.0272879505251493,0.0478954202378286,3.0963876942986417,-0.1331546604633331,-0.0836109668016433,-0.0342483669519424,0.2918081841990352,0.1788409645110368,-10.099281638860704,14977.0
36.7,2.700000047683716,351.0,22.478065490722656,27.47337913513184,-79.78277339875805,40.45907052943996,312.9282958374024,-0.0004236299428157,-0.0148832332342863,-0.7395484447479248,0.6729387044906616,0.0536107537841208,0.0531612055832827,3.0720543714051978,0.1262789666652679,0.0536505617201328,0.0091755362227559,0.262472959086299,0.0098268066428136,-9.807279290556908,14977.0
36.91,2.700000047683716,349.0,22.028579711914062,33.23046493530273,-79.78277340890831,40.45907068077528,313.5370108947754,0.0016064272494986,-0.0149682443588972,-0.7395064830780029,0.6729811429977417,0.0418114772339155,0.0662511457680876,3.009116180747037,0.163290873169899,0.162528708577156,0.1883614659309387,0.2669302367605269,-0.1096044128760695,-9.542095781564711,14978.0
37.0,2.700000047683716,345.0,22.124988555908203,31.974082946777344,-79.78277340404598,40.45907070683938,313.83805154418945,0.0036746370606124,-0.015966098755598,-0.7391693592071533,0.6733202934265137,0.0323296151649251,0.0711247509907,3.013663859329668,0.0902633070945739,0.0817802846431732,0.056409440934658,0.2283680505305529,-0.0758329235203564,-9.81690088391304,14978.0
37.1,2.5999999046325684,343.0,22.171314239501957,30.97216033935547,-79.78277340403271,40.45907073187981,314.13998864746094,0.0066369092091917,-0.0173705089837312,-0.738663911819458,0.6738173961639404,0.028864418842444,0.0799822033026621,3.0230987485564187,0.1108246445655822,0.1091717928647995,-0.0115960091352462,0.2933823277428746,0.0846719127427786,-9.891341786384585,14979.0
37.3,2.700000047683716,341.0,22.197607040405277,30.48710060119629,-79.78277354374866,40.4590708864077,314.7530486450196,0.0065822200849652,-0.0148468250408768,-0.7374945282936096,0.675157904624939,0.0069840299866049,0.0876435243671709,3.0512434954750587,-0.0664440393447876,-0.0744778737425804,-0.0923643112182617,0.2943611516430974,0.2918453871086239,-9.88395909190178,14979.0
37.5,2.799999952316284,339.0,22.37289428710937,28.5468692779541,-79.78277329224203,40.45907111256004,315.38689111328125,0.0018667636904865,-0.0149152241647243,-0.736542284488678,0.6762244701385498,0.0133224128643699,0.0987805230308486,3.0635360042852686,-0.1551120728254318,-0.1197467967867851,-0.1036370247602462,0.2438090487197041,0.2870185105875135,-9.787030967473983,14980.0
37.6,2.799999952316284,338.0,22.32030868530273,29.222768783569336,-79.7827732667164,40.45907112778496,315.6928984985352,0.0014268041122704,-0.0172941461205482,-0.7363688349723816,0.6763578653335571,0.0247519392829207,0.0977837282496615,3.0521843265602304,-0.2039112597703933,-0.0972076505422592,-0.0391482785344123,0.2055837534740567,0.2473173963837325,-9.743870329856872,14980.0
37.7,2.799999952316284,335.0,22.141263961791992,31.886613845825195,-79.78277335930319,40.45907126940031,316.00621102905274,0.0010373382829129,-0.0196248870342969,-0.7363819479942322,0.6762806177139282,0.0466260847405174,0.0927610228187702,3.055380178425648,-0.0782842189073562,-0.0290169864892959,-0.0235606040805578,0.2851029261946678,0.2000283687002957,-9.671606345772744,14981.0
37.9,2.799999952316284,336.0,22.15503692626953,31.40155601501465,-79.78277342264623,40.45907143336925,316.62733148193365,0.002360925078392,-0.0200224015861749,-0.7365735769271851,0.6760569214820862,0.0408562148620729,0.0995148018592186,3.063417260416069,-0.0471689477562904,-0.0028517253231257,-0.0021251374855637,0.2826826722733676,0.2099368776194752,-9.705188074707984,14981.0
38.0,2.900000095367432,338.0,22.243932723999023,30.05770492553711,-79.7827734242496,40.45907146605064,316.9336860046387,0.0032663783058524,-0.0175369512289762,-0.7370758056640625,0.6755746603012085,0.0433479435458431,0.0924937229157116,3.061341776782436,0.1904110312461853,0.0270118564367294,0.1114070788025856,0.2744024484604597,-0.0077945840021129,-9.787336192131043,14981.0
38.2,2.900000095367432,339.0,22.429235458374023,27.958436965942383,-79.78277341417902,40.45907158752429,317.5518195495605,0.005683543626219,-0.0135404570028185,-0.7381522655487059,0.6744743585586548,0.018367208374182,0.0847981005236747,3.043093468151824,0.1414748430252075,0.1073525473475456,0.021392261609435,0.2514633463695645,0.1370387995429337,-9.592471298575402,14982.0
38.4,2.900000095367432,342.0,22.044857025146484,33.26227188110352,-79.78277340993367,40.45907173776186,318.1665274963379,0.0046816393733024,-0.0119861923158168,-0.7389915585517883,0.6735918521881104,-0.0010970387789254,0.0701019606242246,3.016998111196044,-0.0231394171714782,0.0394337251782417,0.1313146501779556,0.1176263724826276,-0.0503356097638607,-9.578197075724605,14983.0
38.5,2.900000095367432,340.0,22.09619140625,32.07745742797852,-79.78277341454724,40.45907176086854,318.4686934814453,0.0034263436682522,-0.0128577332943677,-0.7392371296882629,0.6733137965202332,0.0133295667397466,0.0660829758384703,3.0310285410178865,0.0726408064365387,0.1068569123744964,-0.0121439397335052,0.1996407165750861,0.1189755261316895,-9.855008357763287,14983.0
38.7,2.799999952316284,341.0,22.3353328704834,29.175058364868164,-79.78277350698656,40.459071960009005,319.0882270202637,0.0018698731437325,-0.010824641212821,-0.7394286394119263,0.6731453537940979,0.0214939479750098,0.0499226600906837,3.095726804702582,0.0357331410050392,-0.0436644330620765,-0.0192568358033895,0.2243114350363612,0.2453742387145757,-10.014799897670748,14984.0
38.8,2.799999952316284,342.0,22.20762252807617,30.67794418334961,-79.78277351617082,40.45907197508912,319.3983352050781,0.0029293068218976,-0.0103909857571125,-0.7390899658203125,0.6735202074050903,0.0162936949680697,0.0490891113421233,3.1072689801986715,-0.0541894771158695,-0.0393017418682575,-0.0597308799624443,0.2091688823886216,0.3358656019717455,-9.943603030443194,14984.0
38.9,2.799999952316284,343.0,22.33157730102539,29.25457572937012,-79.78277354209172,40.4590721201837,319.7066199645996,0.004465146921575,-0.0109986905008554,-0.7387565374374391,0.6738678812980652,0.0108309348507252,0.065748686831122,3.103368321862998,-0.1020812094211578,0.0460277646780014,-0.132997453212738,0.2045825274288654,0.4383027537167072,-9.866498136520386,14984.0
39.11,2.799999952316284,345.0,22.3353328704834,29.016023635864247,-79.78277352983751,40.4590721236205,320.3269507751465,0.0054686861112713,-0.014407705515623,-0.7382192611694336,0.6743848323822021,0.0309587026873023,0.079884272595343,3.0960173665324646,-0.013160390779376,0.0099870972335338,0.0157108157873153,0.2798045813664794,0.2752993565239012,-9.798326033949852,14985.0
39.3,2.799999952316284,347.0,22.391674041748047,27.81530570983887,-79.7827735385917,40.45907219155049,320.9394881591797,0.0055656768381595,-0.0157620124518871,-0.738206148147583,0.674368143081665,0.0705039628489106,0.0908806026406112,3.05371588391235,0.1688911318778991,0.0577150881290435,0.0058674640022218,0.2433654643222689,0.0361611641664058,-9.65841034948826,14985.0
39.4,2.700000047683716,350.0,22.360374450683597,28.66614532470703,-79.78277354347277,40.45907230932485,321.24806283569336,0.0042209769599139,-0.0160929504781961,-0.7382364273071289,0.674336850643158,0.058183482680824,0.0932899225293811,3.0462360798561607,0.0308862924575805,0.060104738920927,0.089546650648117,0.2154427255131304,0.0080132070556283,-9.55199102461338,14986.0
39.51,2.900000095367432,357.0,22.20261573791504,30.72565460205078,-79.78277355073455,40.45907229745328,321.5516555175781,0.002655106363818,-0.0160123147070407,-0.738162636756897,0.6744275689125061,0.0663942318144238,0.0833752176629005,3.0271684126478218,0.0396424643695354,-0.0245491825044155,0.141203686594963,0.2436405758187175,-0.0760646194405853,-9.643332134485243,14986.0
39.7,2.900000095367432,357.0,22.280242919921875,29.604454040527344,-79.78277355361386,40.45907236325722,322.1644103393555,0.0027631793636828,-0.0125556141138076,-0.7382768988609314,0.6743752360343933,0.0663249109303882,0.0783667149086094,3.0737148192930763,-0.1414555758237838,-0.0687462389469146,-0.1361855417490005,0.1799460882693529,0.429564309194684,-9.909413191080096,14987.0
39.9,3.0,358.0,22.31780433654785,28.53096389770508,-79.78277354210314,40.459072403933,322.77636026000977,0.0006189742707647,-0.014907294884324,-0.7383923530578613,0.6742062568664551,0.0659753792435932,0.0762902093760331,3.073931229613899,-0.1285986304283142,-0.0400227457284927,-0.11503516882658,0.2575988662987947,0.3744370158389211,-9.839252450466155,14987.0
40.0,3.0,359.0,22.2526969909668,29.42156410217285,-79.78277353953511,40.45907236827545,323.08409951782227,-0.0014062194386497,-0.017875263467431,-0.7379328608512878,0.6746359467506409,0.0987501291890991,0.0750040448095282,3.081114477846932,-0.0179924014955759,0.0450260788202285,-0.0164805613458156,0.1743309339880943,0.3522846566140652,-9.87573089003563,14988.0
40.2,3.2000000476837163,3.0,22.406700134277344,28.13337707519531,-79.78277361760817,40.45907241090791,323.6987502441406,0.0010801986791193,-0.0167496372014284,-0.7373374104499817,0.6753161549568176,0.1356315701461213,0.0638081915377784,3.074729112281952,0.2113236784934997,0.0820302292704582,0.09279815107584,0.1909519916586578,0.0433871624059975,-9.74343763589859,14988.0
40.3,3.299999952316284,6.0,22.2276554107666,30.05770492553711,-79.78277364498389,40.45907237395206,324.0060622558594,0.0011440633097663,-0.0156994108110666,-0.7373573184013367,0.6753195524215698,0.1159405355350058,0.055904561539306,3.072224392205872,0.0453356951475143,0.0954494476318359,0.0889796093106269,0.1400827229674905,0.0538518511690199,-9.788970488905909,14989.0
40.4,3.299999952316284,9.0,22.322813034057614,28.936504364013672,-79.78277366848162,40.459072472908296,324.3109900817871,-0.000106925239379,-0.0144015355035662,-0.7376468777656555,0.6750331521034241,0.1016177896951685,0.0493796348186732,3.0868913592913483,-0.0500316321849823,-0.0446048453450202,0.1251633018255233,0.2189385747537017,0.113421731069684,-9.915444009304046,14989.0
40.6,3.299999952316284,8.0,22.292762756347656,29.47722625732422,-79.78277374773411,40.45907238460168,324.92984078979487,-0.0035480838268995,-0.0158157851547002,-0.7381672263145447,0.6744230389595032,0.108938098221168,0.02347758885184,3.08259863750102,-0.1877241283655166,-0.0063810721039772,-0.0627631396055221,0.0917738221026957,0.4297926429659129,-9.672275267243387,14989.0
40.7,3.2000000476837163,6.0,22.366634368896484,28.05385780334473,-79.78277380144289,40.45907247464368,325.23580621337885,-0.0050024488009512,-0.0189225133508443,-0.7376936078071594,0.6748519539833069,0.141585502356781,0.0280773844644954,3.075693436864343,0.1418169140815735,0.1402962654829025,0.0864750295877456,0.177430214099586,0.1165636044926941,-9.80403642475605,14990.0
40.9,3.2000000476837163,8.0,22.31780433654785,28.713855743408203,-79.78277386992593,40.45907249861187,325.85120843505865,-0.0095057496801018,-0.0204367581754922,-0.7355729937553406,0.6770704388618469,0.1651947868520984,0.0460589723904693,3.0480355636040977,0.1574218422174453,0.1062865704298019,0.0847071781754493,0.2190733165293932,0.0536372035369277,-9.669537016153336,14990.0
41.1,3.2000000476837163,8.0,22.170061111450195,31.22661590576172,-79.7827739075518,40.45907246546332,326.45989678955084,-0.0063584088347852,-0.0200355816632509,-0.7349682450294495,0.6777756214141846,0.132060084752671,0.0432007293403658,3.031392474945541,0.087419256567955,0.0253298971801996,0.0817416682839393,0.1851761303097009,0.0340311605483293,-9.671879410743712,14991.0
41.2,3.2000000476837163,9.0,22.28775405883789,29.23867225646973,-79.78277393791882,40.45907256706919,326.7657134399413,-0.0030274279415607,-0.0190015360713005,-0.7357386350631714,0.6769921779632568,0.1137828424272377,0.0555525601033191,3.046437366148973,0.1175524070858955,0.099684365093708,-0.0172963514924049,0.2280601580813527,0.3589377647638321,-9.837334563732153,14991.0
41.4,3.2000000476837163,4.0,22.40419578552246,27.33819961547852,-79.78277398935691,40.45907268063264,327.3732421264648,0.0027113414835184,-0.0094028776511549,-0.7386614084243774,0.6740056872367859,0.0595269434786557,0.0682175330480645,2.99528804098033,0.0583793111145496,-0.0826082229614257,0.0931677520275116,0.2521353376284241,0.2096561199054122,-9.351751370429993,14992.0
41.5,3.0999999046325684,2.0,22.218891143798828,30.43143844604492,-79.78277399075868,40.45907267423772,327.6705100402832,-0.0009395057568326,-0.0061799674294888,-0.7410463690757751,0.6714248657226562,0.0489809346044739,0.05331471680254,2.950021624452753,0.1281346380710601,0.0414968356490135,0.2390974014997482,0.2485416023433209,-0.1254070339445024,-9.373412380814552,14992.0
41.7,3.2000000476837163,359.0,22.06864547729492,32.45914077758789,-79.7827740747217,40.459072799270174,328.2722899780273,-0.0002296236925758,-0.0186859108507633,-0.7411572933197021,0.6710712909698486,0.0838516403851843,0.0484553184109485,2.9754405602562404,0.0697939917445182,0.3824069499969481,-0.0700945556163787,0.2051328235119581,0.2548073690012097,-9.721968414187431,14993.0
41.8,3.2000000476837163,357.0,22.044857025146484,32.80902099609375,-79.78277406121795,40.45907278030064,328.5706603393555,0.0024288645945489,-0.0269299112260341,-0.739308774471283,0.6728234887123108,0.104982368294417,0.0917485952093122,2.9911068256380395,0.0889127478003501,0.2195960730314254,0.031261570751667,0.3291006658226252,0.1141823533270508,-9.968280619382858,14993.0
42.0,3.0999999046325684,357.0,22.18508720397949,31.01987075805664,-79.78277415688137,40.45907294256793,328.87383721923834,0.002936442149803,-0.0290597863495349,-0.7375794649124146,0.6746283769607544,0.0948967640452082,0.1250317968276286,3.0235824600425265,-0.0550649166107177,-0.0668571814894676,-0.1025623977184295,0.3138176520913839,0.3813103082031012,-9.976521685123444,14993.0
42.1,3.0999999046325684,357.0,21.98976707458496,33.5723876953125,-79.78277419324796,40.45907294645213,329.4811141357422,-0.0001304064353462,-0.0211430769413709,-0.7362149357795715,0.6764174103736877,0.1101308935634362,0.1007400645257285,3.0347721642546706,0.1552037596702575,-0.1053960546851158,-0.0269690696150064,0.3088040301203728,0.2516761484742165,-9.881849416494369,14994.0
42.21,3.0999999046325684,357.0,22.16880989074707,30.96420669555664,-79.78277426268562,40.459073102487935,329.7806365356445,-0.0006995953153818,-0.0148593997582793,-0.7359258532524109,0.676898717880249,0.0897818674730631,0.0663289367333193,3.0477650154627614,0.1559817194938659,-0.0486965738236904,0.0419275648891925,0.2387419978156686,0.2561594279855489,-9.998753968477253,14994.0
42.4,3.2000000476837163,358.0,22.379154205322266,27.77554702758789,-79.78277441633638,40.459073239635785,330.38237451171875,-0.0014533614739775,-0.0127762295305728,-0.7343903183937073,0.6786056160926819,0.0371932145641598,0.0257313479792639,3.081340236764623,-0.1142623499035835,-0.0307681430131196,0.0439517013728618,0.1389318356104195,0.0521502383239567,-10.159797981977462,14995.0
42.6,3.299999952316284,2.0,22.22264862060547,29.739633560180664,-79.78277444823254,40.45907325312815,330.69080804443365,-0.0030429745092988,-0.0149005660787224,-0.7336705923080444,0.6793351769447327,0.0534835363816628,0.0222265781941869,3.0821677773512723,0.0447563230991363,0.0825701430439949,0.0250514689832925,0.1315977917890995,0.0758026687474921,-9.911742721796037,14995.0
42.7,3.400000095367432,2.0,22.197607040405277,30.38372802734375,-79.78277451419088,40.45907338022515,331.2949569091797,-0.0057682460173964,-0.0152376117184758,-0.7341898679733276,0.6787487864494324,0.0705804910557661,0.0213863855408564,3.0718364064006,-0.1031816005706787,-0.1353924572467804,-0.0233218111097812,0.1166364206001162,0.3642821198701859,-9.88946132183075,14996.0
42.9,3.299999952316284,6.0,22.21263122558593,30.44734191894531,-79.78277467169043,40.45907354914354,331.90231774902344,-0.0077705979347229,-0.0085929436609148,-0.737173855304718,0.6756038069725037,0.0834437842539883,-0.0123659349550971,3.0590467223348123,0.1758822649717331,-0.0104310540482401,0.1311233341693878,0.1494935424719005,0.0988753934204578,-9.807487451434136,14996.0
43.0,3.299999952316284,9.0,22.170061111450195,30.892641067504893,-79.78277471002849,40.45907355964139,332.20879815673834,-0.0068009183742105,-0.0072714802809059,-0.7387365102767944,0.6739208102226257,0.0673568718987303,-0.0257352673846729,3.0671772734729617,0.1307986080646515,0.0379590168595314,0.1294514089822769,0.1150163124594837,0.1025490436982363,-9.879400602579118,14997.0
43.1,3.5,15.0,22.29526710510254,29.12734794616699,-79.78277474101709,40.45907357033087,332.5156905517578,-0.0058288816362619,-0.0086557259783148,-0.7398396730422974,0.6727023124694824,0.0542396895401211,-0.0180740739465788,3.0657976825410764,0.0375801585614681,0.0692673623561859,0.1535860151052475,0.0817750833369791,0.1222725974489003,-9.877571593523026,14997.0
43.3,3.5,17.0,22.123735427856445,31.13119506835937,-79.78277479882837,40.459073739849096,333.12228845214844,-0.0059138312935829,-0.0133689660578966,-0.7415024042129517,0.67079097032547,0.0546888545505369,0.0137381394575283,3.011245916816676,0.0038919183425605,0.0908680632710456,0.036033246666193,0.1164120519720018,0.3008422420173883,-9.593326161503793,14998.0
43.5,3.5,20.0,22.15754127502441,30.90059280395508,-79.78277484782872,40.45907388196234,333.7282531127929,-0.0011335320305079,-0.012607947923243,-0.741472065448761,0.6708643436431885,0.0681493982085709,0.0382022638953349,3.018350989483133,-0.0467960461974144,-0.0918278843164444,-0.1520953476428985,0.0820738212391734,0.3813461954891682,-9.718091125488284,14998.0
43.6,3.5,21.0,22.21138000488281,30.192886352539062,-79.78277485937853,40.459073881505546,334.0304152832031,0.0002654885465744,-0.0131922271102666,-0.7406978011131287,0.671708881855011,0.0483754238187247,0.0395425273695746,3.0215027188453547,-0.1161088123917579,-0.0692290216684341,-0.1908811032772064,0.0617017655912786,0.3034719724394381,-9.808665080666543,14999.0
43.7,3.5999999046325684,25.0,21.98600959777832,33.64395523071289,-79.78277486900903,40.459074035746,334.33724664306635,0.0001650454214541,-0.0164456292986869,-0.7397987842559814,0.6726272106170654,0.0432286496471661,0.0446504870857672,3.0338113580948534,-0.1437838077545166,-0.0401639975607395,-0.1717051714658737,0.0913603691384196,0.2956247349455953,-9.807322559952736,14999.0
43.9,3.5999999046325684,29.0,22.22139549255371,30.145174026489247,-79.78277489382052,40.45907419043117,334.9446608886719,-0.0008340522181242,-0.0212319772690534,-0.7379482984542847,0.6745226979255676,0.0711531921410963,0.0663677997060011,3.068662323494942,0.0193178709596395,-0.0084994491189718,-0.0654945224523544,0.2790035128220916,0.2212292214855552,-9.963998118638992,14999.0
44.1,3.700000047683716,27.0,22.41045570373535,26.84518814086914,-79.7827749241556,40.459074205613135,335.25127862548834,-0.0015623663784936,-0.019275614991784,-0.7375073432922363,0.6750622391700745,0.085568863998943,0.0615251230278509,3.055019224031054,0.1508024185895919,0.0075633111409842,0.1010399088263511,0.2100715828500688,0.1600206593982875,-9.702481398582457,15000.0
44.2,3.700000047683716,27.0,22.098695755004886,31.92637252807617,-79.78277499997122,40.459074333026685,335.8542296752929,-0.003146005095914,-0.0138000650331377,-0.7374662756919861,0.6752356290817261,0.0736851429332907,0.024580076035101,2.9654253654379006,0.1772896498441696,0.0554368682205677,0.1316695362329483,0.1031513891369104,-0.0490601218957454,-9.358272770047188,15000.0
44.4,3.5999999046325684,24.0,21.94344139099121,34.121063232421875,-79.7827751064443,40.45907443244321,336.4526564941406,-0.0036594204138964,-0.0140302125364542,-0.7377535104751587,0.6749144792556763,0.0614129189531352,0.0139622049087271,3.004127659463584,0.0389597676694393,0.0592201650142669,0.0342462509870529,0.1871725890040397,0.1837593499571084,-9.91428859949112,15001.0
44.5,3.5999999046325684,23.0,21.982254028320312,32.864681243896484,-79.78277513853952,40.459074447136175,336.7550246582031,-0.0027391978073865,-0.0144785298034548,-0.7376342415809631,0.6750397682189941,0.0678965663784163,0.0179210551957615,3.0455880087703804,0.117520585656166,0.0917113274335861,0.0674767419695854,0.2822861396893859,0.1839243876188993,-10.188677380084991,15001.0
44.6,3.5999999046325684,22.0,22.11622428894043,31.17890548706055,-79.78277516953641,40.45907446115309,337.06193994140625,-0.0027288196142762,-0.0154629601165652,-0.7374998927116394,0.6751646995544434,0.0592688699889137,0.0261915969681539,3.0868307586765016,-0.0482412874698638,-0.0132489996030926,-0.100801832973957,0.1513679039943963,0.3438466127961874,-10.141027250289918,15002.0
44.8,3.5999999046325684,20.0,22.111215591430664,31.31408500671387,-79.782775305181,40.45907458211362,337.6711852416992,-0.0035757126752287,-0.016255622729659,-0.7372512221336365,0.6754136681556702,0.0745030925226297,0.0247285948377048,3.097550725577493,-0.0325649417936801,-0.0410805121064186,0.0359609387814998,0.15315977409482,0.2244722151942551,-9.922618542909625,15002.0
44.91,3.5999999046325684,19.0,22.19635581970215,29.94638061523437,-79.78277534641096,40.45907475798343,337.9688536987305,-0.0035513278562575,-0.0166382230818271,-0.737201452255249,0.6754588484764099,0.0677557819773318,0.0256717634793728,3.0774310611519864,0.0271124951541423,0.020204558968544,0.0166409779340028,0.1765637298300862,0.1807363577373326,-9.890486923456193,15002.0
45.1,3.5,20.0,22.31154441833496,28.53096389770508,-79.78277541897894,40.45907479946865,338.58221124267584,-0.00392891978845,-0.0163276344537735,-0.7369993925094604,0.6756847500801086,0.0749302771514654,0.0287137259282801,3.0425698671223502,0.1131599172949791,0.112793281674385,-0.0032181194983422,0.2275566214509309,0.166682556644082,-9.615497049093246,15003.0
45.3,3.5,20.0,22.16254997253418,30.701799392700195,-79.78277550580945,40.45907498896515,339.182484375,-0.0043251072056591,-0.0149130122736096,-0.7370866537094116,0.675619900226593,0.0678543729603423,0.0242390704511675,2.997537732507971,0.0745055302977562,-0.0501954741775989,0.09002086520195,0.173988031335175,0.0337369176931679,-9.690479403734209,15004.0
45.4,3.5,20.0,21.98600959777832,33.51672744750977,-79.78277555295037,40.45907508473056,339.4873244628906,-0.0042276852764189,-0.013019529171288,-0.737305223941803,0.6754211187362671,0.0643391490255625,0.0317381764789711,3.0240076043632365,0.024248007684946,-0.054651141166687,0.0470093488693237,0.1575280279107392,0.1421631805691868,-9.811108632087707,15004.0
45.5,3.5,19.0,22.140012741088867,30.44734191894531,-79.78277557064958,40.45907510350352,339.7913024291992,-0.0054889298044145,-0.012692323885858,-0.7371839880943298,0.675550639629364,0.0587145796330635,0.0258776473938238,3.055843064534464,0.0062242574058473,-0.0005688350065611,-0.0186691638082265,0.1378362866677344,0.1647435102984309,-10.020036664009094,15004.0
45.7,3.5,19.0,22.19635581970215,29.81915283203125,-79.78277559273202,40.45907526343586,340.4015929565429,-0.0085482504218816,-0.016110923141241,-0.7367175817489624,0.6759545803070068,0.083891784568504,0.0353136035174458,3.0541069437987862,0.1044503524899482,0.0162030570209026,0.0739165842533111,0.1317161704972386,0.1933587787114084,-9.748339941501618,15005.0
45.9,3.5999999046325684,21.0,22.18132972717285,30.359872817993164,-79.78277565436771,40.459075478679,341.0119216308594,-0.0077721779234707,-0.0129105215892195,-0.7368476390838623,0.6758909821510315,0.0828409306664995,0.0189160805186336,3.0216245980191765,0.2219680100679397,0.1386639028787613,0.0606935545802116,0.073612114470452,0.2125236127339304,-9.540195436477662,15006.0
46.0,3.5999999046325684,21.0,22.1350040435791,30.852882385253903,-79.78277566252072,40.459075506388594,341.3130767211913,-0.0065335207618772,-0.0123288063332438,-0.7369131445884705,0.6758434772491455,0.0675753044221911,0.0147496107219087,3.0020820578042984,0.1132438406348228,0.091035358607769,0.0606034658849239,0.0521188278123736,0.1587796426936984,-9.580055320858955,15006.0
46.2,3.5999999046325684,22.0,22.20261573791504,29.75553894042969,-79.78277566681648,40.45907553062128,341.6129500732422,-0.0064854924567043,-0.0128319961950182,-0.7370044589042664,0.6757349967956543,0.0650124150741239,0.0220102462189805,2.9903766159332497,0.0512980446219444,0.0487833432853221,-0.0195989236235618,0.0615578235872089,0.1844867253117264,-9.665303632020947,15006.0
46.3,3.700000047683716,23.0,22.20762252807617,29.81120109558105,-79.78277568835115,40.45907565616368,342.2115752563477,-0.0071839937008917,-0.0143808871507644,-0.7370197176933289,0.6756801605224609,0.071085213410959,0.0372499608983054,2.9503467561576207,-0.1544496715068817,-0.0673310756683349,-0.022445784881711,0.0411377294082194,0.3157821703702212,-9.5223503190279,15007.0
46.4,3.700000047683716,23.0,22.223899841308597,29.930477142333984,-79.78277571992847,40.45907583108045,342.513294921875,-0.007804203312844,-0.014808707870543,-0.7370448708534241,0.6756364703178406,0.0693390547720507,0.0453438620757879,2.955055022256956,-0.209729716181755,-0.0892181545495987,-0.0993515849113464,0.1448117225803435,0.5460011935606599,-9.503873117566108,15007.0
46.6,3.700000047683716,23.0,22.06363677978516,32.38757705688477,-79.78277568602373,40.45907582896826,343.0989577636719,-0.0084581961855292,-0.0159978214651346,-0.7374802827835083,0.6751261949539185,0.0919378365949756,0.0525476749336868,2.8900278369728185,-0.063523955643177,-0.0858726724982261,-0.0715118497610092,0.2493004247546196,0.5839948294311762,-9.449379406571389,15008.0
46.8,3.799999952316284,25.0,22.21513557434082,29.84300804138184,-79.78277556286406,40.45907597342664,343.39930413818365,-0.0092015452682971,-0.016855850815773,-0.737300455570221,0.6752920150756836,0.1179773040706785,0.0720029222151003,2.916257389456732,0.0224247016012668,0.0323284082114696,0.0568416789174079,0.1968273287639022,0.3968590047955513,-9.718717947006226,15008.0
46.9,3.799999952316284,25.0,22.087427139282227,32.37166976928711,-79.78277545911196,40.45907604493978,343.9850432739258,-0.0109573593363165,-0.0145042184740304,-0.736500084400177,0.6761931777000427,0.1417833985873267,0.0834811084186828,2.920996078564445,-0.004250559490174,0.0193144381046295,-0.105196863412857,0.1803786725923419,0.70545026935637,-9.670407666563989,15008.0
47.11,3.900000095367432,24.0,22.12248420715332,30.97216033935547,-79.78277533835247,40.45907595127528,344.5728881225586,-0.0040262998081743,-0.0100979777052998,-0.7373717427253723,0.6753997206687927,0.1283059336597147,0.0746093660793364,2.960285326426032,-0.0929657220840454,-0.0165504068136215,-0.0605716221034526,0.1007474617380648,0.4620936124026776,-9.964291648864746,15009.0
47.2,3.900000095367432,23.0,22.256452560424805,29.190961837768555,-79.7827752556357,40.45907605345722,344.86143182373047,-0.0026518492959439,-0.012075331993401,-0.7382031679153442,0.6744651794433594,0.1064105130390501,0.0996004109526938,2.9584000837880264,-0.1970203816890716,-0.0321096293628215,0.0196041502058506,0.1678846345469355,0.2410279302299023,-9.887049930095673,15009.0
47.3,3.900000095367432,22.0,22.20512008666992,30.272403717041016,-79.78277517557842,40.459075989381546,345.15683435058594,-0.0047754379920661,-0.0135788843035697,-0.7387731075286865,0.6738005876541138,0.1205879897963576,0.1202282298338756,2.9443982873837697,-0.2148085236549377,-0.131267637014389,-0.0445693582296371,0.1195627144910395,0.4034360625967384,-9.711276195645333,15010.0
