time,wind_speed,wind_angle,battery_voltage,battery_current,position_x,position_y,position_z,orientation_x,orientation_y,orientation_z,orientation_w,velocity_x,velocity_y,velocity_z,angular_x,angular_y,angular_z,linear_acceleration_x,linear_acceleration_y,linear_acceleration_z,node_ids
0.0,1.100000023841858,163.0,24.01558494567871,-0.0715659633278846,-79.78276636196773,40.45906049503552,264.1096526713372,-0.005574082955718,0.015685299411416,-0.8398776054382324,0.5425205826759338,-0.018183688600517,-0.0065371206611216,0.0217659073477226,-0.0063757109455764,-0.0023752332199364,-0.0079729687422513,-0.3371156270429492,-0.1100429266411811,-9.800256784558297,14929.0
0.1,1.100000023841858,162.0,24.014331817626957,-0.055662415921688,-79.78276636095977,40.4590604358058,264.1119798750877,-0.0055667795240879,0.0157174300402402,-0.8398723602294922,0.5425277948379517,-0.0195162322000166,-0.0003364060093704,0.0184847290195535,-0.003341912291944,-0.000372338516172,0.0005159610300324,-0.3299906120449305,-0.124936735080555,-9.803149402141573,14929.0
0.3,1.100000023841858,164.0,24.008071899414062,-0.1113248318433761,-79.78276635119522,40.459060453569606,264.1138422222137,-0.0055813323706388,0.0156949888914823,-0.8398845195770264,0.5425094962120056,-0.0241766909476698,-0.0018145509038271,0.0185068665104417,-0.0029217395931482,0.0017925520660355,-0.0082295397296547,-0.3334563298523426,-0.1107695619575679,-9.801739053726196,14929.0
0.4,1.100000023841858,165.0,24.014331817626957,-0.0636141896247863,-79.782766341242,40.4590603603458,264.11895361852646,-0.005551551003009,0.0157527029514312,-0.8398875594139099,0.5425033569335938,-0.0207072516144693,0.0046956075484408,0.0221669202836938,-0.0102965785190463,-0.0026784683577716,-0.0026759305037558,-0.3280011700093746,-0.126615032153204,-9.805305270552635,14929.0
0.6,1.100000023841858,167.0,24.01683616638184,-0.0715659633278846,-79.7827663254905,40.45906037696898,264.12115356636053,-0.0055537833832204,0.0157323461025953,-0.8398822546005249,0.5425122380256653,-0.0247733337829677,0.0031367976107843,0.0218334106680067,0.0008481568656861,0.0006367543828673,-0.0029031354933977,-0.3335029979422688,-0.111002920679748,-9.799770296216012,14929.0
0.7,1.100000023841858,167.0,24.018089294433597,-0.0636141896247863,-79.78276635021422,40.45906030010104,264.1267754764557,-0.0055351913906633,0.0157544109970331,-0.8398702144622803,0.5425305366516113,-0.021210124106769,0.0018634770896372,0.0241651285808113,-0.0087148463353514,-0.0032846394460648,-0.0051218247972428,-0.3281239615380764,-0.1288412955589592,-9.803497311472894,14929.0
0.9,1.100000023841858,168.0,24.0218448638916,-0.0477106422185897,-79.78276633734792,40.45906031804306,264.12919071626663,-0.0055470145307481,0.0157361049205064,-0.8398697376251221,0.5425316095352173,-0.0248914303126444,0.0001323592382122,0.0239053304828579,0.0012063682079315,0.0015997857553884,0.003316878573969,-0.3321490751579404,-0.1160813736543059,-9.801289402842524,14929.0
1.0,1.100000023841858,168.0,24.01558494567871,-0.0477106422185897,-79.78276631467742,40.45906024579615,264.13279256534577,-0.0055383159779012,0.0157353393733501,-0.839865505695343,0.5425383448600769,-0.0259442184058138,0.0047271409423228,0.022724019252716,-0.0062757572159171,-0.0025316344108432,-0.0055858073756098,-0.3292553246766329,-0.1282163743861019,-9.802585145831108,14929.0
1.21,1.2000000476837158,167.0,24.02059364318848,-0.055662415921688,-79.78276633336506,40.45906015203074,264.1341383786201,-0.0055017280392348,0.0157613307237625,-0.8398706912994385,0.5425297617912292,-0.0183646967758047,0.0055480783812042,0.0217359512806724,0.0067246351391077,0.0012338097440078,0.0028796682599931,-0.3315317188203335,-0.1218745299708098,-9.803684422373772,14929.0
1.31,1.2000000476837158,169.0,24.01558494567871,-0.0636141896247863,-79.78276630028215,40.45906018573336,264.1385063261986,-0.0055075432173907,0.0157709904015064,-0.8398758172988892,0.5425214171409607,-0.02764743037102,0.0030003946620569,0.0217511880801767,-0.0059850197285413,0.000428306258982,-0.0083140395581722,-0.3304773927479982,-0.1273398493509739,-9.802981587052344,14929.0
1.5,1.2000000476837158,168.0,24.01558494567871,-0.0397588685154914,-79.7827663502085,40.45906009457825,264.1405042142868,-0.0054695177823305,0.0158126186579465,-0.8398765921592712,0.5425195693969727,-0.0203771342201701,-4.01411415206724e-05,0.0209324235340676,0.0063545433804392,0.0060538724064826,0.0029911387246102,-0.327669377066195,-0.1279636833071708,-9.805415198206903,14929.0
1.61,1.2000000476837158,169.0,24.013080596923828,-0.055662415921688,-79.78276633732939,40.459060011857375,264.14472720336914,-0.0054325694218277,0.0158568602055311,-0.8398673534393309,0.5425328612327576,-0.0182503759730981,0.0043477597643759,0.020986460418291,0.0033708012197166,0.000373960356228,0.0046153785660862,-0.3354919648915529,-0.1224235104303807,-9.803462812900545,14929.0
1.8,1.2000000476837158,169.0,24.01934051513672,-0.0636141896247863,-79.7827663227394,40.459060026693656,264.1468322606087,-0.0054463138803839,0.0158558003604412,-0.8398587107658386,0.5425461530685425,-0.0220277051143724,0.0030636689847737,0.0209393566987412,0.0011033543851226,0.0045694252476096,0.0028070772532373,-0.3294266115501523,-0.1284157827123999,-9.803761605620387,14929.0
1.9,1.2000000476837158,168.0,24.018089294433597,-0.0477106422185897,-79.78276631540577,40.45905992718804,264.15353766393656,-0.00540432613343,0.0158886425197124,-0.8398645520210266,0.5425364971160889,-0.0167413116067453,0.0050790519753012,0.0239303583103714,0.0028355640824884,0.0024736837949603,0.0033590071834623,-0.3350799189135432,-0.1133812573738396,-9.802772841453551,14929.0
2.1,1.100000023841858,167.0,24.01683616638184,-0.0397588685154914,-79.78276630033321,40.45905994077419,264.15593228054047,-0.0054321037605404,0.0158900041133165,-0.8398579359054565,0.5425465106964111,-0.0212741208794181,0.0042140692525744,0.023961730046966,-5.571921792579815e-05,-0.0028366791084408,0.0044171423651278,-0.3295992871373892,-0.1273962841182947,-9.803101454973223,14929.0
2.2,1.100000023841858,168.0,24.01683616638184,-0.0715659633278846,-79.78276635564146,40.459059910297,264.16057280015946,-0.0053977570496499,0.0158808305859565,-0.8398618698120117,0.5425411462783813,-0.0249566967176978,-0.00685604927105,0.0221283774113066,0.006019496358931,0.00219555827789,0.0057738041505217,-0.3354073629900813,-0.1091076096799224,-9.80059358417988,14929.0
2.4,1.100000023841858,164.0,24.01683616638184,-0.0477106422185897,-79.78276634947224,40.45905993512415,264.1628296704293,-0.005410530604422,0.0158576928079128,-0.8398569822311401,0.542549192905426,-0.0300040228164847,-0.0077039936520636,0.0221783666097175,-0.0064323698170483,-0.0043955417349934,-0.0030565743800252,-0.335087410658598,-0.1194963303208351,-9.802071175575255,14929.0
2.51,1.2000000476837158,162.0,24.010576248168945,-0.1590354740619659,-79.78276633714026,40.45905980831419,264.16814592790604,-0.0053847255185246,0.015902729704976,-0.8398460149765015,0.5425649881362915,-0.0213692102164907,-0.0017145689023721,0.0215926373134803,0.001712446915917,0.005398410372436,0.0039315298199653,-0.3303775880858302,-0.1172899200394749,-9.802039015889168,14929.0
2.7,1.100000023841858,162.0,24.006820678710927,-0.1431319266557693,-79.78276633602505,40.45905973867115,264.17148015213013,-0.005364800337702,0.0159147214144468,-0.8398460149765015,0.5425648093223572,-0.0223550582347635,-0.0005344400477889,0.0211971778428246,-0.0064088478684425,-0.0029126489534974,-0.0092740021646022,-0.3362629933655262,-0.111737495418638,-9.800033420920371,14929.0
2.81,1.2000000476837158,161.0,24.003063201904297,-0.1351801604032516,-79.78276632515968,40.45905975830776,264.17361036252976,-0.0053771957755088,0.0159020405262708,-0.8398481607437134,0.5425618886947632,-0.0253368142424093,-0.0021603016362424,0.0209252626389909,0.0086407782509922,0.0032614348456263,0.0087196100503206,-0.3299961303547025,-0.125713775223121,-9.8044697034359,14929.0
3.0,1.2000000476837158,156.0,24.014331817626957,-0.055662415921688,-79.78276630463904,40.45905967688211,264.18108198356634,-0.0053626582957804,0.0159283019602298,-0.8398329019546509,0.5425847768783569,-0.0231732791884556,0.0002880128521462,0.0239517683655593,-0.0026529051829129,-0.0011270736576989,-0.0011362629011273,-0.3341296367347241,-0.1117768362164497,-9.801688767671584,14929.0
3.1,1.2000000476837158,153.0,24.0218448638916,-0.0477106422185897,-79.78276633744201,40.45905959806355,264.1867878170013,-0.0053374618291854,0.0159364137798547,-0.8398184776306152,0.5426071286201477,-0.0170704643739003,-0.0057030672317034,0.0223569631050004,-0.0049028620123863,-0.005057786591351,-0.0019613304175436,-0.3286019348725677,-0.1278120576962828,-9.805329828858376,14929.0
3.3,1.2999999523162842,149.0,24.014331817626957,-0.0715659633278846,-79.78276633484123,40.45905961509361,264.1890474886894,-0.0053378860466182,0.0159428622573614,-0.8398234844207764,0.5425991415977478,-0.020340911967354,-0.0072468149601575,0.0221533613922849,0.0014867050340399,0.0037587648257613,-0.0014333869330585,-0.3327127102017402,-0.1121282904222607,-9.801435583233834,14929.0
3.4,1.2999999523162842,145.0,24.018089294433597,-0.055662415921688,-79.7827663344108,40.45905953462877,264.194329890728,-0.0053362194448709,0.0159788336604833,-0.8398165106773376,0.5426089167594911,-0.0187163544790277,-0.0061763336351009,0.0213739039626357,-0.0032514270860701,-0.0014991080388426,-0.0015734904445707,-0.3287531950324774,-0.128908666446805,-9.804372054934502,14929.0
3.6,1.399999976158142,145.0,24.02059364318848,-0.0636141896247863,-79.78276633156591,40.45905955340279,264.19648644638056,-0.0053407214581966,0.0159766171127557,-0.8398185968399048,0.5426056981086731,-0.0221670343530956,-0.0078074597220299,0.0210890282189782,-0.0010755230905488,0.0025125967804342,-0.0053897579200565,-0.3340015461668372,-0.1111367853730917,-9.8004889190197,14929.0
3.71,1.399999976158142,143.0,24.0218448638916,-0.055662415921688,-79.78276635657721,40.45905947016824,264.2013126344681,-0.005338326562196,0.0160183440893888,-0.8398098349571228,0.5426181554794312,-0.0187322796772657,-0.0102857748796171,0.0206508200052616,-0.0058120563626289,-0.0028258042875677,-0.0021651973947882,-0.3264839637279511,-0.1272891795728355,-9.80494449734688,14929.0
3.91,1.5,144.0,24.02059364318848,-0.0477106422185897,-79.78276635793269,40.459059490348594,264.2034170360565,-0.0053336420096457,0.0160209462046623,-0.8398137092590332,0.5426121354103088,-0.0220012096234571,-0.0115203901462009,0.0205156709977813,0.0046277488581836,-0.0003832170623354,-0.0008199130534194,-0.3312806174531579,-0.1113932497333735,-9.801829100847243,14929.0
4.01,1.600000023841858,146.0,24.0218448638916,-0.0477106422185897,-79.78276633528411,40.45905942478928,264.2067904205323,-0.0053210221230983,0.0160443950444459,-0.8398051857948303,0.5426247715950012,-0.0242188530094748,-0.0083961223392483,0.0185941934951112,-0.0052511864341795,-0.0035885297693312,-0.0019742264412343,-0.3280552932992577,-0.1288979039154947,-9.80418786764145,14929.0
4.2,1.600000023841858,146.0,24.01683616638184,-0.0636141896247863,-79.78276632235169,40.45905932758264,264.2087463767529,-0.0052877878770232,0.0160920228809118,-0.8398070335388184,0.542620837688446,-0.0176174955861494,-0.0064446572367244,0.0188813933936544,-0.0009802686981856,0.0011437162756919,-0.0024039323907345,-0.3332327103987336,-0.1127222304884344,-9.80101926147938,14929.0
4.31,1.5,145.0,24.01683616638184,-0.0715659633278846,-79.78276631965208,40.45905934569214,264.2106770904064,-0.0053115468472242,0.016081515699625,-0.8397969603538513,0.5426364541053772,-0.0207853155354015,-0.0074599077201881,0.0188492771563425,0.006593735422939,0.0028903903439641,0.0034888931550085,-0.3273596573621035,-0.1284844692237675,-9.80471060872078,14929.0
4.5,1.399999976158142,146.0,24.013080596923828,-0.0318070948123931,-79.78276630255424,40.45905926979628,264.2122092576027,-0.0052951928228139,0.0160960778594017,-0.8398040533065796,0.5426253080368042,-0.0200839531678524,-0.0065979939093488,0.0159624865551739,0.0017907710280269,0.0021877102553844,0.0028968036640435,-0.3316897763684392,-0.1138434980437159,-9.802519072294237,14929.0
4.6,1.399999976158142,145.0,24.01934051513672,-0.0397588685154914,-79.78276631268658,40.459059168153246,264.2128520638944,-0.0052468772046268,0.0161127876490354,-0.8397965431213379,0.5426368117332458,-0.011308570459176,-0.0070468905456283,0.0133486913174577,-0.0055177984759211,-0.0058802077546715,-0.0027432965580374,-0.3274672095850109,-0.1266515681147575,-9.803738216757775,14929.0
4.8,1.2999999523162842,148.0,24.011829376220703,0.0238553211092948,-79.78276631455539,40.45905918100241,264.21420768213267,-0.0052315955981612,0.0161149706691503,-0.8398006558418274,0.5426304936408997,-0.0142751814376589,-0.0083581914839598,0.0131812424337883,0.0002407792198937,0.0004346254863776,-0.0014209472574293,-0.3328587809577584,-0.1105135270021856,-9.80150750398636,14929.0
4.9,1.2999999523162842,151.0,24.01683616638184,-0.0636141896247863,-79.7827663142077,40.45905911272115,264.2145085067749,-0.0052319592796266,0.0161197055131196,-0.8398002982139587,0.5426309108734131,-0.0150621261658868,-0.0101270898729237,0.0121006316098291,-0.0083291269838809,-0.0004543508694041,-0.0013121182564646,-0.3285408680140972,-0.1290258117578923,-9.804530514478683,14929.0
5.1,1.2999999523162842,155.0,24.014331817626957,0.0159035474061965,-79.78276631759941,40.4590591299466,264.215751680851,-0.0052235322073102,0.0161088779568672,-0.8398054242134094,0.5426233410835266,-0.0181796177882514,-0.0115489747480316,0.0118894294503659,0.0029169188346713,-0.0002952612703666,-0.0036721057258546,-0.3336574375256896,-0.1127558062970638,-9.80106837809086,14929.0
5.21,1.2999999523162842,155.0,24.008071899414062,0.0238553211092948,-79.78276629548782,40.45905905137226,264.2153562338352,-0.0051982942968606,0.0161412451416254,-0.8397939205169678,0.5426405072212219,-0.0171471560698584,-0.0086238256187128,0.0112525929921752,-0.0071890107356011,-0.0050109354779124,-0.0043618879280984,-0.3262343241646886,-0.1264000007975846,-9.805119329094886,14929.0
5.4,1.2000000476837158,157.0,24.014331817626957,0.0238553211092948,-79.78276629624527,40.4590590696707,264.2165138156414,-0.0051867705769836,0.0161280315369367,-0.8397877216339111,0.5426506400108337,-0.0200881991351694,-0.0098631699414901,0.0110402474334587,-0.0022791409865021,-0.0024143562186509,-0.0012694479664787,-0.3321248457580805,-0.1111775697022676,-9.800989440679553,14929.0
5.5,1.2000000476837158,159.0,24.00431632995605,-0.0079517737030982,-79.78276624454426,40.45905898425042,264.21511733841896,-0.0051745320670306,0.0161412190645933,-0.8397766947746277,0.5426673293113708,-0.0194048127407111,-0.004377745235563,0.0105710983824343,-0.0048488657921552,-0.0016539706848561,0.000460477604065,-0.3344391737133265,-0.1219917575083673,-9.803096777200698,14929.0
5.7,1.100000023841858,159.0,24.014331817626957,0.0238553211092948,-79.782766218017,40.459058870953065,264.2137992413044,-0.0051400237716734,0.0161743313074111,-0.8397806882858276,0.5426605939865112,-0.0111993079302946,-0.0020713351603349,0.0133949518391785,-0.0027544433251023,-0.0009040309814736,-0.0033807503059506,-0.3356893449649215,-0.1113721723482012,-9.801466573476793,14929.0
5.8,1.2000000476837158,158.0,24.00431632995605,0.0318070948123931,-79.78276621430099,40.4590588820003,264.21515724372864,-0.0051477695815265,0.0161723718047142,-0.8397741913795471,0.5426706075668335,-0.0137664107100655,-0.0033203185517729,0.0132842849450855,0.0033869117032736,0.004561273381114,0.0087350038811564,-0.3280708980560303,-0.1281146693788468,-9.805328659415244,14929.0
6.0,1.2000000476837158,158.0,24.006820678710927,-0.0318070948123931,-79.78276618290647,40.45905879192517,264.21459693026543,-0.0051204147748649,0.0162247661501169,-0.839776337146759,0.5426658987998962,-0.0111176976885912,-0.0017916333634409,0.0146801797939977,-0.0021348176524043,0.0001841665798565,-0.0038433752488344,-0.3368089040368796,-0.1118293515220284,-9.800197727680208,14929.0
6.1,1.2000000476837158,155.0,24.01558494567871,0.0318070948123931,-79.78276615715441,40.45905870383929,264.21385920357704,-0.0051122712902724,0.0162639394402503,-0.8397668600082397,0.5426794290542603,-0.0083846241338951,-0.0008061587670315,0.016265155858995,-0.0038618552498519,-0.0021228690166026,0.0006645365501753,-0.330371265783906,-0.1250849345885217,-9.804546301960944,14929.0
6.3,1.2999999523162842,153.0,24.011829376220703,-0.0477106422185897,-79.7827661535039,40.45905871195523,264.215491178751,-0.0050974884070456,0.0162710770964622,-0.8397698402404785,0.5426748394966125,-0.0114533508962485,-0.0018943367417141,0.0162245394103238,-0.0032648246269673,-0.0023853436578065,-0.0078927418217062,-0.336796917244792,-0.1075725967995822,-9.799928171038626,14929.0
6.4,1.2999999523162842,151.0,24.00932502746582,0.0238553211092948,-79.78276610182427,40.45905863520913,264.2139844925404,-0.0050945887342095,0.0162826254963874,-0.839767575263977,0.5426779985427856,-0.0116597224731038,0.0014194353944424,0.0167321209906418,-0.0015952537069097,-0.0027486279141157,0.0006323735578916,-0.329413309134543,-0.1275180432479828,-9.804292532801629,14929.0
6.6,1.2999999523162842,148.0,24.003063201904297,-0.0318070948123931,-79.78276609430573,40.45905864513989,264.21565348219866,-0.0050933416932821,0.0162931997328996,-0.8397743701934814,0.5426672101020813,-0.0146913158504901,0.0002812297504436,0.0165507627152133,0.0010920179774984,-0.0018861844437196,-0.0038829168770462,-0.3338426846265793,-0.1116801470238715,-9.800721053481103,14929.0
6.71,1.2999999523162842,146.0,24.00556755065918,-0.0159035474061965,-79.78276603814392,40.45905856699175,264.2140020163059,-0.0051030479371547,0.0163281355053186,-0.8397698402404785,0.5426731109619141,-0.0133800976162433,0.003804928490675,0.0171911533638808,-0.0043812626972794,-0.0009075264097191,0.0007291171350516,-0.3278861625865102,-0.1264157517347484,-9.80458255469799,14929.0
6.9,1.2000000476837158,144.0,24.011829376220703,0.0159035474061965,-79.78276602703023,40.45905857740721,264.2157174975872,-0.0050919456407427,0.016322623938322,-0.8397740721702576,0.5426667928695679,-0.0162998299297559,0.0029197584281888,0.017204169493354,1.813010203477461e-05,-0.0015684707323089,-0.0067084841430187,-0.3330900017917157,-0.1093326909374445,-9.801911546587943,14929.0
7.0,1.2000000476837158,141.0,24.00556755065918,0.0079517737030982,-79.78276599390641,40.45905851357685,264.2130203576088,-0.0050846212543547,0.0163535736501216,-0.8397647738456726,0.5426802039146423,-0.0148778752549082,0.0019732289679813,0.0148676518294426,-0.0053066411055624,-0.001731663593091,-0.0010306859621778,-0.3298315677791834,-0.1276059250719845,-9.805307024717331,14929.0
7.2,1.2999999523162842,137.0,24.013080596923828,0.0318070948123931,-79.78276592643914,40.459058435533365,264.2108824284077,-0.0050743049941957,0.0164021290838718,-0.8397685885429382,0.5426730513572693,-0.0106140385465195,0.0078946822916642,0.0157975209113321,-0.0045840893872082,-0.0020453014876693,-0.004346146248281,-0.3355181677266956,-0.10984449589625,-9.80012463748455,14929.0
7.3,1.2999999523162842,135.0,24.011829376220703,0.0159035474061965,-79.7827659121581,40.45905844211469,264.2124472887516,-0.0050812573172152,0.0163870882242918,-0.8397639989852905,0.5426806211471558,-0.0126670353899115,0.0068581452214697,0.0156253939470266,0.0043943836353719,0.0033455521333962,0.0063194301910698,-0.3293883488327265,-0.1274505627248436,-9.80441649377346,14929.0
7.51,1.399999976158142,132.0,23.998056411743164,-0.0238553211092948,-79.78276591289938,40.45905841318071,264.21216994833947,-0.0050597609952092,0.0163873378187418,-0.839767336845398,0.5426754355430603,-0.0146781467109748,-0.0029524052853145,0.0169990751319877,-0.0028544391971081,-0.0018439828418195,-0.0049032592214643,-0.3347421325743198,-0.1104406378045678,-9.8020401853323,14929.0
7.6,1.399999976158142,132.0,24.011829376220703,0.0238553211092948,-79.78276590208671,40.45905839106639,264.21181154561043,-0.0050763674080371,0.0164021365344524,-0.8397650718688965,0.5426784753799438,-0.0155565726992238,-0.0078430786679408,0.0173773806475163,-0.0042388010770082,-0.0010271773207932,0.0015405940357595,-0.3306115863472223,-0.1260058070998639,-9.80391480267048,14929.0
7.8,1.399999976158142,129.0,24.013080596923828,-0.0159035474061965,-79.78276590246294,40.459058407479695,264.21357736301417,-0.00507084839046,0.0164027567952871,-0.8397582173347473,0.5426891446113586,-0.0183377954122851,-0.0086675438703968,0.01724205405726,-0.003430813550949,-0.0041073011234402,-0.0094156619161367,-0.3359478284418583,-0.1083223651628941,-9.799576753377917,14929.0
7.91,1.600000023841858,132.0,24.01558494567871,-0.0397588685154914,-79.78276584054206,40.45905835919897,264.2111780972481,-0.005081889219582,0.016420280560851,-0.8397377729415894,0.5427201390266418,-0.0162925378050734,-0.001990949006865,0.0157003333051719,-0.0021436274982988,0.0019954235758632,-0.0007444334914907,-0.3296924771368503,-0.1275506049301475,-9.805525125861168,14929.0
8.1,1.7000000476837158,132.0,24.018089294433597,-0.0318070948123931,-79.78276583425186,40.45905837406264,264.21277007770544,-0.0050731431692838,0.0164069235324859,-0.83974689245224,0.5427064299583435,-0.0192154731453091,-0.0027014246337226,0.0157506171962969,-0.0048858462832868,-0.0049953474663197,-0.006137132178992,-0.3350152706354856,-0.1102332991920411,-9.801142637729646,14929.0
8.2,1.7000000476837158,133.0,24.01934051513672,-0.055662415921688,-79.78276577186102,40.45905833553768,264.20936644387245,-0.0050510419532656,0.0164250675588846,-0.8397593498229979,0.5426868796348572,-0.017284729587554,0.0010179019162766,0.0136069960175327,-0.0019156085327267,-0.0015403992729261,0.0032180512789636,-0.3314644027501345,-0.1216769032180309,-9.804432865977288,14929.0
8.41,1.7999999523162842,134.0,24.011829376220703,-0.0636141896247863,-79.7827657619264,40.459058350461454,264.21073353600497,-0.0050428542308509,0.0164105147123336,-0.8397599458694458,0.5426864624023438,-0.0204337414850964,0.000163154962521,0.0135731837986402,-0.0045951278880238,-0.0002227647346444,-0.0079425647854805,-0.3373899345472455,-0.1098754039127379,-9.799746322631837,14929.0
8.5,1.7999999523162842,137.0,24.013080596923828,-0.0636141896247863,-79.78276566975596,40.459058284265005,264.2081917853356,-0.0050401869229972,0.0164333768188953,-0.8397585153579712,0.5426879525184631,-0.016592511761144,0.0071093261092345,0.0149234746958599,0.0006070606177672,-0.0001884882367448,0.0003567599342204,-0.3315778021886945,-0.1248960421141237,-9.80410776078701,14929.0
8.7,1.7999999523162842,127.0,24.013080596923828,-0.0636141896247863,-79.78276564787778,40.45905823746254,264.20316562366486,-0.0050228764303028,0.0164430178701877,-0.8397547602653503,0.5426937341690063,-0.0128668968777512,0.0040181938999075,0.0159571815779083,-0.0049376222304999,-0.0019518946064636,-0.010043878108263,-0.3353953396528959,-0.1110622425097972,-9.800870742201806,14929.0
8.8,1.7999999523162842,130.0,24.01683616638184,-0.0715659633278846,-79.78276562539912,40.45905825924675,264.20634779644007,-0.0050222538411617,0.0164316277951002,-0.839748740196228,0.5427033305168152,-0.017652537465886,0.0025318199242418,0.0159292555051435,0.0006280798697844,0.0009788038441911,0.0032887316774576,-0.3307006832957268,-0.1242620394844562,-9.80351251423359,14929.0
9.0,2.0,144.0,24.01558494567871,-0.0477106422185897,-79.78276557231759,40.45905820758868,264.200549605608,-0.0049982974305748,0.0164535120129585,-0.839748740196228,0.5427029132843018,-0.0155047729992841,0.0047305767224107,0.0163535508140469,-0.0054795467294752,-0.0013322557788342,-0.0067160567268729,-0.3360849456489086,-0.1123131081182509,-9.800497689843178,14929.0
9.1,1.8999999761581416,145.0,24.018089294433597,-0.0477106422185897,-79.78276550673236,40.45905815026502,264.1956604452133,-0.0049746059812605,0.0164846163243055,-0.839738667011261,0.5427178144454956,-0.0112087495946151,0.007339855303689,0.0165481783690732,0.0017246045172214,0.0045436127111315,0.0022525838576257,-0.3307139857113361,-0.1206285705417394,-9.804822875261308,14929.0
9.31,2.0,159.0,24.02059364318848,-0.0477106422185897,-79.78276549265678,40.45905815749529,264.19730115246773,-0.0049692648462951,0.0164746139198541,-0.8397343754768372,0.5427247881889343,-0.0140412596774997,0.0068226736403015,0.0165417309799897,-0.0052327774465084,-0.0041741551831364,-0.0053947968408465,-0.3362436610087752,-0.110965973585844,-9.801054344773291,14929.0
9.4,2.0999999046325684,157.0,24.01558494567871,-0.0477106422185897,-79.78276542261567,40.4590581040632,264.1892478795052,-0.0049676420167088,0.0164936035871505,-0.8397229313850403,0.5427419543266296,-0.0122895161347217,0.0079556339854013,0.0133473053738145,0.0037499859463423,0.0033290786668658,0.0061042471788823,-0.3303396542742849,-0.1198686426412314,-9.803702548742296,14929.0
9.6,1.7999999523162842,152.0,24.0218448638916,-0.0477106422185897,-79.78276540733452,40.45905811237077,264.19056120824814,-0.0049711596220731,0.0165126845240592,-0.8397257924079895,0.5427368879318237,-0.0157607475855934,0.0073845780987706,0.0132889943531618,-0.0054680346511304,-0.0029870711732655,-0.0050732227973639,-0.3363050202280283,-0.1189830818306654,-9.80106954753399,14929.0
9.7,1.7999999523162842,154.0,24.02059364318848,-0.0636141896247863,-79.78276533494397,40.45905804920061,264.18330225658417,-0.0049401591531932,0.0165415648370981,-0.8397137522697449,0.5427548885345459,-0.0120578689061917,0.0084986612480801,0.0139348473507288,0.0089020561426878,0.0014917065855115,0.0045435382053256,-0.3302034506946802,-0.1125904671382159,-9.801733206510542,14929.0
9.9,1.7000000476837158,158.0,24.018089294433597,-0.0397588685154914,-79.78276531889172,40.45905805719525,264.18468919706345,-0.0049495841376483,0.016534274443984,-0.8397040367126465,0.5427701473236084,-0.0153482837615676,0.0081345014625442,0.014068596897343,-0.0039932653307914,-0.0022522972431033,-0.0002910786133725,-0.3342113515734673,-0.1235434623621404,-9.802455337643623,14929.0
10.0,1.7000000476837158,152.0,24.01683616638184,-0.0715659633278846,-79.78276527766405,40.45905799797948,264.1774369807244,-0.0049271136522293,0.0165360011160373,-0.8397111892700195,0.5427590608596802,-0.0115995467825266,0.0052424892190108,0.0147420015720478,0.0058155320584774,0.0033534122630953,0.004417082760483,-0.3333176777511835,-0.1117614141851663,-9.80084326028824,14929.0
10.2,1.7000000476837158,157.0,24.0218448638916,-0.0477106422185897,-79.78276521900342,40.45905794709221,264.1664411754608,-0.0049257664941251,0.0165445189923048,-0.8397025465965271,0.5427722930908203,-0.0096186025513943,0.0079372486772839,0.0124292127863856,-0.0051006586290895,-0.0019677220843732,-0.0039055026136338,-0.3340733207389712,-0.1208877575118094,-9.8027114456892,14929.0
10.3,1.600000023841858,158.0,24.010576248168945,-0.0795177370309829,-79.78276520567208,40.45905795269177,264.16765752744675,-0.0049395556561648,0.0165218766778707,-0.8397002220153809,0.5427764654159546,-0.0118946055318219,0.0068789692510127,0.0123226128030933,-0.0013734092935919,-0.0001835689035942,-0.0011196486884728,-0.3347325943037868,-0.1128764142561704,-9.800957865715027,14929.0
10.5,1.399999976158142,157.0,24.013080596923828,-0.055662415921688,-79.78276513151377,40.45905789400472,264.15717664670944,-0.0049296803772449,0.0165379140526056,-0.8396879434585571,0.5427950024604797,-0.0091071758792526,0.0096130253523656,0.0103359649595038,-0.0054851537570357,-0.0047533866018056,-0.0042975889518857,-0.3348077310249209,-0.1203617913275957,-9.802114444971084,14929.0
10.61,1.399999976158142,159.0,24.01934051513672,-0.055662415921688,-79.78276504860492,40.45905784668266,264.1460195512772,-0.0049245464615523,0.0165620893239974,-0.8396684527397156,0.5428244471549988,-0.007719155172365,0.0103794777702053,0.0084487768947656,0.0024346816353499,0.0020261947065591,0.0017667997162789,-0.3308134980127215,-0.1111382471770048,-9.801842549443244,14929.0
10.8,1.2999999523162842,165.0,24.01683616638184,-0.0795177370309829,-79.78276503290543,40.45905785036436,264.1468360157013,-0.0049270950257778,0.0165457557886838,-0.839665949344635,0.5428287982940674,-0.0109885931352483,0.010028041634251,0.0084447592222204,-0.0032620604615658,-0.005945355631411,-0.0041862311773002,-0.3345473472028971,-0.1159233617875725,-9.801680581569672,14929.0
10.91,1.2000000476837158,161.0,24.018089294433597,-0.055662415921688,-79.78276495477185,40.45905782385068,264.1362921924591,-0.0049295439384877,0.0165390353649854,-0.8396493196487427,0.5428547263145447,-0.0122721349346522,0.0087745686965823,0.0078154330208619,0.0017194378888234,0.001393417129293,0.0043938960880041,-0.3324017479643226,-0.1181162229739129,-9.802205076813696,14929.0
11.1,1.2000000476837158,162.0,24.018089294433597,-0.0318070948123931,-79.78276493887665,40.45905783179861,264.1370587081909,-0.0049384301528334,0.0165307875722646,-0.8396425843238831,0.5428653955459595,-0.0154402043379484,0.0081880277181061,0.0078288940874065,-0.0079619660973548,-0.0029582565184682,-0.0083292098715901,-0.3365591913834214,-0.1138623827230185,-9.800570780038834,14929.0
11.2,1.100000023841858,162.0,24.018089294433597,-0.055662415921688,-79.78276494321214,40.45905777904177,264.1288377375604,-0.0049187126569449,0.0165249742567539,-0.8396260738372803,0.5428910851478577,-0.006388384342372,-0.0022366323492842,0.0114619721638364,0.0024255127646029,0.0024534743279218,0.0024880454875528,-0.3305032666772604,-0.1203676476795226,-9.803364579677584,14929.0
11.4,1.100000023841858,156.0,24.014331817626957,-0.055662415921688,-79.78276494204748,40.45905778617167,264.1299936504364,-0.0049110320396721,0.0165283884853124,-0.8396207094192505,0.5428995490074158,-0.0094228657003265,-0.0028915842656633,0.0114470610396476,-0.0058864806778728,-0.0032685606274753,-0.0088291857391595,-0.3360003072023392,-0.1134940994996577,-9.801728528738025,14929.0
11.51,1.100000023841858,156.0,24.018089294433597,-0.0636141896247863,-79.78276481885406,40.459057721877535,264.11917987775803,-0.0049258125945925,0.016570845618844,-0.8396118283271791,0.5429117679595947,-0.0075580978283198,0.0073983679628323,0.0101341319413748,-0.0010277603287249,0.0019167911959812,0.0019034632714465,-0.3311545368656516,-0.1209799699299037,-9.80358385026455,14929.0
11.7,1.0,155.0,24.014331817626957,-0.0636141896247863,-79.78276481417024,40.45905770734021,264.10643664312363,-0.0048961821012198,0.0165470577776432,-0.8396092653274536,0.5429167151451111,-0.0078467468259435,-0.0031193845262571,0.0083116507023002,-0.0081483768299222,-0.0022278556134551,-0.0096179228276014,-0.3360402509942651,-0.1110653031617403,-9.801304020881654,14929.0
11.8,1.0,153.0,24.01558494567871,-0.055662415921688,-79.78276481278913,40.45905772605197,264.1080974669456,-0.0049079139716923,0.0165150519460439,-0.8396012187004089,0.5429301261901855,-0.0120431065443003,-0.0045337316742568,0.0080915955184119,0.0008152656373567,0.0040580341592431,0.0019697048701345,-0.3318546678498387,-0.1214129653852433,-9.8039615803957,14929.0
12.01,1.0,153.0,24.02059364318848,-0.0477106422185897,-79.78276472803155,40.45905764890974,264.09721467208857,-0.0048994957469403,0.0165565088391304,-0.8396022319793701,0.5429273247718811,-0.004592039695432,0.0042377414518545,0.0096648983893926,-0.0047063608653843,-0.0030330552253872,-0.0081010982394218,-0.3371682154387236,-0.1131557558476925,-9.800696495175362,14929.0
12.1,1.100000023841858,154.0,24.018089294433597,-0.055662415921688,-79.78276467070823,40.459057664625256,264.08782568883896,-0.0048898342065513,0.0165576431900262,-0.839599609375,0.5429313778877258,-0.0136971614191146,-0.0011563537379225,0.0117457166711899,-0.0007218078826554,0.0010323819005861,0.0032259011641144,-0.3303241956979037,-0.1276203238405287,-9.801521537303923,14929.0
12.3,1.100000023841858,151.0,24.018089294433597,-0.0636141896247863,-79.78276466482173,40.45905767708688,264.08900961589814,-0.0048773237504065,0.0165561977773904,-0.8395950198173523,0.542938768863678,-0.0163973778281135,-0.0016080578572432,0.0116370490954116,-0.0046294163912534,-0.0033080694265663,-0.0076344120316207,-0.3337020956352353,-0.110328681897372,-9.798947592973713,14929.0
12.4,1.100000023841858,149.0,24.0218448638916,-0.0477106422185897,-79.78276460617714,40.45905762375569,264.0800747008324,-0.0048527135513722,0.0166151393204927,-0.8395887613296509,0.5429467558860779,-0.0090670491470303,0.0011363473016416,0.0130802360460702,-0.0018867276376113,-0.0005658876616507,0.0019749228376895,-0.3315025558322668,-0.1262607274297625,-9.803572740554811,14929.0
12.6,1.0,147.0,24.02059364318848,-0.055662415921688,-79.78276460024732,40.459057631422894,264.0813760490417,-0.0048564909957349,0.0166162010282278,-0.8395891785621643,0.5429461002349854,-0.0113755577470511,0.0003157783198162,0.0128936150651682,-0.004522044211626,-0.0039743818342685,-0.0016497011529281,-0.3367794121429324,-0.1091490335483104,-9.799798947572713,14929.0
12.7,1.0,149.0,24.01558494567871,-0.0715659633278846,-79.78276451961658,40.45905757869989,264.0724299879074,-0.0048581711016595,0.0166384615004062,-0.8395899534225464,0.5429442524909973,-0.0079512079270276,0.0050453729409277,0.0136346579285111,-0.006042294204235,-0.0027756912168115,0.0004082404775545,-0.3289831367880106,-0.1268225534912198,-9.804641026854515,14929.0
12.9,1.0,153.0,24.018089294433597,-0.0795177370309829,-79.78276451000819,40.4590575840638,264.0737747282982,-0.0048467041924595,0.0166358891874551,-0.8395863175392151,0.5429499745368958,-0.0103745055966922,0.0043622765393407,0.0134954214732515,-0.0018696340266615,-0.002079834928736,-0.0068196733482182,-0.3345247623324394,-0.1114970195386558,-9.800581889748576,14929.0
13.0,1.0,154.0,24.011829376220703,-0.1033730581402778,-79.7827644152718,40.45905753060112,264.0680017800331,-0.0048375730402767,0.0166708063334226,-0.8395707607269287,0.5429730415344238,-0.0079877892245482,0.0098918268496798,0.016488081380183,-0.001739454222843,-0.0030103202443569,0.0009530720999464,-0.3297793082892895,-0.1258030914422124,-9.80421593427658,14929.0
13.2,1.100000023841858,153.0,24.018089294433597,-0.0715659633278846,-79.78276437233875,40.45905748260434,264.0604732365608,-0.0048023550771176,0.0166957732290029,-0.8395611643791199,0.5429874658584595,-0.0014641060929101,0.0089118788270275,0.019683052810572,-0.0041776886209845,-0.0006459934520535,-0.0073531847447156,-0.335206949673593,-0.1081690036598593,-9.799186744093896,14929.0
13.31,1.100000023841858,155.0,24.01683616638184,-0.055662415921688,-79.78276436142598,40.45905748083354,264.0624085993767,-0.0048072803765535,0.0166868064552545,-0.839555025100708,0.5429971814155579,-0.0028554889476665,0.0081030733398293,0.0194843419519643,0.0072714029811322,0.0023529455065727,0.0045128413476049,-0.3301650052517653,-0.1268037784472108,-9.804643365740777,14929.0
13.51,1.100000023841858,158.0,24.02059364318848,-0.0795177370309829,-79.78276432337975,40.45905747092479,264.05477908563614,-0.0047931186854839,0.016710091382265,-0.8395441770553589,0.5430133342742921,-0.0059505332766335,0.003801236580302,0.0184134167370444,-0.0011001764796674,0.0004686278989538,-0.0054923738352954,-0.3362448669970036,-0.1105027736071497,-9.79961651444435,14929.0
13.61,1.100000023841858,159.0,24.01683616638184,-0.0874695107340812,-79.782764260071,40.45905744629141,264.0472373695374,-0.0048170634545385,0.0167410988360643,-0.8395200371742249,0.5430494546890259,-0.005814275288887,0.0065058708549971,0.0177844777749631,-0.001172587275505,-0.0028526850510388,-0.0011757779866456,-0.3300666623935103,-0.1247187892533838,-9.80466850876808,14929.0
13.8,1.100000023841858,161.0,24.003063201904297,-0.1113248318433761,-79.78276424974901,40.45905744904772,264.0489899249077,-0.004800827242434,0.0167293529957532,-0.8395150303840637,0.5430577397346497,-0.0079291279235072,0.0060176449848322,0.017661697162509,-0.0058241095393896,0.0013915984891355,-0.008382030762732,-0.3357793189957738,-0.1094128891546279,-9.799963254332544,14929.0
13.9,1.100000023841858,161.0,24.014331817626957,-0.055662415921688,-79.78276421012832,40.459057434631184,264.042667719841,-0.0047792289406061,0.0167466383427381,-0.8395062685012817,0.5430709719657898,-0.0064720443293656,0.0045901245695544,0.017529345245408,0.0020981936249881,6.304541602730751e-05,0.0025071343407034,-0.3319735855981707,-0.1235082237515598,-9.804277914762498,14929.0
14.1,1.100000023841858,164.0,24.011829376220703,-0.0636141896247863,-79.7827642013908,40.4590574387745,264.04440167856217,-0.0047733471728861,0.0167467724531888,-0.8395007848739624,0.5430794358253479,-0.008854664390966,0.0042119092433879,0.0174473652531911,-0.0067339385859668,-0.0006286561838351,-0.0082105407491326,-0.3362913889065385,-0.1121167513076216,-9.800146272182465,14929.0
14.2,1.100000023841858,165.0,23.99555206298828,0.278312087059021,-79.78276416359179,40.45905739845567,264.0381237597465,-0.0047526666894555,0.0167693812400102,-0.839513897895813,0.5430585741996765,-0.0017411244629052,0.0057131673761255,0.0172948995259001,0.0009400366107001,-0.0003290222666691,0.0095178084447979,-0.3312013511359692,-0.1216821291670203,-9.802594501376152,14929.0
14.4,1.100000023841858,165.0,24.00181198120117,0.2624085247516632,-79.7827641558232,40.45905739861777,264.03981849861145,-0.0047284136526286,0.0167721714824438,-0.8395244479179382,0.5430424809455872,-0.0037928726887636,0.0040846140011849,0.0180921572185154,-0.0059380694292485,-0.0052339881658554,0.0238897502422332,-0.3287433644011617,-0.083361231945455,-9.80607359468937,14929.0
14.5,1.100000023841858,165.0,24.00056076049805,0.2544567584991455,-79.78276410085488,40.459057405962376,264.0342438549996,-0.0047494159080088,0.0168142300099134,-0.8396026492118835,0.5429201126098633,-0.0061768315446852,0.0045351173566243,0.0173086821975166,0.0088399043306708,0.0008525470038875,0.0198976006358861,-0.3319767650216818,-0.0936871498357504,-9.81009472489357,14929.0
14.7,1.100000023841858,163.0,24.00056076049805,0.2465049922466278,-79.78276408198906,40.45905738906276,264.02667573404307,-0.0047253035008907,0.0168004091829061,-0.8395944833755493,0.5429334044456482,-0.0033608348790486,0.0044066984645295,0.0175455708025795,-0.0066239186562597,0.0032945924904197,-0.0058979298919439,-0.3355544570088387,-0.1222598523460328,-9.797339023947718,14929.0
14.8,1.100000023841858,163.0,23.99930763244629,0.2226496636867523,-79.78276407500205,40.459057390271546,264.02838811588293,-0.0047236392274498,0.0167960245162248,-0.8395846486091614,0.5429485440254211,-0.0054213304292182,0.0030810622193342,0.0174562423528114,0.001997516490519,0.0060034762136638,-0.0030966855119913,-0.3353431167080998,-0.1263804400339722,-9.795849153399466,14929.0
15.0,1.0,161.0,23.994298934936523,0.2703603208065033,-79.78276407267805,40.45905742262474,264.0229370923043,-0.0047425483353435,0.0167755167931318,-0.8395267128944397,0.5430386662483215,-0.0101493765436511,-0.0018615688859433,0.0164022382780526,-0.009724129922688,-0.0059788678772747,-0.0187108609825372,-0.3354920014366508,-0.1235032079368829,-9.786216450333596,14929.0
15.1,1.100000023841858,158.0,23.99555206298828,0.326022744178772,-79.78276407139927,40.459057417050936,264.0166758627892,-0.0047496054321527,0.0167797859758138,-0.8394785523414612,0.5431129932403564,-0.0047709389112436,0.0004963995668938,0.0136106437108375,-0.0023622659500688,0.0012065750779584,-0.0154578825458884,-0.3294922465458512,-0.1451674342900514,-9.804710023999217,14929.0
15.3,1.0,156.0,23.98929214477539,0.3737333714962005,-79.78276406911074,40.4590574211014,264.0180869431496,-0.0047386037185788,0.0168007835745811,-0.8394550085067749,0.5431488156318665,-0.0072920220929439,-0.0009725630291689,0.0132681394660498,-0.0056054191663861,0.0023946606088429,-0.0233691371977329,-0.3347452389076352,-0.1202775183320045,-9.793125520348552,14929.0
15.4,1.0,156.0,23.015195846557607,12.698983192443848,-79.78276407989338,40.45905746131771,264.01170143795014,-0.0046364953741431,0.0170537699013948,-0.8396278619766235,0.5428745150566101,-0.0074707091032049,-0.0037165116884792,0.0120471748906491,0.0114803053438663,0.007683418225497,-0.0265604276210069,-0.3191358774527908,-0.1198140716738998,-9.81061395764351,14929.0
15.6,1.0,154.0,23.984283447265625,0.2465049922466278,-79.78276408105779,40.45905747299726,264.0128576488495,-0.0047067245468497,0.017171487212181,-0.8395070433616638,0.5430570244789124,-0.0165299852525126,-0.0064070797966503,0.012666961550947,-0.0085823265835642,-0.0169161539524793,-0.0248060654848814,-0.4598801489174366,-0.1489453842770308,-9.770036035180093,14929.0
15.71,1.0,154.0,23.994298934936523,0.1669872552156448,-79.78276415103483,40.4590574855775,264.0063184232712,-0.004643939435482,0.0171234272420406,-0.8395119905471802,0.5430514812469482,-0.0050604719873636,-0.0160511260899436,0.0118743880219272,0.0230477564036846,0.0083818472921848,0.0018141814507544,-0.4241133885830641,-0.1724297483637929,-9.751529597640037,14929.0
15.91,1.0,154.0,23.96049499511719,0.8508397936820984,-79.78276416083222,40.45905749592318,264.0075010986328,-0.0046414514072239,0.0169554967433214,-0.8396079540252686,0.5429084300994873,-0.0024299981643622,-0.0111754278752197,0.0111769964129047,0.0053072655573487,0.0002882779226638,-0.0351913906633853,-0.3115401250496507,-0.1030981977470219,-9.797437841892243,14929.0
16.01,1.0,155.0,23.984283447265625,0.2385532110929489,-79.78276420862781,40.45905757776481,264.00052717638016,-0.0045479126274585,0.0169797390699386,-0.839554488658905,0.5429911613464355,-0.0174089254441791,-0.0146115955540402,0.008078953342965,-0.0193343162536621,-0.0638782829046249,-0.0090358182787895,-0.2980075484141708,-0.0644471612479537,-9.746626707315444,14929.0
16.2,1.0,156.0,23.98678779602051,0.3816851377487183,-79.78276423070376,40.45905760600797,263.9933417172432,-0.0045825787819921,0.0169897843152284,-0.8394990563392639,0.54307621717453,-0.0188393889199106,-0.0162552587782138,0.0060603650714104,-0.0393629521131515,-0.0219766870141029,0.0132638560608029,-0.2795530414581299,-0.1238003013096749,-9.8024793112278,14928.0
16.3,1.0,155.0,23.87911033630371,2.926252841949463,-79.7827642424665,40.459057624429335,263.99393633317953,-0.0046760155819356,0.0170174650847911,-0.8395158648490906,0.5430485606193542,-0.0165792666485329,-0.0181760506651928,0.0048229620719258,-0.0091687710955739,-0.0147826606407761,-0.001113905920647,-0.3632333851978183,-0.0720678374078124,-9.798539457321167,14928.0
16.5,1.0,157.0,23.75891494750977,5.200459957122803,-79.78276426973905,40.45905766133272,263.99032107305527,-0.0047383839264512,0.0162546765059232,-0.8395969271659851,0.5429460406303406,-0.0147062338508602,-0.0136528182536901,0.0069270719555937,-0.0132195884361863,-0.0134630696848034,-0.008751256391406,-0.3224043613672257,-0.08653827088885,-9.788959379196168,14928.0
16.6,1.0,156.0,23.67377471923828,6.504550933837892,-79.782764299747,40.45905768153615,263.98786416959763,-0.0046530235558748,0.0166277159005403,-0.8396967053413391,0.5427811741828918,-0.0021056196867705,-0.0077547915533501,0.0094816295879409,0.0301185268908739,0.0218156110495328,0.0064684175886213,-0.3154125897958875,-0.1364621635805815,-9.77375018656254,14928.0
16.8,1.100000023841858,155.0,23.56109046936035,8.651530265808105,-79.78276430519388,40.45905769296824,263.9889148206711,-0.0046659158542752,0.016574777662754,-0.8397313952445984,0.5427289605140686,-0.0142710492092007,-0.0114570660288296,0.0105266633633425,-0.0629485175013542,-0.0301375593990087,-0.0182204525917768,-0.3549191196262836,-0.1309760591760277,-9.80162561774254,14928.0
16.9,1.100000023841858,155.0,23.487218856811523,10.138511657714844,-79.78276435339484,40.459057742640816,263.98697224569315,-0.0054456298239529,0.0129405092447996,-0.8398727178573608,0.5426018238067627,-0.0194778017400256,-0.0198020455096971,0.0104614025404341,-0.1043978556990623,0.1173493787646293,0.0498104430735111,-0.3359608019515872,-0.1176269937492907,-9.836835211515426,14928.0
17.1,1.100000023841858,157.0,23.33572196960449,12.985246658325195,-79.78276436169874,40.45905776837296,263.98819545221335,-0.005992017686367,0.0102985668927431,-0.83992600440979,0.5425702333450317,-0.025224515388361,-0.0179886453921534,0.0125316702904709,-0.1393804103136062,0.0430774576961994,0.136594757437706,-0.3882117037475109,-0.0036213633790612,-9.757819447517395,14928.0
17.21,1.100000023841858,158.0,23.23680877685547,14.678975105285645,-79.78276445983094,40.45905781922266,263.9846358032226,-0.007117114495486,0.0044615305960178,-0.8400030136108398,0.5425167679786682,-0.0176275369859342,-0.0187832801755336,0.0116743039802337,-0.0168025381863117,-0.0601601935923099,0.0492183752357959,-0.3321352611109615,0.2096721266582608,-9.744395409822465,14928.0
17.4,1.2000000476837158,160.0,23.05401039123535,18.01872062683105,-79.78276447126767,40.45905783949373,263.98606852006907,-0.0068715726956725,0.0024942676536738,-0.8401873111724854,0.5422471165657043,-0.0126191047004159,-0.0177896672544142,0.0183853691281133,-0.04459910094738,0.0342224985361099,0.0811421945691108,-0.2312404952198267,0.0874503543041646,-9.793149493932724,14928.0
17.5,1.2000000476837158,162.0,22.95885467529297,19.65678596496582,-79.78276454151245,40.45905785204713,263.989469739914,-0.0037006041966378,-0.0019848297815769,-0.8395799398422241,0.5432199835777283,-0.0045501732315209,-0.0278014868200161,0.0456883910355144,0.019631952047348,0.0553479418158531,0.0509897954761982,-0.2248257159255445,0.1519073918648064,-9.916428680419925,14928.0
17.7,1.2000000476837158,163.0,22.74350166320801,23.529298782348643,-79.78276455796724,40.459057866945685,263.9891632528305,-0.0026186532340943,-0.000434011220932,-0.8388569951057434,0.5443454980850221,-0.0158174155350285,0.0082320039967206,0.0899505930993556,-0.0039041901472955,-0.0528652966022491,-0.0546527914702892,0.0448595369886606,0.0424549198010936,-10.294509644508365,14928.0
17.8,1.2999999523162842,163.0,22.63707733154297,18.448116302490234,-79.78276453401266,40.45905788169447,264.0023395152092,-0.0037973234429955,-0.0002397932403255,-0.8375449776649475,0.5463553071022034,-0.0273175332827238,0.009857628553864,0.1873109534862481,-0.0291857570409774,0.1244014352560043,-0.1659119576215744,0.0371303127519786,0.0567629605717957,-10.721687339544298,14929.0
18.0,1.2999999523162842,163.0,23.0815544128418,15.816078186035154,-79.78276466995712,40.45905791736435,264.04278198194504,-0.0063262581825256,-0.0038325500208884,-0.835798978805542,0.5489857792854309,-0.0526842653220476,0.0371742757209344,0.3242012505223069,-0.0120443096384406,0.0342300124466419,-0.0067481384612619,0.0932810972537845,0.1744490842893719,-10.207111312150955,14929.0
18.1,1.399999976158142,163.0,23.0076847076416,17.98691177368164,-79.78276455076814,40.45905814343571,264.07213571977616,-0.0037297673989087,-0.005376546178013,-0.8352096080780029,0.5498929619789124,-0.0821429426499344,0.0525648550901932,0.1421587071884066,0.0684099867939949,0.0744379460811615,-0.01853783801198,0.2080592453107237,-0.0451654468663036,-9.564887058734897,14929.0
18.3,1.399999976158142,164.0,22.86995887756348,20.63485336303711,-79.78276444262995,40.45905819799609,264.0829141469002,-0.0009939734591171,-0.0046764477156102,-0.8352993130683899,0.5497748255729675,-0.0993358306836178,0.0572241730610537,0.0851266730550782,0.0265330262482166,0.0565583370625972,0.0185666438192129,0.0151678555598482,0.0577274587936699,-9.345438716411593,14929.0
18.41,1.399999976158142,165.0,22.73974418640137,21.6685848236084,-79.78276416284307,40.459058297273046,264.1238903136253,0.0032272618263959,-0.0037243880797177,-0.8360731601715088,0.5485959649085999,-0.1024576784595238,0.0562462339072496,0.1222767569293958,0.1077809035778045,0.0691520497202873,0.0182882025837898,-0.0032855755998753,0.1438010496273637,-9.518809245228768,14929.0
18.61,1.5,165.0,22.76353454589844,21.39027214050293,-79.78276404176604,40.459058365699775,264.13740822982794,0.0045456350781023,-0.0025345229078084,-0.8364516496658325,0.5480161309242249,-0.1159090833508798,0.0629109301142226,0.1460729541138116,-0.0062450007535517,-0.0212782341986894,-0.0459719523787498,0.0641179904155433,0.1324682868830859,-9.954687012434006,14929.0
18.71,1.5,165.0,22.81111145019531,19.17967796325684,-79.7827638434524,40.45905857996545,264.1828112335205,0.0043197749182581,0.0017492424231022,-0.8374758958816528,0.5464545488357544,-0.1155463405126445,0.0645344696760591,0.2377314728847731,-0.0535924471914768,-0.0661306232213974,0.0184886530041694,0.0676770626753568,-0.0572962814569473,-10.142097290754318,14929.0
18.9,1.5,165.0,22.81987571716309,20.603046417236328,-79.78276371602574,40.459058639804944,264.20697933745384,0.0036939592100679,0.0032019326463341,-0.8379276990890503,0.5457594394683838,-0.1118285829595296,0.0679468133078759,0.2421737966210941,-0.032502993941307,0.0348784960806369,-0.0218545105308294,-0.0103594491595868,-0.0600323170004412,-9.907262585163116,14929.0
19.01,1.5,163.0,22.81987571716309,20.444011688232425,-79.78276340783455,40.45905872650327,264.2501968474388,0.0075021795928478,-0.0004545550909824,-0.8383537530899048,0.5450748801231384,-0.0779504406906541,0.1007182924320328,0.1747416153098773,0.0889144837856292,0.124238833785057,0.0243503861129283,0.037798450787086,-0.1972746773064136,-9.584968151450155,14929.0
19.2,1.5,161.0,22.753517150878903,22.050268173217773,-79.78276326771042,40.459058966225726,264.28615528655047,0.0106812538579106,-0.0015456498367711,-0.8379188179969788,0.5456882119178772,-0.1028863256527663,0.0825635748400452,0.1848039603010748,0.0372307784855365,0.1051101610064506,0.0239482875913381,0.0222847255691886,-0.0334910034458153,-9.751937148571017,14929.0
19.3,1.5,159.0,22.684654235839844,21.891233444213867,-79.78276302366974,40.459059059874136,264.3250025243759,0.0159132070839405,-0.0053291381336748,-0.837136447429657,0.5467367172241211,-0.0752528138524866,0.0640663363358649,0.2088149178276346,0.0664453357458114,0.1231268346309662,-0.0184296518564224,0.0464901427086442,-0.2452130382880568,-9.895023193359377,14929.0
19.5,1.5,156.0,22.697175979614247,22.2331600189209,-79.7827631343372,40.45905931881185,264.36911809754366,0.017155123874545,-0.0071169571019709,-0.8366679549217224,0.5473954677581787,-0.0964280042442128,0.0233883645030758,0.2500063401470901,-0.0286970306187868,-0.0337312370538711,0.0167781207710504,0.0380902245640754,-0.009704034528695,-10.062516685724257,14929.0
19.6,1.5,154.0,22.70218276977539,21.135814666748047,-79.78276276629589,40.459059543581,264.4257915945053,0.0173873994499444,-0.0050243181176483,-0.8357141017913818,0.5488665699958801,-0.057569336512428,0.0301826809008574,0.3158531559880263,0.0001926187251228,0.002770731691271,-0.0538277812302112,0.1794868260249495,-0.0367311626253649,-10.233353615999222,14929.0
19.8,1.5,157.0,22.73724174499512,21.119911193847656,-79.78276273146443,40.45905957435716,264.45930235397816,0.0159523319453001,-0.00325328996405,-0.8355990648269653,0.5490986108779907,-0.0349164033203264,0.0112948883240311,0.3483558567309312,0.0545657761394977,0.0244526527822017,0.0674320086836814,0.0758997188229113,-0.2291259958595037,-10.19175535440445,14929.0
19.91,1.5,157.0,22.77605438232422,20.11798858642578,-79.78276299441423,40.459059589338366,264.5228224576712,0.01247064396739,-0.0047050141729414,-0.8362513184547424,0.5481843948364258,-0.0079604843918893,-0.0139556517163696,0.3582743291710783,-0.0740915909409523,-0.0022656612563878,0.0284222830086946,0.0649742466257885,-0.0919576530810445,-10.051259626150133,14929.0
20.1,1.600000023841858,158.0,22.754770278930664,22.2331600189209,-79.78276302710607,40.45905959661373,264.5586523742676,0.0098330518230795,-0.0055225291289389,-0.8368746638298035,0.5472784638404846,0.0067313763796213,-0.0269339463870528,0.3526636433222951,-0.0052297329530119,0.0309966970235109,0.0733766332268714,0.1376265178062022,-0.173057885505259,-9.813822909593584,14929.0
20.2,1.600000023841858,156.0,22.6859073638916,20.952924728393555,-79.78276306447313,40.459059494422654,264.6248686568141,0.0053290990181267,-0.0061789201572537,-0.8382008075714111,0.5453006625175476,0.0242498302392168,-0.0079426453287866,0.3501440054824397,-0.0516785196959972,-0.0355356447398662,0.0961153730750084,0.1234907826036215,-0.1026979558356106,-9.80741436123848,14929.0
20.4,1.600000023841858,153.0,23.02145576477051,15.553669929504396,-79.7827630992879,40.45905947755632,264.6600720950663,0.0043463562615215,-0.0048137791454792,-0.838797926902771,0.5444042086601257,0.0275247495715971,-0.0152336126644917,0.3368859225244129,-0.0261448547244072,-0.0002168811042793,-0.0185746289789676,0.1307444911636412,0.0510110682388767,-9.57357952952385,14929.0
20.5,1.5,151.0,22.581987380981445,24.88109970092773,-79.78276312468545,40.45905957165829,264.69617510739755,0.0043501956388354,-0.0030077896080911,-0.8392801284790039,0.5436735153198242,0.012989019369915,-0.010687579994907,0.168117822468102,-0.0561806298792362,-0.0757474303245544,0.0069135227240622,0.1716856170818209,-0.0167513866256922,-8.499498054385183,14929.0
20.7,1.600000023841858,151.0,22.493091583251957,24.93676376342773,-79.78276317631169,40.459059563654,264.74226296257973,-0.0075315213762223,-0.0001021302086883,-0.8403548002243042,0.5419845581054688,0.0010402598970175,-0.0047542531536415,0.1719535346190077,-0.1457856595516204,-0.0948012769222259,-0.0015935077099129,-0.0065022956673055,0.0234128544665873,-10.022879580259325,14929.0
20.8,1.5,151.0,22.44300842285156,26.3521785736084,-79.78276318471487,40.45905956644037,264.7647678063512,-0.0092198606580495,-0.0024235427845269,-0.8405372500419617,0.5416699647903442,-0.0053459215045253,-0.0019286562375355,0.2831211682056685,-0.0573887079954147,-0.0034621879458427,-0.056227933615446,0.1180258652195334,0.0379913472337648,-10.741655580997469,14929.0
20.9,1.600000023841858,152.0,22.406700134277344,27.58470344543457,-79.78276317465448,40.459059578979286,264.79966384482384,-0.0064220568165183,-0.0040325764566659,-0.8406385183334351,0.5415435433387756,-0.0089426946690127,0.00441073580187,0.417582603628972,0.1752586215734481,0.1389052867889404,0.0794382393360138,0.0773123056255281,-0.0966899600252509,-11.080550844669345,14929.0
21.11,1.600000023841858,153.0,22.22640419006348,29.008071899414062,-79.7827631824695,40.45905958549565,264.9277624518872,0.0015695608453825,-0.0011570552596822,-0.8402497172355652,0.5421960949897766,-0.014773561315595,0.0315249450584056,0.7473699928292843,0.1575787365436554,0.060910627245903,-0.042359884828329,0.0536484411545097,-0.0487235324084758,-11.418853200674054,14929.0
21.3,1.600000023841858,153.0,22.09619140625,31.24251937866211,-79.78276323651609,40.45905975662392,265.112414005518,0.001700461260043,-0.0022587080020457,-0.8397804498672485,0.542918860912323,-0.0596437700429673,0.0186639479584583,1.13927932543219,-0.1349138766527176,-0.0869944617152214,-0.0615332275629043,0.1238457725476473,-0.0096258188830688,-11.940084528923034,14930.0
21.4,1.600000023841858,152.0,22.099946975708008,32.252395629882805,-79.78276319368938,40.45905979370711,265.23827025604254,0.0004995107883587,-0.00325683131814,-0.8393698930740356,0.5435507297515869,-0.0645112424108923,0.0272042493072673,1.3775521901115242,-0.1202534437179565,-0.1744248270988464,-0.0260051358491182,0.0772298050671815,-0.1241120127215981,-12.128514561653136,14930.0
21.5,1.7999999523162842,153.0,22.1062068939209,30.821075439453125,-79.78276314661066,40.459060065080656,265.5581087203026,-0.0013068178668618,0.0017309110844507,-0.837762176990509,0.5460309386253357,-0.0735187736066061,0.0229715138051943,1.8448012039386872,0.0759114027023315,0.0235709752887487,0.097279779613018,0.016080334119033,-0.2389196800813079,-12.259336656332016,14930.0
21.71,1.7999999523162842,151.0,21.90337562561035,34.47093963623047,-79.78276309211941,40.45906039857713,265.9622755975724,0.0050497660413384,0.0026572493370622,-0.8368988037109375,0.5473279356956482,-0.097635323030252,0.0230936690071398,2.2723635386415184,0.1112977862358093,0.0803445652127265,0.0672900527715683,0.0994738742150366,-0.1809345600754022,-12.034906486272812,14930.0
21.9,2.0,153.0,22.12874412536621,29.71577835083008,-79.78276301110536,40.459060458576594,266.2017272443772,0.0068014012649655,0.0001169058596133,-0.8371701240539551,0.5469003915786743,-0.1173696390639913,0.045238209307458,2.5065668221430046,-0.0591929219663143,0.0143775735050439,-0.0789758488535881,0.1491450027376413,-0.00944015836576,-12.056419562101365,14931.0
22.0,2.0999999046325684,153.0,22.12874412536621,27.544944763183597,-79.78276293613477,40.45906067859266,266.4551845521927,0.0089041544124484,-0.0003564127837307,-0.8373404741287231,0.5466093420982361,-0.1116035224126657,0.0672478289131163,2.667326011781405,-0.0233497992157936,0.0018323671538382,0.0246088337153196,0.1581608610972762,-0.0956492013204842,-11.726391016244891,14931.0
22.2,2.200000047683716,157.0,22.3891716003418,24.80158233642578,-79.78276275008227,40.45906092999682,267.0213100643158,0.0105722183361649,0.0007953884778544,-0.8373684287071228,0.5465362071990967,-0.0997587152845278,0.0774900531138912,2.906953995840996,0.0929589420557022,0.0085083246231079,0.1427849382162094,0.1475957372691482,-0.3492647890001536,-10.933540148735046,14932.0
22.3,2.299999952316284,155.0,22.220144271850582,29.06373405456543,-79.78276267026284,40.45906095721743,267.31538936805725,0.0082595301792025,-0.0001360922178719,-0.8370452523231506,0.5470713376998901,-0.1096872934300597,0.0798709460124877,2.963845083144673,-0.1362762004137039,-0.0092341257259249,-0.0525483526289463,0.1109715832583606,-0.0625295942835509,-10.515734370946882,14932.0
22.4,2.299999952316284,152.0,22.330324172973643,25.087846755981445,-79.78276259273187,40.459060977685496,267.6145534248352,0.0056567573919892,-0.0027332298923283,-0.8368169665336609,0.5474468469619751,-0.1001586800469173,0.0803065274863954,3.0209610205481927,-0.2754693925380707,-0.1148049458861351,-0.080200009047985,0.1310392273776233,0.1043035738449543,-10.379553887844086,14932.0
22.6,2.400000095367432,152.0,22.365381240844727,24.920860290527344,-79.7827624207627,40.45906124202416,268.2405633659364,0.0061009428463876,-0.0072601796127855,-0.8370393514633179,0.5470605492591858,-0.0493845299923031,0.0862235409321611,3.0844356080125337,0.1997731626033783,0.114506609737873,0.044393703341484,0.1053473109751939,-0.0480408334359526,-10.012762727737428,14933.0
22.8,2.5,151.0,22.38791847229004,25.06399154663086,-79.7827623635006,40.45906154686551,268.8825044364929,0.0071665993891656,-0.0096727041527628,-0.8377916812896729,0.5458574891090393,-0.0830962112622332,0.0799159305137437,3.108586236101288,-0.1579432487487793,-0.0436476990580558,-0.1185187771916389,0.0948663961887359,0.2663818592950702,-9.962032284736631,14933.0
22.9,2.5,153.0,22.40043830871582,24.89700508117676,-79.78276232290115,40.4590615971524,269.19378564071656,0.0068431617692112,-0.0095976404845714,-0.8382692933082581,0.5451290607452393,-0.0593117391931135,0.0782988080814126,3.114966702662952,0.1036690101027488,0.1070606037974357,0.1507022678852081,0.1199227385222911,-0.2048975278995931,-9.89882622241974,14934.0
23.1,2.700000047683716,152.0,22.283998489379886,25.15146064758301,-79.7827623556297,40.45906186075381,269.8087782592773,0.0064984681084752,-0.0079647889360785,-0.838360071182251,0.5450201034545898,-0.0770398858996957,0.0433738518639299,3.1217201509376427,0.0427728779613971,0.0312623940408229,-0.0036842229310423,0.0796682949922979,-0.007793041113764,-10.0170838201046,14934.0
23.2,2.5999999046325684,150.0,22.419219970703125,23.24303436279297,-79.7827624054584,40.45906221992768,270.10225579452515,0.0059248120523989,-0.0085745025426149,-0.8383824825286865,0.5449827909469604,-0.0823060068740338,0.0147149584287027,3.1095390307637967,0.2059309184551239,0.1009723395109176,0.1568916141986847,0.130401149969548,-0.3070217622444033,-10.036619367599489,14935.0
23.41,2.5,153.0,22.406700134277344,24.141586303710927,-79.78276242668316,40.459062419995824,270.72304961395264,0.0035995226353406,-0.0093276854604482,-0.8384830355644226,0.5448359847068787,-0.0975078056944009,0.0029935440376119,3.0778363175404686,0.057991974055767,0.1158038005232811,0.0090732397511601,0.1348303061909973,-0.021670895833522,-9.563529335260393,14935.0
23.51,2.5,149.0,22.37038993835449,24.761823654174805,-79.78276282916906,40.45906323195385,271.05667254638666,0.0032306846696883,-0.0093406559899449,-0.8384650945663452,0.5448657274246216,-0.141634709542034,-0.0527967673386862,3.034963555284587,-0.0243616681545972,-0.0792566165328025,0.0011790569406002,0.1245088011212647,-0.0098115547746419,-9.524819598197936,14936.0
23.7,2.5,152.0,22.352861404418945,24.97652244567871,-79.78276278106787,40.45906355098764,271.72930381011963,0.0044313399121165,-0.0099896732717752,-0.8382961750030518,0.5451056361198425,-0.1522052550594549,-0.0451931090752276,2.9979969107721303,-0.00719904480502,-0.0775780379772186,-0.062036033719778,0.145312573146075,-0.001624077851884,-9.582411164045334,14936.0
23.8,2.5,150.0,22.31529998779297,24.984474182128903,-79.78276282194084,40.45906372657054,272.02767321777344,0.0045245247893035,-0.0098605053499341,-0.8383798003196716,0.5449786782264711,-0.1447155237764404,-0.0516874463761586,2.97609845645844,0.1543194055557251,0.0615637488663196,0.0619657635688781,0.1332514117844402,-0.130949134575203,-9.60756003856659,14937.0
23.9,2.5,151.0,22.34785270690918,23.43387794494629,-79.7827628696125,40.45906390869196,272.32469508361817,0.0060270838439464,-0.0089788306504488,-0.8385043740272522,0.5447876453399658,-0.1672897327524818,-0.0578445768693521,2.9737462493199947,0.0315552689135074,-0.0804235190153122,-0.0524809584021568,0.030888962787576,0.1271642592921853,-9.725344596505163,14937.0
24.11,2.5,151.0,22.33407974243164,23.974597930908203,-79.7827629996562,40.45906380926283,273.43057105255133,0.0073753581382334,-0.0121413264423608,-0.8389706611633301,0.5439912676811218,-0.1089526020774871,-0.0200664361089409,3.04384864817894,0.0886582657694816,0.00211445055902,0.0947661772370338,0.0600195307843387,0.03081579036545,-9.790146948695185,14938.0
24.3,2.5999999046325684,153.0,22.40043830871582,23.664478302001957,-79.7827630584202,40.45906394118659,273.7345680923462,0.0052103507332503,-0.0111978687345981,-0.8394572734832764,0.5432853698730469,-0.1177208656389487,-0.0220200221442603,3.0377612368354585,-0.0055791386403143,-0.0775019526481628,-0.0499684065580368,0.1245154523290693,0.0626520751789212,-9.723568797111511,14938.0
24.4,2.5999999046325684,153.0,22.445512771606445,23.27484130859375,-79.7827631246879,40.45906408433915,274.037482711792,0.0024293004535138,-0.0098416237160563,-0.8395628333091736,0.5431680083274841,-0.1161339887277157,-0.0468086950777113,3.025323633948772,0.0001790980022633,-0.079504057765007,0.0247852560132742,0.1363572334684431,-0.0444389120489358,-9.736308710575104,14939.0
24.6,2.400000095367432,153.0,22.37539863586425,23.410022735595703,-79.78276313829073,40.45906423868119,274.72220084381104,0.0024602636694908,-0.008763663470745,-0.8391137719154358,0.5438798069953918,-0.0964692223978653,-0.0584745307606925,3.036063343639435,-0.0259312000125646,-0.0905601754784584,-0.0537474416196346,0.0674469610350206,0.0974415282346308,-9.642245721817018,14939.0
24.71,2.400000095367432,156.0,22.38165855407715,23.93483924865723,-79.78276334323512,40.45906448347027,275.0976900787353,0.0038935467600822,-0.0088316733017563,-0.8385903835296631,0.5446770787239075,-0.099524219870314,-0.0657730780999936,3.062015510266377,0.0115648144856095,-0.0054128165356814,0.0275193080306053,0.1088529543019831,-0.0882114242389798,-9.669148176312447,14940.0
24.9,2.5,158.0,22.402942657470703,23.61676788330078,-79.78276349318688,40.45906477852183,275.70766017150885,0.0056520118378102,-0.0110607165843248,-0.8371368646621704,0.5468525886535645,-0.1242551613096575,-0.0680024407884447,3.0460002700625086,-0.0655641630291938,0.0114428317174315,-0.0842020362615585,0.1862909567914903,-0.0228967600269243,-9.759554316401482,14940.0
25.01,2.5,156.0,22.38541412353516,22.996530532836918,-79.7827638645678,40.45906516078222,276.37924906921387,0.0083561465144157,-0.007786750793457,-0.8369159102439879,0.5472123622894287,-0.1135273527845332,-0.0765794245396732,3.0495776817384685,0.0294860489666461,-0.0734138488769531,0.0687155947089195,0.18941802944988,0.0903640035912394,-9.639781120419505,14941.0
25.2,2.5999999046325684,154.0,22.352861404418945,24.23700714111328,-79.78276403659821,40.45906535924133,276.72901484680176,0.0075443387031555,-0.0052664089016616,-0.8373740315437317,0.5465529561042786,-0.1166148191605718,-0.0938354224737744,3.044581386574808,0.0299116075038909,0.0222692843526601,0.0593991167843341,0.1221541273780167,-0.1397160111833363,-9.56423450946808,14941.0
25.3,2.5999999046325684,152.0,22.339088439941406,24.23700714111328,-79.78276416675664,40.45906550594579,277.0323786468506,0.004917262122035,-0.0058751455508172,-0.8378819227218628,0.5457977652549744,-0.1277722702950233,-0.1179863424116068,3.0279571017640565,-0.0400302670896053,-0.0713457912206649,-0.0048927208408713,0.0762818115251138,-0.0310693219816312,-9.631240677237509,14942.0
25.5,2.5999999046325684,151.0,22.38541412353516,22.670507431030277,-79.78276424392456,40.45906598329972,277.68231246185303,0.0003486172354314,-0.0061738844960927,-0.8388121128082275,0.5443859696388245,-0.0980551164355248,-0.129944643970278,3.0343074120279465,0.0202185213565826,-0.0442881137132644,0.0116899907588958,0.0408903282321989,0.0443810291821137,-9.583304618597031,14942.0
25.61,2.5999999046325684,152.0,22.302780151367188,24.9924259185791,-79.78276458551251,40.459066525498656,278.32937476348883,0.0014602702576667,-0.003909554798156,-0.8392424583435059,0.5437414050102234,-0.1051594472368698,-0.1664836745876315,3.036939664016872,0.1410009711980819,0.0549805276095867,0.0488805770874023,0.045225093034096,-0.1215851932950318,-9.666149724125864,14943.0
25.74,2.5999999046325684,149.0,22.33282852172852,24.10182762145996,-79.78276472917106,40.45906670469456,278.63319060516363,0.0028825516346842,-0.0039973319508135,-0.8390910029411316,0.5439688563346863,-0.1334999331807407,-0.1673668783981671,3.0435070097911536,0.0373875312507152,-0.0731895416975021,-0.0067756958305835,0.0327999447821639,0.0147748747025616,-9.803259914517405,14943.0
25.9,2.5,147.0,22.290258407592773,24.45965576171875,-79.78276508567852,40.459067441735264,279.27713153076166,0.0014562081778421,-0.0018483421299606,-0.8381405472755432,0.5454494357109071,-0.1853836345825352,-0.182139181865175,3.0953427091502483,-0.078376717865467,-0.0740040838718414,-0.1549981534481048,0.1572582519985735,-0.2282464284449816,-9.912783526182173,14944.0
26.1,2.5999999046325684,146.0,22.369138717651367,22.38424301147461,-79.78276522888491,40.45906765922517,279.58697554779053,-0.0006292128236964,0.0005513957003131,-0.83760005235672,0.5462833046913147,-0.1632095243308689,-0.1958394651086957,3.0993730416312,0.0849847495555877,0.059893924742937,0.0220162086188793,0.128697563689202,-0.1100484084058553,-9.888105937242509,14944.0
26.2,2.5999999046325684,143.0,22.392927169799805,22.185449600219727,-79.78276531294532,40.45906825500583,279.92360636901856,-0.0015167067758738,0.0024494607932865,-0.8372582197189331,0.5468000769615173,-0.2142606623791094,-0.215033446065974,3.1025912541083307,-0.0399463847279548,-0.0398870892822742,-0.0567113868892192,0.0045317314588464,0.0525642074877396,-9.758436913490296,14944.0
26.3,2.5999999046325684,137.0,22.379154205322266,24.22905540466309,-79.78276543650476,40.459068504100266,280.23331019592285,-0.0016596931964159,0.002787014003843,-0.8372271060943604,0.5468457937240601,-0.2102585349051181,-0.2266601692777092,3.0883547282783894,0.0497587881982326,0.0152747612446546,0.0748168900609016,0.0166518446314148,-0.1745301047712564,-9.734114835262297,14945.0
26.5,2.700000047683716,130.0,22.304031372070312,23.736045837402344,-79.78276565229456,40.45906928277623,280.8693976135254,0.0006743903504684,0.0004183146520517,-0.8376732468605042,0.5461712479591371,-0.2370835151548677,-0.2042265320763789,3.082948162945596,-0.0176582876592874,-0.1019105613231659,-0.0242054387927055,0.0066101779381278,0.0173936347430571,-9.77587448000908,14945.0
26.6,2.700000047683716,128.0,22.2714786529541,25.962541580200195,-79.78276575500017,40.45906954202498,281.17812869262696,0.0020374213345348,1.6819027223391462e-05,-0.8377656936645508,0.5460261106491089,-0.2235058883588789,-0.1944751321385235,3.0885166438453417,0.1678071469068527,0.0579934269189834,0.07275902479887,0.042523423586972,-0.1925408811494708,-9.857772921323775,14946.0
26.8,2.700000047683716,128.0,22.32781982421875,23.489540100097656,-79.7827660433556,40.45907008271279,281.8109011383057,0.0007232296047732,0.0023625870235264,-0.8375793695449829,0.5463100671768188,-0.202144826862139,-0.1802700218194206,3.1094604971799864,0.1119974330067634,0.0784381479024887,-0.041878156363964,0.0680807946436107,0.0031065525859594,-9.838797537088396,14946.0
26.91,2.5999999046325684,129.0,22.35161018371582,24.03821182250977,-79.78276627480194,40.45907056096501,282.4417757720948,-0.0012954717967659,0.003419175511226,-0.837601900100708,0.5462688803672789,-0.1700833482232844,-0.1773126360434741,3.077047947236581,0.0886411964893341,0.0927116721868515,0.1140460073947906,0.0122328251064755,0.1069969566911459,-9.765510290265084,14947.0
27.1,2.700000047683716,129.0,22.24768829345703,24.761823654174805,-79.7827663573308,40.4590707555667,282.7493109436035,-0.0014044294366613,0.0010451303096488,-0.8376149535179138,0.5462583899497986,-0.183500793293311,-0.1708405626248771,3.0725062572831674,-0.0377957932651042,-0.0191926751285791,-0.007963883690536,-0.0445044830907136,0.0606287284288555,-9.735452678203584,14947.0
27.2,2.700000047683716,129.0,22.290258407592773,24.51531982421875,-79.78276647900734,40.45907107553983,283.0624899597168,-0.0009367729071527,-0.0007989760488271,-0.8375267982482909,0.5463948845863342,-0.1451187364299458,-0.1550638371919455,3.0781123361953417,0.179564967751503,0.1052007526159286,0.1192067563533783,-0.0055774717172607,-0.1881573697552085,-9.869749188423157,14948.0
27.4,2.700000047683716,127.0,22.32030868530273,24.14953804016113,-79.78276662190268,40.459071443256896,283.67978617858887,0.0014779934426769,0.0040564206428825,-0.8376290202140808,0.5462226271629333,-0.163238944366252,-0.1397329449977777,3.092864364754727,0.1764863729476928,0.066029354929924,0.009471452794969,-0.02581312735565,-0.0269824882596731,-9.852153747081758,14948.0
27.5,2.799999952316284,128.0,22.3741455078125,22.320629119873047,-79.78276689966013,40.459071699685744,283.98834559631354,0.0019974377937614,0.0064954417757689,-0.8379623889923096,0.5456857681274414,-0.1636886696027912,-0.1771708595813598,3.0968072634007475,-0.0352288857102394,-0.0685097426176071,-0.0384749174118042,0.0004745380952954,-0.0230546485539525,-9.844483369588852,14948.0
27.7,2.799999952316284,127.0,22.285249710083008,24.14953804016113,-79.78276708305877,40.459072211912726,284.61095378112793,0.0029513516929,0.005304089281708,-0.8383339643478394,0.5451233386993408,-0.1670707376100885,-0.1651604804044431,3.0493864839824427,0.0023078224621713,-0.0411949194967746,0.001624200027436,-0.0409187420457601,-0.0307225272757932,-9.568104781508444,14949.0
27.8,2.799999952316284,126.0,22.263965606689453,24.34037971496582,-79.7827671689548,40.45907236304422,284.9149794311524,0.0042353370226919,0.0048855538479983,-0.8381564021110535,0.5453916192054749,-0.1432434140395384,-0.1518365145349201,3.028910169586104,0.1423828303813934,0.0792714953422546,0.1265439093112945,0.0163555621029809,-0.215062894038856,-9.630803890228274,14949.0
27.9,2.799999952316284,127.0,22.20887565612793,26.12157821655273,-79.78276725304592,40.45907250412579,285.21809146118164,0.0057143666781485,0.0051283747889101,-0.8379325270652771,0.5457199215888977,-0.1593321774401783,-0.1372300472942494,3.031361826748988,-0.0234937295317649,-0.0779069736599922,-0.017432477325201,-0.0375396818015724,0.0465787554346025,-9.771666238904,14950.0
28.12,2.799999952316284,128.0,22.25520133972168,24.809534072875977,-79.78276735474064,40.459072756082286,285.83568522644043,0.0041766860522329,0.0037021364551037,-0.8374651670455933,0.54646235704422,-0.1347309218847386,-0.101286318351418,3.0528534756003274,-0.2392146289348602,-0.0625053197145462,-0.1588087379932403,0.0366159770451486,0.2333557437546551,-9.88834567308426,14950.0
28.3,2.900000095367432,125.0,22.322813034057614,23.09990310668945,-79.78276737060203,40.45907301992229,286.4426722259521,0.0017528003081679,0.0024005672894418,-0.8367702960968018,0.5475461483001709,-0.0867467738180936,-0.0784208435244279,3.061434309873486,-0.2069405764341354,-0.091710664331913,-0.0361560508608818,-0.0660790551826357,0.0259453018382191,-9.963436785936356,14951.0
28.41,2.900000095367432,124.0,22.266469955444336,24.74592018127441,-79.78276742206101,40.45907308755943,286.74983355712885,0.0011485521681606,0.0008976989774964,-0.8366008400917053,0.5478110313415527,-0.0651510949748331,-0.0738346625955187,3.076249656518644,-0.01577840000391,0.0676024705171585,-0.0209569707512855,-0.0393311407696455,0.1161018297728151,-9.897454465627671,14951.0
28.51,2.900000095367432,120.0,22.325315475463867,22.74207305908203,-79.78276729576652,40.45907317974783,287.3526472778321,0.0002175563859054,-0.0013674848014488,-0.8368475437164307,0.5474343299865723,-0.0318362359236777,-0.0403342176008543,3.082548157867085,-0.0332374535501003,-0.1038302183151245,-0.1032427698373794,-0.0716738218674436,0.2152633987180889,-9.860457962751386,14952.0
28.7,2.900000095367432,121.0,22.240177154541016,24.44375228881836,-79.78276740257462,40.4590733267784,287.9603075714112,0.0021188806276768,0.0013918179320171,-0.8372873067855835,0.5467572808265686,-0.0263608814966542,-0.0430682426243114,3.0722644741005314,0.0103161847218871,-0.1563498079776764,-0.008110562339425,-0.0382686788449063,-0.2915202819183469,-9.82925254225731,14952.0
28.9,2.900000095367432,119.0,22.31529998779297,24.96061897277832,-79.7827674508833,40.459073358133736,288.26727244567866,0.0022366205230355,0.00344172376208,-0.8377436399459839,0.5460482835769653,-0.020232059483884,-0.0552326246920524,3.0669066259063475,0.1672011315822601,0.1015306860208511,0.0500438995659351,-0.0427348917955532,-0.0846977409906685,-9.803030118942262,14953.0
29.0,2.900000095367432,119.0,22.32155990600586,23.10785484313965,-79.78276736887558,40.45907349515358,288.5703997344972,0.0006451731896959,0.0043697669170796,-0.8379474878311157,0.5457329750061035,-0.037404226844822,-0.0383783099916817,3.035352255635188,-0.1733484268188476,-0.0764986351132392,-0.1279200911521911,-0.0242746061459183,0.1420391921885311,-9.732285241484645,14953.0
29.2,2.900000095367432,117.0,22.1988582611084,25.23892974853516,-79.78276746884144,40.459073721062296,289.175084564209,-0.0004483005031943,0.002214492065832,-0.8378809690475464,0.5458484888076782,-0.0228363094505978,-0.0595920215625265,2.99306583948936,-0.1361113786697387,-0.0382173769176006,-0.115982286632061,-0.0391119341365993,0.1731868897005915,-9.604872073531151,14954.0
29.3,2.900000095367432,117.0,22.26146125793457,25.453628540039062,-79.7827675086092,40.45907374062215,289.47381922912604,0.001033172244206,0.0013153511099517,-0.837660014629364,0.5461896061897278,-0.0047294574756602,-0.0538971778867415,2.983920965212552,0.0701327919960022,0.1405391842126846,0.0629434511065483,-0.0266307051479816,-0.1304869121778756,-9.731343255043033,14954.0
29.4,2.900000095367432,115.0,22.2276554107666,25.5570011138916,-79.78276754670921,40.45907376234947,289.77197024536133,0.0013134421315044,0.0009770903270691,-0.8372161388397217,0.5468698143959045,-0.0263296794767922,-0.0417192159632612,2.9781170472485887,-0.183228313922882,-0.0977661088109016,-0.105051964521408,-0.0304493298288434,0.0252353219501674,-9.721957889199258,14954.0
29.61,2.900000095367432,117.0,22.137508392333984,25.93073463439941,-79.7827673363287,40.4590739367794,290.6622137756348,0.0004588759620673,-0.0007513503660447,-0.8365747928619385,0.5478519797325134,-0.003253995757819,-0.0050506119398654,3.0039215906970176,0.0129285864531993,-0.0029252057429403,-0.1317577809095382,-0.0020167092466726,-0.3164391781389713,-9.864570894241334,14955.0
29.8,2.900000095367432,116.0,22.273983001708984,22.972675323486328,-79.78276734899427,40.45907394129362,290.9640993804932,0.0006906608468852,-0.0015774290077388,-0.8365154266357422,0.547940731048584,0.0061378061735337,-0.0093777806213625,3.0345356224622435,0.0938514992594719,0.0917145386338234,0.0726460069417953,-0.1102572362311184,0.0323979235813021,-10.034015017747883,14955.0
29.9,3.0,117.0,22.21263122558593,24.3801383972168,-79.78276737151927,40.45907395010253,291.2686667175293,0.0002581636072136,-0.0013235470978543,-0.8365547060966492,0.5478819012641907,0.003080594271594,-0.0147050970649803,3.0468432237910834,-0.0476788096129894,-0.0723316296935081,0.0470230169594287,-0.059600408761762,-0.0771657232381403,-9.885735476017,14956.0
30.11,3.0999999046325684,117.0,22.246437072753903,24.47555923461914,-79.78276750609133,40.45907423296079,291.86198565673834,-0.0024913209490478,0.0030966289341449,-0.8367835283279419,0.5475195646286011,0.0010814520308105,-0.0695064919711218,2.9999242134242428,0.1870285719633102,0.0660391598939895,0.104669451713562,-0.088675601799041,-0.204445190951228,-9.699576501846314,14956.0
30.2,3.0999999046325684,117.0,22.273983001708984,23.592912673950195,-79.78276748749668,40.45907434437892,292.1645559997558,-0.0050960816442966,0.0045683193020522,-0.8365438580513,0.5478572845458984,-0.003811309620423,-0.08724850146603,2.9900492680476054,-0.1036498770117759,-0.0487746410071849,-0.0801515504717826,-0.077248726291582,0.0689122321642935,-9.749551484584806,14957.0
30.4,3.2000000476837163,115.0,22.233917236328125,24.11773109436035,-79.7827676313732,40.45907439293071,292.7614245147705,-0.0046158293262124,0.0037265664432197,-0.8362928628921509,0.5482510924339294,0.0129284891536291,-0.1052191495013564,2.9850810617631365,0.0071949544362723,0.0717357844114303,0.0961489602923393,-0.1178653408773243,-0.2141810425557196,-9.838886414766312,14957.0
30.5,3.2000000476837163,112.0,22.25770568847656,23.537250518798828,-79.78276795021443,40.45907475002567,293.37025973510737,-0.0031405033078044,0.0039830617606639,-0.8370262384414673,0.5471392273902893,0.010569509796843,-0.1311851150566738,3.0071057071572853,0.2017699927091598,0.1066375151276588,-0.0112964762374758,-0.1396842443570494,-0.0808334075286984,-9.905903692245484,14958.0
30.7,3.299999952316284,109.0,22.160045623779297,24.809534072875977,-79.78276811491287,40.45907522956399,293.6773714752198,-0.003782701678574,0.004867635667324,-0.8365549445152283,0.5478484034538269,-0.0445434576798366,-0.1635284322749595,3.024156305954284,-0.0454074293375015,-0.0220934227108955,0.0786959677934646,-0.0452773022744804,-0.1137934312596917,-9.917274187803269,14958.0
30.8,3.299999952316284,107.0,22.20762252807617,24.28471755981445,-79.78276823470294,40.45907531412007,293.9807791442871,-0.0064278482459485,0.0059109013527631,-0.8362221717834473,0.5483213067054749,-0.052791327797415,-0.1638604660294767,3.0414933719935284,-0.1616893261671066,-0.1935572177171707,-0.0459067784249782,-0.1655550672858953,0.1174465340562164,-9.95294220328331,14958.0
30.9,3.299999952316284,106.0,22.151281356811523,25.98639678955078,-79.78276834822856,40.45907540039168,294.28535411071783,-0.0112639963626861,0.00483736442402,-0.8359656333923341,0.5486448407173157,-0.0206694665264127,-0.1769471744102252,3.045813641897768,0.1464286595582962,0.0951278582215309,0.1377344578504562,-0.0992176291253417,-0.2204379104822874,-9.883118262290957,14959.0
31.1,3.299999952316284,105.0,22.262714385986328,23.12375831604004,-79.78276845712358,40.459075858927314,295.2060446472168,-0.0132167292758822,-1.7173959349747747e-05,-0.8361921906471252,0.5482774376869202,0.0009712821486378,-0.1425139461283777,3.062274941015692,-0.0602542273700237,-0.0028325130697339,0.0372154675424099,-0.1255277789477259,0.1200204783864319,-9.892833995819093,14960.0
31.2,3.400000095367432,104.0,22.29526710510254,23.37821578979492,-79.78276851166349,40.459075957366366,295.5118365020752,-0.0109705384820699,0.000467496458441,-0.8363633155822754,0.548065721988678,-0.0333188981778529,-0.1292618560969581,3.0519164658625173,-0.0383372753858566,-0.0203303918242454,-0.0604792088270187,-0.190324201695621,0.1764922841638326,-9.707964332699776,14960.0
31.4,3.299999952316284,105.0,22.177574157714844,24.75387191772461,-79.78276855681641,40.45907606898525,295.8167586059571,-0.0085230078548192,0.0017001022351905,-0.8364558815956116,0.5479654669761658,-0.0470814917740841,-0.1265183375383149,3.0511658242120085,0.0604344084858894,0.0114745572209358,0.1513788998126983,-0.1261930459085852,-0.2568987170420587,-9.836108987331391,14960.0
31.6,3.299999952316284,105.0,22.17882537841797,25.14350891113281,-79.78276874139213,40.45907648180968,296.4379477233887,-0.0047115474008023,0.0031880841124802,-0.8370785713195801,0.5470532178878784,-0.0856180068155136,-0.128946357681934,3.0838416201289425,0.1222569793462753,0.0735094174742698,0.0761050283908844,-0.0746417588973417,-0.2434325428493321,-9.943988946676257,14961.0
31.7,3.299999952316284,105.0,22.223899841308597,23.79170799255371,-79.7827686323822,40.459076624426935,296.73930499267584,-0.0043484545312821,0.0034598442725837,-0.8374819159507751,0.5464367866516113,-0.0880941376434026,-0.0947823019824812,3.0933007817013483,-0.05026800557971,-0.1597820669412613,-0.0611519031226635,-0.0846474732086062,0.0991237173601985,-9.958898177146912,14961.0
31.9,3.299999952316284,104.0,22.26521682739257,23.871225357055664,-79.78276868765613,40.45907682682198,297.3586096496582,-0.0059513500891625,0.0052093523554503,-0.8373376131057739,0.5466290116310121,-0.087084613125938,-0.1091923206533968,3.099826097451855,-0.1201537176966667,-0.0641318708658218,-0.1572558581829071,-0.0871967587340623,0.304738954436034,-9.882594351768494,14962.0
32.0,3.299999952316284,104.0,22.21513557434082,24.11773109436035,-79.78276862660651,40.459077189238464,297.9652876586913,-0.0053139799274504,0.0086629260331392,-0.8369677066802979,0.547157883644104,-0.0852140031681528,-0.0977556850687956,3.093878779500024,-0.1126030161976814,-0.1459209024906158,-0.0614626742899417,-0.09686343960464,0.092805819120258,-9.866285297870638,14962.0
32.2,3.2000000476837163,107.0,22.22515296936035,24.3801383972168,-79.78276858948013,40.45907738839463,298.2660116882324,-0.0076025868766009,0.0077108684927225,-0.836335301399231,0.5481114983558655,-0.0752238732706315,-0.0969035598854387,3.0954508096444915,0.0627309679985046,0.0564038045704364,-0.0076930741779506,-0.1702889730781316,-0.0971983297448605,-9.883189598321913,14963.0
32.3,3.2000000476837163,108.0,22.250192642211918,21.31870651245117,-79.78276858666325,40.45907747103767,298.57603213500977,-0.0085116075351834,0.0048501025885343,-0.8355345129966736,0.5493506193161011,-0.0702267508424988,-0.0985082148453514,3.0995604902484164,-0.0155869117006659,0.0356356985867023,0.0722024962306022,-0.0926876962278038,-0.196355074737221,-9.899250730276108,14963.0
32.5,3.299999952316284,111.0,22.118728637695312,24.65049934387207,-79.78276857999298,40.45907775120618,299.1860785217285,-0.0032235451508313,2.039544779108837e-05,-0.8355928063392639,0.5493398904800415,-0.0535417043193436,-0.0519349905158056,3.063812812941493,0.1758214086294174,0.0979364216327667,0.1353686600923538,-0.0259015619242563,-0.2500368450209498,-9.607442509531976,14964.0
32.6,3.299999952316284,111.0,22.24894142150879,22.33653259277344,-79.7827685691408,40.459078028651135,299.7963957519531,-0.0040611405856907,0.0015652154106646,-0.8361442685127258,0.548492431640625,-0.0608354430503505,-0.0349102199274652,3.0255180682089686,0.2384614795446396,0.097468726336956,0.0832582339644432,-0.0464471199922263,0.1136840700544417,-9.640183993577956,14964.0
32.71,3.299999952316284,111.0,22.230159759521484,23.29869842529297,-79.78276855056005,40.45907811321688,300.09699771118164,-0.0003409805358387,0.0038400348275899,-0.8363845944404602,0.5481294989585876,-0.0803509127268871,-0.0448994407101878,2.9908299687478763,0.0527946613729,-0.0787917599081993,-0.0367186218500137,-0.098581123156473,0.1159032985288649,-9.49800777554512,14965.0
32.9,3.2000000476837163,111.0,22.129995346069336,25.294591903686523,-79.78276853935229,40.45907819411221,300.39458987426764,0.0045007453300058,0.0057150153443217,-0.8363416790962219,0.5481603741645813,-0.0851135815616279,-0.0512524375700231,2.96503502175846,0.1719475090503692,0.0320817939937114,0.0912690162658691,-0.0446543454006314,-0.2245787258818745,-9.597953063249587,14965.0
33.1,3.299999952316284,114.0,22.10871124267578,25.18326759338379,-79.78276843422806,40.45907843746482,301.00834796142584,0.0002302323264302,0.0021953028626739,-0.8356421589851379,0.5492697954177856,-0.1111809968483536,-0.0329809411495481,3.0189410428982013,-0.1114325001835823,0.0486420653760433,0.0392335839569568,0.0322191540990024,-0.1444452209305018,-9.95782579779625,14966.0
33.2,3.299999952316284,116.0,22.193851470947266,23.942790985107425,-79.78276837186789,40.45907862938,301.309361907959,-0.0044197747483849,-6.55869662296027e-05,-0.8361753821372986,0.548444390296936,-0.0879766035343967,-0.0113329927230139,3.0492561706262014,-0.2665660381317139,-0.1051288619637489,-0.100486896932125,-0.039871615357697,0.2939998302608728,-9.960073467493055,14966.0
33.4,3.299999952316284,119.0,22.21638870239257,24.29266929626465,-79.7827683138839,40.45907875082817,301.9222311706543,-0.0091235339641571,-0.0040348740294575,-0.838827908039093,0.5443053841590881,-0.0441300036485289,-0.0228358671620967,3.0722469812239885,-0.1284924000501632,-0.0735614746809005,-0.0552523881196975,-0.0807947428151965,0.1425963770225644,-9.842060283422471,14966.0
33.51,3.299999952316284,122.0,22.26146125793457,22.90906143188477,-79.78276821719594,40.45907895342181,302.2194609375,-0.0048879710957407,-0.0032243500463664,-0.8397644162178041,0.5429193973541261,-0.029385975528413,-0.0158000508798192,3.0672244034568035,0.1923369318246841,0.102746807038784,0.0551923029124736,-0.0733673171326518,-0.0943148484360426,-9.83529856324196,14967.0
33.7,3.2000000476837163,125.0,22.20261573791504,22.821590423583984,-79.78276814491255,40.459079299567776,302.822602722168,0.0032302271574735,0.0043147564865648,-0.8396332263946533,0.5431270599365234,-0.110128395373609,-0.0221633278312043,3.027204885162428,0.1478690505027771,-0.0477072224020958,0.1393407732248306,-0.0725793865509331,-0.2654059772752225,-9.715064606666566,14967.0
33.8,3.2000000476837163,125.0,22.30778694152832,22.225208282470703,-79.78276811401513,40.45907940063915,303.12534091186524,0.0051342356018722,0.0067100594751536,-0.8390373587608337,0.5440082550048828,-0.1383960957742913,-0.0386325296091218,3.02488933030637,0.1276118755340576,0.0487310476601123,0.044422972947359,-0.1510232928581535,-0.0819872824475169,-9.76576055109501,14968.0
33.9,3.2000000476837163,127.0,22.22264862060547,23.75990104675293,-79.78276809020153,40.45907950112223,303.427525970459,0.0060244589112699,0.0068541103973984,-0.838181734085083,0.5453147888183594,-0.1568502286846463,-0.0486630729564869,3.011728801708077,0.0029197516851127,0.0088819339871406,-0.108100526034832,-0.0338630393939092,-0.2403056894615293,-9.637651564478873,14968.0
34.1,3.0999999046325684,129.0,22.237672805786133,23.131710052490234,-79.7827679244801,40.459079775836095,304.0232100219726,0.0045206462964415,0.0027166767977178,-0.8362627029418945,0.5483037233352661,-0.1372470309928357,-0.0263041256364202,2.97551038449878,-0.0031493452843278,0.0456978268921375,0.0191168058663606,-0.0780721878446638,-0.1229082354716956,-9.664288555383685,14969.0
34.3,3.0999999046325684,132.0,22.126239776611328,25.42977333068848,-79.78276791256451,40.45908008618388,304.6207327575684,0.0066682565957307,0.0017266029026359,-0.8342395424842834,0.5513593554496765,-0.1134545941983643,-0.038457314796465,3.009482502886492,-0.007491469848901,-0.0090567730367183,-0.1256621778011322,-0.124983677258715,0.1982915081083774,-9.893518120050429,14969.0
34.41,3.0999999046325684,134.0,22.206371307373047,24.10977935791016,-79.78276792483109,40.4590801606047,304.9225592346192,0.0083365738391876,0.0026881392113864,-0.834334671497345,0.5511887669563293,-0.0977620865371946,-0.0327643812213804,3.0291643167691458,0.1491126716136932,0.1542521864175796,-0.0345496647059917,0.0363429623236879,-0.0528149388357997,-9.984249365329743,14969.0
34.5,3.0999999046325684,138.0,22.18759155273437,23.65652656555176,-79.7827680071682,40.45908046729495,305.53144976806635,0.0043529365211725,0.0077964011579751,-0.8348867297172546,0.5503494143486023,-0.1201127159564336,-0.0673791732448883,3.0785200066399576,-0.105829656124115,-0.0343916453421115,0.0071759587153792,-0.1554799492657184,-0.0280310424906201,-9.9886043715477,14970.0
34.7,3.0999999046325684,135.0,22.1888427734375,23.37821578979492,-79.78276821383938,40.45908090982844,305.8397803039552,0.0012668704148381,0.0085174348205327,-0.8349313139915466,0.5502868890762329,-0.1403556463252298,-0.127256951740038,3.080727907696203,-0.0498893857002258,-0.0622927695512771,0.1002342402935028,-0.0582342844828963,-0.2620284610614181,-9.935434470176697,14970.0
34.9,3.0,135.0,22.18132972717285,23.5849609375,-79.78276833826638,40.45908114015691,306.45754763793946,0.0039080609567463,0.00843046605587,-0.8337993621826172,0.5519894361495972,-0.129989924688602,-0.1401214148118522,3.0851476928624404,0.0744754374027252,0.1243254989385604,0.0490363724529743,0.0376283356407657,-0.3629330210387707,-9.856221070289614,14971.0
35.0,3.0999999046325684,137.0,22.192598342895508,23.64062309265137,-79.7827682863947,40.45908116730023,306.7531256408692,0.0062706577591598,0.0063709872774779,-0.8331384658813477,0.5529922842979431,-0.1307230719318295,-0.0840388182993218,3.075722848043453,-0.0835420563817024,-0.0580012500286102,-0.055604837834835,-0.0668120128009468,-0.0450053747696802,-9.80433404803276,14971.0
35.11,3.0999999046325684,141.0,22.08993148803711,25.47748374938965,-79.7827683126689,40.45908139414292,307.36373278808594,0.0049173533916473,0.0041436660103499,-0.8329155445098877,0.5533627867698669,-0.1164700242887794,-0.0518148695794132,3.1021026573805552,-0.1161024719476699,-0.1200025901198387,-0.0245933178812265,0.0392275582579895,-0.2300893611833453,-10.03517627477646,14972.0
35.31,3.0999999046325684,142.0,22.19510269165039,23.1873722076416,-79.78276832823529,40.45908146622236,307.6751303405762,0.0042208125814795,0.0039685876108706,-0.8330987691879272,0.5530940294265747,-0.1272762066730025,-0.0382819538559058,3.1220802817831377,-0.0776352733373642,-0.0596678107976913,-0.1171690821647644,0.0196414848812855,0.0340135640837252,-9.941767004728318,14972.0
35.4,3.0999999046325684,146.0,22.273983001708984,22.47171401977539,-79.7827683309784,40.45908154406883,307.9877600402832,0.0035112528130412,0.0045758578926324,-0.8331538438796997,0.5530113577842712,-0.0995913777188326,-0.0399440721084552,3.1297049181754097,0.1715349704027176,0.1593203693628311,0.0029834208544343,0.0217286028270609,-0.1742888340353965,-9.898492931127551,14972.0
35.6,3.0,147.0,22.2276554107666,22.2331600189209,-79.78276844166398,40.45908189854758,308.6088995666504,0.0102395396679639,0.0048832674510777,-0.8331903219223022,0.5528700947761536,-0.1365136977798519,-0.046185772983114,3.1303533748114174,0.0637553334236145,0.0710462406277656,-0.0406464748084545,-0.0660541679710149,0.0630711743608117,-9.723289300203325,14973.0
35.8,3.0,142.0,22.218891143798828,22.86134910583496,-79.7827684234792,40.45908207701562,309.2212614746094,0.0130226844921708,0.0033417425584048,-0.8340609073638916,0.5515086054801941,-0.1375512231078774,-0.0005869805516577,3.075703832245956,-0.099015936255455,-0.0719308704137802,-0.0920184031128883,0.0696126646455377,0.0918684830423444,-9.57087811589241,14974.0
35.9,3.0,144.0,22.453025817871094,17.239446640014652,-79.78276843351657,40.459082123451466,309.5280852050781,0.0117575945332646,0.0037765342276543,-0.8348796367645264,0.5502941608428955,-0.1053450701871468,-0.0095599989210989,3.0613046710050087,0.0835159048438072,0.0587781220674514,0.1947779208421707,-0.0121097617736086,-0.2879756632447243,-9.672224981188776,14974.0
36.1,2.900000095367432,143.0,22.463041305541992,18.360645294189453,-79.78276845116658,40.45908231180357,310.1316084594726,0.0021969124209135,0.0021368386223912,-0.8376236557960509,0.5462393164634705,-0.0661788232466181,-0.0278153822080419,2.9302109032593107,-0.0927836522459983,-0.0562574118375778,-0.0059508960694074,-0.0201674419292248,0.0242170293442904,-8.969986075758934,14975.0
36.2,3.0,144.0,22.475563049316406,17.167879104614258,-79.78276844744072,40.45908262017928,310.7161307067871,-0.0020250382367521,0.0034617476630955,-0.83961021900177,0.5431745052337646,-0.0148994187747038,-0.0601235631860453,2.7357051190731507,0.0688027366995811,0.0382509343326091,0.0850381553173065,-0.0690535383531823,0.0029195056390017,-8.820904880762098,14975.0
36.4,2.900000095367432,144.0,22.46053695678711,18.35269355773925,-79.7827684772303,40.45908265683735,310.9824309082031,-0.0001801402977434,0.0017979893600568,-0.8399927020072937,0.5425947904586792,-0.0344209247359931,-0.0604766249116219,2.5859074108979554,-0.0144170941784977,0.0770268067717552,-0.036573901772499,-0.0029769294080324,-0.0189052816014736,-8.418156852722168,14975.0
36.51,2.799999952316284,142.0,22.47180557250977,17.68474578857422,-79.7827685200716,40.4590828073172,311.2398810119629,0.0013551448937505,-0.0005988232442177,-0.8398598432540894,0.5428013801574707,-0.0456918654290915,-0.0390390045266759,2.466756386447268,-0.043912973254919,-0.0261589866131544,-0.0505236089229583,-0.0176080311276018,-0.057673559342511,-8.387897511720658,14976.0
36.7,2.799999952316284,139.0,22.50686264038086,17.024747848510742,-79.78276856798377,40.45908300369935,311.71190783691407,0.0045202123001217,-0.0009135534637607,-0.8386413455009459,0.5446645617485046,-0.0460833323409826,-0.0319735391862623,2.2079657304309395,0.0306905508041381,0.0735756978392601,-0.0538511723279953,-0.0272501217154786,0.0010957499407231,-8.415972332954407,14976.0
36.8,2.799999952316284,137.0,22.52689552307129,17.430288314819336,-79.78276859755691,40.459083055184045,311.9264616699219,0.0063054095953702,-0.0013546691043302,-0.8379231691360474,0.5457502007484436,-0.0631055766712204,-0.0345327961023206,2.083538770964329,-0.0423831790685653,-0.0348081961274147,-0.0228510610759258,-0.0439937562122941,-0.0262922427244484,-8.486502032876015,14976.0
36.9,2.799999952316284,136.0,22.431739807128903,20.141843795776367,-79.78276863616287,40.45908311049375,312.1285109252929,0.0062252185307443,-0.0011368267005309,-0.8372038006782532,0.5468544363975525,-0.0610616802633451,-0.0402765611999374,1.9600711741928545,0.0075019709765911,-0.0326750986278057,0.0041536069475114,-0.0167103579011745,0.0960519648436457,-8.716810408830643,14977.0
37.1,2.799999952316284,133.0,22.47180557250977,19.14787101745605,-79.78276871399322,40.45908331437778,312.5201010437012,0.0022819498553872,0.0028020285535603,-0.8352124691009521,0.549915611743927,-0.0514706006297822,-0.0645842108664882,1.8120443449734696,0.0332209691405296,-0.0519893169403076,-0.0786541923880577,-0.0912213515862822,-0.040621566446498,-8.95503825366497,14977.0
37.3,2.700000047683716,132.0,22.451772689819336,18.71052360534668,-79.78276881036216,40.4590834784207,312.89053103637696,-0.0019673707429319,0.0048435619100928,-0.8348475694656372,0.5504564642906189,-0.0458011387443029,-0.0857788760672596,1.6881640262430933,-0.0127414325252175,0.0025358330458402,0.0167147386819124,-0.1333441997878253,-0.0472279608249664,-9.061385073065756,14977.0
37.4,2.700000047683716,134.0,22.436748504638672,19.251245498657227,-79.78276887007274,40.45908353661393,313.05640170288086,-0.0031654920894652,0.0059455591253936,-0.8351746797561646,0.5499436259269714,-0.0365567899830301,-0.0869619172180193,1.6245408069088212,0.0562279298901557,-0.0027924641035497,0.054165631532669,-0.045769656104967,-0.1802438942715525,-9.116803228855131,14978.0
37.5,2.5999999046325684,134.0,22.292762756347656,21.70039176940918,-79.78276890120205,40.45908365745772,313.4036535949707,-0.0053638434037566,0.0092376563698053,-0.8357572555541992,0.5489952564239502,-0.0377006958725903,-0.0725349556610472,1.5321710322711557,0.0570800490677356,0.0337679088115692,0.0502165406942367,-0.0844743590801954,-0.1905548012629152,-9.263457244634628,14978.0
37.7,2.5999999046325684,132.0,22.448017120361328,18.91727066040039,-79.7827688501048,40.4590837224561,313.5873617858887,-0.0047199721448123,0.0082501331344246,-0.8358981013298035,0.5488024353981018,-0.0474809949664189,-0.057637781401598,1.5383081357470847,-0.0199613831937313,0.0574048832058906,-0.0076628997921943,-0.0734330069459974,-0.0549596427194774,-9.340686684250832,14978.0
37.91,2.5,131.0,22.525644302368164,17.95510482788086,-79.78276883754006,40.45908382023387,313.88134906005865,-0.0036679694894701,0.0044344421476125,-0.8358239531517029,0.5489674806594849,-0.0595327662556313,-0.0301334238341541,1.3992808986499714,-0.0323676578700542,0.0769341588020324,-0.0475428812205791,-0.0372470606351271,-0.0764396863477304,-9.182968567013742,14978.0
38.0,2.5,129.0,23.139148712158203,3.419262886047364,-79.78276875059676,40.45908395158758,314.0402006835937,-0.0033835526555776,0.0031845921184867,-0.8358014822006226,0.5490122437477112,-0.0668441208648489,-0.0149822295856379,1.3606621526140337,-0.0383098237216472,-0.0009561116457916,0.018288342282176,-0.1085927988868206,-0.1622362607717514,-9.108366281390191,14979.0
38.2,2.400000095367432,129.0,22.52814865112305,17.493902206420902,-79.78276869630211,40.45908417227676,314.2754454345703,0.0009036887204274,0.0025383690372109,-0.8287078142166138,0.5596750378608704,-0.1013812132753586,-0.0164950920712858,0.9265225316807258,0.0098289782181382,0.03805423527956,-0.6219443082809448,-0.0993542438372969,-0.2361100564152002,-7.337401950359345,14979.0
38.3,2.400000095367432,129.0,22.519384384155277,17.470046997070312,-79.78276866012477,40.45908427245925,314.3572935791016,0.0021397280506789,0.0025050048716366,-0.8058932423591614,0.5920517444610596,-0.1286255911128642,-0.0200599605678308,0.7217186226238727,-0.0197241846472024,-0.0257830284535884,-0.9417740702629088,-0.1518729115650058,-0.2302738225646317,-7.698357004523277,14979.0
38.4,2.299999952316284,131.0,22.483074188232425,18.479923248291016,-79.7827686279171,40.45908438726117,314.4216742248535,0.0025280378758907,0.0037844481412321,-0.7740893363952637,0.6330599784851074,-0.1410617520268912,-0.0184543985852991,0.5712443578992058,-0.0200716834515333,-0.0484867170453071,-1.1303006410598757,-0.1426266089547425,-0.2334093371406197,-8.173299434781075,14979.0
38.6,2.299999952316284,132.0,22.455530166625977,18.662813186645508,-79.78276839400056,40.45908534526856,314.40248629760737,0.0044487826526165,0.006357155740261,-0.6644204258918762,0.7473187446594238,-0.1557319919347587,0.0093954391408273,0.2923717621895541,0.0682477876543998,0.0476789325475692,-0.9243294000625608,-0.0619327762909233,-0.1001751655060798,-9.165965448617936,14979.0
38.8,2.200000047683716,119.0,22.395431518554688,20.277023315429688,-79.78276838348745,40.459085478367854,314.4293074340821,0.0067046149633824,0.0089428024366498,-0.6316565871238708,0.7751678228378296,-0.1552920590639954,0.0283305760880112,0.2394445556180922,-0.0083868503570556,-0.1104446500539779,-0.7996474504470825,-0.0128971418947912,-0.0362607609783299,-9.26699130177498,14979.0
38.9,2.200000047683716,113.0,22.07615852355957,24.53122329711914,-79.78276836468885,40.45908560342205,314.4514136047364,0.0077675003558397,0.0116769969463348,-0.6064099073410034,0.795028567314148,-0.1140127463735534,0.0440706688948597,0.1990323929481828,0.1615071892738342,0.0855557322502136,-0.5013467073440552,0.0560407654847949,-0.1319556505233049,-9.440328501462934,14979.0
39.1,2.200000047683716,117.0,22.41170692443848,19.18762969970703,-79.78276808240021,40.459086156246464,314.40701434326166,-0.0003286487481091,0.0232537426054477,-0.5783833861351013,0.8154336214065552,-0.0980694991891859,0.1430064486775491,0.1869964285603701,0.0283207856118679,-0.4890676736831665,-0.2172208428382873,0.4478598815202713,0.0335238917497918,-9.728337201476098,14979.0
39.2,2.299999952316284,121.0,22.31404685974121,22.12978744506836,-79.78276760310574,40.45908627320404,314.4189161987305,-0.0197641029953956,0.043601144105196,-0.5732331275939941,0.8179927468299866,-0.0524787960940383,0.2212602849824723,0.1922307017142568,0.12653748691082,-0.6083800196647644,-0.195385217666626,0.2228739518858492,0.1977024924941361,-9.582905838489534,14979.0
39.4,2.299999952316284,111.0,22.28900718688965,22.50352096557617,-79.78276686556897,40.459086503840616,314.4549154968262,-0.0598410218954086,0.0781101509928703,-0.5746512413024902,0.8124616742134094,-0.0068269630530236,0.446420334414693,0.2659555959237538,-0.163076102733612,-0.4062269628047943,0.0627359002828598,-0.0556988952308893,-0.2025663343816996,-10.187063548564913,14979.0
39.5,2.400000095367432,104.0,22.26897430419922,21.30280303955078,-79.78276532321121,40.459086816063866,314.52196643066407,-0.0797686353325843,0.085167221724987,-0.5822464227676392,0.8045946955680847,0.0489642029552606,0.7735490058424748,0.4981273822298909,-0.0728693529963493,-0.145137146115303,0.296861469745636,-0.1817621238157153,-0.0731686579808592,-10.2521793115139,14979.0
39.7,2.5999999046325684,108.0,22.23892402648925,22.26496696472168,-79.78276500222752,40.45908734574496,314.4526037902832,-0.0860048532485961,0.083341896533966,-0.5866677165031433,0.8009234666824341,0.0178828686918957,0.9272662731340904,0.554335000626404,-0.2359528094530105,-0.13963483273983,-0.1468437761068344,-0.20019839476794,0.188990999981761,-10.31961408019066,14979.0
39.8,2.700000047683716,109.0,22.3741455078125,20.45991516113281,-79.7827636986532,40.459087625068605,314.4868063659668,-0.0935590118169784,0.0821432769298553,-0.5900320410728455,0.7977226972579956,0.0335104953838117,1.1450843355327105,0.6449255169242398,0.0193507894873619,0.097888097167015,0.1170052960515022,-0.0560543328523635,-0.3230345450341702,-10.412244501113893,14979.0
40.0,2.799999952316284,109.0,22.339088439941406,20.69051551818848,-79.7827608192728,40.45908879500511,314.45516345214844,-0.1055627539753914,0.0827387049794197,-0.5935887098312378,0.7935132384300232,-0.0532824889375128,1.555454286124513,0.7632042303529898,-0.0369878970086574,-0.1323224902153015,-0.0059458399191498,-0.321599017046392,-0.0123561533913016,-10.147667348384855,14979.0
40.11,2.900000095367432,108.0,22.310291290283203,20.49967384338379,-79.78275878168772,40.45908930418594,314.48803088378907,-0.1072544679045677,0.0862367823719978,-0.5950362682342529,0.7918280363082886,-0.0550535549306957,1.7784971409337968,0.8248873865062449,0.1503673940896988,-0.0080193048343062,0.0690566599369049,-0.2593824497982859,-0.1824645936861634,-9.995403513908386,14979.0
40.3,3.2000000476837163,104.0,22.34284400939941,20.086181640625,-79.78275416770856,40.4590908991895,314.4824652404785,-0.1049974262714386,0.0926081016659736,-0.5964787006378174,0.7903242707252502,-0.1342375954585448,2.2148052881634945,0.9408217504576908,0.1173471733927726,0.0430365167558193,0.0559767931699752,-0.2951061782799661,-0.2665459102392197,-9.993250569105149,14979.0
40.4,3.400000095367432,102.0,22.304031372070312,20.68256378173828,-79.78274841370519,40.45909293934168,314.47781512451166,-0.10859215259552,0.1024195402860641,-0.5960173606872559,0.7889748215675354,-0.1833896962018151,2.6719870208204792,0.9874003238646484,0.1440769582986831,-0.1082438305020332,-0.0191273782402277,-0.2815964240580797,0.1408584292139858,-9.814793547391892,14979.0
40.6,3.700000047683716,95.0,22.24768829345703,23.083999633789062,-79.7827451119517,40.45909381736197,314.496373626709,-0.1147116646170616,0.1093552708625793,-0.5957289338111877,0.7873942255973816,-0.198174502648254,2.8992984276611486,1.052883903197662,-0.034580610692501,-0.1904865950345993,0.0480874292552471,-0.4446346670016647,-0.1125646571628749,-9.791365508437158,14979.0
40.7,3.900000095367432,91.0,22.22139549255371,21.692440032958984,-79.7827420011006,40.45909540189424,314.46537921142584,-0.1211941763758659,0.1129084229469299,-0.5944322943687439,0.7869015336036682,-0.2508790843157744,3.0762960332281004,1.114633610634265,0.0429500676691532,-0.1832751631736755,0.2553526163101196,-0.5552866085618735,-0.5978454945981503,-9.856649086475374,14979.0
40.9,4.300000190734863,85.0,22.26897430419922,21.19147682189941,-79.78273412081906,40.45909752856279,314.48310992431635,-0.1327910274267196,0.1199161857366562,-0.5926142930984497,0.7853629589080809,-0.2381095514556653,3.559130892073493,1.3412852629728258,0.1671633422374725,0.0068329158239066,0.086184523999691,-0.7222515126317741,-0.4680805399641395,-10.032654955387116,14979.0
41.01,4.5,83.0,22.192598342895508,23.34640884399414,-79.78272495992606,40.45910068649046,314.46017977905274,-0.1343283504247665,0.1301845014095306,-0.5918043255805969,0.7840762734413147,-0.2789708663301053,4.0598361172309785,1.5322812538799946,-0.0040048668161034,-0.1299990266561508,-0.0635732412338256,-0.8283136457204819,-0.1022311196196824,-9.747875672578813,14979.0
41.1,5.0,75.0,22.190093994140625,24.181344985961918,-79.78271986918716,40.459102697874,314.43632647705084,-0.1342254877090454,0.1320512294769287,-0.5906279683113098,0.7846685647964478,-0.3364079241416855,4.3100363862557725,1.6401023249838984,0.0298318434506654,0.07807607203722,0.0223132092505693,-0.8704451733827592,-0.2171548450738192,-9.91250987648964,14979.0
41.3,5.199999809265137,73.0,22.21138000488281,22.28087043762207,-79.78271457374716,40.4591041175539,314.43301150512696,-0.1330403387546539,0.1307940334081649,-0.5904621481895447,0.7852054834365845,-0.2925415995887612,4.5610497822699125,1.7493717119576648,0.0460914708673954,0.1235597133636474,-0.0252528022974729,-0.9899931784719228,-0.2417576810158789,-10.074532713890076,14979.0
41.5,5.800000190734862,69.0,22.217639923095703,22.535327911376957,-79.78270300033913,40.459108117583455,314.4103522033692,-0.1275787204504013,0.1283567100763321,-0.5893658399581909,0.7873349189758301,-0.3383651859251844,5.067269127743524,1.8924259727045256,-0.0933517590165138,0.0663700550794601,0.0074489274993538,-1.1654326714575292,-0.309905499368906,-10.033300487995149,14979.0
41.6,6.099999904632568,68.0,22.20762252807617,22.304725646972656,-79.78269682322059,40.45910973248824,314.40842959594727,-0.1260758340358734,0.1248167902231216,-0.5898396968841553,0.7877911329269409,-0.2869473513857004,5.293178707523498,1.973129007306314,-0.0653006583452224,-0.0638297945261001,0.1533857733011245,-1.2388500188291074,-0.5992504343390465,-10.244123017787931,14979.0
41.8,6.800000190734862,66.0,22.26772117614746,21.39027214050293,-79.78268376472913,40.45911447712747,314.3884710998535,-0.1282513588666916,0.1246361508965492,-0.5863795280456543,0.7900484204292297,-0.2912720393982021,5.732367264730321,2.0788545414906303,0.0213661789894104,-0.1895610243082046,0.0119878686964511,-1.3957515724003315,-0.4195426931977273,-9.91466983795166,14979.0
41.9,7.099999904632568,66.0,22.32155990600586,19.903289794921875,-79.78267053841559,40.45912003981061,314.3672423095703,-0.1288293898105621,0.1285741925239563,-0.5812311768531799,0.7931216359138489,-0.4116647756107198,6.070251837478365,2.20716392975217,-0.0874634832143783,-0.0472350344061851,0.0004376355500426,-1.493399781435728,0.0721495613828301,-9.741984602808952,14979.0
42.1,7.699999809265138,65.0,22.324064254760746,19.99871063232422,-79.78266325276195,40.45912203686887,314.35783526611334,-0.1292107999324798,0.1312194317579269,-0.5798695087432861,0.7936230301856995,-0.2963422003589654,6.268410872556684,2.227959404919853,0.1435684263706207,-0.0078996727243065,0.0381499789655208,-1.437750368267298,-0.3218568061664701,-9.480878942012788,14979.0
42.2,8.0,64.0,22.29526710510254,21.636775970458984,-79.78265582222322,40.45912545236602,314.33036181640625,-0.1303583979606628,0.1333623081445694,-0.5758826732635498,0.7959776520729065,-0.3604630450154021,6.4492292379113865,2.266121378266184,0.2271947264671325,0.0181732550263404,0.0237993318587541,-1.7533395074307918,-0.4004609627276659,-9.370554261803626,14979.0
42.4,8.600000381469728,61.0,22.21513557434082,22.074125289916992,-79.7826402421959,40.45912978513628,314.2855887145996,-0.1317057460546493,0.1358772963285446,-0.5753500461578369,0.7957155704498291,-0.2715505320872616,6.82123953289704,2.343485267686873,-0.1580638438463211,-0.1759586185216903,-0.2130603939294815,-1.6568282894790174,-0.0633415715396404,-9.18157751441002,14979.0
42.5,8.899999618530273,59.0,22.15253257751465,24.133634567260746,-79.78263220000504,40.45913363012559,314.24985263061524,-0.1335144490003585,0.1355414688587188,-0.5714905858039856,0.7982487082481384,-0.3419670915349549,7.007077870093203,2.41003635551763,0.0370445661246776,-0.0409478656947612,0.0442783460021019,-1.6564502669870855,-0.2919763464666903,-9.45137096822262,14979.0
42.7,9.5,58.0,22.160045623779297,22.821590423583984,-79.78261533025756,40.45914019964489,314.1890196533203,-0.1362093240022659,0.1319608986377716,-0.5660355687141418,0.8022700548171997,-0.3319718683234725,7.373045986642883,2.563237560503082,0.0188274122774601,0.1217238381505012,-0.118046149611473,-1.7948208247125148,-0.0570389308780431,-9.659987928271292,14979.0
42.8,9.800000190734863,58.0,22.1062068939209,26.00230026245117,-79.7825977159023,40.459145302776825,314.12387606811524,-0.134264275431633,0.1286796182394027,-0.5663855671882629,0.8028836846351624,-0.2090268103972159,7.710624409799252,2.674740037004473,-0.0082162721082568,0.1037239506840706,0.1071631833910942,-1.7596767197549343,-0.652517545670271,-9.904887446165086,14979.0
43.0,10.199999809265137,57.0,22.02231979370117,24.78567886352539,-79.7825884472253,40.45914998247135,314.09524295043946,-0.1343456506729126,0.1263183206319809,-0.5638504028320312,0.8050265312194824,-0.34004104665707,7.911060503251027,2.760512900300345,-0.0852290540933609,0.1490919589996338,-0.1117270961403846,-1.9613906031847,-0.3298236009478569,-10.093143231868744,14979.0
43.1,10.5,58.0,22.18508720397949,22.89315795898437,-79.78257915381234,40.45915276570664,314.0694365234375,-0.136660560965538,0.1243692263960838,-0.5645326972007751,0.8044619560241699,-0.270343107851328,8.065063966631518,2.8338947873910967,0.000136137517984,0.0129539780318737,0.3188039660453796,-1.9529347984492784,-0.540855863057077,-10.114376810789109,14979.0
43.2,10.899999618530272,58.0,22.143768310546875,21.756053924560547,-79.7825696712595,40.45915558642985,314.0455221862793,-0.137946605682373,0.1267270296812057,-0.5655648112297058,0.8031485080718994,-0.2670322362111203,8.215333878363651,2.9087250614735134,0.00552199780941,0.0499422140419483,-0.3023896217346191,-1.9343307124078275,0.0792038616165518,-9.7855416816473,14979.0
43.41,11.100000381469728,58.0,22.12123107910156,22.20135307312012,-79.7825393976282,40.45916777471817,313.91618869018555,-0.1453677266836166,0.1377007961273193,-0.5604985952377319,0.8035845160484314,-0.4468678197956968,8.650999944093606,3.2294026685106774,0.0614692345261573,-0.156760111451149,0.3533275723457336,-2.3513506244122984,-0.2620580991357565,-9.475895360112188,14978.0
43.5,11.399999618530272,57.0,22.138761520385746,25.024232864379893,-79.7825292175783,40.459170931750506,313.8854460449219,-0.1490626782178878,0.1412444710731506,-0.5612406134605408,0.8017725944519043,-0.3865247898967629,8.787473584217413,3.3300975240197634,0.0324103385210037,-0.0570376887917518,-0.0132199637591838,-2.286106953620912,-0.5445856922864915,-9.369843240380288,14978.0
43.7,11.600000381469728,55.0,21.93968391418457,27.07579040527344,-79.78251814716981,40.45917534590347,313.83605334472657,-0.1553249806165695,0.1369710117578506,-0.559054434299469,0.8028519749641418,-0.4998419430412165,8.935521016678852,3.505843057668192,-0.1834966540336609,-0.0356774926185607,-0.152866244316101,-2.436828584969044,-0.551226557828486,-9.663439539670945,14978.0
43.9,12.0,55.0,22.05362129211425,23.60086441040039,-79.78249678836805,40.45918206488062,313.7785734863281,-0.1728167086839676,0.1242037490010261,-0.557320773601532,0.8025593161582947,-0.3868991828480301,9.207925302482751,3.8033730526813896,-0.0202742479741573,0.0151635780930519,-0.1832045912742614,-2.4888758209347728,0.0586342705786228,-9.71291633963585,14978.0
44.0,12.100000381469728,55.0,21.984758377075195,26.39988899230957,-79.78248540415053,40.459186447265466,313.7267508239746,-0.1800263375043869,0.1214740946888923,-0.5545652508735657,0.8033007383346558,-0.4644575593932226,9.35500000528838,3.9182228534759584,-0.1389289051294326,-0.0392208285629749,0.1307635456323623,-2.56704636991024,-0.2469413655996323,-9.441096240878103,14978.0
44.2,12.399999618530272,56.0,21.948448181152344,26.29651641845703,-79.78246265696593,40.45919505936958,313.642858001709,-0.1702984869480133,0.113622635602951,-0.5524564981460571,0.8080099821090698,-0.5122752066735949,9.613380075579444,4.125149705644152,0.2242835611104964,0.5507655739784241,-0.1704053580760955,-2.8664004224538804,0.0618268503248691,-9.50369945526123,14978.0
44.31,12.5,56.0,22.017311096191406,25.127605438232425,-79.78245130762609,40.45919890395525,313.60937258911133,-0.1419572979211807,0.1080532670021057,-0.5553290247917175,0.8122699856758118,-0.4922256023651359,9.804178665590584,3.9685865428549048,0.215349942445755,0.657336950302124,-0.0669213682413101,-2.9623526465892787,-0.1202364781871438,-10.016413729190829,14978.0
44.4,12.800000190734863,55.0,21.98726272583008,25.708086013793945,-79.78243985151697,40.45920279622314,313.5849661560058,-0.1119311228394508,0.0983154103159904,-0.5577776432037354,0.8165106773376465,-0.5311976837538053,10.053794539077453,3.560170770291043,0.0764237642288208,0.6075761914253235,-0.1304382681846618,-2.6783425650000567,-0.3430534745380282,-10.568987302780153,14978.0
44.61,13.0,55.0,22.2276554107666,21.65267944335937,-79.78241600290882,40.45921129026394,313.54850909423834,-0.0785117745399475,0.0809935331344604,-0.5596688985824585,0.8210034966468811,-0.5508812920797348,10.348180089331573,2.7572524460866275,0.0281930565834045,0.2487585693597793,-0.0199329443275928,-2.7104817858338364,-0.1170058184489607,-10.96767268538475,14978.0
44.81,13.100000381469728,63.0,22.08993148803711,23.78375625610352,-79.78239204717161,40.45921926886089,313.56431338500977,-0.0624435357749462,0.0821810290217399,-0.562094509601593,0.8206075429916382,-0.5160370609096843,10.379943142496124,2.382839793542046,0.2724351584911346,0.0569746233522892,0.0303333662450313,-2.565335474610329,-0.3359905862063169,-10.231083726882934,14978.0
44.9,13.199999809265137,65.0,22.32155990600586,18.495826721191406,-79.78238056580936,40.45922311085289,313.59326312255865,-0.0590835250914096,0.0864689797163009,-0.5637402534484863,0.8192858695983887,-0.5200319790569651,10.319885970646254,2.3575702001224537,0.2104289382696152,0.2085215896368026,0.1544850915670395,-2.6566388699412347,-0.2331943423300981,-10.258973776102067,14978.0
45.1,13.399999618530272,65.0,22.324064254760746,19.33076286315918,-79.78235696966513,40.45923091630976,313.6454786987305,-0.0383035168051719,0.0652039647102356,-0.5653085708618164,0.8214059472084045,-0.4990780465897647,10.173201194254686,2.2120233482575142,0.0451098531484603,0.2850460410118103,0.2857521474361419,-2.8067629158496863,-0.6363027781248093,-9.930804644823075,14978.0
45.21,13.399999618530272,65.0,22.473058700561523,17.756311416625977,-79.7823334847876,40.45923847476721,313.6973547668457,-0.0065379855223,0.0380147360265255,-0.565489649772644,0.8238528966903687,-0.3662515484895305,10.078163648852463,1.3955924333282148,-0.0061808167956769,0.4267047941684723,-0.0852890461683273,-2.8048771888017656,-0.0462101615779101,-9.869627566337586,14978.0
45.41,13.399999618530272,72.0,22.47430992126465,16.754386901855472,-79.78232253756404,40.45924198969967,313.7431196899413,0.007901968434453,0.0279942490160465,-0.5654205083847046,0.8242896795272827,-0.3381808387345226,9.9342572091577,0.9858424176908844,-0.1775218546390533,0.2899515926837921,-0.0808653011918068,-2.0930418330430984,-0.1176455769315362,-10.022545119524002,14978.0
45.5,13.399999618530272,80.0,22.52313995361328,17.501853942871097,-79.78231078111575,40.45924582421985,313.75634143066407,0.0186647828668356,0.0162808038294315,-0.5646088719367981,0.82498699426651,-0.3124390136567994,9.806487025716631,0.6386642596526133,-0.2219822853803634,0.3562786579132079,-0.1427339911460876,-2.1219789724051954,0.0287537195160985,-10.181498168706897,14978.0
45.61,13.199999809265137,80.0,22.53065299987793,16.094390869140625,-79.78228865091273,40.459252867723,313.8221640319824,0.0285420380532741,-0.0051997294649481,-0.5605822801589966,0.8275904655456543,-0.2002552350892184,9.414411207258793,0.1318801113844453,-0.0560654774308204,0.4066874980926513,-0.2286424636840821,-1.802679921090604,0.2216679453849792,-10.265811510086062,14978.0
45.8,13.100000381469728,80.0,22.49684715270996,15.704753875732422,-79.78227854821883,40.45925609651057,313.87111422729487,0.0263554640114307,-0.0105591984465718,-0.5582408905029297,0.8291929364204407,-0.1831569746677381,9.18805883675576,-0.0070251592046186,-0.2849797010421753,-0.2192686349153518,-0.1525365263223648,-2.061426815092564,0.0702234154567122,-9.884928560256958,14978.0
45.9,12.800000190734863,90.0,22.56320571899414,14.79029941558838,-79.78226870826549,40.459259267413,313.91948458862305,0.02089149877429,-0.0131820701062679,-0.5560315251350403,0.8307941555976868,-0.1318924902021806,8.961323063217614,-0.0075508407675488,0.0464497543871402,-0.1133409589529037,0.0890823826193809,-1.8750874543190004,-0.3810108576714993,-9.860514096021651,14978.0
46.1,12.600000381469728,88.0,22.473058700561523,16.444269180297848,-79.78224818841655,40.459265752711175,313.9992651672364,0.0156313478946685,-0.0124354092404246,-0.5522836446762085,0.8334170579910278,-0.0930408238978596,8.595701152416902,0.0592337335328399,-0.0855701640248298,-0.1014414131641388,0.255085825920105,-1.6936327113211156,-0.3965771690011025,-9.721969583630562,14978.0
46.3,12.199999809265137,89.0,22.56946563720703,15.927403450012209,-79.78222855816162,40.459271672710415,314.1195959777832,0.0098784314468503,-0.0122096296399831,-0.5512284636497498,0.8342065811157227,-0.0384192102948247,8.269864997318006,0.0775259348748174,-0.0701803267002105,-0.0288578458130359,-0.1771485358476638,-1.4964485196769242,-0.0710960758477449,-9.547820205688476,14979.0
46.4,12.0,89.0,22.50436019897461,17.724504470825195,-79.7822197317968,40.45927462359785,314.15567156982416,0.0027651553973555,-0.0084059173241257,-0.5523611307144165,0.8335580229759216,-0.1104670437342471,8.098238047352847,0.0892558235481917,-0.0148220397531986,-0.3853451907634735,0.2719881236553192,-1.7027660621702672,-0.5780806997045875,-9.356954807639124,14979.0
46.5,11.5,87.0,22.446765899658203,16.229570388793945,-79.78220145940958,40.45928006078021,314.2675490112305,-0.0233191885054111,0.0011660465970635,-0.5560562610626221,0.8308167457580566,-0.1750461459208703,7.845170196593343,0.3481230421441699,-0.1510020345449447,-0.1021977737545967,-0.3189589977264404,-1.5463634222745897,0.0467586121335625,-9.294598345756532,14979.0
46.71,11.300000190734863,84.0,22.49559593200684,16.658966064453125,-79.78218376962099,40.45928524311344,314.383954498291,-0.0381485410034656,0.0100492043420672,-0.5603436231613159,0.8273202776908875,-0.2747200658636076,7.655310703227235,0.5653420797743969,0.1613974124193191,-0.1771538108587265,0.2960698306560516,-1.6326602853834633,-0.310662786886096,-9.154490287899971,14979.0
46.9,11.0,84.0,22.513124465942383,17.024747848510742,-79.78217556610689,40.45928810715601,314.3927321166992,-0.0492981821298599,0.0180613826960325,-0.5622544884681702,0.8252959251403809,-0.3858568066259293,7.577194843408523,0.6216717628725915,0.1265469044446945,-0.3208368122577667,0.4035050570964813,-1.5806418469548231,-0.7522676825523377,-8.904535267353056,14979.0
47.0,10.800000190734863,84.0,22.45427703857422,17.565467834472653,-79.78216641295792,40.45929026221747,314.5016112060547,-0.0626888200640678,0.0257189851254224,-0.5617680549621582,0.824515163898468,-0.4043579389002924,7.5407441424900785,0.7953368445857208,0.0395962297916412,-0.2645540237426758,0.4662200510501862,-1.4094296716153625,-0.7276048578321934,-8.954071124196053,14979.0
47.2,10.5,78.0,22.402942657470703,18.980884552001957,-79.78214951732764,40.45929524926998,314.60753771972657,-0.0896274000406265,0.0416167788207531,-0.5585476160049438,0.8235652446746826,-0.4230514462499853,7.476953079408813,1.1929113370828317,0.1118762493133544,-0.3282668590545654,0.0705257803201675,-1.690481354445219,-0.391509460285306,-8.974025332331658,14979.0
