time,wind_speed,wind_angle,battery_voltage,battery_current,position_x,position_y,position_z,orientation_x,orientation_y,orientation_z,orientation_w,velocity_x,velocity_y,velocity_z,angular_x,angular_y,angular_z,linear_acceleration_x,linear_acceleration_y,linear_acceleration_z,node_ids
0.0,1.2000000476837158,103.0,24.008071899414062,-0.0636141896247863,-79.78280020301024,40.45904145802224,276.77791659355165,0.0061976918950676,0.0050222841091454,-0.8677902817726135,0.4968666732311249,-0.0142244994774318,-0.0076734144652115,0.0138952007883525,0.0048683225177228,0.0037804655730724,0.0052486783824861,-0.0287153014820069,-0.1874870961159468,-9.81009472489357,14941.0
0.2,1.2000000476837158,103.0,24.006820678710927,-0.055662415921688,-79.78280017849637,40.45904150361107,276.7897806596756,0.0062195477075874,0.0050518475472927,-0.8678030967712402,0.4968436062335968,-0.0126720125377578,-0.0052951718555185,0.0112842990475156,-7.986547279870138e-05,0.0022335830144584,0.0008472954505123,-0.0312547289673239,-0.1696656598895788,-9.807387464046476,14941.0
0.31,1.2000000476837158,101.0,23.99930763244629,-0.0636141896247863,-79.78280021332061,40.459041560075896,276.8034323883057,0.0062337508425116,0.0050576701760292,-0.8678076267242432,0.4968356192111969,-0.0094395042897634,-0.01156254864678,0.0124324077521354,-0.0020127047318965,-0.0041717099957168,0.000322350882925,-0.0297275869874283,-0.1865428256057203,-9.808368042111397,14941.0
0.5,1.2000000476837158,101.0,24.00431632995605,-0.0636141896247863,-79.78280021992202,40.45904157243071,276.80470363616945,0.0062498762272298,0.0050527257844805,-0.8678159713745117,0.4968208074569702,-0.0111825663613054,-0.0124579747099977,0.0127277526231173,-0.004097459372133,0.0012033033417537,-0.0037153046578168,-0.0323961397237144,-0.1695677190274,-9.807234851717949,14941.0
0.6,1.2000000476837158,103.0,24.00556755065918,-0.055662415921688,-79.78280016509119,40.459041624685135,276.8203499746323,0.0062461220659315,0.0050803334452211,-0.8678115010261536,0.4968284666538239,-0.0130921932432075,-0.0063293223137216,0.0167237535070464,-0.0027811208274215,-0.0030492909718304,-0.0002141379954991,-0.0299347451585345,-0.1868985373154282,-9.808424760103229,14941.0
0.8,1.2000000476837158,104.0,24.006820678710927,-0.0636141896247863,-79.78280018287434,40.45904166746398,276.8312757444382,0.0062831281684339,0.005073978099972,-0.8678262829780579,0.4968021512031555,-0.0060331961157001,-0.0091863850358463,0.0158060561194171,0.0021938213612884,-6.414421659428625e-05,-0.0008627548813819,-0.0312967078643851,-0.1708823558315634,-9.807392141819,14941.0
0.9,1.2000000476837158,103.0,23.99930763244629,-0.0874695107340812,-79.78280019350798,40.45904168765132,276.83454684734346,0.0063137481920421,0.0050743389874696,-0.8678228855133057,0.4968076646327973,-0.0107640617827272,-0.0102863111643921,0.0166090227785542,-0.0066826627589762,-0.0028205490671098,-0.0084726689383387,-0.0281243078643456,-0.187476205676794,-9.80924103140831,14941.0
1.1,1.100000023841858,102.0,24.00181198120117,-0.055662415921688,-79.78280020517322,40.459041723981954,276.84520678043367,0.0063179042190313,0.0050939125940203,-0.8678291440010071,0.4967966079711914,-0.0034305157390175,-0.0122855885584877,0.0156036605078096,0.0015352515038102,0.0013532397570088,-0.0025858858134597,-0.0312570267403498,-0.1720557092875242,-9.80749212920666,14941.0
1.21,1.100000023841858,102.0,24.003063201904297,-0.055662415921688,-79.78280019292191,40.45904178450154,276.85717455863954,0.0063217179849743,0.0050939503125846,-0.8678290843963623,0.4967965483665466,-0.0053710143357942,-0.0119829743927506,0.0150273018243731,-0.0062237288802862,-0.0037728603929281,-0.0057174270041286,-0.0273448831541463,-0.1868116878904402,-9.808622980713844,14941.0
1.4,1.100000023841858,104.0,24.003063201904297,-0.0874695107340812,-79.7828002022513,40.45904179449885,276.858694357872,0.0063188406638801,0.0050995158962905,-0.8678367733955383,0.4967831671237946,-0.006597900698802,-0.013019274790631,0.0151475287916288,0.0024518705904483,0.0046077645383775,0.0006845712196081,-0.0315607050829567,-0.1738915888220072,-9.80746347784996,14941.0
1.51,1.100000023841858,103.0,23.998056411743164,-0.0636141896247863,-79.78280021127428,40.45904180584507,276.860241932869,0.0063347956165671,0.0051127327606081,-0.8678309917449951,0.4967928230762482,-0.0085256999805029,-0.0136585605279364,0.0154119090801883,0.0041298349387943,0.0016921148635447,0.0096400827169418,-0.0290267753507942,-0.1879928437247872,-9.808331204652788,14941.0
1.7,1.100000023841858,104.0,24.00556755065918,-0.0636141896247863,-79.78280018816166,40.45904182040599,276.8691685628891,0.0063830483704805,0.0051409266889095,-0.8678565025329591,0.4967474043369293,-0.0021930133021079,-0.0098609643990024,0.0112706849504842,0.0045876735821366,0.0032724530901759,-0.0010482158977538,-0.031906277812086,-0.1739117799885571,-9.807786244153975,14941.0
1.81,1.100000023841858,105.0,23.99555206298828,-0.0477106422185897,-79.78280017903606,40.459041878475226,276.8766209316254,0.0063937935046851,0.0051460182294249,-0.8678680658340454,0.4967269897460938,-0.0044230474450469,-0.0130303788313664,0.007692675977572,-0.0050476668402552,-0.0060588694177567,-0.0062120910733938,-0.0294250461109913,-0.1880943477340042,-9.809897673726082,14941.0
2.01,1.100000023841858,109.0,24.008071899414062,-0.055662415921688,-79.78280019007587,40.459041887467706,276.8774054479599,0.0064012371003627,0.0051646600477397,-0.8678784370422363,0.4967086315155029,-0.0055195799315376,-0.0139389589449718,0.0078756683667631,-0.0003858771524392,0.0004303857858758,-0.0003656643384601,-0.0317793932324275,-0.1718382294103503,-9.807791506648066,14941.0
2.11,1.100000023841858,108.0,24.003063201904297,-0.0636141896247863,-79.78280023299551,40.45904191033083,276.8809298706055,0.0064392248168587,0.0051846988499164,-0.8678838014602661,0.4966984987258911,0.0030900450533809,-0.0185555410951595,0.0006208413384314,-0.0026834472082555,-0.0039103487506508,-0.0010682496940717,-0.0280849670665338,-0.1867818122729659,-9.80922758281231,14941.0
2.3,1.100000023841858,107.0,24.00556755065918,-0.0715659633278846,-79.78280019356983,40.45904194565557,276.8845304679871,0.006455507595092,0.0051858364604413,-0.8678851127624512,0.4966960847377777,0.0058133672363006,-0.0171196847575573,-0.0049113144344485,0.0013727016048505,0.0012693776516243,-0.0012324349954724,-0.0310260206088423,-0.1684243142791092,-9.807407344579698,14941.0
2.4,1.2000000476837158,111.0,23.98678779602051,-0.0715659633278846,-79.7828002348493,40.45904195494703,276.88361351013185,0.0064751408062875,0.0051905186846852,-0.8678915500640869,0.4966845512390137,0.002107681611983,-0.0183918770328963,-0.0041650659969065,-0.0024140323512256,-0.0043349382467567,0.0017525299917906,-0.0297542443522252,-0.1866969911009072,-9.80931821465492,14941.0
2.6,1.2000000476837158,107.0,24.00556755065918,-0.0636141896247863,-79.78280016188819,40.45904200932008,276.88953892707826,0.0064749387092888,0.0051896381191909,-0.8678988218307495,0.4966718554496765,-0.0001416610716492,-0.0159315974256367,-0.0049481291850583,-0.0043071876280009,4.669554982683621e-05,-0.0051717632450163,-0.0338679935387335,-0.167543266788125,-9.806588734388349,14941.0
2.7,1.2000000476837158,107.0,24.00556755065918,-0.055662415921688,-79.78280010852323,40.45904206502378,276.8952073287964,0.006467867642641,0.0052072745747864,-0.8678985238075256,0.4966723024845123,-0.0026117302174676,-0.0150816587046067,-0.0051172252471552,-0.0012175160227343,-0.0014250676613301,0.0035149212926626,-0.0310456955758854,-0.1831508740782738,-9.808690223693848,14941.0
2.91,1.2000000476837158,105.0,23.994298934936523,-0.0954212844371795,-79.78280012236833,40.45904207471621,276.8947204780579,0.0064736902713775,0.0052003441378474,-0.867902934551239,0.4966644048690796,-0.0045679479083745,-0.0158806660546641,-0.0047732073031663,-0.0048232544213533,-0.0011702240444719,-0.0072850454598665,-0.0363683474622666,-0.1675113994628191,-9.806271815299988,14941.0
3.01,1.2000000476837158,103.0,24.00181198120117,-0.055662415921688,-79.78280013588734,40.45904208541508,276.89426438331606,0.0064713624306023,0.0052003609016537,-0.8678984642028809,0.4966723620891571,-0.0051930516320258,-0.0168214098647044,-0.0045941187432717,0.0074529410339891,0.0029321496840566,0.0066834967583417,-0.031836172894109,-0.1793049958907067,-9.808147017359737,14941.0
3.2,1.2000000476837158,103.0,24.003063201904297,-0.055662415921688,-79.78280000486639,40.45904215475699,276.9027671051025,0.006462343968451,0.0052373642101883,-0.867900013923645,0.4966694414615631,-0.0139023681074692,-0.0098315651036246,-0.0015030742221036,-0.0032562387641519,-0.0027418225072324,-0.0081436419859528,-0.0364710209146142,-0.1714050420932472,-9.809428142309187,14941.0
3.31,1.2000000476837158,100.0,24.003063201904297,-0.0636141896247863,-79.78279990376323,40.4590421768053,276.9111940097809,0.0064825448207557,0.0052803363651037,-0.8679026365280151,0.4966639876365662,-0.0087306580890318,-0.0049529485678759,0.0002712031346745,0.004266366828233,0.0042252568528056,0.0081549463793635,-0.0316296725347638,-0.1740576314739883,-9.807852902412415,14941.0
3.5,1.2000000476837158,99.0,24.00556755065918,-0.0715659633278846,-79.7827999032903,40.45904218623525,276.91125599861147,0.0064930906519293,0.0052855378016829,-0.8679020404815674,0.4966648817062378,-0.0111683246766646,-0.0052232396277284,0.000654247780315,-0.0042213900014758,-0.0045187543146312,-0.0052517866715788,-0.0321880999021232,-0.1758382182754576,-9.808456335067753,14941.0
3.62,1.2000000476837158,94.0,24.00556755065918,-0.0636141896247863,-79.78279982000825,40.4590422098783,276.9199500513077,0.0065353387035429,0.0052881357260048,-0.8679115772247314,0.4966475665569306,-0.0056188814797004,-0.0055798169662576,0.0017622173237803,0.0041361460462212,0.0037481868639588,0.0050340616144239,-0.0319823875464499,-0.1694433926045894,-9.807064697742463,14941.0
3.8,1.2000000476837158,94.0,23.99930763244629,-0.0079517737030982,-79.78279972657816,40.4590422464843,276.9280282688141,0.0065286043100059,0.0053176893852651,-0.8679074645042419,0.4966546893119812,-0.0058466080229022,-0.0063329417037707,0.0022156936931612,-0.0021797597873955,-0.001713876845315,0.0024770661257207,-0.0330608630762435,-0.1804304935410619,-9.808410142064096,14941.0
3.9,1.2999999523162842,91.0,23.99680328369141,-0.0874695107340812,-79.7827997326532,40.45904226308549,276.92853860378267,0.0065387762151658,0.005321541801095,-0.8679217696189879,0.4966293573379517,-0.0076060750247928,-0.0077199793117541,0.0026208994041293,0.0093456152826547,0.0060516879893839,0.0050523825921118,-0.0328696431359276,-0.1665764662250876,-9.806505703926089,14941.0
4.1,1.2000000476837158,91.0,24.00556755065918,0.0318070948123931,-79.78279965652912,40.45904230031361,276.9364362192154,0.00654564704746,0.0053273751400411,-0.8679271340370178,0.4966199994087219,-0.0055479843283197,-0.0106274181736262,0.002901277558559,-0.0041224169544875,-0.0062215132638812,-0.0016103988746181,-0.0331632921332493,-0.1802814260870218,-9.809449192285536,14941.0
4.2,1.2999999523162842,94.0,23.99930763244629,-0.055662415921688,-79.7827995613169,40.45904232616653,276.9446320962906,0.0065725059248507,0.0053432714194059,-0.8679389357566833,0.4965987503528595,-0.0008291515864039,-0.0085700147010248,0.0029898057883794,0.0085291964933276,4.455090675037354e-05,0.0069425553083419,-0.0315620549675077,-0.1679617264308035,-9.80760264158249,14941.0
4.4,1.2999999523162842,96.0,23.99930763244629,-0.0795177370309829,-79.78279956898224,40.459042331781134,276.9449663591385,0.0065738363191485,0.0053447964601218,-0.8679371476173401,0.496601790189743,-0.0033223526977687,-0.008973065965115,0.0035328272291651,-0.0024741410743445,-0.0035382073838263,-0.0060633239336311,-0.0339345444459468,-0.1772742213495075,-9.80955093383789,14941.0
4.5,1.399999976158142,94.0,23.99930763244629,-0.0715659633278846,-79.78279957661383,40.45904233831306,276.9453319740296,0.0065913670696318,0.0053412485867738,-0.8679463863372803,0.4965856075286865,-0.004146448144116,-0.0097753198773331,0.0036745968126834,-0.0008073302451521,-0.0016893140273168,-0.0035110544413328,-0.0320840377360582,-0.1699980375543237,-9.806803327202797,14941.0
4.7,1.399999976158142,94.0,23.994298934936523,0.0795177370309829,-79.78279942394191,40.459042363858416,276.9562540483475,0.0065861949697136,0.0053645730949938,-0.8679542541503906,0.4965715706348419,-0.006488962982426,-0.0028259480097365,0.0069859596426695,-0.0095316106453537,-0.0007407985976897,-0.0030356850475072,-0.0354308926127851,-0.1735293172672391,-9.808270393610002,14941.0
4.82,1.399999976158142,92.0,23.98929214477539,-0.0238553211092948,-79.78279930178721,40.45904240749878,276.96650139808656,0.0065813520923256,0.0053763845935463,-0.8679596781730652,0.4965620934963226,-0.007443305143413,-0.0026313505922291,0.0090713745409129,0.0034799573477357,0.0044002602808177,0.0052194101735949,-0.0315358863933943,-0.1723131146840751,-9.808403125405311,14941.0
5.0,1.5,88.0,23.99930763244629,-0.0954212844371795,-79.78279930008944,40.45904241449824,276.9674420785904,0.0066064377315342,0.0053710578940808,-0.8679574728012085,0.4965657293796539,-0.0095169467730139,-0.0030263276784323,0.0094634774323008,-0.0059738191775977,-0.003976825159043,-0.0102461809292435,-0.0367352077108807,-0.168455998878926,-9.80707873106003,14941.0
5.11,1.5,89.0,23.998056411743164,-0.0318070948123931,-79.78279917010008,40.459042443913695,276.9798087310791,0.0066212243400514,0.0053967777639627,-0.8679547905921936,0.4965697526931762,-0.0077309850751493,-0.0013915381929222,0.0138986945170256,-0.0030069274362176,-0.0023217343259602,0.0068568470887839,-0.0326318921498023,-0.1798956377618014,-9.808855115175248,14941.0
5.3,1.5,87.0,23.991796493530277,0.0079517737030982,-79.78279904534742,40.45904248192926,276.99082223892214,0.0066317948512732,0.0054060760885477,-0.8679558634757996,0.4965676963329315,-0.0076521809783136,-0.0005187664369501,0.0173195669292922,-0.0024069738574326,-0.0011933119967579,-0.0094150844961404,-0.0339201456774026,-0.1662076530978083,-9.806777599453929,14941.0
5.4,1.5,88.0,23.991796493530277,0.0079517737030982,-79.78279903796741,40.45904249525453,276.9943848085404,0.0066269156523048,0.0054169055074453,-0.8679561614990234,0.4965672194957733,-0.010237162446961,-0.0015876223805521,0.018157972168512,-0.0068533942103385,-0.0053318683058023,-0.0055553959682583,-0.0315620960807427,-0.1863152775540948,-9.809555611610412,14941.0
5.6,1.600000023841858,88.0,23.984283447265625,0.0238553211092948,-79.78279895890874,40.45904251199153,277.0049496126175,0.0066591193899512,0.0054140710271894,-0.867961585521698,0.4965572059154511,-0.0018722966652538,-0.0055833543501966,0.0199891040640113,0.0020612503867596,0.0043586152605712,-0.0008053577621467,-0.0335097168199718,-0.172574119772762,-9.807527797222136,14942.0
5.71,1.600000023841858,87.0,23.97927474975586,0.1590354740619659,-79.78279881624924,40.45904253318475,277.01695875644685,0.0066506308503448,0.0054115392267704,-0.8679560422897339,0.4965671300888062,-0.0022710102775959,0.0020408602460007,0.0212550049265578,-0.002911570481956,-0.0043951119296252,-0.0071657267399132,-0.0287978819827549,-0.1896333348937332,-9.809048658013344,14942.0
5.9,1.5,87.0,23.988039016723643,0.0,-79.7827988133793,40.45904253400279,277.0190998744965,0.0066471844911575,0.0053885630331933,-0.8679636716842651,0.4965540468692779,-0.002322121715415,0.0010744852669427,0.0214602450356156,0.005997072905302,0.0044038984924554,0.005188516806811,-0.0317843610816635,-0.1834228244237601,-9.808363364338875,14942.0
6.0,1.600000023841858,86.0,23.9930477142334,0.0159035474061965,-79.7827988105199,40.45904253549823,277.0212798547745,0.0066458382643759,0.0054054204374551,-0.8679581284523009,0.4965637028217316,-0.0045047647055664,0.0009051614289229,0.0219745657342957,-0.0054260180331766,-0.0016442768974229,-0.0035692038945853,-0.032908677868545,-0.179121667407453,-9.809106545448303,14942.0
6.2,1.600000023841858,90.0,23.99930763244629,0.0636141896247863,-79.78279859400612,40.459042491982935,277.0373632144928,0.0066597256809473,0.0054714139550924,-0.8679672479629517,0.4965467453002929,0.0019234679239602,0.0173999141472833,0.0281095960247286,0.0036508135963231,0.0036247612442821,0.0056524509564042,-0.0280341579602099,-0.1890345434658229,-9.809544501900673,14942.0
6.31,1.7000000476837158,94.0,23.998056411743164,0.0159035474061965,-79.78279842663952,40.45904250139141,277.0518224668503,0.0066645960323512,0.0054502319544553,-0.8679754137992859,0.4965325891971588,0.0012417145345196,0.017943078063135,0.030260841452392,0.0061271558515727,0.0020466775167733,0.0020014229230582,-0.036660660279449,-0.1678225626982748,-9.80752019584179,14942.0
6.5,1.7000000476837158,96.0,23.994298934936523,0.0079517737030982,-79.7827984088873,40.45904249230124,277.054863615036,0.0066849724389612,0.005450289696455,-0.867965817451477,0.4965490996837616,-0.0005245444172667,0.0176567691569756,0.0306758163938877,-0.0015952985268086,0.0019166169222444,0.0011050265748053,-0.0309525238489732,-0.1841751966252923,-9.80865163207054,14942.0
6.61,1.7000000476837158,100.0,23.98929214477539,0.0159035474061965,-79.78279826008104,40.45904251934578,277.06985156059267,0.00671818992123,0.0054462570697069,-0.8679682016372681,0.4965445101261139,-0.0007498978415967,0.0132273031083189,0.0321546678129273,0.0038338175509124,0.0048464750871062,0.0030675195157527,-0.0328390092076733,-0.1673655662499368,-9.807079315781596,14942.0
6.8,1.7000000476837158,101.0,23.99555206298828,0.0,-79.78279811919944,40.45904255188793,277.0809666347504,0.0067236358299851,0.0054476093500852,-0.8679730892181396,0.4965359568595886,-0.0017293759891287,0.0119307250297956,0.0327777059664439,-0.0034864193294197,-0.0017035709461197,-0.0017380180070176,-0.0326261203084141,-0.1785873415321111,-9.80934569656849,14942.0
6.9,1.7000000476837158,103.0,23.99054336547852,-0.0318070948123931,-79.78279809399693,40.4590425440001,277.0876027774811,0.0067200139164924,0.0054326779209077,-0.8679749369621277,0.4965328872203827,-0.0027595484612199,0.0104095918856014,0.0335566734883264,0.0051720039919018,0.0006081126630306,0.0074024456553161,-0.0319022076018154,-0.1697287915460765,-9.807662283182143,14942.0
7.1,1.7000000476837158,102.0,23.991796493530277,0.0159035474061965,-79.78279794437131,40.45904257520085,277.0990064573288,0.0067134145647287,0.0054381359368562,-0.8679726719856262,0.496536910533905,-0.0031650527783398,0.0096253667134565,0.0338800163069519,-0.0082610053941607,-0.0050040762871503,-0.0082495026290416,-0.0343980185128748,-0.1753358328156173,-9.809324061870576,14942.0
7.2,1.7000000476837158,102.0,23.98678779602051,0.0238553211092948,-79.7827977733421,40.459042599833694,277.1158307027817,0.0067347162403166,0.0054387082345783,-0.8679775595664978,0.4965281784534454,-0.0017445580830503,0.0083577341220235,0.0373206661161962,0.0060212151147425,0.0012736927019432,0.0080285957083106,-0.0305401581013575,-0.1699963747523725,-9.80825811445713,14942.0
7.4,1.600000023841858,102.0,23.99054336547852,0.0,-79.78279776373654,40.45904259761738,277.11958329200746,0.0067455079406499,0.0054442691616714,-0.8679801225662231,0.496523380279541,-0.0037939065693916,0.0080763106743974,0.0377727193375386,-0.0020230342634022,-0.002627981826663,-0.0077932844869792,-0.0356658981484361,-0.1693137488700449,-9.808450487852095,14942.0
7.5,1.600000023841858,102.0,23.994298934936523,0.0079517737030982,-79.78279775397289,40.45904259609457,277.1233809423447,0.0067537636496126,0.0054497090168297,-0.8679819703102112,0.496519923210144,-0.0035805514240489,0.0072093219151352,0.0381142307647211,0.0035663109738379,0.0021414211951196,-0.0001331753737758,-0.0299708699877373,-0.1778272217698395,-9.8088054138422,14942.0
7.7,1.600000023841858,102.0,24.00056076049805,0.0238553211092948,-79.78279761463307,40.45904262364797,277.13490502357485,0.0067652543075382,0.0054530026391148,-0.867977499961853,0.4965276122093201,-0.0014937003092556,0.0033857022307231,0.0330470572424196,-0.0043250997550785,-0.0001877563627203,-0.0037623778916895,-0.0353926573041826,-0.167872647754848,-9.806936058998108,14942.0
7.8,1.600000023841858,99.0,23.99555206298828,0.0238553211092948,-79.78279745799777,40.45904262318635,277.1501218509674,0.0067780744284391,0.0054518752731382,-0.8679659962654114,0.4965474903583527,0.0030546552402462,0.0040411536766327,0.0339233037703888,-0.0064178495667874,-0.0028264080174267,-0.0018766570137813,-0.0317512763477861,-0.1847315043769777,-9.809483690857888,14942.0
8.0,1.399999976158142,100.0,24.00056076049805,-0.0636141896247863,-79.78279745641875,40.45904261820032,277.1535267066956,0.0067891762591898,0.0054390709847211,-0.8679677248001099,0.4965445697307586,0.0026587313698877,0.0033212370279101,0.0343642699718631,0.0014379686908796,0.0001811111869756,0.0020417859777808,-0.0325238008867017,-0.1707303282245993,-9.807695612311363,14942.0
8.11,1.399999976158142,100.0,23.99930763244629,-0.0715659633278846,-79.7827972705529,40.45904262614663,277.16690353870393,0.0068086637184023,0.0054329973645508,-0.8679577708244324,0.4965616464614868,0.0028786017452279,0.0053392921619668,0.0317431896199909,-0.0039802533574402,-0.0037429314106702,-0.0108798313885927,-0.0274904285743832,-0.1901764133200049,-9.809334002137184,14942.0
8.3,1.399999976158142,100.0,24.00056076049805,-0.055662415921688,-79.78279710695993,40.45904265434094,277.1777404975891,0.0068115815520286,0.0054254364222288,-0.8679540157318115,0.4965682029724121,0.0052985419170585,0.0024941814554977,0.0285881704939119,0.006633729673922,0.0030248786788433,0.0054125413298606,-0.0316879642498679,-0.1844074772670865,-9.8079558134079,14942.0
8.42,1.2999999523162842,96.0,23.988039016723643,-0.1669872552156448,-79.78279710792971,40.45904264553042,277.18353240013124,0.0068373410031199,0.0054279365576803,-0.8679747581481934,0.4965316951274872,0.0027714723672799,0.0012875987133309,0.0294796320092193,-0.0017031830502673,0.0007302982849068,-0.0041035278700292,-0.0323913820087909,-0.1677706869319081,-9.806532601118088,14942.0
8.6,1.2999999523162842,97.0,23.998056411743164,-0.0636141896247863,-79.78279692918598,40.45904267191635,277.19316093444826,0.0068429773673415,0.0054151876829564,-0.8679718971252441,0.4965367317199707,0.004567117586827,0.0002949406484486,0.0241493958964172,0.0061819455586373,0.0052101630717515,0.0061556329019367,-0.0282127881143242,-0.1872721561230719,-9.809052166342736,14942.0
8.7,1.2000000476837158,98.0,23.9930477142334,-0.055662415921688,-79.78279673574616,40.45904270592118,277.2068435382843,0.0068439929746091,0.0053963745012879,-0.8679847717285156,0.4965142905712128,0.0002638866357837,0.000225129507224,0.0221736988335469,-9.290044545195995e-05,0.0025117518380284,-0.0028613652102649,-0.0328346420684829,-0.1747694934345781,-9.808268639445306,14942.0
8.9,1.2000000476837158,98.0,23.99930763244629,-0.0795177370309829,-79.7827967358607,40.45904270590615,277.20907465934755,0.0068392846733331,0.005389841273427,-0.8679823875427246,0.4965187311172485,-0.0003670138690278,-0.0005625454043015,0.0224126894946368,0.0050153443589806,0.0031562463846057,0.006403190549463,-0.0286343792150728,-0.1883824510127306,-9.808508960008623,14942.0
9.0,1.2000000476837158,99.0,23.994298934936523,-0.0318070948123931,-79.78279653018505,40.45904272954812,277.2230109405518,0.0068929861299693,0.0053861695341765,-0.8679874539375305,0.4965090751647949,-0.0012063944143229,0.0010562053086971,0.0206778618211972,0.0024866294115781,0.0005926397861912,-0.0020496007055044,-0.0354258676618337,-0.1751493249088526,-9.808011946678162,14942.0
9.2,1.100000023841858,97.0,24.00431632995605,-0.0477106422185897,-79.7827965283425,40.45904272986053,277.2250961494446,0.0068897129967808,0.0053926948457956,-0.8679766654968262,0.4965280294418335,-0.0015923240299136,0.0003822256732869,0.0209605352362498,0.0047255884855985,0.0031769529450684,0.0047364518977701,-0.0286181349190883,-0.186158078815788,-9.809532222747803,14942.0
9.3,1.100000023841858,97.0,24.00056076049805,-0.0636141896247863,-79.78279631005364,40.45904272849391,277.2415823173523,0.0069090877659618,0.0054145450703799,-0.8679861426353455,0.4965109527111054,0.0004466012460864,0.0037175250478169,0.0226252245022664,0.0026472166646271,-0.0008895455976016,-0.0024934851098805,-0.0344421284459531,-0.1771008148603141,-9.808580880761149,14942.0
9.5,1.0,97.0,23.99555206298828,-0.0715659633278846,-79.78279630659412,40.459042726366704,277.2438627910614,0.0069112293422222,0.0054132719524204,-0.8679883480072021,0.4965071380138397,0.0001884576979481,0.0029258581473663,0.0229598922912438,0.0040685972198843,0.0016574721084907,0.0064860875718295,-0.0297608795715496,-0.1866940492205321,-9.808273901939392,14942.0
9.6,1.0,98.0,23.99555206298828,-0.0636141896247863,-79.78279605033632,40.459042720208345,277.26089422225954,0.0069167986512184,0.0054290890693664,-0.8679876923561096,0.4965078830718994,0.0001555008704033,0.0086687421881781,0.0242516343500825,0.0010121901286765,0.0005034072091802,-0.0048000523820519,-0.0325740344077348,-0.1767961749248206,-9.80866157233715,14942.0
9.81,1.0,98.0,23.99930763244629,-0.0715659633278846,-79.78279590382519,40.459042731774105,277.27293698310854,0.0069246641360223,0.0054147504270076,-0.8679906725883484,0.4965027272701264,0.0058162157402599,0.0002883654488057,0.021246846707589,0.0064874389208853,0.001050483668223,0.0070758908987045,-0.0294622033392079,-0.1876551670208573,-9.808872656822205,14942.0
9.9,1.0,99.0,23.994298934936523,-0.0954212844371795,-79.78279590703383,40.459042727572815,277.27507035255434,0.0069325366057455,0.0054041882976889,-0.8679882884025574,0.4965069890022278,0.004054264483169,-0.0002529214957263,0.0216116039493535,-0.0078710205852985,-0.005320353899151,-0.0034187694545835,-0.032723793934565,-0.1724831224791705,-9.808040013313294,14942.0
10.1,1.0,99.0,23.998056411743164,-0.0636141896247863,-79.78279570913453,40.45904271883744,277.2900540065765,0.0069216596893966,0.0054073967039585,-0.8679882884025574,0.4965071082115173,0.0080560947853789,0.0003622648647901,0.0196334448628433,0.0040557323954999,-0.0001886886893771,0.0069064134731888,-0.0282340185320936,-0.1876623481325805,-9.809186652302742,14942.0
10.2,1.0,100.0,24.00056076049805,-0.0477106422185897,-79.78279548553728,40.45904273974888,277.3070599269867,0.0069120461121201,0.0054158745333552,-0.8679901361465454,0.4965038299560547,0.0024575836455384,0.0007370108753826,0.0214967076409096,0.0034380969591438,-0.0015760546084493,0.0051040253601968,-0.0357134844339452,-0.172204612288624,-9.808695486187936,14942.0
10.4,1.0,100.0,24.008071899414062,-0.0159035474061965,-79.78279548627374,40.45904273777195,277.3092273902893,0.0069059487432241,0.0054126568138599,-0.8679904341697693,0.4965035319328308,0.001830086272394,0.0001113931082953,0.0217901892196974,0.0034129552077502,0.0018507097847759,0.0074259247630834,-0.0276674096309579,-0.1872675331681967,-9.808483816981315,14942.0
10.51,1.0,100.0,24.00056076049805,-0.055662415921688,-79.78279548734258,40.45904273628725,277.31142680168153,0.0069125206209719,0.0054195551201701,-0.8679928779602051,0.4964990615844727,0.0002129363407712,-0.0004635902875719,0.0222930884054218,-0.0076155518181622,-0.0060703079216182,-0.0049169100821018,-0.0347226440487429,-0.1717371456697583,-9.808289104700089,14942.0
10.7,1.0,99.0,24.003063201904297,-0.055662415921688,-79.7827952280272,40.45904276267426,277.3290008735657,0.0069020134396851,0.0054471376352012,-0.8680135607719421,0.4964626729488373,-0.0043609644944585,0.0029459720450244,0.023588471899192,0.0029119250830262,0.00224414258264,0.0068126400001347,-0.0290098366979509,-0.1887059664912521,-9.808770915269852,14942.0
10.8,1.0,100.0,24.00056076049805,-0.0715659633278846,-79.78279501223935,40.45904279173168,277.3441936206818,0.0068948753178119,0.0054612047970294,-0.8680152297019958,0.4964596331119538,-0.006335734708796,0.0022290320426307,0.0217380397321805,0.0030012198258191,0.0017343413783237,0.000851419288665,-0.0333721907646395,-0.1738342678360641,-9.808055800795556,14942.0
11.0,1.0,99.0,24.00181198120117,-0.0715659633278846,-79.78279500595488,40.45904279562541,277.3463999462128,0.0068981889635324,0.0054529542103409,-0.8680138587951659,0.4964622855186462,-0.0069977801940255,0.0016982366046372,0.0220905931126444,0.0029589300975203,0.0041564758867025,0.0054153450764715,-0.0280989981000311,-0.1889141821861267,-9.80934569656849,14942.0
11.1,1.0,99.0,24.00181198120117,-0.0636141896247863,-79.78279481683683,40.45904277559429,277.36090294837953,0.0069193770177662,0.005453014280647,-0.8680194020271301,0.4964520931243897,0.0006273113807469,0.0015334318750804,0.0199888620583914,0.0007830717368051,0.0048304502852261,0.0034385609906166,-0.0341218791855499,-0.171084413677454,-9.809469072818755,14942.0
11.3,1.0,100.0,24.00181198120117,-0.0636141896247863,-79.78279465406816,40.459042776712906,277.3732060623169,0.0069237295538187,0.0054440731182694,-0.8680140376091003,0.4964616000652313,0.0058733702704313,-0.0029553203210034,0.0175195461210135,0.0003542429767549,0.0016551883891224,0.0041451584547758,-0.028235756708309,-0.1877727508731186,-9.809505910277366,14942.0
11.4,1.0,101.0,23.998056411743164,-0.0715659633278846,-79.78279466757664,40.45904277167693,277.37677757263185,0.006925574503839,0.0054256813600659,-0.8680201768875122,0.4964510202407837,0.004623928360318,-0.0046079012697598,0.0183154046274637,0.0039706793613731,0.0030045374296605,0.0015784873394295,-0.0358846433996222,-0.1686737711168825,-9.807667545676232,14942.0
11.6,1.0,100.0,24.00181198120117,-0.0636141896247863,-79.78279441828634,40.45904275858354,277.3917974662781,0.0069096023216843,0.0054375627078115,-0.8680191040039062,0.4964529871940613,0.0043903485826754,0.0036641546408307,0.020508445558047,0.0019225717987865,0.0028511169366538,0.0053201364353299,-0.0269433096307329,-0.1875905187427997,-9.810316919088365,14942.0
11.71,1.0,100.0,24.003063201904297,-0.055662415921688,-79.78279419335921,40.45904275855832,277.4079484176636,0.0069249863736331,0.005432506557554,-0.8680467009544373,0.4964045882225037,0.001854431210401,0.0059560309946982,0.0219366318449767,0.0011898017255589,0.0005251491093076,0.0038938936777412,-0.034895283090882,-0.1683731511421501,-9.807338932156563,14942.0
11.9,1.0,100.0,23.998056411743164,-0.0874695107340812,-79.78279418835298,40.4590427547333,277.410159034729,0.0069319894537329,0.0054452489130198,-0.8680515289306641,0.496396005153656,0.0009193691420974,0.0053947167257024,0.0222840490485102,0.0012550309766083,0.001063494477421,0.0072249020449817,-0.0275561480806209,-0.1873095965757966,-9.808822370767594,14942.0
12.01,1.0,101.0,23.98929214477539,-0.0636141896247863,-79.78279418377367,40.459042751296906,277.4124025535584,0.006938184145838,0.0054498543031513,-0.8680501580238342,0.4963981509208679,-0.0003941587373256,0.004716867946213,0.0226709034887807,-0.0078908465802669,-0.0041844216175377,-0.0070048673078417,-0.03708679667674,-0.1678907923959195,-9.80667644262314,14942.0
12.21,1.0,101.0,23.988039016723643,-0.0874695107340812,-79.78279394390728,40.45904273062703,277.43098728179933,0.0069291284307837,0.0054707219824194,-0.8680524826049805,0.4963939785957336,0.0005895887174781,0.0089810352247075,0.026635902160292,-0.0019524414092302,0.0014401698717847,0.0013576801866292,-0.0307352266972884,-0.1849035404250026,-9.809601219892505,14942.0
12.3,1.0,100.0,23.998056411743164,-0.0954212844371795,-79.7827937276528,40.45904270350733,277.44736067771913,0.0069175739772617,0.005465636961162,-0.8680635094642639,0.4963750541210175,0.0038112335757972,0.0100398700836867,0.0264343841671326,0.0063377185724675,0.0038684487808495,0.0039345230907201,-0.0333462551655247,-0.1672401800192892,-9.806432613730433,14942.0
12.5,1.0,101.0,24.00056076049805,-0.0795177370309829,-79.78279371956549,40.45904269605752,277.4500216674805,0.0069158477708697,0.0054645598866045,-0.8680738210678101,0.496356874704361,0.0021874790283652,0.0096889831680992,0.0268770942268327,-0.0036242888309061,-0.0042829304002225,-0.0028623470570892,-0.0321906854677945,-0.1781388235464692,-9.808366287946704,14942.0
12.6,1.100000023841858,101.0,23.99930763244629,-0.1113248318433761,-79.78279354335088,40.45904266569574,277.4653667640686,0.0068997186608612,0.00544751342386,-0.8680827617645264,0.4963416159152985,0.0072073715364532,0.0070659858592416,0.0264755054760309,0.0018386540468782,0.0018344388809055,0.0085387825965881,-0.0316757444827817,-0.1678636211156845,-9.807633631825446,14942.0
12.8,1.100000023841858,101.0,23.99930763244629,-0.0795177370309829,-79.78279341718398,40.45904266894695,277.4751564693451,0.0069085801951587,0.0054381228983402,-0.868087887763977,0.4963327348232269,0.0089468936445249,0.0003821207364921,0.0234367726693127,-0.0056413034908473,-0.0065198433585464,-0.0025196401402354,-0.0333123892801813,-0.176322093643248,-9.809591864347462,14942.0
12.91,1.100000023841858,102.0,23.98678779602051,-0.1033730581402778,-79.78279342864401,40.45904265491797,277.4798680973053,0.0069203083403408,0.0054280473850667,-0.8680888414382935,0.4963309764862061,0.008528515102177,-0.00122926214327,0.0239791601411212,0.0052313189953565,0.0040446929633617,0.0079809827730059,-0.0321880884817801,-0.1683184431307018,-9.80653610944748,14942.0
13.1,1.100000023841858,103.0,23.99930763244629,-0.0795177370309829,-79.78279322449538,40.45904264198936,277.4912563991547,0.0069053876213729,0.0054423860274255,-0.8680886030197144,0.4963315427303314,0.0067835788716048,0.0052614054561181,0.0243197690106379,-0.0051219407469034,-0.0007952463929541,0.0010059215128421,-0.0324397403094917,-0.1800660110078752,-9.80928780913353,14942.0
13.21,1.100000023841858,107.0,23.9930477142334,-0.0636141896247863,-79.7827930704577,40.45904263439247,277.5023645591736,0.0069210575893521,0.005447594448924,-0.8680977821350098,0.4963151812553406,0.0078735526293126,0.0023504919319002,0.0208662694538774,0.003650726750493,0.0027261089999228,0.0054293703287839,-0.0324678434897214,-0.1675224178098142,-9.807730695605278,14942.0
13.41,1.100000023841858,107.0,23.99930763244629,-0.0715659633278846,-79.78279307266813,40.45904262776016,277.5044645500183,0.0068995133042335,0.0054575726389884,-0.8680965304374695,0.496317595243454,0.006296881070939,0.0017466420950421,0.0213417459952833,-0.001208625966683,-0.0013808056246489,0.0030360701493918,-0.0327246413240209,-0.1823940433748066,-9.80863350570202,14942.0
13.51,1.0,109.0,23.9930477142334,-0.0636141896247863,-79.7827928932115,40.45904264091689,277.51484958648683,0.0068916920572519,0.0054556257091462,-0.8681063652038574,0.496300607919693,0.0021557873641949,0.0012315646757992,0.0187422526005938,0.0075708120130002,0.0004733784880954,0.0049940044991672,-0.0338614268414676,-0.1675266570411622,-9.806271815299988,14942.0
13.7,1.0,111.0,23.99930763244629,-0.055662415921688,-79.78279289275156,40.4590426390951,277.5167426300049,0.0068933414295315,0.005462669301778,-0.8680990934371948,0.4963130652904511,0.0005637546474962,0.0007263547418328,0.0191000370585639,-0.0016856774454936,-0.0011156052350997,0.0045544113963842,-0.0323562233406119,-0.1817135553807019,-9.808310739398005,14942.0
13.81,1.0,115.0,23.998056411743164,-0.0715659633278846,-79.78279270928799,40.45904263890723,277.5289019775391,0.0069025540724396,0.0054722353816032,-0.8681127429008484,0.4962889552116394,-0.0005423397041231,0.0031516828905013,0.0205374790653611,0.0052622379735112,0.0011977442773059,0.0031500358600169,-0.0353820615098811,-0.1673934684321284,-9.805475424528122,14942.0
14.01,1.0,116.0,23.994298934936523,-0.0715659633278846,-79.78279270550347,40.45904263804142,277.53098551750185,0.006891964469105,0.0054725133813917,-0.8681128025054932,0.4962890446186066,-0.0021578110437272,0.0027363986680068,0.02102707739997,0.0004726365150418,-0.0037070189137011,-0.0023744590580463,-0.0311043207650072,-0.1828024713881313,-9.808922942876816,14942.0
14.1,1.0,118.0,24.00181198120117,-0.0636141896247863,-79.78279252924422,40.45904262883369,277.543604297638,0.006922397762537,0.0054572848603129,-0.8681211471557617,0.4962742924690247,-0.0007397077931249,0.0031743692454148,0.0221281594411384,0.0056107938289642,0.0026376491878181,0.0061609982512891,-0.0340628542844206,-0.1665635658055544,-9.806064239144323,14942.0
14.3,1.0,120.0,23.96675491333008,0.5009617805480957,-79.78279240770583,40.45904261104679,277.5517183971405,0.0069342064671218,0.0054606413468718,-0.8681212067604065,0.4962738156318665,0.0046751428426959,-0.0019919363823475,0.0186448280415467,-0.0033610695973038,-0.0011005722917616,-0.0005393286119215,-0.032801826854702,-0.1801241908036172,-9.808307815790178,14942.0
14.41,1.0,124.0,23.96925926208496,0.2226496636867523,-79.78279241881451,40.4590426062191,277.5554982852936,0.0069569847546517,0.0054495665244758,-0.8680903911590576,0.4963274896144867,0.0051991994986336,-0.0033412615701486,0.0194255367047778,0.008443783968687,-0.0035612322390079,0.0134225655347108,-0.0344423248758539,-0.1745642744377255,-9.803677990436556,14942.0
14.6,0.8999999761581421,123.0,23.976770401000977,0.2385532110929489,-79.782792251976,40.459042548296935,277.5639242362976,0.0069893635809421,0.0054744011722505,-0.8681641221046448,0.496197909116745,0.0116303567442094,0.0012236184554646,0.0175994215242013,-0.0055323126725852,-0.0008440678939223,0.0027462767902761,-0.0335190266836434,-0.182487617097795,-9.807065282464029,14942.0
14.71,0.8999999761581421,125.0,23.980527877807607,0.2465049922466278,-79.782792084277,40.45904251336672,277.5749167633057,0.0069884643889963,0.0054942313581705,-0.8681411743164062,0.496237725019455,0.0134850293787224,0.0032932401812088,0.0170762776355878,0.0074634286575019,0.0031105452217161,0.0139206685125827,-0.0302936454280279,-0.1677287697046995,-9.810744935274125,14942.0
14.91,0.8999999761581421,126.0,23.97426605224609,0.198794350028038,-79.78279208863707,40.45904250287289,277.57661931037904,0.0069923023693263,0.0054921363480389,-0.8681223392486572,0.4962705969810486,0.0093241887151964,0.0022256049415547,0.0172890532081355,-0.005720165092498,-0.0071588256396353,-0.0122240576893091,-0.0340851422259584,-0.1746142681315541,-9.807505577802658,14942.0
15.0,0.8999999761581421,126.0,23.97301483154297,0.2465049922466278,-79.78279209323816,40.45904249300119,277.57836048126217,0.0069975377991795,0.0055029904469847,-0.8681175708770752,0.4962788224220276,0.0110029877263337,0.0013306090374036,0.018074792609196,6.793360807932912e-05,0.0007507205591537,0.0022117013577371,-0.0332589146657846,-0.1665456038899719,-9.809843294620514,14942.0
15.2,0.8999999761581421,126.0,23.97051048278809,0.3339745104312897,-79.7827919127573,40.459042462145575,277.5892886352539,0.0069648553617298,0.0055106226354837,-0.8681097626686096,0.4962928891181946,0.008661507616268,0.0031331785543307,0.0171445465043878,-0.0035912198945879,-0.005063182208687,-0.0052834935486316,-0.0364988911198452,-0.1726868065819144,-9.808118366003038,14942.0
15.3,0.8999999761581421,125.0,23.968006134033203,0.3657816052436829,-79.78279172793955,40.45904242671831,277.6024133396149,0.006976424716413,0.0055274767801165,-0.8681119680404663,0.4962886869907379,0.007537247396021,0.0037915427565681,0.0194097668816435,0.005907594691962,0.002620349638164,0.0017888187430799,-0.0255011921050027,-0.1676018120348453,-9.807845301032067,14942.0
15.5,0.8999999761581421,126.0,23.45967483520508,5.12094259262085,-79.78279172805692,40.45904241954708,277.6043798160553,0.0069844350218772,0.0055325054563581,-0.8681692481040955,0.496188223361969,0.0080827702181721,0.0037134609972851,0.0206829390849044,0.0015202470822259,-0.0051629827357828,0.004091830458492,-0.0393272898299619,-0.1929333937726915,-9.820115683078766,14942.0
15.6,1.0,129.0,23.92168045043945,0.5963830351829529,-79.7827915024604,40.45904237970812,277.61774436950685,0.0070258011110126,0.0056616710498929,-0.8681567311286926,0.496208131313324,0.0062433576633028,0.0085252850581263,0.0219154758398112,0.0351349934935569,-0.0138806821778416,0.0135050527751445,-0.0564992146007716,-0.1892506529018283,-9.805462560653687,14942.0
15.8,1.0,129.0,23.968006134033203,0.6361418962478638,-79.78279134870279,40.45904234036889,277.62936393737795,0.0070527782663702,0.0056530684232711,-0.8681773543357849,0.496171772480011,0.0056207719919893,0.0053383523935437,0.0249790106751067,0.0022960377391427,-0.0136515591293573,-0.0049239238724112,-0.0301044194796122,-0.1525659162551164,-9.79905342757702,14942.0
15.91,1.100000023841858,128.0,23.70758056640625,2.131075382232666,-79.78279134650994,40.45904232692122,277.6345161628724,0.0070612332783639,0.0056786611676216,-0.8682440519332886,0.4960546493530274,0.0057636085932176,0.0047570790784088,0.026434147917838,-0.0124013433232903,-0.0257819425314664,-0.0079617341980338,-0.0364554801117628,-0.1466385663393885,-9.827747468948363,14942.0
16.1,1.100000023841858,128.0,23.964250564575195,0.2067461162805557,-79.78279114913697,40.45904229850522,277.6457170677185,0.007061319425702,0.0056843501515686,-0.8682336807250977,0.4960727691650391,0.0048889359715463,0.006704947475699,0.0278282201712718,0.0303033106029033,-0.0382319688796997,-0.0015662036603316,-0.0577799923717975,-0.2595355006679892,-9.789934694766998,14942.0
16.2,1.100000023841858,127.0,23.96675491333008,0.1908425688743592,-79.78279092760239,40.45904225033455,277.65978447914125,0.007058179937303,0.0056805633939802,-0.8682290315628052,0.4960809350013733,-0.0022995624375083,0.0128010197517274,0.0304092730214849,0.0009254434844478,-0.0208926741033792,-0.0159255973994731,-0.0461148610990494,-0.2128612346202136,-9.806758888363838,14942.0
16.4,1.2000000476837158,126.0,23.738882064819336,3.188661336898804,-79.78279091475201,40.45904224649987,277.6628388595581,0.0070343781262636,0.0056598018854856,-0.8681727647781372,0.4961800873279572,-0.0035367873030569,0.0121478735358067,0.0309436179617649,-0.0110957017168402,-0.0110128289088606,0.0172665603458881,-0.0352851073653437,-0.1679001662135124,-9.806566514968871,14942.0
16.5,1.2000000476837158,125.0,23.642473220825195,4.1746811866760245,-79.78279090203813,40.459042242047374,277.66595165252687,0.0070481584407389,0.0056253746151924,-0.8682262897491455,0.4960866570472717,-0.0038343099397167,0.0108200448003842,0.0313705575300351,-0.0085686966776847,-0.0245972611010074,0.0132207684218883,-0.0464029506733641,-0.1787245318293571,-9.809578415751457,14942.0
16.7,1.2000000476837158,123.0,23.49222755432129,6.289853096008301,-79.78279071303515,40.45904218637588,277.67744581222536,0.0070795682258903,0.0056646740995347,-0.8682716488838196,0.4960063397884369,-0.0015224886847331,0.0117844305709964,0.0296010669630927,-0.0185584127902984,-0.0221205186098814,-0.0093347961083054,-0.0217124658823013,-0.1942144273594022,-9.813476754426958,14942.0
16.8,1.2999999523162842,124.0,23.4221134185791,7.188403606414795,-79.78279051544943,40.45904210783053,277.69217078208925,0.0071485266089439,0.0058658351190388,-0.8683384656906128,0.495885968208313,0.002585654119626,0.0167265602282252,0.0353766350813068,-0.0188722480088472,-0.0772157460451126,-0.0656440705060958,0.01866487424355,-0.1570507854782045,-9.850786668062211,14942.0
17.0,1.2000000476837158,126.0,23.215524673461918,10.051042556762695,-79.78279050389945,40.45904209772157,277.69551436424257,0.0071812872774899,0.0059744226746261,-0.8683634400367737,0.4958405196666718,-0.004188962076453,0.0129168043036544,0.034190678837672,-0.0517922863364219,-0.0457395613193512,0.0861076340079307,-0.0103674650983884,-0.0975800889730453,-9.834691622257234,14942.0
17.1,1.2000000476837158,125.0,23.12036895751953,11.339229583740234,-79.78279030008444,40.45904202378009,277.7111193370819,0.0073730717413127,0.005956111010164,-0.8684868812561035,0.4956215918064117,0.0085485619100644,0.0177577413220828,0.0374468113513509,0.0494413748383522,-0.0161443501710891,-0.0381517075002193,-0.0828553016111254,-0.2055561436526477,-9.750129189491274,14942.0
17.3,1.2999999523162842,126.0,22.89750289916992,14.26548194885254,-79.78279012169892,40.45904197789389,277.7214388084412,0.0077135101892054,0.0061873295344412,-0.8684707283973694,0.4956420063972473,0.006532805001645,0.0190164207039881,0.0389703310470387,0.0024247097317129,0.0591612383723259,0.0250208936631679,-0.0038031935133039,-0.2397987906821072,-9.793451794981957,14942.0
17.41,1.399999976158142,126.0,22.78481864929199,16.555593490600586,-79.78279010510003,40.45904195630453,277.7298931312561,0.0088445153087377,0.0061696586199104,-0.8685222268104553,0.4955330491065979,0.0046209248518593,0.0009781913867407,0.0482079099626101,0.0162544399499893,0.0225935708731412,0.0691845268011093,-0.0169136331556364,-0.1419297670293599,-9.790432292819023,14942.0
17.6,1.399999976158142,130.0,22.55444145202637,19.02064323425293,-79.78278990640736,40.45904191936679,277.7380241584778,0.010162379592657,0.0050161899998784,-0.8684525489807129,0.4956428110599518,0.0025631323433184,-0.0039247669547145,0.0486953993370767,0.0447269566357135,0.0234766416251659,-0.0473447144031524,-0.0877652999572456,-0.2087241102755069,-9.859946916103365,14942.0
17.71,1.5,130.0,22.422975540161133,21.4379825592041,-79.78278973941117,40.45904184185312,277.75238577842714,0.0113300420343875,0.0023840712383389,-0.8683546781539917,0.4958086013793945,0.0199179332591897,0.0091589020700687,0.0486163886972261,0.0168488901108503,-0.0204040817916393,0.1401169747114181,0.0965748795121908,-0.1916249879077077,-9.834916155338288,14942.0
17.91,1.5,130.0,22.15754127502441,24.984474182128903,-79.78278973743414,40.459041820876735,277.75646106719967,0.0099994912743568,0.0022630218882113,-0.8682591915130615,0.4960049688816071,0.0230978851632603,0.0148764917147644,0.047431938720598,0.0077296607196331,-0.0230735633522272,-0.0372111536562442,0.0504835077747702,-0.2483373152464628,-9.81597351551056,14942.0
18.0,1.600000023841858,132.0,22.028579711914062,26.11362648010254,-79.7827897339879,40.459041800153706,277.7619935703278,0.0068638920783996,0.0017480720998719,-0.8671090006828308,0.4980682730674744,0.0331643665670043,0.0161057756564496,0.0733081067450487,0.011644409969449,0.0059505999088287,-0.1692324131727218,-0.0478357332106679,0.0066431496106088,-10.00990694761276,14942.0
18.2,1.600000023841858,133.0,22.16880989074707,24.04616355895996,-79.78278961293877,40.45904168824766,277.78670804023744,-0.0056802122853696,-0.005247897002846,-0.8636720180511475,0.503994882106781,0.0160714451371386,0.0133015622566429,0.2269766732427586,-0.0753053873777389,0.0992519333958625,-0.0531443580985069,0.083816428547725,-0.1149431309010833,-10.706525509357451,14942.0
18.3,1.8999999761581416,139.0,22.262714385986328,22.32858085632324,-79.78278950142473,40.45904129511995,277.8177429866791,-0.010403748601675,-0.0010770916705951,-0.86106938123703,0.5083798766136169,0.0048339992127909,0.0477447950338822,0.3212395534751236,0.0705827698111534,-0.0124388197436928,0.0828021615743637,0.2032546247541904,0.2369165153615177,-10.622153695821762,14942.0
18.5,1.8999999761581416,140.0,22.325315475463867,21.42207908630371,-79.78278944713169,40.459041281589634,277.8503426742554,-0.0066531891934573,-0.000545518414583,-0.8610053658485413,0.5085521936416626,-0.0163635637317683,0.0506123373287035,0.3245042355528191,0.0326632186770439,0.0067359558306634,-0.0525122806429863,0.052370705762878,0.0421829831600189,-9.974679812192916,14942.0
18.61,2.0,134.0,22.283998489379886,21.55725860595703,-79.78278914885664,40.45904146535236,277.88646118164064,0.0019147848943248,-0.0035681682638823,-0.8617606163024902,0.50729900598526,-0.0427388755027848,0.055333377947111,0.2023368785300097,0.0882952362298965,0.0512718334794044,0.0362302362918853,0.0636597240250557,-0.1244395024795085,-9.572732267975807,14942.0
18.8,2.0,137.0,22.08993148803711,24.04616355895996,-79.78278922319177,40.459041612046384,277.88997141838075,0.0053372872062027,-0.0027774523478001,-0.8622485399246216,0.5064497590065002,-0.0481314849402992,-0.0010158837422561,0.1277817811506928,0.0736057981848716,0.0759831070899963,-0.037885446101427,0.0392408012878149,0.0030684451851993,-9.293970354795457,14942.0
18.91,1.8999999761581416,138.0,22.13249969482422,23.67243003845215,-79.78278916649909,40.45904169878657,277.91019622802736,0.0059708673506975,-0.0015370232285931,-0.8630015254020691,0.5051637887954712,-0.0495153905054128,-0.0037561024416402,0.0760334226381426,0.0214000977575778,-0.0082285366952419,0.0410681143403053,0.1145242053084075,0.0021427852660417,-9.533629013299944,14942.0
19.11,1.8999999761581416,135.0,21.99853134155273,25.07989501953125,-79.78278881402963,40.45904155439474,277.9266089630127,0.0055920151062309,0.0011400198563933,-0.8634079694747925,0.5044742822647095,-0.0420044433997196,0.0371493247200133,0.0690179209128841,0.1146240234375,0.0134781450033187,0.024684278294444,0.104588945377618,-0.1497579462546855,-9.551515645980835,14942.0
19.2,1.7999999523162842,130.0,21.968481063842773,25.501338958740234,-79.782788420189,40.45904151239314,277.9591035079956,0.0037533559370785,0.0044504920952022,-0.8645678162574768,0.5024823546409607,-0.0537876029667859,0.0477954903422762,0.109641314256357,0.0013967524282634,0.0086456704884767,0.0639409497380256,0.0630241865012794,-0.0964071740582585,-9.75497243821621,14942.0
19.4,1.7999999523162842,129.0,21.83451271057129,26.9724178314209,-79.78278834073888,40.45904152898198,277.97122709274294,0.0042020557448267,0.0019154530018568,-0.8653605580329895,0.5011286735534668,-0.0529253642734054,0.0511888873784128,0.1249662829335878,-0.048936478793621,0.1292381286621093,0.0238857008516788,0.0445428051939234,-0.1338520487397909,-9.889871796369553,14942.0
19.5,1.7000000476837158,133.0,21.90713119506836,25.87507247924805,-79.78278825972397,40.459041545981975,277.98457495689394,0.0038894629105925,-0.0029813330620527,-0.8660405278205872,0.4999499619007111,-0.0588704104131053,0.0477127560254053,0.1465478438844266,-0.1276091039180755,0.0490864850580692,-0.0880076363682746,0.0293935191119089,0.1034060262423008,-10.02123534321785,14942.0
19.7,1.7999999523162842,132.0,21.87833404541016,26.00230026245117,-79.78278788293302,40.45904149510649,278.02872793197633,0.0107331434264779,-0.0031088571995496,-0.8660007119178772,0.4999178946018219,-0.0384650248512259,0.0534705696705091,0.2261962935071889,0.0806023627519607,0.0317315161228179,0.0998531207442283,0.0823065586946904,-0.3968987658619881,-10.126529663801191,14943.0
19.81,1.5,130.0,21.89961814880371,25.74784469604492,-79.78278750300487,40.4590414514071,278.07348291397096,0.010840505361557,-0.0035193650983273,-0.8650885820388794,0.5014897584915161,-0.0190852805868099,0.0526710975967291,0.2452064257593988,0.0808656364679336,0.0761071592569351,0.0478082336485385,0.0023461233323905,0.2174363154172896,-10.013067952394486,14943.0
20.0,1.5,126.0,21.929668426513672,25.270736694335927,-79.78278745245164,40.45904144425789,278.09898774147035,0.0133049022406339,-0.0018435928504914,-0.8645945191383362,0.5022907257080078,-0.013750975805664,0.0411098289915303,0.2633305729537296,0.0343360267579555,-0.1255519241094589,-0.0763761401176452,0.0496801825705915,-0.008648753715679,-10.008741012811662,14943.0
20.1,1.399999976158142,122.0,21.84077262878418,26.41579246520996,-79.78278738817848,40.459041556879455,278.1380061340332,0.0148120047524571,0.0025228660088032,-0.8634334206581116,0.5042390823364258,-0.0047273743244187,0.0041399342514307,0.2579652956791511,-0.1334088891744613,-0.0261538363993167,-0.143410712480545,0.1278820872399956,-0.1290298134461045,-9.89586168408394,14943.0
20.3,1.399999976158142,123.0,22.05111694335937,23.79170799255371,-79.78278714050983,40.45904152942535,278.16031376838686,0.0112319365143775,0.0011020604288205,-0.8629112839698792,0.5052295923233032,0.0133073795039604,0.0144241228663221,0.2351151864749512,-0.105434775352478,-0.085509568452835,0.0321080796420574,0.0135548851336352,-0.1344246099237352,-9.63401342689991,14943.0
20.4,1.5,122.0,21.70179557800293,27.71193122863769,-79.78278713500696,40.45904148546346,278.1881748867035,-0.0047384537756443,-0.0009927094215527,-0.8621202707290649,0.5066807270050049,0.0184160856598206,0.0157720965727954,0.0917236000019285,-0.1540990173816681,-0.0075240237638354,-0.0436736978590488,0.1209863105043769,0.0231063781399279,-8.979892428517342,14943.0
20.61,1.600000023841858,117.0,21.324928283691406,32.999862670898445,-79.78278700820366,40.4590415253604,278.212200088501,-0.0093741053715348,-0.002682683058083,-0.8618508577346802,0.5070680975914001,0.0154469893165999,-0.002792844400291,0.1799641634406152,-0.1872947812080384,-0.0770005509257316,-0.0593977719545364,-0.0098147661751136,0.2937494597956538,-10.10121940612793,14943.0
20.7,1.5,118.0,21.431352615356445,32.037696838378906,-79.78278702237589,40.45904150540173,278.23521248817445,-0.0083416495472192,-0.002101857215166,-0.86203533411026,0.5067753195762634,0.0385099310106476,0.0002329864802225,0.2901253317386844,0.2386787682771683,0.1307992935180664,0.0669750124216079,0.047117092134431,0.0587344315554946,-10.781762802600856,14943.0
20.9,1.600000023841858,119.0,21.16716957092285,35.29792404174805,-79.7827868887493,40.45904127425629,278.3038405609131,-0.0001011872664093,-0.000876048929058,-0.863358736038208,0.5045899748802185,0.030587113911521,0.0291129502278076,0.5402481482478285,0.1378922462463379,0.1640226691961288,0.1289345622062683,-0.0703767723916098,-0.1424323626235127,-11.111044074296954,14943.0
21.0,1.600000023841858,115.0,20.989377975463867,38.12080383300781,-79.7827868650274,40.45904124967176,278.36454216957094,0.0012208017287775,-0.0030689877457916,-0.8637647032737732,0.5038845539093018,0.020064018222738,0.0284042934167189,0.6813710702435986,0.085211344063282,0.1422687619924545,0.094053640961647,-0.0557806374784559,-0.2249152696877718,-11.2123155105114,14943.0
21.2,1.7000000476837158,114.0,20.78529357910156,40.66537094116211,-79.78278665069338,40.459041242074335,278.5255965423584,-0.0008603896712884,-0.0047302269376814,-0.8637620210647583,0.5038770437240601,0.002705139025851,0.0341960114531457,1.0851446669690827,-0.0226714499294757,0.0421199984848499,-0.0142616089433431,0.0006061255722306,-0.1064787197951227,-12.046026721000672,14943.0
21.3,1.8999999761581416,113.0,20.791553497314453,40.61766052246094,-79.78278645984767,40.45904127338672,278.636014623642,-0.0025675466749817,-0.0056325951591134,-0.8629442453384399,0.5052613615989685,-0.0145030370241887,0.0264463370371775,1.3221464441648674,-0.0264322254806756,-0.0024941267911344,-0.1006366163492202,0.0300047176005318,0.1567314726859331,-12.266573170423507,14943.0
21.5,2.0,112.0,20.755245208740234,40.33139801025391,-79.78278640017017,40.45904129581454,278.95381872177126,0.0006810569902881,-0.0023108019959181,-0.8609552383422852,0.5086751580238342,0.0017132709291058,0.020733986206364,1.8591207275146675,0.1262884140014648,0.0107019115239381,-0.0398356541991233,-0.0012326021958142,0.0379696074686944,-12.458450721502304,14943.0
21.6,2.0999999046325684,114.0,20.713926315307614,41.34922409057617,-79.78278619410783,40.459041387648654,279.1323579978943,0.0054755760356783,0.0006193072767928,-0.8599697351455688,0.5103153586387634,-0.018039903727789,0.0159819060676803,2.0938797397634654,0.0286105927079916,-0.0050734323449432,-0.011524680070579,0.0385081497346982,-0.0458552629966288,-12.406333318948748,14944.0
21.8,2.200000047683716,113.0,20.731454849243164,40.41886520385742,-79.78278600150354,40.45904151399217,279.563895149231,0.0045962436124682,0.0021207279060035,-0.8583998084068298,0.5129563212394714,-0.0479301290535172,0.0117377402859436,2.541150513080533,-0.0819784179329872,-0.0401094779372215,0.0009399426053278,0.0428230385715141,-0.1047436407767236,-12.244303464889526,14944.0
21.9,2.400000095367432,111.0,21.00189781188965,36.14876556396485,-79.78278599999253,40.45904151259013,279.8298038673401,0.0005249413079582,0.000812193902675,-0.8579357862472534,0.5137561559677124,-0.0197829406536489,0.0074251822218723,2.7724126932487168,-0.0313125811517238,-0.0016219998942688,-0.0266883298754692,0.0168316031154245,0.1457296075299382,-12.10303005695343,14944.0
22.1,2.400000095367432,109.0,20.5311279296875,33.135040283203125,-79.78278580693886,40.459041539723785,280.3807381820679,-0.0028845795895904,0.0103744184598326,-0.8602988719940186,0.5096763968467712,0.0362275592358384,0.0271719752154184,3.069913998521552,0.0715266764163971,-0.1539130508899688,0.1496717035770416,0.0814132868684828,-0.0730003860779106,-11.383992100954057,14945.0
22.2,2.5,105.0,20.49982643127441,34.073352813720696,-79.78278577348001,40.45904148844306,280.6923422050476,-0.0045500970445573,0.0168066173791885,-0.8625034689903259,0.5057516098022461,0.0195706813613477,-0.000204650857338,3.1538949386201205,0.0012003045994788,-0.0931792631745338,0.0457413122057914,-0.0310008181957528,0.1299112355243414,-10.775075926780698,14945.0
22.4,2.5999999046325684,100.0,20.469776153564453,34.17672348022461,-79.78278543861276,40.45904132402119,281.3149890136719,-0.0040856320410966,0.0126782348379492,-0.8655920624732971,0.5005728006362915,0.0167659516905163,0.010762962481622,3.222838977768082,-0.1527498811483383,0.0813163444399833,-0.0730985328555107,-0.0459015930444002,0.2387898536212742,-10.148511686325074,14946.0
22.5,2.799999952316284,100.0,20.61000633239746,32.40348052978516,-79.78278533589123,40.459041226092594,281.6379913520813,-0.0034947369713336,0.0078853582963347,-0.8662261366844177,0.4995777606964111,0.0268766487057823,0.0577759180871388,3.2454889829105533,-0.1253916621208191,0.0194859616458416,-0.1003442555665969,-0.0086927403090521,0.2410120696574449,-10.059427016973496,14946.0
22.7,2.799999952316284,101.0,21.229772567749023,31.767335891723643,-79.7827848734012,40.459040996496256,282.28397695541383,-0.0034765643067657,0.0006603116635233,-0.86592698097229,0.5001580119132996,0.0603291477894766,0.1425197038122524,3.2968420786029338,-0.0426804609596729,-0.1092542335391044,-0.125865489244461,0.0516745901713147,0.2201992709934712,-10.217280789613724,14947.0
22.8,2.900000095367432,106.0,21.38001823425293,29.95433235168457,-79.78278445722289,40.459040817269226,282.6280307006836,-0.002341971034184,0.0006274107727222,-0.8653494715690613,0.5011631846427917,0.0596379324369156,0.1684980445318198,3.348063748234725,-0.0130045432597398,-0.0975898876786232,-0.0300082340836524,0.0207074026018381,-0.0493618336552754,-10.332148171663285,14947.0
23.0,2.799999952316284,106.0,21.475173950195312,28.093616485595703,-79.78278410200875,40.4590405883428,283.30057613372804,-0.0052214274182915,0.0021204769145697,-0.8635722994804382,0.5041936039924622,0.0363189866362344,0.1855891019884422,3.358667836653773,-0.1428911983966827,-0.0798988342285156,-0.0384257920086383,0.0077343199937604,0.0928553468640893,-9.748611837029458,14948.0
23.11,2.900000095367432,110.0,21.52525520324707,27.354103088378903,-79.78278321917816,40.45904024886565,283.94102661132814,-0.0042826808057725,0.0026265878695994,-0.8624684810638428,0.5060858130455017,0.0292889741303339,0.203633368318411,3.255157903554233,0.0041462201625108,0.0641856342554092,-0.0953469052910804,-0.0035224963270593,0.0694283357402309,-9.49907430768013,14948.0
23.3,2.900000095367432,109.0,21.337448120117188,29.501081466674805,-79.78278260610016,40.459040280400274,284.1804370117188,-0.0023315832950174,0.0016167579451575,-0.8620979189872742,0.5067338943481445,0.0148458039425684,0.2171928039894364,3.1326941715574006,0.0785590484738349,0.1431779116392135,0.1100144684314727,-0.0568318663537502,-0.2135214400850236,-9.261513045430185,14949.0
23.4,3.0,108.0,21.40005111694336,28.682048797607425,-79.78278235079979,40.4590401754706,284.49087802886964,0.0013471086276695,-0.0016142333624884,-0.8621820211410522,0.5065943002700806,0.0025323216924062,0.2271393789600509,3.08307892669124,-0.0204716399312019,0.0246649347245693,-0.0255182571709156,0.0279551977082155,-0.0364429542794823,-9.353800234794615,14949.0
23.61,3.0,111.0,21.358732223510746,29.40566062927246,-79.7827822849348,40.4590403559569,285.03159706115724,0.0067259077914059,-0.0105386124923825,-0.8624658584594727,0.5059608221054077,0.0080710206185518,0.200205918037512,2.9310260387497853,0.1868896037340164,0.155154675245285,0.1466429978609085,0.0625345552805811,-0.2981568716838956,-9.341836831569672,14950.0
23.7,3.0,111.0,21.375009536743164,28.43554306030273,-79.78278213241184,40.45904029054896,285.3230046463013,0.006771458312869,-0.0119694136083126,-0.8624585866928101,0.5059407949447632,-0.0072336197630584,0.2110404971382682,2.8931299513384987,-0.0931944847106933,0.0105705754831433,0.037096444517374,0.0466553539596498,-0.0790653556957841,-9.420629231929778,14950.0
23.9,2.900000095367432,111.0,21.430099487304688,27.9266300201416,-79.78278152387169,40.459039754181326,286.0641192626953,0.003390063997358,-0.0123781505972147,-0.8634093403816223,0.5043408274650574,0.0094505112881741,0.1878417991743276,2.9145992032246166,-0.0920377671718597,-0.0107431784272193,-0.0920094549655914,-0.0015567275206558,0.3169056397676468,-9.574948947429656,14951.0
24.01,2.900000095367432,112.0,21.34621238708496,29.97023582458496,-79.78278142903403,40.45903970639873,286.3554295730591,0.0030644661746919,-0.0125190084800124,-0.8637814521789551,0.5037018060684204,0.035718532177168,0.1556515740729646,2.9033248181568565,0.1666904538869857,0.06534144282341,0.1004232615232467,0.0006005318881943,-0.1711759226024151,-9.692082710266114,14951.0
24.2,2.900000095367432,110.0,21.31741523742676,29.723730087280277,-79.78278062835341,40.45903970961451,287.02990715026857,0.0031151897273957,-0.0141044678166508,-0.8635021448135376,0.5041383504867554,-0.0137795398739756,0.131680029005824,2.91280356087784,-0.0811727643013,-0.1162502467632293,-0.0840860605239868,0.0733109508873894,0.0115199101902544,-9.758391305208209,14952.0
24.3,2.900000095367432,109.0,21.46014976501465,27.58470344543457,-79.78278019415019,40.45903945592049,287.41024772644045,0.0036949266213923,-0.0140359653159976,-0.8631133437156677,0.5048017501831055,-0.0156893204997646,0.1459930619063866,2.9544216466425937,-0.1356037259101867,-0.0486415475606918,-0.0916994586586952,-0.0215560939768329,0.2890192450582981,-9.721823987960816,14952.0
24.5,2.799999952316284,107.0,21.294878005981445,30.0736083984375,-79.78278007871144,40.45903947248786,287.9972228240967,0.002868081908673,-0.0142035167664289,-0.8621931076049805,0.5063725113868713,-0.0212468283960534,0.0923003543044544,2.916763218339553,-0.1257677674293518,-0.0230625811964273,-0.0920161679387092,0.0434471009345725,0.1212204732187092,-9.668140701055528,14952.0
24.6,2.799999952316284,104.0,21.362489700317383,29.18301010131836,-79.78277957376136,40.45903923009444,288.66602508544923,0.0015472220256924,-0.0173782594501972,-0.8617436289787292,0.5070438385009766,0.0136029180467359,0.0796125222787522,2.95818120430796,0.1619966626167297,0.158287763595581,0.0116131221875548,0.0334153345366939,0.1549054237827658,-9.690253116488456,14953.0
24.8,2.799999952316284,102.0,21.332439422607425,28.75361442565918,-79.7827790697944,40.45903904013579,288.98673431396486,0.0006360827828757,-0.0172049570828676,-0.8614160418510437,0.5076081752777101,0.0180863086593442,0.0915809972768719,2.9630823706505933,0.0198252629488706,0.0413191653788089,0.0467129163444042,0.0094527846970595,-0.083568716738373,-9.755716788768767,14953.0
24.9,2.5999999046325684,101.0,21.314910888671875,29.33409309387207,-79.7827790644846,40.45903907475951,289.28308479309084,0.0011604550527408,-0.0165026579052209,-0.8611446619033813,0.5080907940864563,0.00884352695706,0.0613319233088399,2.9610033150108674,0.0102245500311255,-0.0944437831640243,0.0034453475382179,0.1049409112147986,-0.0564617924205958,-9.8112080347538,14954.0
25.1,2.5999999046325684,99.0,21.324928283691406,28.745662689208984,-79.78277861114267,40.459038711975865,289.92002384185787,0.0021133520640432,-0.0148608442395925,-0.8616291284561157,0.507316529750824,0.0191231875270029,0.0778577872638227,2.9787489534008063,0.1608781516551971,0.0786247253417968,0.1462564766407013,0.0518743776530027,-0.1431304470822215,-9.712770743966104,14954.0
25.2,2.5,93.0,21.37125396728516,28.95240974426269,-79.78277859821956,40.45903873472708,290.2174853515625,0.000787197612226,-0.0148593317717313,-0.8623834252357483,0.5060370564460754,-0.0011669572508614,0.0543929318472472,2.96406033152958,-0.0015035200631245,0.0330217778682708,0.0418529771268367,0.1320446926541626,-0.0223493098933249,-9.678626512885094,14955.0
25.4,2.5,91.0,21.2773494720459,28.96036148071289,-79.78277872218096,40.45903855859881,290.8598136138916,-0.0015335346106439,-0.014974033460021,-0.8634843230247498,0.5041510462760925,0.0629197033762689,0.0103582273122976,2.986314582684161,0.2620648145675659,0.1101752966642379,0.1698654294013977,0.1423525115847587,-0.2268486332707107,-9.629737942814828,14955.0
25.5,2.299999952316284,86.0,21.368749618530277,27.44157218933105,-79.78277878551334,40.45903859845389,291.1575650405884,-0.0009839487029239,-0.0145529154688119,-0.8638518452644348,0.5035347938537598,0.0177022193491281,0.0007315769923961,2.9713589035714216,-0.2014561891555786,-0.0968997254967689,-0.0778244584798812,0.1199959748983383,0.3151076209545136,-9.608712524771692,14956.0
25.7,2.200000047683716,83.0,21.377513885498047,27.58470344543457,-79.78277900302571,40.45903858242436,291.77658073425295,-0.0007055917521938,-0.0145704504102468,-0.8639679551124573,0.5033355951309204,0.0223233478111194,-0.0331099625075882,2.990329403376853,-0.1434525400400161,-0.018680889159441,-0.066125214099884,0.1468157552462071,0.2385562025383115,-9.696041859984398,14956.0
25.81,2.0999999046325684,84.0,21.26107215881348,29.23867225646973,-79.78277905915445,40.459038921388895,292.0607508850098,-0.0012279154034331,-0.0154612800106406,-0.8640480637550354,0.5031703710556029,0.0018077790929082,-0.0510030699058834,3.0020129844132906,0.0970618203282356,0.0737984180450439,0.0282368659973144,0.1670428182184696,-0.0516712234541773,-9.7813153141737,14957.0
26.0,2.0999999046325684,81.0,21.30739974975586,28.992168426513672,-79.78277925212133,40.45903914923401,292.66012756347664,-0.0025392798706889,-0.0161156300455331,-0.8632040619850159,0.5045915246009827,-0.0187530429689482,-0.0658674526087108,2.9946848716750347,0.0592323131859302,-0.0329015776515007,-0.0442371889948844,0.1219885506760329,0.0821086578536778,-9.733152968287468,14957.0
26.1,2.0999999046325684,71.0,21.25731658935547,29.61240577697754,-79.78277956685427,40.459039484295694,293.2531203460693,0.0013277283869683,-0.0116753652691841,-0.8617251515388489,0.5072393417358398,-0.0489006465071064,-0.1024997815425945,2.9949037919695893,-0.195878729224205,-0.1777487397193908,-0.0878413543105125,0.1395052738767117,-0.0373861467093229,-9.706051708459857,14958.0
26.31,2.200000047683716,66.0,21.149641036987305,29.898670196533203,-79.78278000792734,40.45903951854905,293.5541648101807,0.0007316192495636,-0.0101487580686807,-0.8614590167999268,0.5077252984046936,-0.0140284085845851,-0.1151109848062682,3.0004713144585566,0.1766926944255828,0.1184506565332412,0.087631419301033,0.1525553181767463,0.0191969754360616,-9.618908314704896,14958.0
26.41,2.200000047683716,53.0,21.20097541809082,29.62830924987793,-79.78278016034278,40.459039640515215,293.8530635070801,-0.003517092205584,-0.0097205750644207,-0.8613814115524292,0.5078536868095398,-0.0359573774112228,-0.124291266837215,2.9862101674217416,-0.211728498339653,-0.1514948457479477,-0.0257525090128183,0.0976725389342755,0.0801725259795785,-9.694952523708343,14958.0
26.61,2.200000047683716,45.0,21.130859375,30.59047508239746,-79.7827803687183,40.45904004801436,294.41863624572755,-0.0086339237168431,-0.0071762423031032,-0.8618387579917908,0.5070581436157227,-0.0152806631396988,-0.1333503193448859,2.9672576843017504,0.0943797305226326,0.0763190910220146,0.122999757528305,0.1399594106711447,-0.0297528533544391,-9.697996584177018,14959.0
26.71,2.200000047683716,37.0,21.17092514038086,30.2962589263916,-79.78278047357541,40.45904018582486,294.71480552673336,-0.0074825463816523,-0.0051958970725536,-0.8620212078094482,0.5067903995513916,-0.023437454719151,-0.1391637546575095,2.96225651945696,0.0807146877050399,-0.0502888895571231,-0.0039058935362845,0.1502754065673798,0.0519963103719055,-9.79905459702015,14959.0
26.9,2.200000047683716,31.0,21.123348236083984,30.57457160949707,-79.78278082726814,40.45904037366381,295.27515594482423,-0.0037814548704773,-0.0050793667323887,-0.8622224926948547,0.506490170955658,-0.0252344723007653,-0.1193090107732576,2.9477275062334325,0.2176328748464584,0.15101158618927,0.159201830625534,0.1764990267343819,-0.2232312715798616,-9.707589526176452,14960.0
27.0,2.299999952316284,25.0,21.1020622253418,30.66999244689941,-79.78278090308795,40.45904049014742,295.56922332763673,-0.0044446978718042,-0.0067781214602291,-0.8622137904167175,0.5064798593521118,-0.0588699703335657,-0.0961906936735049,2.937509869455781,-0.176773801445961,-0.0790778249502182,-0.0717224925756454,0.1756844547763467,0.2299873638153076,-9.680273673534394,14960.0
27.2,2.400000095367432,28.0,21.19596672058105,30.407583236694336,-79.78278122508429,40.45904079335029,296.1207923126221,-0.0024818002711981,-0.0088475979864597,-0.8622012734413147,0.5064826607704163,-0.0359615767775484,-0.0824057420807301,2.9393604606509736,0.079846866428852,0.1278299838304519,-0.0499306768178939,0.1377594505995512,0.2794123062863946,-9.757898384928705,14961.0
27.3,2.700000047683716,20.0,21.05824089050293,31.29818153381348,-79.78278141495707,40.45904092709101,296.3740138244629,0.000836250372231,-0.0084316898137331,-0.8623263239860535,0.5062822103500366,-0.0143673771640059,-0.0748063494673028,2.916855629371849,0.2850322425365448,0.0757433697581291,0.1538508683443069,0.2756625234335661,-0.2300988811813295,-9.71298007428646,14961.0
27.5,2.700000047683716,18.0,21.3599853515625,27.099645614624023,-79.7827815529392,40.45904114039694,296.9572428894043,0.0024221481289714,-0.0063097332604229,-0.8627129793167114,0.5056487321853638,-0.0813783200995438,-0.0629361617179856,2.920200939730866,-0.1338845044374466,-0.1302989572286605,-0.1165303215384483,0.2199157358519733,0.2378330481424928,-9.819281870126725,14961.0
27.6,2.5,17.0,21.29237365722656,27.664220809936523,-79.78278167065478,40.45904130900025,297.2097834777832,0.0031818407587707,-0.0058103571645915,-0.8628336191177368,0.5054448246955872,-0.0646670791490407,-0.0544804946372929,2.891933178035529,0.0211886130273342,-0.0332156978547573,-0.0355840921401977,0.1577203647606075,0.1782641732320189,-9.52257660627365,14962.0
27.8,2.5,19.0,21.57158088684082,24.793630599975582,-79.78278190661365,40.459041627554704,297.7504271697998,0.0031958923209458,-0.0047974721528589,-0.8629121184349059,0.5053210854530334,-0.0572169556302604,-0.0716415087468463,2.769659433141235,0.0087710991501808,0.067188374698162,0.022573160007596,0.1633225089870393,0.0275831617601215,-8.975896441340447,14962.0
27.91,2.299999952316284,15.0,21.600378036499023,22.805686950683597,-79.78278198271175,40.459041712497786,298.0217456054688,0.0019164117984473,-0.0058471034280955,-0.8628933429718018,0.505348801612854,-0.0470317189273576,-0.0672895296134446,2.6544764487057333,-0.0150229483842849,0.0246240962296724,0.0013486809330061,0.181859662681818,0.0551451456360519,-8.724458566904069,14963.0
28.0,2.200000047683716,15.0,21.577842712402344,23.70423889160156,-79.78278205589633,40.45904179263841,298.28101722717287,0.0012400395935401,-0.0058657736517488,-0.8628969192504883,0.5053444504737854,-0.0322028284478104,-0.0650724247035262,2.5308680873785754,0.0261560156941413,-0.0001991173630813,-0.0012192782014608,0.1554165252484381,0.0706972135137766,-8.615969327688218,14963.0
28.2,2.0,13.0,21.5452880859375,23.990501403808597,-79.78278226702938,40.45904199151976,298.74061576843263,0.0041744485497474,-0.0061518629081547,-0.8628696203231812,0.5053719878196716,-0.0203784267434394,-0.0623857945530874,2.3111647567643563,0.0707063376903534,0.0108030829578638,-0.0093433950096368,0.1160221797320991,0.0453727763425558,-8.55619207262993,14963.0
28.4,1.8999999761581416,15.0,21.52901268005371,24.17339324951172,-79.78278254692192,40.45904217225887,299.1466426086426,0.0052289450541138,-0.0076866331510245,-0.8629073500633241,0.5052767992019653,-0.0272286289950269,-0.0422642958356925,2.070511462499708,-0.0477350652217865,-0.0020862449891865,-0.00751135032624,0.1686287658289075,-0.0113089501869399,-8.518971621394158,14964.0
28.5,1.7999999523162842,10.0,21.44011688232422,25.98639678955078,-79.78278262009738,40.45904222327549,299.3475169372559,0.0031688327435404,-0.0084660332649946,-0.8630590438842773,0.5050222873687744,-0.0184808572766981,-0.0468516946585823,1.9540212980133849,-0.046628288924694,0.0573742315173149,0.0165321193635463,0.1477582807280123,0.0128364519076421,-8.630858677625657,14964.0
28.7,1.7000000476837158,4.0,21.5064754486084,24.45965576171875,-79.78278288394145,40.45904240074301,299.6890086364746,0.003335564630106,-0.0121916746720671,-0.8633546829223633,0.5044392943382263,0.0002712894223901,-0.0562601343771008,1.7897333353384353,-0.0156170492991805,0.1015883386135101,0.0435588508844375,0.1402052129991352,0.0554414989706128,-8.932088516950607,14964.0
28.8,1.600000023841858,354.0,21.41257095336914,25.92278289794922,-79.78278314953425,40.45904255075802,300.0117663574219,0.0059457919560372,-0.0154798701405525,-0.8635298609733582,0.5040251612663269,-0.0036222828474706,-0.0511309514069155,1.6572269544650986,-0.0256648417562246,0.0529168993234634,-0.0422321781516075,0.175960461627692,0.0497142928512766,-8.991963420510293,14965.0
29.0,1.5,350.0,21.49145126342773,25.946638107299805,-79.78278324770739,40.45904260285892,300.1746710968018,0.0049273697659373,-0.016669875010848,-0.8635038137435913,0.5040427446365356,-0.0146909064477369,-0.0557729677900844,1.599818050059622,-0.0961066782474517,-0.0190418865531682,-0.0768000185489654,0.2025999558717012,0.0981842708028853,-9.144447110295298,14965.0
29.11,1.399999976158142,329.0,21.471418380737305,26.01820373535156,-79.78278338158563,40.45904266898936,300.31839363098146,0.0027650273405015,-0.0180950034409761,-0.8633081316947937,0.5043451786041261,-0.0150707936019404,-0.0576004703723791,1.5618716816309866,-0.1137601360678672,-0.0247816070914268,-0.0931522026658058,0.1907072308659553,0.1416520425584167,-9.163296779394152,14965.0
29.3,1.399999976158142,319.0,21.54904556274414,23.12375831604004,-79.78278359833695,40.45904276508436,300.6245955657958,0.0009644717210903,-0.0174155365675687,-0.8625287413597107,0.5057073831558228,-0.0175452930227993,-0.0657426608295878,1.5034387024419833,-0.0347029827535152,-0.0221020113676786,-0.0747512653470039,0.2104859128966928,0.128014709400013,-9.377869713306428,14965.0
29.41,1.399999976158142,302.0,21.45388984680176,25.1673641204834,-79.78278369872366,40.45904285349067,300.7725104522705,0.0025755511596798,-0.0160150229930877,-0.8621883988380432,0.5063281655311584,-0.0251452091115975,-0.0823542481573986,1.4586593552446976,0.0510955825448036,0.0436224192380905,0.0034949721302837,0.1576624590530991,0.0134532555006444,-9.334272288680078,14965.0
29.5,1.399999976158142,295.0,21.58660697937012,18.734378814697266,-79.78278380103797,40.45904293311653,300.91627494812013,0.004930140916258,-0.0147401066496968,-0.8619978427886963,0.5066738128662109,-0.0408352238660025,-0.0937071312938973,1.3967924278076933,0.0496913790702819,0.0527723804116249,-0.0087625347077846,0.1811757394485176,0.0248212796961888,-9.214492076039315,14965.0
29.7,1.399999976158142,284.0,21.76815414428711,19.951000213623047,-79.78278405751466,40.45904302345736,301.3427046966553,0.0060358750633895,-0.0037531009875237,-0.8441210985183716,0.5361055731773376,-0.0883637813999157,-0.1008048525324075,0.9122550036308102,0.0038679752033203,-0.1636198610067367,-0.7997874617576599,0.2364992434345185,-0.2884147525951267,-7.660160652995111,14966.0
29.9,1.5,280.0,21.65546989440918,22.19340133666992,-79.78278413549641,40.4590431507966,301.4235629272461,0.0039798528887331,-0.0007884560618549,-0.8181224465370178,0.5750298500061035,-0.1099325215773465,-0.1165705206017276,0.7214190388872682,0.0147170526906847,-0.0245098862797021,-1.0536015033721924,0.0577643739106133,-0.2254535058885813,-7.873326746821402,14966.0
30.0,1.5,276.0,21.500215530395508,24.3721866607666,-79.78278421261169,40.4590432853049,301.4883822631836,0.0032964975107461,-0.0007166294381022,-0.7831607460975647,0.621810257434845,-0.1222488040066038,-0.1101046142353799,0.5819636279044607,0.0096212280914187,0.0542537868022918,-1.2260098457336426,0.0459109714301303,-0.1236025557853281,-8.318572922945023,14966.0
30.2,1.600000023841858,268.0,21.51899528503418,24.11773109436035,-79.78278432268795,40.45904357487814,301.5767249298096,0.0098590655252337,4.118017386645079e-05,-0.7005670666694641,0.7135185003280641,-0.0972938830940237,-0.0672702440809767,0.4151738694601218,0.146828755736351,0.0807354971766471,-1.1608234643936155,0.1396132920496166,0.0975254449155181,-9.019306170344354,14966.0
30.3,1.600000023841858,272.0,21.45388984680176,24.777727127075195,-79.78278438485134,40.459043773377296,301.6365184020996,0.0146504715085029,0.0015177313471212,-0.6281532645225525,0.7779502272605896,-0.0503680295410415,-0.0203613902153449,0.3439304418482594,-0.0265208594501018,-0.0861022919416427,-0.7088117599487305,0.1937006763741374,0.1089064745977521,-9.23830252289772,14966.0
30.5,1.600000023841858,277.0,21.35372543334961,26.12952995300293,-79.78278441525755,40.459043789730494,301.66973487854005,0.0139743741601705,0.001019017654471,-0.6060052514076233,0.7953372597694397,-0.0080932911033123,-0.0196178248776869,0.3295823837335638,0.0372739657759666,0.1535751074552536,-0.3830480873584747,0.1670008279010653,0.1170637881103903,-9.658812053203585,14966.0
30.6,1.600000023841858,275.0,21.60163116455078,22.86134910583496,-79.7827843077459,40.459043805342944,301.7096537780762,0.0110050728544592,-0.0013665977166965,-0.5916091203689575,0.8061486482620239,0.0283487111321642,0.0139908592921378,0.3662726407089049,-0.0606416463851928,-0.1677364259958267,-0.1247616037726402,0.4064119664579629,-0.0448144494742155,-9.798744109869004,14966.0
30.8,1.600000023841858,278.0,21.36624526977539,26.455551147460927,-79.7827839476633,40.459043507529785,301.84985153198244,-0.0287415739148855,0.0196736324578523,-0.5858347415924072,0.80968177318573,0.0981843050663724,0.1387314683606478,0.350914585157194,-0.0490136556327343,-0.6048163771629333,-0.0641904100775718,0.3824805553257465,0.3902744917944074,-9.416085360646248,14966.0
30.9,1.600000023841858,295.0,21.15715217590332,28.79337310791016,-79.78278369223892,40.459043466654855,301.8835353088379,-0.0534923113882541,0.0371169820427894,-0.5893054604530334,0.8052825927734375,0.1265922460015137,0.2273422689155763,0.3438767706435399,0.0881178379058837,-0.5827633142471313,0.1729371547698974,0.2055079954862594,0.096711375452578,-9.631026084423066,14966.0
31.01,1.600000023841858,305.0,21.2235107421875,27.72783470153809,-79.7827832833893,40.45904344661996,301.9167651367188,-0.0719063952565193,0.0524826012551784,-0.5952422022819519,0.7985999584197998,0.135968263398736,0.3622860876650863,0.3916896667935552,0.0633129552006721,-0.4342006742954254,0.1957673579454422,-0.0048176397476345,0.13791981048882,-9.95386840224266,14966.0
31.2,1.600000023841858,305.0,21.269838333129886,27.59265518188477,-79.78278202729194,40.45904319993669,302.1045359802246,-0.0928153246641159,0.0656355693936348,-0.6082741022109985,0.7855444550514221,0.1450649771880522,0.6889632033488943,0.6435014387546792,-0.0961612910032272,-0.0832476690411567,0.1404543370008468,0.0600843252427876,0.1920077429898084,-10.2605244576931,14967.0
31.4,1.7000000476837158,314.0,21.236032485961918,28.13337707519531,-79.78278037497044,40.459044200803966,302.0328444671631,-0.1011056751012802,0.0663359612226486,-0.6166732907295227,0.7778761982917786,0.0660683337811451,1.104235947147655,0.7265174917179049,-0.071288838982582,-0.0348242595791816,0.1265803128480911,0.0669546163408085,0.0069431848637759,-10.193684935569763,14967.0
31.51,1.7000000476837158,331.0,21.07827377319336,30.121318817138672,-79.78277879297417,40.459044447854936,302.0780848693848,-0.1053293049335479,0.0670466423034668,-0.6176669597625732,0.776465117931366,0.0388026718908035,1.3456452681668092,0.7987461247441562,-0.0679289922118187,-0.1586978435516357,0.024495143443346,0.0884678429178893,0.1571451266482472,-10.222847338914873,14967.0
31.7,1.7999999523162842,340.0,21.24104118347168,27.807353973388672,-79.78277520380067,40.4590456758344,302.0565203857422,-0.109241746366024,0.071494311094284,-0.6146754026412964,0.7779003977775574,-0.0016364196416329,1.8023852132307911,0.9787049724236996,0.1363997608423233,0.0291121490299701,0.0573585480451583,-0.0487039899174124,-0.0569683988392353,-10.516400953531264,14967.0
31.8,1.7999999523162842,353.0,21.149641036987305,28.713855743408203,-79.78277307835835,40.45904664347035,302.00527565002443,-0.1063052415847778,0.074450708925724,-0.6125038862228394,0.7797405123710632,-0.0654810932724793,2.037005417836956,1.053755877532104,-0.1094315201044082,-0.1149317100644111,-0.142770454287529,-0.1540737487189472,0.3431639869138598,-10.417945536375049,14967.0
32.0,1.8999999761581416,1.0,21.133363723754886,29.055782318115234,-79.78276738752976,40.45904779438809,302.1071566772461,-0.0972798615694046,0.0828157588839531,-0.6111570000648499,0.7811308503150941,-0.0196862941929234,2.5195614806414914,1.2028215670815068,0.2881152927875519,0.1692156642675399,-0.0096499100327491,-0.1001362906582653,0.1156635352782905,-10.200882858037948,14967.0
32.11,2.0999999046325684,14.0,21.11708641052246,29.27047920227051,-79.7827608592863,40.45904973304378,302.10506050109865,-0.0922958329319954,0.0880590751767158,-0.6102042198181152,0.7819066643714905,-0.0311375788595415,2.9856451708959453,1.2836407381852972,0.0600415617227554,-0.0174094140529632,0.0731940045952797,-0.1187672190740704,-0.0735379187855869,-10.094905582666398,14967.0
32.3,2.200000047683716,19.0,21.324928283691406,26.60663604736328,-79.78275746607187,40.459051333219655,302.0327834320068,-0.0925284400582313,0.0895793512463569,-0.609146773815155,0.7825307846069336,-0.0854223933108243,3.2110171424189007,1.3149489241131391,-0.1116240546107292,-0.0876506865024566,-0.0108792688697576,-0.1395437010470777,0.1089790257532149,-10.151818871498108,14967.0
32.4,2.5,27.0,21.20097541809082,28.196990966796875,-79.78275341513498,40.45905214106817,302.0782851409912,-0.0936732739210128,0.092884786427021,-0.6099202036857605,0.7814059257507324,-0.0348372547504333,3.4312376960237567,1.3564532374061609,0.0141603639349341,-0.1996360868215561,0.0735343173146247,-0.233422895371914,-0.0042139055952429,-9.963823871612547,14967.0
32.5,2.700000047683716,29.0,21.215999603271484,27.544944763183597,-79.78274909333412,40.45905296566176,302.12089530944826,-0.0949653536081314,0.0966719165444374,-0.6112425327301025,0.7797556519508362,-0.021816211786748,3.6534671871014215,1.413722880364077,-0.0850743204355239,-0.0459857769310474,-0.0476731322705745,-0.2620807936415077,0.3799213021248579,-9.879822771549224,14967.0
32.7,3.0999999046325684,36.0,21.32868385314941,26.14543342590332,-79.78274033549467,40.45905612037742,302.04779235839845,-0.0965015515685081,0.0996086671948432,-0.6112803220748901,0.7791674137115479,-0.0298406614766786,4.073479475860388,1.5208959941109197,0.0487922169268131,0.1137319356203079,0.0480423271656036,-0.4800791361182928,-0.1539477229490876,-9.949982342720032,14967.0
32.9,3.299999952316284,38.0,21.129608154296875,29.23072052001953,-79.78273087593371,40.45905998073553,301.9527987670898,-0.0962470769882202,0.0930112078785896,-0.6087257266044617,0.7820093035697937,-0.0619710669495218,4.4854805552790085,1.5534953811063,-0.1757738441228866,-0.0574564412236213,-0.2295606881380081,-0.4668422458693385,0.3563346209004521,-9.861280081272126,14966.0
33.0,3.799999952316284,43.0,21.17092514038086,28.06180953979492,-79.78272534384648,40.45906104917124,301.97982208251955,-0.0964429602026939,0.0922008827328682,-0.607693076133728,0.7828837633132935,-0.0189772849686372,4.695259118830323,1.5519370253199312,-0.1301551908254623,-0.0452392771840095,-0.1749648153781891,-0.6756402137875557,0.3101612054184079,-9.712202979326248,14966.0
33.2,4.0,44.0,21.20848655700684,28.22084617614746,-79.78271456894737,40.45906544351102,301.8681239318848,-0.1018837541341781,0.0909416079521179,-0.6005984544754028,0.7878013253211975,0.0042032701232205,5.073466716739111,1.5977691316337068,-0.0056721470318734,-0.1063089668750763,-0.100858449935913,-0.7583497370034457,0.1816036642715335,-9.774698020219803,14966.0
33.3,4.5,46.0,20.914255142211918,31.878662109375,-79.78270954570048,40.45906940891688,301.716236038208,-0.1052764430642128,0.0939851030707359,-0.5949152708053589,0.7913023829460144,-0.1165815574800349,5.260234400553439,1.6192263894616592,-0.0601400062441825,-0.1421043276786804,-0.1835523843765258,-0.651631984859705,0.2899734923802316,-9.80804059803486,14966.0
33.5,4.800000190734863,46.0,21.1208438873291,29.143251419067383,-79.78269661441949,40.45907224126436,301.7455786895752,-0.1113339364528656,0.0965336188673973,-0.5928454399108887,0.7917198538780212,0.0429746529372265,5.613976796311567,1.8530661298584263,0.0266348682343959,-0.0423571579158306,0.0709107294678688,-1.0487247321009636,-0.0859058853797614,-10.002411986589433,14966.0
33.6,5.300000190734863,45.0,21.17092514038086,28.42759132385254,-79.78269101976724,40.45907715513172,301.5767611694336,-0.1140521839261055,0.0939002186059951,-0.5881521105766296,0.7951427102088928,-0.1252622340353588,5.823196192519308,1.8994207468860351,-0.0273270308971405,0.0854688063263893,0.0164915546774864,-0.939657203257084,0.1239446361735463,-9.925229909420016,14966.0
33.8,5.5,46.0,20.90924644470215,32.323959350585945,-79.7826778152049,40.45908451202616,301.4101351928711,-0.1183816567063331,0.0884374231100082,-0.5831876993179321,0.7987844944000244,-0.2222354185222825,6.235772653236457,1.992883092467848,-0.0972563475370407,0.0129403909668326,-0.04496805742383,-0.9905110225081444,0.4321395691484213,-9.91677366614342,14966.0
33.9,6.0,46.0,20.887962341308597,32.18082809448242,-79.78266273690792,40.459088412118014,301.4299964141846,-0.1243265643715858,0.0906834751367569,-0.5835065245628357,0.7973955869674683,-0.1229079967810136,6.603880670612703,2.1617493977285327,-0.1380660682916641,-0.0327241383492946,0.0151611734181642,-0.8802848678827286,0.1944923345558345,-10.078651492595672,14966.0
34.11,6.300000190734862,47.0,21.02568817138672,30.98806381225586,-79.78265560578966,40.459093529090026,301.28066055297853,-0.1259925216436386,0.0897377133369445,-0.5809659957885742,0.7990943193435669,-0.2743388738418453,6.78014477787565,2.2621756169717147,0.071827121078968,0.0351827032864093,0.2748695909976959,-1.2956979650259022,-0.1365979560278356,-9.971608854532242,14966.0
34.21,6.800000190734862,47.0,20.827863693237305,32.75335693359375,-79.78264756189348,40.45909573406667,301.28995506286617,-0.1264494955539703,0.0905298516154289,-0.5828080773353577,0.7975898981094359,-0.215222483745952,6.95821927136951,2.3317154877243653,0.0379256606101989,-0.0973785817623138,-0.0049595395103096,-1.1692347503453493,0.2511953611671925,-9.89114531993866,14966.0
34.4,7.0,47.0,20.9167594909668,31.13119506835937,-79.78263137573087,40.4591035401806,301.14480392456056,-0.1284823417663574,0.0927347242832183,-0.5801314115524292,0.7989619970321655,-0.3655309316688127,7.318526209723184,2.5085244438587315,-0.0852405279874801,-0.0137070678174495,-0.0936015918850898,-1.3993271447718143,0.3213960090279579,-10.093553706407548,14966.0
34.5,7.5,48.0,21.218503952026367,26.7418155670166,-79.7826227337089,40.4591060354546,301.1559619140625,-0.1289198994636535,0.0926981717348098,-0.5797359943389893,0.7991827130317688,-0.3569302512377745,7.479070954696474,2.5930870786644085,0.0802708491683006,0.0219780430197715,0.1852609962224961,-1.6305816002190114,-0.1881944813020527,-10.029141948223115,14966.0
34.7,7.699999809265138,48.0,20.87168502807617,32.005889892578125,-79.78260492566827,40.45911386381221,301.0342635345458,-0.1312694549560547,0.0968848094344139,-0.5759767293930054,0.8010197877883911,-0.4171433484028616,7.85207484563251,2.687806532342199,0.1119060143828392,-0.0837564766407013,0.1609375327825546,-1.3755305850505828,-0.0727973232418298,-9.699555451869967,14966.0
34.8,8.100000381469728,48.0,21.06324958801269,29.37385368347168,-79.78259560777103,40.459118961044005,300.9018115234375,-0.1356547772884369,0.1008205190300941,-0.5724774003028871,0.8023108839988708,-0.5465001784788485,8.047319690158698,2.7833542141822205,0.0410457253456115,-0.167187362909317,0.0985611975193023,-1.4962368504703043,-0.0273128376714885,-9.90589433670044,14965.0
35.0,8.300000190734862,46.0,21.010662078857425,30.26445198059082,-79.78257653993,40.45912483939863,300.913501663208,-0.1368071287870407,0.1093881949782371,-0.5722285509109497,0.8011696338653564,-0.4651218147867018,8.350385784999414,3.095265188238856,0.0120508689433336,-0.0338297672569751,0.0043262895196676,-1.55832185536623,-0.0886459271796047,-9.843587576150895,14965.0
35.1,8.699999809265138,47.0,20.966840744018555,30.34396934509277,-79.78256617569212,40.459128938687456,300.8278254699707,-0.1384132355451584,0.1088388934731483,-0.570580244064331,0.8021435141563416,-0.5104016983969424,8.537471836723633,3.171008595731818,0.0112898265942931,-0.0505356118083,-0.1321527659893036,-1.4346473971009257,0.201459200643003,-9.766529459953311,14965.0
35.3,9.0,47.0,20.8629207611084,31.80709648132324,-79.78254535335482,40.459136320174494,300.7583140563965,-0.145210400223732,0.1057911589741706,-0.5671133399009705,0.8038063645362854,-0.4893092987552034,8.882750093266461,3.3509967000002066,-0.1149969175457954,0.0119124297052621,-0.2635671198368072,-1.6597336247563363,0.2624201514199376,-9.842067300081254,14965.0
35.4,9.399999618530272,48.0,20.87544059753418,31.4890251159668,-79.78252416497088,40.45914282937392,300.765552444458,-0.1510779112577438,0.1072554886341095,-0.5647726058959961,0.8041788339614868,-0.3403801506953793,9.204372712351436,3.5627689607707835,0.0029134955257177,-0.1044498085975647,-0.065541423857212,-1.6003574886918068,-0.0161296951258555,-9.89839820623398,14965.0
35.6,9.600000381469728,47.0,20.7990665435791,32.4432373046875,-79.78251289838913,40.45914721277221,300.69947425842287,-0.152648314833641,0.1101895347237587,-0.5616350173950195,0.8056817054748535,-0.3899854394283984,9.362147752250957,3.696867886712184,-0.0515665002167224,-0.0572300627827644,-0.381880909204483,-1.6656413590908052,0.204616167191416,-9.852906868457795,14965.0
35.7,10.100000381469728,47.0,20.800317764282227,33.3974494934082,-79.78250179902221,40.45915063802568,300.70304290771486,-0.155853122472763,0.1119795739650726,-0.5588529109954834,0.8067551255226135,-0.3159374645773218,9.493727348918926,3.8134539075449103,0.0541525818407535,-0.069075658917427,0.0473542176187038,-2.056992725282908,0.1271219766139984,-9.75349250793457,14965.0
35.9,10.300000190734863,48.0,20.75649642944336,33.37359619140625,-79.7824783724423,40.45915883122706,300.6335639190674,-0.1605419218540191,0.1117668896913528,-0.5521907210350037,0.8104443550109863,-0.193572752438042,9.802480066896807,4.01597848447091,0.0711940675973892,-0.0194512791931629,0.0001945893309311,-2.16277718871832,0.1342005519289523,-9.524258850216864,14965.0
36.0,10.699999809265137,47.0,20.7164306640625,34.14491653442383,-79.7824667087816,40.45916246150896,300.631389541626,-0.1631459891796112,0.1147781759500503,-0.5491139888763428,0.8115929961204529,-0.1396646299443531,9.948322891952252,4.0960093774079285,0.0128812910988926,-0.0900128707289695,0.1826042532920837,-2.401979179680348,-0.206779289804399,-9.413876282572748,14965.0
36.2,10.899999618530272,46.0,20.77652931213379,33.071426391601555,-79.78244212413341,40.4591709325074,300.57520668029787,-0.169570043683052,0.1175359711050987,-0.5415434837341309,0.8149613738059998,-0.028818027539736,10.242403340686945,4.3702908682893655,0.0207368042320013,-0.1298156380653381,0.102283664047718,-2.4315529346466067,-0.2706842953898013,-9.484931062459946,14965.0
36.3,11.199999809265137,47.0,20.73896789550781,33.508773803710945,-79.78242922516088,40.45917554825349,300.5359839630127,-0.1698876768350601,0.1159355863928794,-0.5382029414176941,0.8173339962959291,-0.0141358918518945,10.39609974200546,4.531122149952948,0.0311019793152809,0.0032479639630764,0.2221284508705139,-2.2262206479907043,-0.4610698014870286,-9.688866741657256,14965.0
36.5,11.399999618530272,47.0,20.73270797729492,33.58829116821289,-79.782404173521,40.45918355033088,300.5226821136475,-0.1614421159029007,0.1223790273070335,-0.5378910303115845,0.8183112144470215,0.1458506377429292,10.72473558998196,4.62714269299776,0.2150556743144989,0.1790585815906524,0.1311289668083191,-2.503467547595501,-0.0786546984314918,-9.52840160250664,14965.0
36.6,11.800000190734863,47.0,20.695146560668945,33.95407485961914,-79.78239091826126,40.45918823773773,300.48275939941414,-0.1503481417894363,0.1255529969930648,-0.5393333435058594,0.8189942240715027,0.0630423860732696,10.881769584854432,4.625305671972789,0.1574546694755554,0.1607134342193603,0.2937179505825043,-2.7354409182071686,-0.35725884642452,-9.52038623929024,14965.0
36.8,11.899999618530272,45.0,20.797813415527344,31.86275863647461,-79.78236442856499,40.45919717293364,300.4420928192139,-0.1302902549505233,0.1182723343372345,-0.5451322197914124,0.8196749687194824,-0.0619322887518905,11.258250532704148,4.3918571849455645,-0.0332185812294483,0.2533328533172607,0.2496037632226944,-2.5578501614928246,0.0390169351547956,-9.854462227821353,14965.0
36.9,12.199999809265137,46.0,20.81283950805664,31.56854248046875,-79.78233788238084,40.45920556278985,300.4449118804932,-0.1243245080113411,0.0995561406016349,-0.5511898398399353,0.8190371990203857,-0.0458101544359247,11.590826518878355,4.042600436385324,-0.1695398688316345,0.2293354272842407,-0.2176945656538009,-2.1187861002981663,0.2408773278817534,-9.870984120368956,14965.0
37.11,12.399999618530272,46.0,20.805326461791992,31.0914363861084,-79.78232349295673,40.459210294787134,300.39621154785164,-0.1194154918193817,0.0925365686416626,-0.5550859570503235,0.8179587125778198,-0.115632117618726,11.717229602197962,3.945339168162889,-0.0269634183496236,0.1721120178699493,-0.100586250424385,-2.25033427298069,0.2463834498636425,-9.96736026763916,14965.0
37.21,12.600000381469728,53.0,20.9167594909668,30.84493064880371,-79.78230998467104,40.45921453424555,300.4053343963623,-0.1134162619709968,0.0895775258541107,-0.5599090456962585,0.8158521056175232,-0.1769218195521419,11.819384183493614,3.799423725749425,0.0023734895512461,-0.0182918794453144,-0.0254352819174528,-2.330475333631038,0.1484209529869258,-9.851938569545746,14965.0
37.4,12.699999809265137,56.0,20.930532455444336,29.795297622680664,-79.78228154902244,40.45922345327829,300.3535517883301,-0.1081753820180893,0.0845899209380149,-0.569290041923523,0.8105872273445129,-0.4236609760884682,11.96866932091226,3.6083550793306833,-0.017943799495697,0.1092927455902099,-0.077044665813446,-2.5830864518880845,0.259709053337574,-9.691165866851806,14965.0
37.5,12.899999618530272,56.0,20.953067779541016,29.143251419067383,-79.78226790068648,40.459227715839226,300.3672122192383,-0.10312270373106,0.0789414942264556,-0.5739871859550476,0.8085002899169922,-0.5366298186647589,11.98505965160346,3.527288241130538,0.0423745289444923,0.1780084371566772,-0.0446734614670276,-2.603844652175904,0.1036889857985079,-9.629994050860406,14965.0
37.7,13.0,56.0,21.039459228515625,28.30036354064941,-79.78223943445528,40.459236655535406,300.33785240173336,-0.0935361981391906,0.0613422207534313,-0.5788373947143555,0.8077347874641418,-0.7337347850518576,12.086211691348623,3.163769401023708,-0.1497168689966201,0.0510642603039741,0.0046072527766227,-2.582233050763607,0.1156770752370357,-9.698293038010595,14965.0
37.8,13.199999809265137,60.0,21.07201385498047,27.5369930267334,-79.78222476708937,40.45924163236789,300.29726974487306,-0.0892802625894546,0.0509659200906753,-0.5788246989250183,0.8089460134506226,-0.7938521841254372,12.146046519990223,2.967512557520904,-0.0829435661435127,0.1727377623319626,-0.1744798868894577,-2.5752564454078675,0.1795272083580494,-9.796973572969437,14965.0
38.01,13.199999809265137,64.0,21.127103805541992,26.84518814086914,-79.78219759621084,40.45925024562288,300.34061424255367,-0.0815559104084968,0.0444732867181301,-0.5771936178207397,0.8113065958023071,-0.76409429625693,12.12403040238578,2.6037568733339302,0.0214369986206293,0.1015032529830932,0.0028587044216692,-2.4868287107348443,-0.0192024731892161,-9.812831221818923,14965.0
38.1,13.300000190734863,64.0,21.09455108642578,27.664220809936523,-79.78218322846438,40.45925515036517,300.29809371948244,-0.0812493190169334,0.047390129417181,-0.5748014450073242,0.8128690123558044,-0.7821644403716926,12.123517821924956,2.478040184236576,-0.0053650406189262,0.0045285783708095,-0.2002154737710952,-2.3248685847222808,0.3961470697447657,-9.459807330965996,14965.0
38.3,13.300000190734863,64.0,21.28360939025879,25.3900146484375,-79.78215539956541,40.45926422247573,300.28271286010744,-0.0843184664845466,0.0511113889515399,-0.5708996653556824,0.8150777816772461,-0.684206058546488,12.053553556106523,2.4857589857558224,0.0101118236780166,-0.0433715246617794,0.0253171157091856,-2.40535857796669,0.0457370030600577,-9.361138490438462,14965.0
38.42,13.300000190734863,65.0,21.332439422607425,24.539175033569336,-79.78214207495516,40.45926856042474,300.2972144317627,-0.0838843211531639,0.0494267903268337,-0.5693796873092651,0.8162887692451477,-0.6553818760612655,11.965705122314114,2.536373455044176,-0.0739215761423111,0.1437672972679138,0.1308177113533019,-2.7907336512207985,-0.3176502826809883,-9.38594647228718,14965.0
38.5,13.300000190734863,66.0,21.1208438873291,27.131452560424805,-79.7821288524368,40.45927288184989,300.3100241851807,-0.0722111612558364,0.0412067770957946,-0.5683454871177673,0.8185787200927734,-0.6110089873876806,11.887399834612149,2.471116427906225,-0.0165589433163404,0.385007917881012,-0.1136761754751205,-2.6979626047611243,0.0118237826786935,-9.345754466056825,14965.0
38.7,13.100000381469728,66.0,21.48894691467285,21.764005661010746,-79.78208770832724,40.45928635786757,300.2667445373536,-0.0236069317907094,0.0166238714009523,-0.5674304962158203,0.8229149580001831,-0.5006140835604661,11.79482696016948,1.1333664413472235,0.1212753653526306,0.3291862308979034,-0.2044764310121536,-2.023132815063,-0.0207117149233818,-9.642470254898072,14965.0
38.91,13.100000381469728,66.0,21.493953704833984,20.97677993774414,-79.78207495529662,40.45929053713921,300.27969734191896,-0.0092934500426054,0.0122943390160799,-0.5677607655525208,0.8230493068695068,-0.4901743120597913,11.646273628629274,0.8025423794044928,0.1575526595115661,0.3701405227184296,0.2189376950263977,-2.236056834161282,-0.0093684637360274,-9.772143956422807,14965.0
39.01,12.899999618530272,77.0,21.78067398071289,17.50980567932129,-79.78206238922459,40.45929465916125,300.2921981048584,0.0008325222879648,0.00861297827214,-0.5678214430809021,0.8231063485145569,-0.503014260076603,11.494462374752832,0.4469089998955068,-0.0117276413366198,0.1149006411433219,-0.1223691776394844,-2.038769585341216,0.299625253714621,-9.654993821382524,14965.0
39.2,12.800000190734863,80.0,21.507726669311523,21.38232040405273,-79.78203696362259,40.45930290442489,300.26461021423336,-0.004138542804867,-0.0043991152197122,-0.5662606954574585,0.8242040872573853,-0.4612884449607935,11.157602082775757,0.0388293062435532,0.0207401290535926,-0.0292992424219846,0.0393411293625831,-2.112912279814482,-0.2476624369248748,-9.09909493625164,14965.0
39.31,12.600000381469728,79.0,21.600378036499023,21.58906555175781,-79.78201224308422,40.45931107539976,300.22799674987795,-0.0030787242576479,-0.0193750858306884,-0.5629438757896423,0.826262354850769,-0.4205936945145763,10.8152118819446,-0.0997514429441924,-0.1993477046489716,0.1293408572673797,-0.2668902277946472,-1.9593480245769024,0.0051313885487616,-9.37596527516842,14965.0
39.5,12.5,79.0,21.71431541442871,18.71052360534668,-79.78200064490626,40.45931493597684,300.22013084411617,-0.0005231863469816,-0.0260733515024185,-0.5609863996505737,0.8274142742156982,-0.4231747123027136,10.619434631336864,-0.2453834385996796,-0.1714967936277389,0.1206879019737243,-0.1909851878881454,-1.8944320902228355,0.0624539276584982,-9.788173513412476,14965.0
39.6,12.199999809265137,84.0,21.629175186157227,20.4281063079834,-79.78198851018371,40.45931888207621,300.1914996337892,-0.0011629249202087,-0.030699748545885,-0.5585674047470093,0.8288900256156921,-0.4030077919980087,10.455001687341152,-0.3596693258232519,-0.0334549769759178,0.0731410831212997,-0.0803368091583252,-1.8476483716070653,0.1608459207974374,-9.643003520965577,14965.0
39.8,12.100000381469728,83.0,21.47266960144043,22.400146484375,-79.78196561920392,40.459326406060256,300.1430911254883,-0.0189007930457592,-0.0240151472389698,-0.5576632022857666,0.8295046091079712,-0.4016696011713565,10.147066191363576,-0.4053372350090004,0.0165023040026426,-0.1056198924779892,0.0145803894847631,-1.5541589301824568,0.0464812942268326,-9.202131646871567,14965.0
39.91,11.800000190734863,83.0,21.82574844360352,17.68474578857422,-79.78195479836346,40.45933015584832,300.11850540161134,-0.0290368497371673,-0.0157375745475292,-0.5577711462974548,0.8293374180793762,-0.4198157378810685,9.991423005592951,-0.2026022377635117,0.1568473279476165,-0.2830039858818054,0.1846605837345124,-1.8019471187889573,-0.4774338192120195,-9.12360763370991,14965.0
40.0,11.699999809265137,83.0,21.51774406433105,22.137739181518555,-79.78194416362706,40.45933389419677,300.08792869567867,-0.0354079790413379,-0.0084773134440183,-0.5582979321479797,0.8288412690162659,-0.4896655328832916,9.862532370311316,-0.0196898243883684,-0.1146606281399726,-0.4177582859992981,0.0973885506391525,-1.923397734761238,0.0693907719478011,-8.894973900318147,14965.0
40.2,11.399999618530272,75.0,21.495206832885746,22.0661735534668,-79.78192250350662,40.45934111351957,300.00066558837887,-0.0513299256563186,0.0092512406408786,-0.5568867921829224,0.8289492130279541,-0.4703583637194205,9.696172921357077,0.2024517944263743,0.2930373549461365,0.002251602942124,-0.1319075226783752,-1.620066552311182,0.1241248400509357,-8.852305013537409,14965.0
40.41,11.199999809265137,70.0,21.311155319213867,26.081817626953125,-79.78190134575024,40.459348261284674,299.8819598388672,-0.0690283775329589,0.0201686844229698,-0.5557440519332886,0.8282372951507568,-0.4870700441466438,9.584828930655377,0.5048943705777936,-0.1772519052028656,-0.2746368050575256,0.0777248367667198,-1.860590891093016,-0.1044523215293884,-8.844760935902595,14964.0
40.5,11.0,70.0,21.39629364013672,23.91098403930664,-79.78189114519671,40.45935193996164,299.814193649292,-0.0780061706900596,0.02359483204782,-0.555182695388794,0.8277261257171631,-0.5254707256132362,9.544690762522444,0.6275607102314109,-0.1769205033779144,-0.257127434015274,-0.0719466879963874,-1.5929952594637868,0.0714682511240244,-9.065380475521088,14964.0
40.7,10.899999618530272,70.0,21.043216705322266,28.80132484436035,-79.78187043079794,40.45935899528229,299.6697425079346,-0.1052333265542984,0.0349644236266613,-0.5528568029403687,0.8258649110794067,-0.5235781609660833,9.533914896999269,0.9904489130461644,0.0115874595940113,-0.3139429688453674,-0.1499839276075363,-1.751037458628416,0.3299534091353417,-9.24513090133667,14964.0
40.81,10.699999809265137,64.0,20.91550636291504,31.28227806091309,-79.78184984817415,40.45936601470389,299.5245475006104,-0.1312897801399231,0.0640493482351303,-0.5502340793609619,0.8221334218978882,-0.502801678782959,9.547552856713557,1.7626064751211372,0.1020792871713638,-0.3522098064422607,-0.0858531072735786,-1.7500719371438027,0.2780419747531414,-9.534249987602234,14964.0
41.0,10.699999809265137,59.0,20.72018814086914,33.818893432617195,-79.78183947303,40.45936982381991,299.4542826843262,-0.1413915902376175,0.0793792605400085,-0.5486119985580444,0.8202026486396791,-0.5391357701483108,9.60167409730551,2.1797960113829404,0.1200605854392051,-0.3481297492980957,-0.0970450490713119,-1.6379816901683808,0.2233184499107301,-10.109248802661895,14964.0
41.11,10.600000381469728,59.0,20.59623336791992,35.011661529541016,-79.78182866721099,40.45937286184424,299.4170874786377,-0.1548882722854614,0.0895336493849754,-0.5445159673690796,0.8194484710693359,-0.4907356215169855,9.638678576103803,2.6165945966450126,-0.0144722247496247,-0.3142793774604797,-0.0685549452900886,-1.859646711945533,0.2462079054862261,-10.010477635860443,14964.0
41.3,10.5,59.0,20.626283645629886,34.979854583740234,-79.78180733117608,40.45938027478161,299.2836741638184,-0.1733830571174621,0.0907474309206008,-0.5385301113128662,0.8195660710334778,-0.3683107575008566,9.75966134899922,3.4309491036370026,-0.1239049434661865,0.0383671224117279,-0.2978916764259338,-1.8817513798177243,0.3861515104025601,-10.44190040946007,14964.0
41.41,10.5,50.0,20.71517944335937,33.723472595214844,-79.78179620172129,40.45938430774301,299.23875038146974,-0.1737058758735656,0.0872193947434425,-0.5363214612007141,0.8213272690773009,-0.3139397090312917,9.905906488909183,3.6544858795018382,-0.0355630926787853,0.1457482129335403,-0.0057455552741885,-1.92990422397852,0.3097969604283571,-10.524347319602969,14964.0
41.5,10.5,49.0,20.751487731933597,32.26034545898437,-79.78178485018293,40.459388437923934,299.1990355682373,-0.1712333410978317,0.085580326616764,-0.5329798460006714,0.8241891264915466,-0.2605865945314588,10.099499469921213,3.746254531715337,0.0578536614775657,-0.094655804336071,-0.2170756161212921,-1.879270260035992,0.292125267740339,-10.364251724481583,14964.0
41.7,10.699999809265137,49.0,20.64756774902344,34.129013061523445,-79.78175139930413,40.45940100992027,298.9406203460693,-0.1821064203977584,0.1101560518145561,-0.5139057040214539,0.8310258388519287,0.057610818310105,10.441804472489633,4.184792332801736,0.2380635291337967,-0.0115396371111273,-0.24297434091568,-1.821506639868021,0.4433747016638517,-9.834501003026965,14963.0
41.91,10.800000190734863,49.0,20.62878799438477,33.993831634521484,-79.78173933240295,40.459405433236974,298.90285865783693,-0.1687321364879608,0.1214014813303947,-0.5118255615234375,0.8335621953010559,0.2038854618170093,10.561712173377536,4.439062523884504,0.3427483439445496,0.2751537561416626,-0.3432548344135284,-2.3121641930937766,0.5218820868059993,-10.079279483556748,14963.0
42.0,11.0,46.0,20.65508079528809,33.88250732421875,-79.78172703541277,40.45940990262129,298.8692645263672,-0.1484190225601196,0.1281321048736572,-0.5103931427001953,0.8372889757156372,0.2535932857289108,10.759096048866322,4.444480409579518,0.2063601315021515,0.4136722087860107,-0.3476502597332001,-2.267695094794035,0.3170863552764058,-10.20665055155754,14963.0
42.2,11.100000381469728,43.0,20.296993255615234,30.033849716186523,-79.78170249549161,40.45941909725249,298.7679385375977,-0.099227637052536,0.1110743656754493,-0.5109221935272217,0.8466255664825441,0.4205360071904841,11.197659640616887,3.863818887237116,-0.0933214426040649,0.4479010105133057,0.2175041437149048,-2.416700568348169,-0.3394264466688037,-10.322407879829408,14963.0
42.31,11.399999618530272,43.0,20.48855781555176,33.93021774291992,-79.7816772931875,40.45942833516872,298.6893042755127,-0.0749997124075889,0.0729891881346702,-0.5099433660507202,0.8538181781768799,0.6689449330731084,11.572590427495124,2.7470462569174683,-0.2581949532032013,0.3216030299663544,-0.0125671066343784,-2.298917764574289,-0.3049256816133857,-10.26742534160614,14963.0
42.51,11.5,44.0,20.830368041992188,30.62228202819824,-79.78166447692287,40.45943273065933,298.6858615112305,-0.0765186920762062,0.060558795928955,-0.5077774524688721,0.8559436798095703,0.8213679939041546,11.631277672945997,2.4652049496245363,-0.1296980530023574,0.1002391055226326,0.0106553127989172,-2.071193273216486,0.2690601033344865,-10.530275226831437,14963.0
42.6,11.800000190734863,58.0,20.83913230895996,30.72565460205078,-79.7816515622543,40.459437561198726,298.5987948608398,-0.0817385539412498,0.0579168684780597,-0.5059753060340881,0.8567108511924744,0.919005628740322,11.642484821541409,2.387541587633216,-0.0202297307550907,-0.1539637297391891,-0.1648472547531128,-2.169881994277239,0.3391532720625401,-10.624925276041033,14963.0
42.8,12.0,60.0,20.671358108520508,32.96010208129883,-79.78162565196321,40.459446735286726,298.5498522949219,-0.0918617025017738,0.0777378678321838,-0.5032452940940857,0.8557233810424805,1.0325093423732503,11.57161850172448,2.788614329602862,0.2286387532949448,-0.2760126888751984,0.0380429439246654,-2.293475176244974,0.3713137986883521,-10.493903206586838,14963.0
42.91,12.199999809265137,61.0,20.63629913330078,32.97600555419922,-79.78161275213614,40.45945109302318,298.5766505432129,-0.0953624844551086,0.0952810272574424,-0.5024765729904175,0.8540169596672058,1.0413402434646548,11.511489713713589,3.1524249789523147,0.2988247275352478,-0.1629286855459213,-0.1672710329294204,-2.2881211732327937,0.1789255664125085,-10.498826562166215,14963.0
43.01,12.300000190734863,62.0,20.57369804382324,34.84467315673828,-79.78159979015449,40.45945542114719,298.6116084289551,-0.0972234308719635,0.1089513376355171,-0.5014774799346924,0.8527588844299316,1.0359678123333915,11.449084231097505,3.5514437731597104,0.0917542949318885,-0.0689388290047645,-0.2465748190879821,-2.3782536636292937,-0.1275013512745499,-10.461276912689211,14963.0
43.2,12.5,53.0,21.00565528869629,27.71193122863769,-79.78155993231273,40.45946930059157,298.5797309112549,-0.0617926120758056,0.0765260159969329,-0.5141039490699768,0.852069616317749,1.0512934953994484,11.435874592261651,3.755712888003576,-0.2181727439165116,1.0203588008880615,0.1020015329122543,-2.9122867396473886,-0.2892428645119071,-10.520265963077543,14963.0
43.4,12.5,58.0,21.57909393310547,19.457990646362305,-79.78154685708553,40.45947345925129,298.64773361206056,-0.0213275179266929,0.0397081449627876,-0.5244753956794739,0.8502317667007446,0.9788828603426548,11.543552466777005,2.9781244586173754,-0.1170906722545623,1.1524622440338137,0.2429006546735763,-2.840782601237297,-0.2834122403338551,-10.666702462434769,14963.0
43.5,12.600000381469728,58.0,21.624168395996094,18.583295822143555,-79.78153394781387,40.459477535325945,298.7255934906006,0.021189471706748,0.0004155230417381,-0.5341809391975403,0.8451045155525208,0.8051329733197297,11.610973931516574,1.7694687720731732,-0.301284521818161,0.9707663655281068,0.4680545032024384,-2.379723946005106,-0.5101850607991218,-10.608027992248536,14963.0
43.71,12.5,59.0,21.79444694519043,18.83775329589844,-79.78150814896932,40.45948606467328,298.8021144104004,0.0762104764580726,-0.0452310070395469,-0.5455793738365173,0.8333603143692017,0.3736482914159343,11.23446207902237,-0.5699965147098428,0.1123590841889381,0.292705237865448,-0.0846056044101715,-1.9752335938811303,-0.2788949556089938,-9.897739809751512,14963.0
43.8,12.399999618530272,101.0,21.76690101623535,17.08041000366211,-79.78149539575881,40.4594903003872,298.8181628417969,0.0936708897352218,-0.0544767342507839,-0.5469831228256226,0.8301009535789491,0.2029379177879484,10.855749482561526,-1.2175732550044942,0.088125079870224,0.0210060160607099,0.2750423848628998,-1.7216025750339032,-0.4933304251357914,-9.93591511130333,14963.0
44.01,12.300000190734863,109.0,21.670494079589844,19.410280227661133,-79.7814724473917,40.45949758735144,298.9522551727295,0.1117233335971832,-0.0707167908549308,-0.5480309724807739,0.8259413242340088,0.0705980706237087,10.001692592308586,-1.895648509449724,-0.2006601244211197,0.3224986493587494,0.3886877596378326,-1.5978234516084195,-0.6041103841736913,-9.797243129611015,14963.0
44.11,12.0,109.0,21.654216766357425,18.980884552001957,-79.78146059375914,40.45950139389096,298.96531860351564,0.1155571565032005,-0.0784936398267746,-0.5478250384330751,0.8248472809791565,0.0480175494907658,9.61436395162618,-2.111964541334918,0.1412730664014816,0.2262303084135055,-0.0469336844980716,-1.4160491582751276,-0.5013390275090933,-9.69051974952221,14963.0
44.3,11.800000190734863,108.0,21.471418380737305,21.90713691711425,-79.78143913215571,40.4595082054414,299.05702392578127,0.1094771549105644,-0.0989250987768173,-0.5487241744995117,0.8228793144226074,-0.0440233277370985,8.839149938274845,-2.3238582581310925,-0.1750294715166092,-0.1636580526828766,-0.2756259143352508,-1.1759369020164014,-0.3520134554430843,-9.421482340693474,14964.0
44.4,11.300000190734863,111.0,21.656721115112305,19.34666633605957,-79.78142942838937,40.45951136902664,299.0846308898926,0.1022904813289642,-0.1119066104292869,-0.5495508909225464,0.8215883374214172,-0.146988254911985,8.456613964538878,-2.2938467205893045,-0.3365907967090607,0.3372288644313812,0.1768179535865783,-1.2061040031909944,0.1155554988328367,-10.006614965200423,14964.0
44.5,11.100000381469728,110.0,21.8132266998291,17.350770950317386,-79.78142015691697,40.45951444892749,299.1046542358398,0.0932867601513862,-0.1165260076522827,-0.5495755672454834,0.8220013380050659,-0.2572971967714743,8.083171705775424,-2.2789563778247266,-0.1220833733677864,-0.1113517358899116,0.1739869862794876,-1.0784201091527938,0.0759405122883618,-9.788468797802926,14964.0
44.7,10.600000381469728,109.0,21.65546989440918,19.060401916503903,-79.78140205229265,40.45952020133475,299.14485923767086,0.0856505781412124,-0.1020700484514236,-0.5467819571495056,0.8266046047210693,-0.3109585228610129,7.4677626321638835,-2.013707957391694,0.1421779990196228,0.0203599017113447,0.373722493648529,-1.2077114027738571,-0.0971246639639139,-9.526277893781662,14964.0
44.9,10.300000190734863,109.0,21.57283401489257,20.603046417236328,-79.78138529842944,40.45952545366261,299.1798819732666,0.0874930843710899,-0.0901293009519577,-0.5442185401916504,0.829486608505249,-0.2594873688703765,6.858387031945638,-1.9387723180244911,-0.1603087931871414,0.3409229815006256,-0.1904510110616684,-0.7512387187778949,0.1212992827221751,-9.326275636553763,14964.0
45.0,9.699999809265137,104.0,21.626672744750977,20.141843795776367,-79.78137789735234,40.45952815372026,299.1545180511475,0.0866866707801818,-0.1002625897526741,-0.5438134670257568,0.8286735415458679,-0.3348935256081333,6.525124491402999,-1.933019557441702,-0.2687677443027496,0.2612796723842621,-0.1746681630611419,-1.027794258221984,-0.0323557688109576,-9.162216213941576,14964.0
45.2,9.399999618530272,102.0,21.363740921020508,24.3721866607666,-79.78136344464924,40.45953271802245,299.1423358154297,0.0982745140790939,-0.1219738647341728,-0.5392522811889648,0.8274487853050232,-0.4453182271025226,5.797397189545702,-2.119219802167328,-0.1283340752124786,0.1274056136608123,-0.1085208281874656,-0.6984026934206486,0.141979331318289,-9.071855682134627,14964.0
45.3,8.800000190734863,101.0,21.312406539916992,24.54712677001953,-79.78135089733155,40.45953692522322,299.0840720367432,0.118909403681755,-0.143902376294136,-0.5328487157821655,0.8253635764122009,-0.5466776915775977,4.9312549370717536,-2.328717700804252,0.0985462665557861,0.1926823258399963,-0.0253738481551408,-0.6920010155439377,-0.0397486776486039,-9.274552336335182,14964.0
45.5,8.399999618530272,100.0,21.632932662963867,20.4837703704834,-79.78134549833482,40.459539221253,299.0107573699952,0.1304532438516616,-0.1489344835281372,-0.5295217037200928,0.8248679041862488,-0.6378162214846004,4.466920456031625,-2.4214700370237177,0.0922266989946365,0.1492732614278793,0.0097614154219627,-0.5906551369652152,-0.0323773943725973,-9.667274143695831,14964.0
45.6,7.800000190734862,103.0,21.099557876586918,28.30831527709961,-79.78134004195073,40.45954056003116,299.00409118652345,0.135685846209526,-0.1553940027952194,-0.5257238745689392,0.8252614736557007,-0.6351818252303537,4.016747208632151,-2.46512711894044,-0.0873172208666801,0.2209784537553787,-0.2482080906629562,-0.5875150725245476,0.4406281182914972,-9.439197065234184,14964.0
45.8,7.400000095367432,105.0,21.342456817626957,24.11773109436035,-79.78133092564002,40.459543607399546,298.8894766998291,0.1402091681957245,-0.1629446148872375,-0.5200303792953491,0.8266553282737732,-0.7101277655488283,3.150570827159404,-2.36569748157584,0.2127192169427872,-0.0902545750141143,-0.1524471640586853,-0.3584659675508738,0.456021242402494,-9.794890794754028,14963.0
45.9,6.800000190734862,103.0,20.980613708496094,29.18301010131836,-79.78132729539645,40.459545438218434,298.7862376403809,0.1393430083990097,-0.1503418982028961,-0.518223762512207,0.8303163051605225,-0.7583396300942016,2.7547434652998946,-2.2973853458676032,0.2013799250125885,-0.2471064180135727,-0.1211868301033973,-0.1180689336173236,0.3312320855632425,-9.819133350849151,14963.0
46.0,6.5,102.0,21.089542388916016,28.594579696655277,-79.7813241721043,40.459547207785576,298.6710890960693,0.1343967318534851,-0.1389791816473007,-0.5192088484764099,0.832493007183075,-0.7718530513895008,2.384392461570162,-2.1687180090882383,0.213989332318306,-0.1180178299546241,0.1425825208425522,-0.1799703907594085,0.2698139373399317,-10.114818860292436,14963.0
46.2,5.800000190734862,97.0,20.70391082763672,34.478893280029304,-79.78131863422665,40.45954907062165,298.5137347412109,0.1292483955621719,-0.1312297582626342,-0.522782027721405,0.8323296308517456,-0.7712067738121448,1.7042575354921763,-1.8131074767232884,-0.1255489736795425,0.0134631628170609,0.199740469455719,-0.2286314858682454,-0.0615555029734969,-10.516377564668655,14963.0
46.4,5.5,93.0,20.579957962036133,35.130935668945305,-79.78131484864151,40.45955050923017,298.3543147277832,0.1165836825966835,-0.140573501586914,-0.5328488945960999,0.8262683153152466,-0.8337809494820994,1.0234248740380298,-1.367446172179265,0.063077837228775,0.1092211753129959,0.0987708643078804,-0.1959313891455531,0.61773114413023,-11.208049381971357,14963.0
46.5,4.699999809265137,86.0,20.592477798461918,34.248291015625,-79.78131393476171,40.45955161993749,298.25549690246584,0.1251287311315536,-0.1344342976808548,-0.5385654568672179,0.8223245143890381,-0.8880749664431609,0.6784161847257745,-1.1152841720584166,0.3987024128437042,0.1245276480913162,0.1530791819095611,0.0114797128667123,0.7051711378991604,-11.362674322128296,14963.0
46.7,4.400000095367432,82.0,20.45099639892578,37.40514373779297,-79.78131244377043,40.459551950690006,298.15604011535646,0.1289250403642654,-0.0970739275217056,-0.5477863550186157,0.8209051489830017,-0.7994801064830082,0.0719613001939769,-0.6899539592575624,0.1159480139613151,-0.283532053232193,0.049739059060812,0.2688616269081831,0.1833619402907788,-11.367099494934086,14963.0
46.81,3.900000095367432,71.0,20.5311279296875,36.09310150146485,-79.78131179829785,40.459551008897314,298.10471145629884,0.1142306625843048,-0.091295950114727,-0.5501318573951721,0.8221747875213623,-0.6744540006656371,-0.1855834202837208,-0.4974812721065336,-0.1560534536838531,-0.1821343153715133,-0.0295379608869552,0.2311587803810835,-0.0180759819690138,-11.5197562623024,14963.0
47.01,3.5999999046325684,61.0,20.735212326049805,31.441314697265625,-79.78131312693156,40.45955193746404,298.02508728027345,0.0959193781018257,-0.1007706895470619,-0.5512120723724365,0.8226847648620605,-0.6973659290751913,-0.5927630299266338,-0.0732079074933279,0.0264918822795152,-0.4034959375858307,-0.0105634005740284,1.1834251387417316,0.3276560381054878,-11.119660531282426,14963.0
47.11,3.2000000476837163,45.0,20.97936248779297,28.65024185180664,-79.78131437272242,40.45955093393864,297.91014282226564,-0.0108038950711488,-0.0162361823022365,-0.5756638646125793,0.817453920841217,-0.5676106029013066,-0.7127877200385566,0.001452468491837,0.2860119938850403,-1.2164181470870972,0.5499750375747681,1.4049816946685314,0.6407050006091595,-10.558157089948654,14962.0
47.3,3.0,37.0,20.88670921325684,29.40566062927246,-79.78131539184231,40.45954999506598,297.83078567504884,-0.0344393290579319,0.0221272744238376,-0.5990850329399109,0.7996384501457214,-0.4365703781799167,-0.7367110539316453,-0.0799643338077786,0.3080474436283112,-0.2935993075370789,0.7170253992080688,-0.6213555407524111,0.2935897759906948,-10.686897575855255,14962.0
47.4,2.700000047683716,352.0,20.986873626708984,28.1015682220459,-79.78131635051659,40.459550145601646,297.8248976898193,-0.0307538099586963,0.0276913493871688,-0.62928307056427,0.7760735750198364,-0.3722044309001871,-0.6970420110185782,-0.0780781944056742,0.1599837094545364,0.2729636132717133,0.8846704363822937,-0.3473114169761538,0.0288424327410757,-10.614804915189744,14962.0
