time,wind_speed,wind_angle,battery_voltage,battery_current,position_x,position_y,position_z,orientation_x,orientation_y,orientation_z,orientation_w,velocity_x,velocity_y,velocity_z,angular_x,angular_y,angular_z,linear_acceleration_x,linear_acceleration_y,linear_acceleration_z,node_ids
0.0,4.0,352.0,25.61946105957031,-0.0874695107340812,-79.7827625808897,40.45904979712748,272.1671926562786,0.0486004874110221,0.0009852121584117,0.9945055842399596,0.0927128568291664,-0.055161032737334,-0.0213402490015825,0.000876321872097,-0.0079920189455151,-0.004337468650192,-0.0066366251558065,0.079532246729359,0.9085960628092288,-9.760917302370071,14937.0
0.21,3.799999952316284,350.0,25.61946105957031,-0.0795177370309829,-79.78276219605841,40.45904974962883,272.18315768587587,0.048601571470499,0.0009643676457926,0.9945043325424194,0.0927259922027588,-0.0511887742184862,-0.0108569861397306,0.0049542165112919,-0.0042123519815504,-0.0064597567543387,-0.0098593989387154,0.0845906364452094,0.8853920453041793,-9.763101237416269,14937.0
0.3,3.700000047683716,349.0,25.615705490112305,-0.0954212844371795,-79.7827621353535,40.45904975137332,272.18315808820734,0.0485962890088558,0.0009497270802967,0.9945051670074464,0.0927200093865394,-0.0543878053291149,-0.0130727551157338,0.0053518110324619,0.004302647896111,0.0023364021908491,0.0104856239631772,0.0929467735625803,0.8795739195495844,-9.764846046566964,14937.0
0.5,3.5999999046325684,347.0,25.613201141357425,-0.1113248318433761,-79.782761691254,40.45904979179736,272.19732413041595,0.048589751124382,0.000970127643086,0.9945040941238404,0.0927351117134094,-0.0549272223545998,-0.0212553298860172,0.0059271801683709,0.0041415677405893,0.002481858478859,0.0100074913352727,0.0852638245560228,0.9064763009548188,-9.760988638401033,14937.0
0.6,3.5,347.0,25.61069679260254,-0.0874695107340812,-79.78276161862489,40.45904980187037,272.1973628138304,0.0486103817820549,0.0009731162572279,0.9945024847984314,0.0927415192127227,-0.0612122786793597,-0.0232651854277886,0.006580050144231,-0.0070748892612755,-0.0037197843194007,-0.0130375055596232,0.082735936185345,0.9089344704151154,-9.76135175049305,14937.0
0.8,3.0999999046325684,347.0,25.61069679260254,-0.1033730581402778,-79.78276116828133,40.459049788148405,272.2131023590565,0.0485890172421932,0.0009553473792038,0.9945026636123656,0.0927507951855659,-0.0645370625267117,-0.019916332228294,0.0093502567111843,-0.0094288364052772,-0.0037902095355093,-0.0100306821987032,0.0860218977928161,0.8828813970834017,-9.764644317626953,14937.0
0.9,2.900000095367432,349.0,25.61946105957031,-0.0795177370309829,-79.78276082280124,40.45904980275228,272.22535133707527,0.048587679862976,0.0009601733763702,0.994502067565918,0.0927577912807464,-0.0545482474959944,-0.0204654359062296,0.0063121939142518,0.0061442116275429,0.0022197770886123,0.0035450244322419,0.0847552995197475,0.8944104252755642,-9.763181344270707,14937.0
1.1,2.5,354.0,25.61946105957031,-0.0636141896247863,-79.78276067528726,40.459049821783935,272.2254895304442,0.0485834442079067,0.0009462557500228,0.9944988489151,0.0927943065762519,-0.0653632738713671,-0.0243898711802502,0.0072289551813385,0.0041413973085582,0.0020875241607427,-0.0009397725807502,0.0816852646227926,0.8954826584458352,-9.76250423669815,14937.0
1.2,2.400000095367432,355.0,25.621965408325195,-0.0715659633278846,-79.78276033562643,40.459049860273474,272.2370496277809,0.0485697016119957,0.0009493987890891,0.994500458240509,0.0927852392196655,-0.0565097233535278,-0.0267925032402684,0.003914596072192,0.0006513888365589,0.0009280617232434,0.0092765521258115,0.0870152757782489,0.8830506739765406,-9.7635818785429,14937.0
1.4,2.0999999046325684,4.0,25.62071418762207,-0.0715659633278846,-79.78275996315888,40.4590498412316,272.2483924512864,0.0485237501561641,0.0009103828924708,0.9944998025894164,0.0928161591291427,-0.0482941815950801,-0.0177027805276838,0.0008483642903965,0.0074987816624343,0.0024127603974193,0.0022086380049586,0.0818119847495108,0.9071875416487456,-9.7622913980484,14937.0
1.5,2.0,8.0,25.621965408325195,-0.0795177370309829,-79.78275990318761,40.45904984889451,272.2479856644869,0.0485046356916427,0.0009036729461513,0.994502067565918,0.0928019061684608,-0.0538909464295984,-0.0193864548439788,0.0012193405667378,-0.0008291997364722,-0.003187883645296,0.0027934117242693,0.0874147411063313,0.8849126467108727,-9.763968964219094,14937.0
1.7,1.8999999761581416,17.0,25.61069679260254,-0.0636141896247863,-79.7827594779201,40.45904988010653,272.2597683702708,0.0484898164868354,0.0009170479606837,0.9945014715194702,0.0928159728646278,-0.053401921921728,-0.0221117008978641,0.0004174240889881,0.0029600644484162,0.003101444337517,0.0070912316441535,0.082693571280688,0.9041423117369414,-9.760655931830406,14937.0
1.8,1.7999999523162842,21.0,25.61445426940918,-0.0954212844371795,-79.78275941122655,40.45904989034915,272.25926691639427,0.048477828502655,0.0009341925033368,0.994501292705536,0.0928237065672874,-0.0589210809608735,-0.0236927084271401,0.0008240482569178,-0.0038665793836116,-0.0020582147408276,-0.002385028405115,0.0818706487677991,0.8979746686667205,-9.761534768342973,14937.0
2.0,1.7999999523162842,31.0,25.608192443847656,-0.0874695107340812,-79.78275897152999,40.45904993225843,272.2682353441716,0.0484296567738056,0.0009306787396781,0.9945029020309448,0.0928318798542022,-0.0577243148465059,-0.0256582622721394,-0.0026334924312951,0.0032428202684968,0.0011051086476072,0.0090120490640401,0.0816596556454897,0.9012040127813816,-9.760883973240851,14937.0
2.11,1.7999999523162842,35.0,25.61820983886719,-0.0715659633278846,-79.78275889614302,40.45904994582848,272.26738317656515,0.0484464913606643,0.0009430275531485,0.9945017099380492,0.0928359553217888,-0.0634918853872205,-0.027655825300224,-0.0021431269533729,-0.0042652576230466,-0.0013861120678484,-0.0100145163014531,0.0810269229579716,0.907434221059084,-9.761364614367483,14937.0
2.3,1.8999999761581416,41.0,25.613201141357425,-0.0874695107340812,-79.78275849566977,40.45904997851768,272.27651696252826,0.0484115146100521,0.0009238098282366,0.9945058822631836,0.092810072004795,-0.057939003439214,-0.0249485636116602,-0.0052368714725627,-0.0053155608475208,-0.0049899583682417,-0.0010740564903244,0.0836884202063083,0.8910838712006808,-9.763253265023232,14937.0
2.4,1.8999999761581416,44.0,25.615705490112305,-0.0795177370309829,-79.78275812119031,40.45905001930888,272.28682022142414,0.0483839586377143,0.0009422795847058,0.9945068359375,0.0928133800625801,-0.0511735355000335,-0.0247079481241697,-0.0074315113608583,0.0039170985110104,0.002966747386381,-0.0011533446377143,0.0813611187413334,0.9018377047777176,-9.759675938487051,14937.0
2.6,2.0999999046325684,47.0,25.61820983886719,-0.0795177370309829,-79.78275798654325,40.459050047687285,272.28427927541736,0.0483792014420032,0.0009409878402948,0.9945086240768432,0.0927971675992012,-0.0606090445443363,-0.0284573476270503,-0.0067975113113329,-0.0032987990416586,0.0008382224477827,-0.0101193692535161,0.0862087163329124,0.8853394934535027,-9.764401658177375,14937.0
2.7,2.0999999046325684,47.0,25.621965408325195,-0.0715659633278846,-79.78275765700937,40.45905005657349,272.2966150228977,0.0483585223555564,0.0009009717032313,0.99450945854187,0.0927992686629295,-0.0504165482547483,-0.02030449855574,-0.006398764762715,0.005529758054763,0.0013841408072039,0.0078468946740031,0.0868934983760118,0.8834318393468857,-9.763302381634713,14937.0
2.9,2.0,48.0,25.61946105957031,-0.0795177370309829,-79.78275726040252,40.4590501003035,272.30945913839344,0.0483201667666435,0.0008983702864497,0.9945101141929626,0.0928113609552383,-0.0420522590040102,-0.0177605086009638,-0.0032467847493399,0.0082960221916437,0.0037432531826198,0.0062305284664034,0.0810320301353931,0.9061822590976952,-9.761445305943491,14937.0
3.0,2.0,48.0,25.61946105957031,-0.0715659633278846,-79.78275720727581,40.459050109001296,272.3087088053227,0.0483112670481205,0.0008987772162072,0.9945112466812134,0.092804379761219,-0.0478587669949113,-0.0193867864516601,-0.002795688826851,-0.0068992315791547,-0.0040161721408367,-0.0101536894217133,0.0808221881836652,0.9041261588037014,-9.76131608247757,14937.0
3.2,2.0,50.0,25.623218536376957,-0.0795177370309829,-79.78275677513491,40.45905012528953,272.3236824755669,0.0483078546822071,0.0008549485937692,0.9945084452629088,0.0928364172577858,-0.0469114392577176,-0.0128977265385662,0.0023678229512721,-0.0090764230117201,-0.0016570452135056,-0.004268794786185,0.0846643844526261,0.8882588620483876,-9.762176792621611,14937.0
3.31,2.0,52.0,25.615705490112305,-0.0795177370309829,-79.78275671887755,40.459050129461296,272.323449063778,0.0482986569404602,0.0008677882142364,0.994507610797882,0.0928499028086662,-0.0499751201234104,-0.0151424744071302,0.002546085893339,0.0039957724511623,0.0028627563733607,0.0035753597039729,0.0844521305244416,0.8935252299159766,-9.76155347943306,14937.0
3.51,2.0,54.0,25.61695671081543,-0.0159035474061965,-79.78275627324716,40.45905018082845,272.33674390959743,0.0482732020318508,0.0008530243649147,0.9945073127746582,0.092866726219654,-0.0493599329007722,-0.0158641721206064,0.003813146691706,0.0042071989737451,0.0033970554359257,0.0014670698437839,0.0828026583977043,0.889981451779604,-9.762763268351556,14937.0
3.61,1.8999999761581416,55.0,25.61946105957031,-0.0874695107340812,-79.78275620910732,40.459050186930426,272.3366226141453,0.048305694013834,0.0008380529470741,0.9945061206817628,0.0928630828857422,-0.0543366419348424,-0.017633607557958,0.0041093931166326,-0.0014077058294788,-0.0022334717214107,0.0047423727810382,0.086539769237861,0.8873572944849729,-9.763636257648466,14937.0
3.8,1.8999999761581416,59.0,25.61445426940918,-0.0954212844371795,-79.78275577295742,40.45905025454986,272.34742980051044,0.0482658371329307,0.0008504157885909,0.9945083260536194,0.0928596928715706,-0.0536528083443928,-0.0208496805808362,0.0028956496988581,0.0043237917125225,0.0038221492432057,0.008928588591516,0.0783207584638148,0.9031257732957602,-9.760013907551766,14937.0
3.9,1.8999999761581416,61.0,25.61695671081543,-0.0874695107340812,-79.7827553981013,40.459050316005566,272.358168799162,0.0482604131102562,0.0008579969871789,0.9945072531700134,0.092874102294445,-0.0485330211214041,-0.0213670883810965,0.0012321254025978,-0.0040343753062188,-0.0010134787298738,-0.0061513776890933,0.0826603974681347,0.909559976309538,-9.760705633163454,14937.0
4.1,1.8999999761581416,63.0,25.63323402404785,-0.0159035474061965,-79.78275526909921,40.45905033958904,272.357400882721,0.0482602417469024,0.0008682441548444,0.9945084452629088,0.0928607955574989,-0.0571823605091146,-0.0252666517695633,0.0017662751029252,-0.0014394068857654,-0.0036863924469798,-0.0066167591139674,0.0866864521242678,0.8801680697500707,-9.762753328084946,14937.0
4.21,1.8999999761581416,63.0,25.62071418762207,-0.0795177370309829,-79.78275491729529,40.45905037728897,272.3705725853444,0.0482457317411899,0.0008611651719547,0.994510531425476,0.092846393585205,-0.0489896788071545,-0.0205158215321105,0.0029367024332507,0.0002085583109874,0.0010460227495059,0.0028318595141172,0.086480209864676,0.8847851043194532,-9.763856697678566,14937.0
4.4,1.8999999761581416,66.0,25.61946105957031,-0.0715659633278846,-79.78275454741025,40.459050425675976,272.3831882362366,0.0481968820095062,0.0008388920687139,0.9945132732391356,0.092843048274517,-0.0390092279547206,-0.0166478278669098,0.0031971566766683,-0.0047213234938681,-0.0031302217394113,-0.0017934486968442,0.0789663641620427,0.8991575603932143,-9.761925947070123,14937.0
4.5,1.8999999761581416,67.0,25.61695671081543,-0.0954212844371795,-79.78275449828412,40.45905043418429,272.38311510133747,0.0481770187616348,0.0008354484452866,0.994515061378479,0.0928337424993515,-0.042067807593799,-0.0186404288074746,0.0034531483654158,0.0073396270163357,0.0069635901600122,0.0058150561526417,0.0861597733106464,0.8953984585404396,-9.762055170536042,14937.0
4.7,1.7999999523162842,62.0,25.61946105957031,-0.0715659633278846,-79.78275409511241,40.45905048216174,272.3951022808552,0.0481632649898529,0.0008206894854083,0.9945158362388612,0.0928326174616813,-0.0402448971334257,-0.0177613531877275,0.0036021357148678,0.0062061604112386,0.0031918417662382,0.0039079990237951,0.0798223508521914,0.9014641407877207,-9.76049922645092,14937.0
4.8,1.7999999523162842,60.0,25.61695671081543,-0.0874695107340812,-79.78275404384298,40.459050490886376,272.3950538818836,0.048125859349966,0.0008084553410299,0.9945186376571656,0.0928223431110382,-0.0453874764631099,-0.0191593564565088,0.0040204785413691,-0.0071177524514496,0.0012490433873608,-0.0108640538528561,0.0824161939881742,0.9105294446647167,-9.76136052131653,14937.0
5.0,1.7000000476837158,53.0,25.61946105957031,-0.0715659633278846,-79.78275362868136,40.459050544976016,272.4053886418343,0.0480755679309368,0.0008206506026908,0.9945216178894044,0.0928162410855293,-0.0446299817308224,-0.0192104174879695,0.0024787272000309,-0.0029846008401364,3.433924212004058e-05,-0.0040258835069835,0.0852225651405751,0.8835857672989369,-9.762363318800928,14937.0
5.1,1.600000023841858,50.0,25.61820983886719,-0.0715659633278846,-79.78275357043529,40.4590505551204,272.40517349886903,0.0480925105512142,0.000802403432317,0.994521141052246,0.0928127691149711,-0.0486233825295427,-0.0208789849189988,0.0026188113562608,1.523367336631054e-05,-0.0040550222620368,0.0014278574381023,0.0895494042243808,0.8839488063007593,-9.7633631926775,14937.0
5.3,1.5,42.0,25.608192443847656,-0.0874695107340812,-79.78275318131385,40.45905059741885,272.4149163250924,0.0480253435671329,0.0007979249348863,0.9945258498191832,0.0927976295351982,-0.0448344457999847,-0.0197114478501425,0.0006127973882097,-0.0025398668367415,-0.0039178063161671,0.0028793271631002,0.0815776393096894,0.9011839129775764,-9.761033661961555,14937.0
5.4,1.399999976158142,37.0,25.61820983886719,-0.0795177370309829,-79.78275283302776,40.459050596653405,272.42748560357103,0.048002939671278,0.0007869696128182,0.9945269227027892,0.0927972123026847,-0.0381942773906749,-0.0115748330602461,0.0018882238143108,0.0037071211263537,0.0048594484105706,0.0008193939574994,0.0849067698139697,0.8993325383216143,-9.76046238899231,14937.0
5.6,1.2000000476837158,33.0,25.60694122314453,-0.1113248318433761,-79.7827527315177,40.459050605579336,272.42708193111423,0.047986876219511,0.0007552975439466,0.9945271611213684,0.0928039103746414,-0.0458535886843981,-0.0148741726700277,0.0023563750542786,0.0018964398186653,0.0010346320923417,-0.001379738561809,0.0838542527239769,0.8888428527116776,-9.763418156504631,14937.0
5.7,1.100000023841858,32.0,25.62071418762207,-0.0795177370309829,-79.78275237043641,40.45905065408871,272.4371869449616,0.0479845739901065,0.0007509950082749,0.9945301413536072,0.0927729085087776,-0.0433868804200153,-0.0163161615492428,0.0003938702154481,-0.0052253296598792,-0.0039162482134997,0.0021098353900015,0.084493563529104,0.8940910942107441,-9.762577911615374,14937.0
5.9,1.0,31.0,25.60569000244141,-0.1192766055464744,-79.78275198606258,40.45905069160455,272.4464318041802,0.0479619540274143,0.0007406051154248,0.9945299625396729,0.0927869006991386,-0.0393070511456074,-0.0154301383983858,-0.0030303900277084,-0.0054341456852853,-0.0062347222119569,-0.0012126117944717,0.0846226956322789,0.8964955423772335,-9.76178093612194,14937.0
6.02,0.8999999761581421,28.0,25.61695671081543,-0.0874695107340812,-79.78275193762514,40.45905069899854,272.44573606896404,0.047949843108654,0.0007424522191286,0.9945296645164492,0.0927954167127609,-0.0420853153253322,-0.017050359555147,-0.0028421900182195,0.0037900789175182,0.003504826221615,0.0008962645661085,0.0855722925905138,0.8991340984404087,-9.761656975150109,14937.0
6.2,0.8000000119209291,28.0,25.613201141357425,-0.0795177370309829,-79.78275155639952,40.45905072489601,272.4544787292481,0.0479584150016307,0.0007137595675885,0.9945299625396729,0.0927883088588714,-0.0399935024065239,-0.0160050218185034,-0.0057418389654575,0.003131940960884,0.0047908518463373,-0.0027482903096824,0.085271864477545,0.8874811092764141,-9.764640224575995,14937.0
6.31,0.699999988079071,25.0,25.61445426940918,-0.0715659633278846,-79.78275150783136,40.45905073267755,272.45350854444507,0.0479595325887203,0.0006864382303319,0.9945303797721864,0.0927838459610939,-0.0431732346440246,-0.0175550685372431,-0.0055190486242451,0.004281030036509,0.0016031624982133,0.0080249831080436,0.0880905604641884,0.8835230559110642,-9.763860206007957,14937.0
6.5,0.6000000238418579,33.0,25.61069679260254,-0.0715659633278846,-79.78275116361546,40.459050742131645,272.4639999454022,0.0479225292801857,0.0006844366434961,0.9945303201675416,0.0928035527467727,-0.0370553358858838,-0.0145678897837074,-0.005757112587324,0.0071533196605741,0.0019030014518648,0.0056086722761392,0.0830786287039518,0.9077088940143586,-9.762320049405098,14937.0
6.6,0.6000000238418579,33.0,25.615705490112305,-0.0795177370309829,-79.78275111527782,40.45905074895935,272.4630611424446,0.0479510985314846,0.0007040397031232,0.9945310950279236,0.0927808135747909,-0.0419075234821244,-0.0156248669527429,-0.0053462516683785,-0.0051013207994401,-0.0063533433713018,0.0007093549938872,0.0840259507298469,0.8942684841156007,-9.762474415898325,14937.0
6.8,0.6000000238418579,29.0,25.603185653686523,-0.1272283792495727,-79.78275074763589,40.45905080746605,272.47011410045627,0.047915518283844,0.0006983515922911,0.9945326447486876,0.0927818864583969,-0.0397771037906629,-0.0223262380593309,-0.0094623429620114,0.0046037449501454,0.0034896279685199,0.008438111282885,0.0807816505338996,0.9032224716246128,-9.760544250011442,14937.0
6.9,0.699999988079071,26.0,25.61445426940918,-0.0874695107340812,-79.78275043453947,40.45905081944243,272.48007206964496,0.0479137003421783,0.0007033590227365,0.9945339560508728,0.0927688255906105,-0.035142374992399,-0.0206637970850085,-0.010912160097175,-0.005177479237318,-0.0030562120955437,-0.0072502070106565,0.0817345639597624,0.9044714368879796,-9.76035187661648,14937.0
7.1,0.699999988079071,14.0,25.61445426940918,-0.0715659633278846,-79.78275034107561,40.45905084614613,272.47714753794673,0.0479191318154335,0.0006904788315296,0.9945350289344788,0.0927545502781868,-0.0421119509568958,-0.0237229545960066,-0.0106056322776003,-0.0023601104039698,-0.0025802976451814,0.0028018923476338,0.0845862418971955,0.8950429478287697,-9.761226620078087,14937.0
7.2,0.699999988079071,5.0,25.61820983886719,-0.0715659633278846,-79.78275004794362,40.45905083177576,272.48948569941524,0.0479003898799419,0.0006669576396234,0.9945367574691772,0.0927458852529525,-0.0355092684342318,-0.0190021570062598,-0.0092755471029258,-0.0021815269719809,0.0046065342612564,-0.0078844735398888,0.0814251822978258,0.9066116639971732,-9.7608915746212,14937.0
7.41,0.8999999761581421,352.0,25.621965408325195,-0.0715659633278846,-79.78274974928121,40.45905081593733,272.4983169918061,0.0478562638163566,0.0006486942293122,0.994541585445404,0.0927167311310768,-0.0286533323182751,-0.0138442708192543,-0.0117809360437178,-0.0084527377039194,-0.0049020075239241,-0.009611296467483,0.0893690815754234,0.8862212535738946,-9.763025808334351,14937.0
7.5,0.8999999761581421,347.0,25.61695671081543,-0.0715659633278846,-79.78274971504021,40.45905082390996,272.49685882377634,0.0478538237512111,0.0006317890947684,0.9945400953292848,0.0927341878414154,-0.0309261194976319,-0.0154916192630432,-0.0116756025661292,0.0078638149425387,0.0055176424793899,0.0056139859370887,0.0862310545239597,0.8905762597918511,-9.7630468583107,14937.0
7.7,1.0,337.0,25.615705490112305,-0.0715659633278846,-79.78274938869461,40.45905078612413,272.5057543997765,0.047876302152872,0.0006191508146002,0.9945409893989564,0.0927132591605186,-0.0321181365721084,-0.0107004764149941,-0.0126321481171958,0.0036671406123787,0.0021412351634353,-0.0025926784146577,0.0825115127395838,0.8910288342833519,-9.763059722185137,14937.0
7.81,1.100000023841858,339.0,25.61445426940918,-0.0874695107340812,-79.78274935087677,40.45905079040862,272.50417675423625,0.0478707700967788,0.0006153671420179,0.9945428371429444,0.0926963984966278,-0.0353562558649494,-0.0119102596400709,-0.0124600407342121,0.0014772281283512,-0.0004861735797021,0.0043437420390546,0.0877263794280588,0.8853541845828296,-9.763581293821336,14937.0
8.0,1.2999999523162842,333.0,25.61695671081543,-0.0874695107340812,-79.78274901859174,40.45905076423257,272.51316725063333,0.0478484891355037,0.0006113618728704,0.9945443868637084,0.0926912352442741,-0.0352125166047562,-0.0116239266747277,-0.0130955433382234,0.0065583148971199,0.001461588894017,0.0062703657895326,0.0815442462265491,0.9058449478447438,-9.762364488244057,14937.0
8.11,1.399999976158142,329.0,25.62071418762207,-0.0715659633278846,-79.78274897382394,40.45905076877845,272.51151557612417,0.0478709414601326,0.0006182716460898,0.9945444464683532,0.0926796272397041,-0.0400386086348504,-0.012634339688526,-0.0126654128040023,-0.0060494686476886,-0.002381176687777,-0.0041356794536113,0.0838633889984339,0.8924141858518124,-9.763953761458398,14937.0
8.3,1.600000023841858,328.0,25.611949920654297,-0.0715659633278846,-79.78274870508213,40.45905073251652,272.52313588905344,0.0478531271219253,0.0006292078760452,0.9945464730262756,0.092666320502758,-0.0314129493879861,-0.0104711753413809,-0.0107136960712134,0.0021414274815469,0.001521041849628,0.0055913613177835,0.0819659218378365,0.9020357061177492,-9.76014371573925,14937.0
8.4,1.7000000476837158,330.0,25.61820983886719,-0.0715659633278846,-79.78274845461681,40.45905066630611,272.5354422216416,0.0478160306811332,0.0006158630712889,0.9945483803749084,0.092664748430252,-0.0245225412599599,-0.0038164451008071,-0.0095677301351746,-0.0055368728935718,-0.0015698639908805,-0.0068973815068602,0.0814433452114462,0.9064404136687516,-9.761325438022617,14937.0
8.6,1.7999999523162842,333.0,25.615705490112305,-0.0874695107340812,-79.78274839289645,40.45905066667217,272.53305398273466,0.0478251762688159,0.0006383347208611,0.99454927444458,0.0926505625247955,-0.0316854251780864,-0.0065355840954148,-0.008973135446476,-0.0057080490514636,-0.0026146285235881,-0.0057001370005309,0.0862247961759567,0.8885967580229044,-9.763845587968827,14937.0
8.7,1.7999999523162842,335.0,25.60694122314453,-0.0715659633278846,-79.78274810590628,40.45905061815528,272.54324202585224,0.0478358529508113,0.0006424503517337,0.9945465326309204,0.0926749557256698,-0.02847810051592,-0.0063471895787636,-0.0110854939866145,0.0044487519189715,0.0043006888590753,-0.000467668287456,0.0842195301130414,0.8979418511688709,-9.760783985853196,14937.0
8.9,1.8999999761581416,336.0,25.61445426940918,-0.0795177370309829,-79.78274781455781,40.45905059154659,272.5502381806374,0.0478025302290916,0.0006484166369773,0.9945498108863832,0.0926570519804954,-0.0285305517478352,-0.0110309088716834,-0.014207641158926,-0.0058730943128466,-0.0018531343666836,-0.0070217144675552,0.0887348870839923,0.8864465906471014,-9.763391844034196,14937.0
9.0,1.8999999761581416,338.0,25.61445426940918,-0.0795177370309829,-79.78274778070895,40.45905059693843,272.548537481308,0.0478047579526901,0.0006396048702299,0.994550883769989,0.0926443934440612,-0.0312838096199999,-0.0123748677708824,-0.0140677598832172,0.0027405149303376,0.0011457187356427,0.0075476858764886,0.0884651294443756,0.885186734944582,-9.762944532036784,14937.0
9.2,2.0999999046325684,340.0,25.61820983886719,-0.0715659633278846,-79.78274748110907,40.45905055694112,272.5570540313721,0.0478145442903041,0.0006535982829518,0.9945498108863832,0.0926510989665985,-0.0315912963214973,-0.014066593401778,-0.0142693302817616,0.0073399753309786,0.0038080965168774,0.0075517939403653,0.0831527878437191,0.9053409178555012,-9.761552894711494,14937.0
9.31,2.0,337.0,25.61445426940918,-0.0874695107340812,-79.78274744179019,40.45905056395507,272.5553233509064,0.0477992706000804,0.0006549026584252,0.9945509433746338,0.092646062374115,-0.0364897497995635,-0.0149015889032109,-0.0137419132120394,-0.007941061630845,-0.004537237342447,-0.0069347489625215,0.0826194760948419,0.9065927336364984,-9.762294321656228,14937.0
9.5,1.8999999761581416,335.0,25.61445426940918,-0.0715659633278846,-79.78274718242695,40.45905049088906,272.5609487776757,0.0477789714932441,0.0006362264393828,0.9945512413978576,0.0926541686058044,-0.0332265615812281,-0.0117090477188153,-0.0181917477130431,-0.0072817746549844,-0.0023215832188725,-0.0074189039878547,0.0870627478603273,0.8879789996892214,-9.762911787629127,14937.0
9.6,1.8999999761581416,333.0,25.60694122314453,-0.0795177370309829,-79.78274714219313,40.45905049638772,272.558805990696,0.0478001423180103,0.0006484681507572,0.9945491552352904,0.0926651805639267,-0.0354993668327708,-0.0134450632676503,-0.0180006880885823,0.0067470585927367,0.006135378498584,0.004207772668451,0.0848386132065206,0.8891633532196284,-9.76394732952118,14937.0
9.8,1.7999999523162842,335.0,25.61445426940918,-0.0874695107340812,-79.78274685997728,40.45905042836518,272.56479005861286,0.0478027798235416,0.0006533081759698,0.9945480227470398,0.0926752090454101,-0.0370811129722655,-0.0130606095922043,-0.0193926095413864,0.0038550787139683,0.0040937480516731,0.0030809470918029,0.0857753188814968,0.8993261794745923,-9.76297552227974,14937.0
9.9,1.7000000476837158,338.0,25.61820983886719,-0.0318070948123931,-79.78274665964437,40.459050375063526,272.5732080225945,0.0477898716926574,0.0006617022445425,0.9945504665374756,0.0926562696695327,-0.0286847944275448,-0.0147487633174969,-0.0214689798843399,-0.0045979628339409,-0.0040449500083923,-0.0042411400936543,0.0817386387381702,0.8915217545628548,-9.7649682533741,14937.0
10.1,1.399999976158142,341.0,25.60944557189941,-0.055662415921688,-79.78274658592571,40.45905039310861,272.56836186695097,0.0477919578552246,0.0006683864630758,0.9945526123046876,0.0926313027739524,-0.0354766573617827,-0.0173591522612617,-0.0208228876291651,-0.0058489474467933,-0.0035874827299267,0.0009920442244037,0.0850550698209554,0.8980133333802224,-9.762238188385965,14937.0
10.2,1.399999976158142,341.0,25.61820983886719,-0.0715659633278846,-79.78274639635714,40.45905029645913,272.5782426481248,0.0477586798369884,0.0006418476114049,0.9945529103279114,0.092646412551403,-0.0279316852697976,-0.0128642249745901,-0.0197923317239927,0.0025873428676277,0.0010215291986241,-0.0021458042319864,0.0807386004086583,0.8993709106743336,-9.761036000847817,14937.0
10.4,1.2999999523162842,347.0,25.61695671081543,-0.0795177370309829,-79.78274616146983,40.45905023780267,272.58169155168537,0.0477326437830925,0.0006253981264308,0.9945557713508606,0.092629037797451,-0.0270105168278599,-0.016527191972591,-0.0247762181211532,0.0019218357047066,0.0019633527845144,-0.0001952531165443,0.0872196633741259,0.8859334974735976,-9.763950253129003,14937.0
10.5,1.100000023841858,352.0,25.61820983886719,-0.0715659633278846,-79.78274612964198,40.459050248251415,272.57894753265384,0.0477415658533573,0.0006183392833918,0.9945570230484008,0.0926108211278915,-0.030197505165543,-0.0177240450616583,-0.0245399872753122,0.0045340280048549,-0.0018506100168451,0.0063112759962677,0.0869048456288874,0.8812895657122135,-9.764536728858948,14937.0
10.7,0.8999999761581421,357.0,25.61695671081543,-0.0636141896247863,-79.78274589201125,40.45905017159602,272.582392323494,0.047765914350748,0.0006238564383238,0.9945582151412964,0.0925859287381172,-0.0312499235517705,-0.0177260683818285,-0.0269675765389087,0.0064016287215054,0.0048115630634129,0.0049374476075172,0.0839916074741631,0.9099283508956432,-9.76136402964592,14937.0
10.8,0.8000000119209291,359.0,25.603185653686523,-0.0874695107340812,-79.78274585457567,40.45905018201095,272.5793950443268,0.0477368272840976,0.0006319877575151,0.9945598244667052,0.0925826653838157,-0.0358973766141726,-0.0186837239381392,-0.0265148130204422,-0.0060882647521793,-0.0032170289196074,-0.0084683243185281,0.0808482996560633,0.9047371197491884,-9.761562834978104,14937.0
11.01,0.8000000119209291,358.0,25.61946105957031,-0.0715659633278846,-79.78274565931645,40.45905007804157,272.58419917869566,0.0477119572460651,0.000623311731033,0.9945618510246276,0.0925745889544487,-0.0320829934022092,-0.0145804392949458,-0.0265418628209047,-0.0072404579259455,-0.0022578809875994,-0.0057655144482851,0.0870404279418289,0.8895868378132582,-9.763015283346176,14937.0
11.11,0.699999988079071,359.0,25.615705490112305,-0.0636141896247863,-79.78274562071573,40.45905008629867,272.58123295354847,0.0477269738912582,0.0006367373862303,0.9945611953735352,0.0925734266638755,-0.0345813005212561,-0.0162309581123745,-0.0263205324054592,0.0044437050819396,0.0022331033833324,0.0014498142991214,0.0827486447431147,0.894720327705145,-9.762879043221474,14937.0
11.3,0.699999988079071,353.0,25.615705490112305,-0.0874695107340812,-79.78274545014466,40.45904997177694,272.586303103447,0.0476900860667228,0.0006416364340111,0.994565725326538,0.0925439596176147,-0.0303843588068998,-0.0121117002476489,-0.0263510603110843,-0.0010164557024836,-0.0007630377076566,-0.0060755060985684,0.0860519378632307,0.8864106302708388,-9.763838571310044,14937.0
11.4,0.699999988079071,353.0,25.615705490112305,-0.0715659633278846,-79.78274532176239,40.459049860265424,272.594477701664,0.0476637184619903,0.000633928226307,0.9945660829544068,0.0925531834363937,-0.0205078912047278,-0.0108208668727913,-0.0268797286232008,0.0045869969762861,0.001785306725651,0.0097766416147351,0.0862351475749164,0.8833713206648827,-9.763186606764794,14937.0
11.6,0.8000000119209291,350.0,25.61445426940918,-0.0874695107340812,-79.78274526830748,40.45904987334432,272.58870874691013,0.0476801209151744,0.0006661204388365,0.9945653676986694,0.0925522521138191,-0.0271626247639868,-0.0133644112326223,-0.0263047334933324,0.0045088804326951,0.0040611885488033,0.0006960342288948,0.0816732686944305,0.905041321143508,-9.761176334023476,14937.0
11.71,0.8000000119209291,349.0,25.615705490112305,0.0079517737030982,-79.78274511802549,40.45904977366961,272.5976869945526,0.0476834885776042,0.0006823982694186,0.9945666790008544,0.0925366431474685,-0.0240533957954282,-0.0148428833367105,-0.0240797555586377,-0.0066468734294176,-0.003656688844785,0.0046947887167334,0.0848265167791396,0.8872320178896189,-9.764783481359483,14937.0
11.9,0.8999999761581421,341.0,25.60443687438965,-0.0238553211092948,-79.78274494389298,40.459049647910106,272.60058151531223,0.0476715639233589,0.0006586711970157,0.99456787109375,0.0925301238894462,-0.0242247781898159,-0.0118357364772887,-0.0276260927130534,0.0049067521467804,0.0007161331013776,0.009910337626934,0.081995121371001,0.9086872793734074,-9.76138741850853,14937.0
12.0,0.8999999761581421,337.0,25.61445426940918,-0.0874695107340812,-79.78274491632648,40.45904965436421,272.5975877528191,0.0476662106812,0.0006568596581928,0.9945679903030396,0.0925310105085372,-0.0286041131963582,-0.012608482115916,-0.0272589487128416,-0.0058372570201754,-0.0013068569824099,-0.0087333600968122,0.0823288329318165,0.9049050079286098,-9.761075177192687,14937.0
12.2,0.8999999761581421,329.0,25.61069679260254,0.0159035474061965,-79.78274481914661,40.45904946357894,272.60761182355884,0.0476546287536621,0.000603083113674,0.9945711493492126,0.0925036668777465,-0.0189518850354381,0.000169198896387,-0.0202095352066879,-0.0066086431033909,-0.0008609094657003,0.002708493033424,0.0860094541870057,0.8920295121520758,-9.763267883062364,14937.0
12.3,0.8999999761581421,323.0,25.60944557189941,-0.055662415921688,-79.78274479984275,40.459049460717424,272.6054275517464,0.0476402007043361,0.0006085382774472,0.9945712685585022,0.0925099700689315,-0.0217075649369704,-0.0010349990242492,-0.0198408198044191,0.0013643148122355,-1.8119928427040577e-05,-0.004963744431734,0.0824636295251548,0.9053228645771744,-9.761277490854264,14937.0
12.5,0.8999999761581421,317.0,25.611949920654297,0.0,-79.78274463350769,40.45904931206205,272.6127439026833,0.0476344302296638,0.0006090826936997,0.994570016860962,0.0925265625119209,-0.024380553175039,-0.0018134633516651,-0.0185044528297474,-0.0058304453268647,-0.0043302997946739,-0.0095683773979544,0.0874888362921774,0.8826504320651293,-9.764022173881534,14937.0
12.6,0.8999999761581421,309.0,25.60569000244141,0.0079517737030982,-79.78274460571913,40.45904931016136,272.61066191244134,0.0476489327847957,0.0006131204427219,0.9945687651634216,0.0925323143601417,-0.0262646991521459,-0.0031915169005033,-0.0183950755885187,0.0071532516740262,0.0028194540645927,0.007069625891745,0.0894004738144576,0.8899123084545136,-9.763550888299942,14937.0
12.8,0.8999999761581421,293.0,25.60944557189941,-0.0159035474061965,-79.78274446245453,40.45904916189407,272.61999748992923,0.0476457923650741,0.0006187688559293,0.9945690035820008,0.0925319045782089,-0.025782918561585,-0.0040067544575364,-0.0144391608926817,0.0049337712116539,0.0038296768907457,0.0011410885490477,0.0822287633176893,0.9008064752072096,-9.76219316482544,14937.0
12.91,0.8999999761581421,289.0,25.599428176879893,0.0079517737030982,-79.78274436245673,40.45904902044373,272.6290566806793,0.0476492494344711,0.0006126025109551,0.9945709109306335,0.0925093367695808,-0.019416546891079,-0.0044203787136677,-0.015306836428405,-0.0017184750176966,-0.0023307506926357,0.0056311534717679,0.0869873644597828,0.8865405115485192,-9.76482090353966,14937.0
13.1,0.8000000119209291,281.0,25.599428176879893,-0.0318070948123931,-79.78274431348662,40.45904902310127,272.62564616250995,0.0476379171013832,0.0006049182848073,0.994571089744568,0.0925130993127822,-0.0251579474701879,-0.0071791953528741,-0.0146851095217294,0.0043658963404595,0.0031275455839931,0.0088531859219074,0.0828611670993268,0.9093534965068102,-9.76245395064354,14937.0
13.2,0.8000000119209291,266.0,25.613201141357425,0.0,-79.78274422404095,40.45904887404117,272.632517326355,0.0476291254162788,0.0006049777148291,0.9945703148841858,0.0925255343317985,-0.0208732136341077,-0.0071181778623867,-0.0182017395959601,-0.0086549343541264,-0.002705399878323,-0.008317245170474,0.0872537964954972,0.8842551273107528,-9.764696942567824,14937.0
13.3,0.8000000119209291,271.0,25.608192443847656,-0.0159035474061965,-79.78274420096767,40.459048877514064,272.6305062060356,0.0476110205054283,0.0006027789204381,0.9945721626281738,0.0925154015421867,-0.0229237915686645,-0.0087269801658753,-0.0179692794810091,0.0047880387865006,0.0031361039727926,0.0037702077534049,0.0834469667449593,0.8965529181808234,-9.761834730505944,14937.0
13.5,0.699999988079071,262.0,25.61069679260254,-0.0079517737030982,-79.78274409842741,40.45904872250764,272.63564072895053,0.0475851744413375,0.000587026879657,0.994573414325714,0.0925151109695434,-0.0213765751806331,-0.0088387679820208,-0.02043914148068,-0.0050464593805372,0.00133399059996,-0.013336606323719,0.0874006895162165,0.8840729134529829,-9.765237225294111,14937.0
13.61,0.699999988079071,258.0,25.61069679260254,0.0079517737030982,-79.78274407267534,40.45904872743034,272.63338969993595,0.0475871190428733,0.0005912886699661,0.9945746064186096,0.0925017595291137,-0.0234807134027283,-0.0104306103556488,-0.0202891727384943,0.0088263545185327,0.0049082622863352,4.0861297748051584e-05,0.0862115394417196,0.8920040036737921,-9.76276385307312,14937.0
13.81,0.699999988079071,251.0,25.603185653686523,-0.0318070948123931,-79.78274397931268,40.45904853961287,272.63824592876443,0.0475783236324787,0.0005641269381158,0.9945761561393738,0.0924893543124198,-0.0233907253533743,-0.0048979021144599,-0.0219168600210077,-0.0031928794924169,-0.0013943508965894,-0.0122510818764567,0.0858516067732125,0.8859052115678787,-9.765377558469774,14937.0
13.91,0.699999988079071,255.0,25.608192443847656,-0.0318070948123931,-79.78274389647683,40.45904834669663,272.6477239613533,0.0475829094648361,0.0005300642806105,0.994577407836914,0.0924739688634872,-0.0195736071767962,0.0001876498285097,-0.0205187236773761,0.0048207426443696,0.0021709236316382,0.0069447206333279,0.0879133167397231,0.8885944922268391,-9.763890611529352,14937.0
14.1,0.8000000119209291,246.0,25.60694122314453,0.0159035474061965,-79.78274384896277,40.4590483402071,272.64327876615533,0.0475876815617084,0.0005255692522041,0.9945762157440186,0.0924844741821289,-0.0267677472399199,-0.0015361491943986,-0.0197325566959847,-0.0006949544767849,0.000914124015253,-0.006585887633264,0.0844527700636535,0.8891109475493432,-9.763858451843262,14937.0
14.2,0.699999988079071,244.0,25.613201141357425,0.0079517737030982,-79.78274380023298,40.45904817518458,272.65247737216947,0.0475751794874668,0.0005293791764415,0.9945781230926514,0.0924706161022186,-0.0181494347189934,-0.0026332987402438,-0.0195276953542832,0.0066452911123633,0.0039889286272227,0.0084538264200091,0.08845538103953,0.8864455673843623,-9.76345265507698,14937.0
14.41,0.699999988079071,244.0,25.611949920654297,0.0079517737030982,-79.78274369392894,40.459047987675206,272.6591549401284,0.0475676320493221,0.0005232956027612,0.9945810437202454,0.0924429073929786,-0.0215286475427143,-0.0022330074635874,-0.0181462322832096,-0.0002982791338581,0.002490464830771,-0.0033748161513358,0.0840155262406915,0.8952608297020197,-9.76355615079403,14937.0
14.5,0.699999988079071,241.0,25.60944557189941,0.0079517737030982,-79.78274367039748,40.45904798642883,272.6571421508789,0.0475688613951206,0.0005281140329316,0.9945817589759828,0.0924348756670951,-0.0241944148189312,-0.0033601716137138,-0.0179732157535309,0.0059997574426233,-1.6482234059367336e-05,0.0073711643926799,0.0901938678883016,0.8851927283406258,-9.76322402894497,14937.0
14.7,0.699999988079071,237.0,25.60694122314453,0.0159035474061965,-79.78274362544838,40.45904777227212,272.66615669775007,0.0475664511322975,0.0005328929401002,0.9945841431617736,0.092409648001194,-0.0175995147225809,0.0020851669231363,-0.0146716127232698,0.0012744445120915,0.0006352888303808,-0.0053767054341733,0.0831933163572102,0.8977809065580369,-9.762259238362311,14937.0
14.81,0.699999988079071,236.0,25.60694122314453,-0.0159035474061965,-79.78274360660409,40.45904776753567,272.6645340209008,0.0475846827030181,0.000524497765582,0.994584023952484,0.092401809990406,-0.0203808356650245,0.0011117624915823,-0.0143696944155263,0.0037167500704526,0.0006803712458349,0.0066370721906423,0.0873987343534827,0.8831769738346339,-9.76490802705288,14937.0
15.0,0.699999988079071,228.0,25.61069679260254,0.0,-79.78274349888895,40.45904753839453,272.67335795211795,0.0475858822464942,0.0005245057982392,0.994585394859314,0.0923870950937271,-0.025563774288158,0.0055827220215051,-0.0113853759417149,0.0052553410641849,0.0033812799956649,-0.0009244080865755,0.0823133834917098,0.9005708324164152,-9.763328694105148,14937.0
15.1,0.699999988079071,226.0,25.615705490112305,-0.055662415921688,-79.78274346958673,40.45904752936716,272.6719947342873,0.0476096644997596,0.0005177451530471,0.9945858120918274,0.0923695713281631,-0.0286003862389457,0.00455938778722,-0.0110360451492646,0.0049666594713926,0.0043142782524228,0.0090772537514567,0.0878495272714644,0.884108142927289,-9.764288806915284,14937.0
15.31,0.8000000119209291,217.0,25.60443687438965,-0.0795177370309829,-79.78274338211571,40.45904731084437,272.682660449028,0.0475659146904945,0.0005055859219282,0.9945897459983826,0.092350535094738,-0.0282828321484461,0.0053568771134145,-0.0065319854534163,0.0029415215831249,0.0033204634673893,-0.0032016756013035,0.0827422767598182,0.9001871819794178,-9.762927575111387,14937.0
15.4,0.8000000119209291,217.0,25.615705490112305,-0.0715659633278846,-79.78274331089732,40.45904710176495,272.6956497316361,0.0475861094892025,0.0004904633387923,0.99458909034729,0.0923472195863723,-0.0268357399832208,0.0068153886913629,-0.0009496553980588,0.0042512333020567,0.0011855812044814,0.0092491656541824,0.0887767586298287,0.8852822638303042,-9.762878458499909,14937.0
15.6,0.8000000119209291,213.0,25.615705490112305,-0.0795177370309829,-79.78274324464017,40.4590470807816,272.69499968338016,0.0475466363132,0.0004826343501918,0.9945908784866332,0.0923478752374649,-0.0335630390271532,0.0052280665635118,4.093980676508706e-05,0.0011273224372416,0.0027799627278,-0.0036340418737381,0.0830237288307398,0.8991628228873015,-9.762389046549798,14937.0
15.71,0.699999988079071,213.0,25.60569000244141,-0.0636141896247863,-79.7827432125467,40.459046815037134,272.7104600553513,0.047533843666315,0.000456633104477,0.9945914745330808,0.0923476591706276,-0.028489436494673,0.0172283278045332,0.0074743971550863,0.0056048892438411,0.0012778651434928,0.0103770298883318,0.0885717406310141,0.8853685833513737,-9.76398533642292,14937.0
15.9,0.8000000119209291,208.0,25.60569000244141,-0.0874695107340812,-79.78274313199472,40.45904658427065,272.7243384008408,0.0475104227662086,0.0004521307710092,0.9945913553237916,0.0923614650964737,-0.0287585694451098,0.0157330968098986,0.0113696104231869,0.0026934859342873,0.00017428350111,-0.0020730358082801,0.0826194212771952,0.8996394440531731,-9.763139244318008,14937.0
16.0,0.8000000119209291,203.0,25.615705490112305,-0.0715659633278846,-79.78274310115212,40.45904656560615,272.72521572160724,0.0475074350833892,0.0004325548652559,0.9945919513702391,0.0923568084836006,-0.0311949963609217,0.014984720450881,0.01164742785345,0.002018962521106,0.0034426494967192,0.0083828773349523,0.0890432272106409,0.8867089113593102,-9.76455251634121,14937.0
16.2,0.699999988079071,200.0,25.61445426940918,-0.0636141896247863,-79.78274301694033,40.45904632038448,272.7399627451897,0.047481469810009,0.0004361156607046,0.9945958256721495,0.0923279374837875,-0.0324871783358131,0.0163044591114312,0.0156052864257303,0.0005202130414545,0.0034203506074845,-0.0040039140731096,0.084265165803954,0.8985376093536616,-9.762968505620956,14937.0
16.31,0.699999988079071,198.0,25.61445426940918,-0.0795177370309829,-79.78274298076967,40.459046300444605,272.7412291054726,0.0474767237901687,0.000434353336459,0.9945968985557556,0.0923196375370025,-0.0348888044565093,0.0154696843673641,0.0159001588247128,0.0047743613831698,0.0045385449193418,0.0074099507182836,0.0815301672276109,0.9032891298830508,-9.760907362103463,14937.0
16.41,0.699999988079071,197.0,25.61445426940918,-0.0477106422185897,-79.7827429417937,40.45904606683111,272.75483475971225,0.0474609732627868,0.000416652415879,0.99459969997406,0.0922979339957237,-0.0328824782908985,0.0178465169723031,0.0184744994721283,-0.0082334764301776,-0.0015733966138213,-0.0055415756069123,0.0833408763259649,0.8947402082383633,-9.764418615102768,14937.0
16.6,0.699999988079071,197.0,25.60694122314453,-0.0715659633278846,-79.78274286475535,40.45904602476885,272.7579657917023,0.0474753975868225,0.0004168527375441,0.9945980310440063,0.0923074856400489,-0.0376688282832101,0.0160310458674055,0.0192739782778141,0.0058644446544349,0.0041918396018445,0.0104347420856356,0.0832216205354779,0.90613540828228,-9.762892491817476,14937.0
16.7,0.699999988079071,201.0,25.61820983886719,-0.0636141896247863,-79.78274284464055,40.4590458240131,272.77168976116184,0.0474529080092906,0.0004166289290878,0.994600474834442,0.0922928377985954,-0.033203995012476,0.0121341802567517,0.0209285795811004,-0.0073835770599544,-0.0027951374650001,-0.0046389265917241,0.0865774746425449,0.8870339434593917,-9.7641589987278,14937.0
16.81,0.699999988079071,204.0,25.60193252563477,-0.0795177370309829,-79.78274280752541,40.45904580811187,272.77347897338865,0.0474266819655895,0.0004271418729331,0.9946035146713256,0.0922736525535583,-0.0356556895587949,0.0111437713135603,0.0212735516384803,0.0005385268596,0.0028139401692897,-0.0050041959621012,0.0809248981811106,0.9060260653495787,-9.761582715511322,14937.0
17.0,0.699999988079071,208.0,25.61695671081543,-0.0795177370309829,-79.78274276251726,40.45904555864546,272.7905158286095,0.0474215187132358,0.0004039857594761,0.9946057796478271,0.0922517627477646,-0.033424835221528,0.0139042906298344,0.0247950001488014,-0.0066341431811451,-0.0033072512596845,0.0002831244491972,0.0872473280131816,0.8860388935357333,-9.764061350226402,14937.0
17.1,0.6000000238418579,210.0,25.613201141357425,-0.0715659633278846,-79.78274272298475,40.45904554089129,272.79269163656244,0.0474075525999069,0.0003819349803961,0.9946045875549316,0.0922720730304718,-0.0360913983256899,0.0131717459226385,0.0252522043929859,-0.0018599590985104,0.0017815685132518,-0.0059612593613564,0.0826098281890154,0.9071525314450264,-9.76177976667881,14937.0
17.3,0.6000000238418579,205.0,25.611949920654297,-0.0874695107340812,-79.78274269655384,40.45904526708456,272.81030498790744,0.0473799370229244,0.0003598181938286,0.9946073293685912,0.0922570452094078,-0.0331783986077511,0.01911916038548,0.0281236991247606,-0.0046344064176082,-0.0045156786218285,-0.0053137824870646,0.0897488308232277,0.8867472106218338,-9.764489951133733,14937.0
17.4,0.6000000238418579,206.0,25.60944557189941,-0.0715659633278846,-79.78274268292661,40.45904501212485,272.82514994192127,0.0473774746060371,0.0003506046487018,0.9946079850196838,0.0922512784600258,-0.0303181985967611,0.0232963473354488,0.030040101166201,-0.0016577771166339,-0.0008778148330748,-0.0076938802376389,0.0824787591956555,0.9073302137106658,-9.762165098190309,14937.0
17.6,0.5,217.0,25.61445426940918,-0.0795177370309829,-79.78274261185861,40.459044960722814,272.8306375627518,0.0473759993910789,0.0003427780466154,0.9946094155311584,0.092236541211605,-0.0360332644873108,0.0223211277460662,0.0309755640135925,-0.0069241053424775,-0.0020260415039956,0.0003151151759084,0.0878479558322578,0.8878727996349335,-9.764667706489565,14937.0
17.7,0.5,224.0,25.61445426940918,-0.0795177370309829,-79.78274261068364,40.45904469501272,272.847604203701,0.0473582670092582,0.000317749887472,0.9946108460426332,0.0922304168343544,-0.0322756047476779,0.0260338541456776,0.0353958086194487,-0.0008617141284048,-0.0028692458290606,-0.0101999389007687,0.0823501113150268,0.9074221611768007,-9.763703500628472,14937.0
17.91,0.5,230.0,25.615705490112305,-0.0715659633278846,-79.7827425658807,40.45904442870357,272.8661605601311,0.0473682731389999,0.0003299585951026,0.9946128129959106,0.0922037586569786,-0.0317179273285431,0.025026777439522,0.0379694319094904,-0.0013852072879672,-0.0006125144427642,0.0068509471602737,0.0851226142980158,0.8922077060490847,-9.76528692662716,14937.0
18.01,0.5,231.0,25.60944557189941,-0.0795177370309829,-79.78274253016258,40.45904440099771,272.86968444633493,0.0473508089780807,0.0003421538858674,0.994612991809845,0.0922106653451919,-0.0351624322187498,0.0247314745492458,0.0387012414437832,-0.006320858374238,-0.005806737113744,-0.0104537969455122,0.0823026483692228,0.9057707612961532,-9.764710391163826,14937.0
18.2,0.6000000238418579,242.0,25.61445426940918,-0.0715659633278846,-79.78274251304981,40.45904411811959,272.89062290239343,0.0473467633128166,0.0003295550704933,0.9946149587631226,0.0921915620565414,-0.0302754858039656,0.0271848193196859,0.0431072516374925,0.0018884463934227,-0.0011995023814961,0.0076565435156226,0.0830683138500899,0.8973788373917342,-9.762194918990136,14937.0
18.3,0.6000000238418579,246.0,25.608192443847656,-0.0874695107340812,-79.78274247860224,40.459044088754055,272.8946699385644,0.0473334304988384,0.0003365976735949,0.9946170449256896,0.0921762585639953,-0.0339500110596189,0.0268502190888997,0.0437586574004897,-0.0069846557453274,-0.0004894207813777,-0.0130525398999452,0.0818635316099971,0.904318897649646,-9.763758464455606,14937.0
18.5,0.6000000238418579,257.0,25.613201141357425,-0.0874695107340812,-79.78274242811564,40.45904377595646,272.9162208919525,0.0473398230969905,0.0003360981354489,0.9946178793907166,0.0921633169054985,-0.0354248112000341,0.0306909138983125,0.0475890035848527,0.0026476113125681,0.0007469757110811,0.0119240833446383,0.0834440796822309,0.8992643451690674,-9.763056798577312,14937.0
18.6,0.6000000238418579,263.0,25.61069679260254,-0.0795177370309829,-79.78274238641309,40.45904374241808,272.92067216682443,0.0473396107554435,0.0003378198889549,0.994619607925415,0.0921456143260002,-0.0393045751998234,0.0305414893415278,0.0483100494511472,-0.0080502247437834,-0.0019020226318389,-0.0064309500157833,0.0819315694458782,0.902207541167736,-9.76340470790863,14937.0
18.8,0.6000000238418579,278.0,25.61069679260254,-0.0954212844371795,-79.78274237070859,40.459043441398265,272.94519333887104,0.047346506267786,0.0003310186439193,0.9946222305297852,0.0921138823032379,-0.0354020269521086,0.0312413383923716,0.0539684312261981,0.0026487491559237,-0.0017550673801451,0.0106681045144796,0.0829983756691217,0.9003236413747072,-9.762646324038506,14937.0
18.91,0.6000000238418579,280.0,25.611949920654297,-0.0636141896247863,-79.78274236363919,40.45904320744767,272.96084694910047,0.0473254956305027,0.0003269310691393,0.9946247935295104,0.0920966118574142,-0.0351296766087707,0.0274915565246568,0.054644926634639,-0.0042161745950579,-0.0017237555002793,-0.0118283415213227,0.082247191183269,0.9047540035843852,-9.763856112957,14937.0
19.1,0.6000000238418579,286.0,25.608192443847656,-0.055662415921688,-79.78274227859258,40.45904314712133,272.97116981792453,0.0473572351038456,0.0003265877312514,0.9946258664131165,0.0920690596103668,-0.040017315346207,0.0262449293331095,0.0555965936103185,-0.0025307168252766,0.001991871278733,0.0050135455094277,0.0829177571833133,0.8947872783243657,-9.764091171026232,14937.0
19.21,0.6000000238418579,281.0,25.61445426940918,-0.0636141896247863,-79.78274232824153,40.459042884195966,272.9849402194024,0.0473261214792728,0.0003332568157929,0.9946284294128418,0.0920565873384475,-0.0331332480415336,0.0291079047894098,0.0524982274788446,-0.0052995374426245,-0.0017001585802063,-0.0097469566389918,0.0816590161062777,0.9059936133027076,-9.764000539183616,14937.0
19.4,0.6000000238418579,280.0,25.61445426940918,-0.0715659633278846,-79.78274234170291,40.45904258500438,273.0059885864258,0.0473187342286109,0.0003193311276845,0.9946291446685792,0.0920532345771789,-0.0277284972291686,0.0311065736501294,0.0531272810014813,-0.0034223771654069,-0.000869472278282,0.0083595775067806,0.0873567531723529,0.8930423960834742,-9.76434201657772,14938.0
19.5,0.6000000238418579,277.0,25.61445426940918,-0.0795177370309829,-79.78274231005499,40.45904255252989,273.0110672597885,0.0473117604851722,0.0003145357768516,0.9946303367614746,0.0920431762933731,-0.0308412328707658,0.0307749804446482,0.0538214260258346,-0.0046385498717427,0.0024087235797196,-0.0116734113544225,0.0834348977264017,0.908826004564762,-9.76434435546398,14938.0
19.7,0.5,265.0,25.61445426940918,-0.0715659633278846,-79.78274236481977,40.45904227057178,273.0320958976746,0.0472972057759761,0.0003240004298277,0.9946334362030028,0.0920177847146988,-0.021759554980872,0.0298084588222776,0.0536670396731757,-0.0009098001173697,5.013473855797202e-05,0.004298897460103,0.087609965018928,0.8899660297483206,-9.765479884743687,14938.0
19.8,0.5,256.0,25.60193252563477,-0.0874695107340812,-79.78274234042958,40.45904224053958,273.0372774486541,0.0472891554236412,0.0003339719260111,0.994633972644806,0.0920161083340644,-0.0246881103271108,0.0293143812386059,0.0542662298312572,-0.004864543210715,-0.0011652653338387,-0.0105224009603261,0.0851609592419117,0.9099711817502976,-9.763914585113524,14938.0
20.0,0.4000000059604645,238.0,25.59191703796387,-0.1192766055464744,-79.78274230971486,40.459041957576645,273.05659996318815,0.0472914762794971,0.000320164108416,0.9946367740631104,0.0919844582676887,-0.0287959838204314,0.0275702237182182,0.053183640705268,-0.0011303735664114,-0.0022555640898644,0.0073604080826044,0.0864953669440001,0.8908878432959318,-9.765810252428055,14938.0
20.1,0.4000000059604645,225.0,25.611949920654297,-0.0636141896247863,-79.78274227508456,40.459041928086585,273.0616698150635,0.0472954735159874,0.0003255350457038,0.9946395754814148,0.0919524952769279,-0.0318713212754753,0.027215432496368,0.0538945632240492,-0.0049307225272059,-0.000859169056639,-0.0099231367930769,0.0812478472106158,0.9080975145846606,-9.763143337368966,14938.0
20.3,0.3000000119209289,200.0,25.60944557189941,-0.0954212844371795,-79.7827422668402,40.45904164722243,273.0807402019501,0.0472817532718181,0.0002971958310808,0.9946431517601012,0.091920867562294,-0.0311942360098111,0.025941981847474,0.0518373083127725,-0.0027570333331823,-0.0025612590834498,0.0067853033542633,0.0859485791902989,0.8925434824079276,-9.7648033618927,14938.0
20.4,0.3000000119209289,188.0,25.61069679260254,-0.0874695107340812,-79.78274228005144,40.45904137315375,273.0947244052888,0.0472725108265876,0.0002776902983896,0.9946436882019044,0.0919197052717208,-0.0318281784942633,0.0284097719219044,0.0501634476199113,-0.0043070875108242,-0.0040363939478993,-0.0113207073882222,0.081107861213386,0.9062986186891796,-9.762821155786517,14938.0
20.5,0.3000000119209289,168.0,25.60193252563477,-0.0795177370309829,-79.78274224446542,40.45904134274903,273.09946118640903,0.0472688376903533,0.0002704772632569,0.9946444034576416,0.0919139310717582,-0.033269171500885,0.0277989887116439,0.0506034472204778,0.005777302198112,0.0021252536680549,0.0022818052675575,0.0851074937637895,0.8958986147493124,-9.763536854982377,14938.0
20.7,0.3000000119209289,164.0,25.61445426940918,-0.0795177370309829,-79.78274225468867,40.45904105270613,273.11817537593845,0.0472534298896789,0.0002646300708875,0.9946492910385132,0.0918687433004379,-0.0322099673830518,0.0272952637882482,0.0493580597127291,-0.0046531651169061,-0.0004375541175249,-0.0109987705945968,0.0796567010600119,0.9032951232790948,-9.762964997291563,14938.0
20.9,0.3000000119209289,157.0,25.60694122314453,-0.1113248318433761,-79.78274225103729,40.45904078473193,273.1353329305649,0.0472094714641571,0.0002394136536167,0.9946543574333192,0.0918365940451622,-0.0306667878657827,0.0242696145143898,0.0465473839147793,0.0031843536999076,-0.0021903126034885,0.0069725131615996,0.0841930349171161,0.897105991691351,-9.763853189349176,14938.0
21.0,0.3000000119209289,151.0,25.611949920654297,-0.0715659633278846,-79.78274221520677,40.459040757737824,273.13972281265256,0.0471976324915885,0.0002427924337098,0.9946566224098206,0.0918178036808967,-0.0340653458051028,0.0242863155933894,0.047291848935023,-0.0118279885500669,-0.0010493599111214,-0.0094834696501493,0.0828452151641249,0.9063168181478978,-9.764429724812508,14938.0
21.11,0.3000000119209289,144.0,25.608192443847656,-0.0715659633278846,-79.78274217506146,40.45904073044315,273.14415346431736,0.0471791811287403,0.0002431773464195,0.9946574568748474,0.0918192118406295,-0.0355321836191962,0.0237730657621489,0.0478617522221422,0.0047280928120017,0.0021437362302094,0.0036967610940337,0.084972432218492,0.8957368661463261,-9.765189862847327,14938.0
21.3,0.3000000119209289,138.0,25.60068130493164,-0.0795177370309829,-79.78274224327924,40.45904043071265,273.1602870111466,0.0471453592181205,0.0002043947315542,0.9946601986885072,0.0918064191937446,-0.028767755004621,0.0283929589408554,0.0439663591550471,-0.0054759886115789,-0.0036718037445098,-0.0082077253609895,0.0828985344618559,0.9054262141138316,-9.76380465745926,14938.0
21.4,0.3000000119209289,129.0,25.57313537597656,0.7633702754974365,-79.78274235649671,40.45904025248078,273.172448504448,0.0470961108803749,0.0002148666098946,0.9946638345718384,0.0917920693755149,-0.0124272332149706,0.014983518597924,0.0387817145249367,0.0071520083583891,0.0032643580343574,-0.0040612928569316,0.0841136041469872,0.8943064910173416,-9.765093968510628,14938.0
21.6,0.3000000119209289,128.0,25.596923828125,0.2306014448404312,-79.7827423207055,40.459040220760976,273.1800272350312,0.0470955818891525,0.0002092725335387,0.9946646094322203,0.0917835608124733,-0.0186133812746915,0.0148910379726842,0.0401859304346023,-0.005009644664824,0.0015191375277936,-0.0154294604435563,0.0844854322448372,0.9037599769234658,-9.765312069654462,14938.0
21.8,0.4000000059604645,127.0,25.59066390991211,0.2067461162805557,-79.78274230461871,40.459039911564034,273.19463144588474,0.0471037738025188,0.0002024808491114,0.9946619868278505,0.0918089374899864,-0.0237901876815726,0.0194127959314382,0.0370234985283406,0.0030057616531848,0.0017582640284672,0.0028651889879256,0.0854958950635045,0.9061679334193468,-9.761333624124529,14938.0
21.9,0.4000000059604645,124.0,25.5869083404541,0.2226496636867523,-79.78274232552056,40.45903967068483,273.204667675972,0.0470877327024936,0.0002004932903219,0.9946692585945128,0.0917383134365081,-0.0264154361859761,0.0186360998047743,0.0328433899014705,-0.0067333416081964,-0.0018189578549936,-0.0084689017385244,0.0856731753330677,0.9045853114128112,-9.766575068235396,14938.0
22.01,0.5,120.0,25.595672607421875,0.2146978974342346,-79.78274229596957,40.45903964974119,273.20771943378446,0.0470784120261669,0.0002151141525246,0.9946645498275756,0.0917931273579597,-0.0279290660379778,0.0182273432450989,0.0331876388989242,0.0039559481665492,-0.0030941632576286,-0.0029501274693757,0.0787928571738302,0.90404407851398,-9.76238144516945,14938.0
22.2,0.5,123.0,25.58815956115723,0.2942156493663788,-79.7827423834645,40.45903941783784,273.2182758932114,0.0470526553690433,0.0002141272270819,0.994669795036316,0.0917498916387558,-0.0175166212952071,0.0138412693424942,0.0252377636967786,-0.0061195120215415,-0.0043766666203737,-0.0011398084461688,0.0846326084900647,0.8986093108355999,-9.764099941849713,14938.0
22.4,0.6000000238418579,112.0,25.58440399169922,0.3498780429363251,-79.78274242977406,40.45903914699085,273.23193823146823,0.0470557920634746,0.0002042980631813,0.994671642780304,0.0917282700538635,-0.0152814050902663,0.0171234555258996,0.0249787640209177,0.0033835538197308,0.0055401073768734,0.0100298346951603,0.0854424295853823,0.9084465202689171,-9.765106247663498,14938.0
22.5,0.6000000238418579,107.0,24.9971923828125,25.000377655029297,-79.78274241163814,40.45903912901018,273.2343162183762,0.0470483191311359,0.0002200958551838,0.9946722984313964,0.0917251333594322,-0.0186761156474014,0.0172668970984253,0.0257212700669124,-0.0034725219011306,-0.0011895662173628,-0.0039661326445639,0.0806618100218475,0.8937364605814219,-9.769819103479383,14938.0
22.6,0.6000000238418579,100.0,25.381572723388672,2.3616769313812256,-79.78274238942359,40.45903911132473,273.2368858938217,0.0471614301204681,0.0003776695230044,0.9946557879447936,0.0918456986546516,-0.023511365468699,0.0155469583131827,0.0274505382398853,0.0020622003357857,-0.0050596771761775,-0.0029170054476708,0.0832951766811311,0.8909349864721299,-9.757977907061578,14938.0
22.8,0.699999988079071,95.0,25.58315277099609,0.1510837078094482,-79.7827423631529,40.45903888968761,273.2474677448273,0.0470047369599342,0.0002604648470878,0.9946662187576294,0.0918135046958923,-0.0328094788592176,0.0091173843463765,0.0227294815722734,-0.0262850113213062,0.0069913300685584,-0.0251778364181518,0.0791539592854678,0.9166035322844984,-9.747694408893585,14938.0
22.91,0.699999988079071,91.0,24.521413803100582,22.14569091796875,-79.78274248383332,40.459038642589405,273.2561174516678,0.0469372570514678,0.0001874503941508,0.9946684837341307,0.091822825372219,-0.0134672219835827,0.0160985058590666,0.0190837685338266,0.0111352428793907,0.0017653710674494,0.0082816667854785,0.1003831893391907,0.8503724129498005,-9.770672796964648,14938.0
23.1,0.8000000119209291,88.0,25.57313537597656,0.4293957948684693,-79.78274244798307,40.45903860906929,273.25984703350065,0.0467197634279728,-7.086891855578871e-07,0.9946741461753844,0.0918732061982154,-0.0214276931281804,0.017187968072171,0.0195857555933985,-0.0045568770729005,-0.0416500754654407,-0.0250781569629907,0.0999590012524277,0.8696899323910475,-9.768357884287834,14938.0
23.2,0.8999999761581421,83.0,25.589412689208984,0.1828908026218414,-79.78274253945261,40.45903837919492,273.2698866014481,0.0466610975563526,-7.06127320881933e-05,0.9946777224540708,0.091863989830017,-0.0135016811778034,0.0152071240448248,0.0196415301414471,0.0036646560765802,-0.0185336135327816,0.0020456886850297,0.0758618809422478,0.8999349477142096,-9.756184566020966,14938.0
23.4,0.8999999761581421,78.0,25.52680969238281,1.3677051067352295,-79.78274259798118,40.45903810556104,273.28239761638645,0.0465552061796188,-0.0001306645426666,0.9946860671043396,0.0918280333280563,-0.013904921904926,0.0216751868342336,0.0219661371021101,-0.0018392588244751,-0.0016711817588657,0.0260056797415018,0.0819095510244369,0.8570218665897846,-9.768014068007467,14938.0
23.5,1.0,74.0,25.390336990356445,3.45902156829834,-79.78274258249594,40.45903808454332,273.2844681625366,0.0465084575116634,-0.0001808032684493,0.994692862033844,0.0917769744992256,-0.0173248448714033,0.0201767684869034,0.0229944553770238,-0.0065277270041406,0.0091626299545168,-0.0105836000293493,0.079576850021258,0.9187503375113012,-9.758183729052542,14938.0
23.7,1.0,71.0,25.24259376525879,5.916119575500487,-79.78274263219828,40.45903783668936,273.29647206115726,0.0459716022014617,-0.0006124171777628,0.9946984648704528,0.0919852331280708,-0.0161375747050149,0.0200405550059558,0.023386222261332,0.0122453011572361,0.0195067599415779,-0.003948625177145,0.0881748608686029,0.9296544445306064,-9.777527487874034,14938.0
23.8,1.100000023841858,65.0,25.19251251220703,6.9816575050354,-79.78274261551276,40.45903781586704,273.2987106924057,0.0454517900943756,-0.0009807301685214,0.994711697101593,0.092097207903862,-0.0159679744029057,0.0204849406461055,0.0231762047922132,0.0327385775744915,-0.0276208110153675,-0.0248707123100757,0.089455921864137,0.8630138008296491,-9.770829502344132,14938.0
24.0,1.2000000476837158,65.0,25.02974510192871,10.154415130615234,-79.78274270944182,40.45903760924547,273.31004630374906,0.0448487810790538,-0.0013116227928549,0.9947311878204346,0.0921786949038505,-0.006658075252513,0.0124856001124329,0.0226535098423927,0.0573657266795635,0.0116672413423657,-0.0083761122077703,0.098133564479649,0.8913595674186945,-9.784489767551422,14938.0
24.2,1.2999999523162842,66.0,24.843189239501957,13.319221496582031,-79.7827428080623,40.45903736148168,273.32061706829074,0.0443323031067848,-0.0015444387681782,0.994756817817688,0.0921481698751449,-0.0085391413123868,0.0226449449657772,0.0266585599574956,-0.0045388252474367,0.0745441988110542,-0.0064054941758513,0.1107282659970224,0.989568670615554,-9.812496761083604,14938.0
24.3,1.2999999523162842,67.0,24.74553108215332,14.941383361816404,-79.78274279572804,40.45903734283434,273.32333015251163,0.044038638472557,-0.0011070594191551,0.9947683811187744,0.0921695753931999,-0.008507482601914,0.0176245739442839,0.0295328771692438,0.0157457441091537,0.0610265992581844,-0.0215371251106262,0.015813059262,0.9015484868735076,-9.811046651601792,14938.0
24.4,1.399999976158142,69.0,24.64160919189453,16.984989166259766,-79.78274287593995,40.45903712229976,273.3322194700241,0.0437495112419128,-0.000971931964159,0.9947760701179504,0.0922267138957977,-0.0140912416064088,0.0196067057031955,0.0270862267330265,0.0200858749449253,-0.0568076744675636,0.0337060838937759,0.0466958459280431,0.7481997746229172,-9.862540740966796,14938.0
24.6,1.5,72.0,24.44128227233887,20.777984619140625,-79.78274283941226,40.45903708359229,273.3396572952271,0.0432624816894531,-0.0002587337221484,0.9947675466537476,0.0925523340702056,-0.0258757516224112,0.021746258966574,0.0361015978686122,-0.0253429766744375,-0.0404618345201015,0.0875488072633743,0.1186440895032137,0.6827368332445621,-9.775882666110991,14938.0
24.7,1.600000023841858,71.0,24.33360481262207,22.614845275878903,-79.78274294473674,40.459036850699135,273.34644817161563,0.043610330671072,0.0009303685510531,0.9946706891059875,0.0934211388230323,-0.0271708405968079,0.010667017154874,0.0411465040726461,-0.0335853397846221,-0.0095035014674067,0.0138833206146955,0.0894703297689557,0.8903702185302973,-9.965939394235614,14938.0
24.91,1.600000023841858,70.0,24.070674896240234,27.55289649963379,-79.78274294982727,40.45903662894071,273.35964380550394,0.0410912744700908,0.0009761670953594,0.9945322871208192,0.0960010141134262,-0.1185683497058144,0.0268591945154747,0.1214382823063003,-0.0856701135635376,-0.1305398643016815,0.0522904619574546,0.2577412459999323,0.3197321838140488,-10.353910338878633,14938.0
25.1,1.7000000476837158,69.0,24.47759056091309,20.23726463317871,-79.78274255828566,40.45903649404433,273.40420435714725,0.0305246226489543,-0.006369867362082,0.994978666305542,0.0951060578227043,-0.1922785710058427,0.0602626920319456,0.3331647408012618,0.3321762382984161,-0.0956939309835434,0.0184744410216808,0.4707502689957619,0.3598276378959417,-10.752434338331224,14938.0
25.2,1.7999999523162842,69.0,24.31232070922852,22.757976531982425,-79.78274210153954,40.45903614874538,273.44396089363096,0.0127796158194541,-0.0048232157714664,0.9955613613128662,0.093118280172348,-0.1961928621438184,0.0586531297650721,0.3094148666438051,0.4781284034252167,0.0749311298131942,0.0843543484807014,0.1502907098270952,-0.0448873569443821,-10.045811190605164,14938.0
25.3,2.0,69.0,24.29980087280273,22.64665222167969,-79.78274184544682,40.459036047152274,273.4728404169083,7.291675865417346e-05,-0.0017846435075625,0.995792806148529,0.0916168615221977,-0.237049650559076,0.0721629834373982,0.296474212275372,0.1364096105098724,0.0615277513861656,-0.1502593606710434,-0.0113652741769328,0.2107881774008274,-9.836672658920287,14938.0
25.5,2.200000047683716,71.0,24.35739517211914,21.70834350585937,-79.78274138849551,40.45903571600899,273.5117621307373,-0.0126864472404122,0.0081263231113553,0.99579119682312,0.0904049649834632,-0.1788153043618374,0.0821427924106181,0.2102656814346978,0.0255199633538723,0.092188760638237,-0.0307964067906141,0.1547377914190292,0.2117814914323389,-9.618998361825945,14938.0
25.6,2.400000095367432,83.0,24.289783477783203,23.4179744720459,-79.78274123830626,40.45903561526612,273.5316814069748,-0.0167038235813379,0.0117930695414543,0.9956593513488772,0.0907993540167808,-0.1286745812376535,0.0841097362830088,0.1901171138136043,0.0114030065014958,0.1561988145112991,0.0549255907535553,0.0571059545874595,0.0416499911807477,-9.625271254777909,14938.0
25.8,2.400000095367432,82.0,24.26975059509277,22.86930084228516,-79.78274104970326,40.45903524585338,273.5718917732239,-0.0016803257167339,0.0106902588158845,0.9956254363059998,0.0928060337901115,-0.0704386820031184,0.083528914980245,0.182993255102709,-0.1528422832489013,-0.0763666331768035,-0.0134443407878279,0.2979208634421229,0.3506172499805689,-9.801447277665137,14938.0
26.0,2.5999999046325684,80.0,24.147050857543945,24.41989707946777,-79.78274110238516,40.459035026564095,273.60985754776004,0.0077954838052392,0.0009652195731177,0.99539452791214,0.0955409258604049,-0.009498508119016,0.0695707946731796,0.2066166905119724,-0.1043696701526641,-0.0091123152524232,0.0060721356421709,0.1399947771895676,0.2190144241042435,-9.903708647489546,14938.0
26.11,2.799999952316284,81.0,24.3436222076416,20.54738426208496,-79.78274111859844,40.45903495699459,273.6319296245576,0.0094836251810193,-6.497332651633769e-05,0.9951932430267334,0.0974709391593933,-0.0007113392125644,0.0821635065659752,0.2335878825095514,-0.1523985117673874,-0.0667186230421066,-0.0471369065344333,0.0676866557635366,0.5872422999143599,-9.971504774093626,14938.0
26.2,3.0,77.0,24.23469352722168,23.720142364501957,-79.78274119035231,40.45903460647397,273.6651090269089,0.0072405515238642,0.0011813874589279,0.995015263557434,0.0994525030255317,0.0294491539869545,0.1101496412730949,0.2092233228389494,0.1864349991083145,0.1219547539949417,0.1776995658874511,0.068898107483983,0.0133813164755702,-9.823903509378432,14938.0
26.41,3.0999999046325684,80.0,24.195880889892567,24.730016708374023,-79.78274164282301,40.45903431812403,273.71564935493467,0.0075300056487321,0.0034803829621523,0.9948107600212096,0.101404570043087,0.076204588123399,0.1281811437675482,0.1812634439271963,-0.0465282201766967,0.0918288975954055,0.0381585210561752,0.1673904717341065,0.3354700378328561,-9.687615437507633,14938.0
26.6,3.400000095367432,81.0,24.259735107421875,23.15556526184082,-79.7827419287872,40.45903411912674,273.75664507198337,0.0089293103665113,0.0005662583862431,0.9948496222496032,0.1009672656655311,0.1164585775726434,0.1334622567078347,0.2264700086871855,0.0392114594578743,0.0874418765306472,0.0621651038527488,0.0638378631044179,0.134889417886734,-10.006896800994872,14938.0
26.7,3.400000095367432,81.0,24.10197639465332,25.11965370178223,-79.78274193599154,40.4590337514918,273.78589688587186,0.0108827864751219,0.0017085478175431,0.9949498176574708,0.0997672528028488,0.0826885754655708,0.1303030461024705,0.2272234103360065,-0.2054844796657562,-0.013123488985002,-0.0931895449757576,-0.0571292429510504,0.3957009637355805,-9.809331663250925,14938.0
26.8,3.400000095367432,82.0,24.339866638183597,19.83172416687012,-79.78274207982534,40.459033651749465,273.80907856273654,0.0145404264330863,0.003623078810051,0.995039999485016,0.0983414649963378,0.1154281710148394,0.1321759650417242,0.2348419575906868,0.0562870949506759,0.0475205145776271,0.193822517991066,-0.0003740744793321,-0.0250598323903977,-9.93724710702896,14938.0
27.01,3.400000095367432,80.0,24.12952041625977,24.96061897277832,-79.78274250456933,40.45903314476079,273.86231600093845,0.015345087274909,0.0071488013491034,0.9951487183570862,0.0969146937131881,0.1239764211099213,0.1614396575608502,0.057543079552027,0.0665416270494461,-0.0896203219890594,-0.038752619177103,0.1995825002342462,0.5881608974933624,-8.622336360812188,14938.0
27.1,3.5,81.0,23.96299934387207,26.964466094970703,-79.78274268638964,40.45903302606193,273.86516367244724,0.0121388565748929,0.0053973458707332,0.995177447795868,0.0971872135996818,0.1235722155834205,0.1622273318347573,0.0020465871548895,-0.0374140739440918,-0.0957470163702964,-0.0050538904033601,0.0783430692460388,0.3129995535314083,-9.165218759179115,14938.0
27.31,3.5,80.0,23.907907485961918,28.196990966796875,-79.78274328041451,40.45903257222624,273.91196368980405,0.0173724722117185,0.0061500864103436,0.9951081871986388,0.0970577001571655,0.1516890177459391,0.1494743791970236,0.1420037629062004,-0.0012174947187304,0.0540505535900592,0.0743137001991272,0.1149762864410877,0.3115636966377497,-10.51313703775406,14938.0
27.4,3.5999999046325684,81.0,23.715091705322266,31.34589195251465,-79.78274342778863,40.45903209415652,273.9679689292908,0.0189271252602338,0.0064901541918516,0.995084583759308,0.0969865918159484,0.1587637742583953,0.1794248434369438,0.283515110339391,0.0260862838476896,0.0561430975794792,0.1276942938566208,0.0686049792543053,0.2666303294152021,-10.802242090702055,14938.0
27.6,3.5,81.0,23.716344833374023,31.29022979736328,-79.78274384712304,40.45903183996868,274.055759180069,0.018492778763175,0.0035425007808953,0.9951094388961792,0.0969676524400711,0.1688788979342444,0.1685547466574408,0.5790913291002179,-0.015701463446021,-0.0691165626049041,0.0172353833913803,0.1356686872802674,0.4572376094385982,-11.25761389017105,14939.0
27.7,3.400000095367432,83.0,23.55858612060547,34.04154586791992,-79.78274413888329,40.45903159136324,274.1011056785584,0.0180827975273132,0.0018816754454746,0.9950711131095886,0.0974829494953155,0.1763004815879534,0.1645020810130602,0.6894335167625067,-0.04187573492527,-0.040665615350008,-0.0377098843455314,0.118472537677735,0.3665987136214972,-11.263431869745258,14939.0
27.9,3.400000095367432,84.0,23.25934600830078,39.40103912353516,-79.78274463389418,40.45903122055061,274.27314208793644,0.021389927715063,-0.0038946974091231,0.9950296878814696,0.0971769168972969,0.1950295748509024,0.1575054913135172,1.057244256140086,-0.0479410476982593,-0.0010404646163806,0.1002101004123687,-0.157030283678323,0.3579223226755857,-11.789073168039325,14939.0
28.0,3.5,84.0,23.420860290527344,37.0075569152832,-79.78274484718956,40.459031105143225,274.39182852554325,0.0212648548185825,-0.0006384774460457,0.995097041130066,0.0965887010097503,0.2042809998720234,0.1487234419542261,1.311153891349872,0.0264976844191551,0.1608790308237075,-0.0760369524359703,-0.0595549146831035,0.7106890822201968,-12.225295336246491,14939.0
28.2,3.5,87.0,23.46468162536621,35.44900894165039,-79.78274536043617,40.4590307362737,274.7011804466248,0.0185491051524877,0.0060599902644753,0.995391607284546,0.0938873589038848,0.2353365748501823,0.1720297441651291,1.8261278645714405,0.0310387592762708,0.0384074412286281,0.0223440248519182,0.163323203343898,0.4456709032505751,-12.458780504465103,14939.0
28.4,3.700000047683716,89.0,23.28689193725586,38.08899688720703,-79.7827459218602,40.459030445377344,275.0866248493195,0.0250012408941984,0.000252928759437,0.9952930212020874,0.093631163239479,0.2511653115112051,0.1601383988672002,2.266610278476555,-0.1877516210079193,-0.0610504560172557,0.1160107851028442,0.1447893935255706,0.4532414395362139,-12.272724441289904,14940.0
28.5,3.799999952316284,90.0,23.596147537231445,32.610225677490234,-79.78274613874228,40.459030349997846,275.3259906654358,0.0323989316821098,-0.0026802322827279,0.99503493309021,0.0940668135881424,0.2817563905921377,0.1493528807966172,2.4999881767088867,-0.1408103555440902,-0.0607958436012268,-0.1503572762012481,0.0458509963564574,0.6483112780004741,-12.127869029045105,14940.0
28.6,4.0,89.0,23.65624618530273,31.56854248046875,-79.78274634519595,40.45903025243909,275.587322462082,0.0387846268713474,-0.0062668854370713,0.9946709871292114,0.0953221172094345,0.3169595978552077,0.1380952548121533,2.6866447751457723,-0.1525415331125259,-0.0414140149950981,0.1261252909898758,-0.0973215141333639,0.5258642233908176,-11.76696835398674,14940.0
28.81,4.099999904632568,83.0,23.73136901855469,27.28253555297852,-79.78274689235745,40.459029998255545,276.0953669433594,0.0437743701040744,-0.0100703481584787,0.9937794208526612,0.1019064486026764,0.3605328763022229,0.1406902650902282,2.8556296656200697,-0.0165117159485816,-0.0314499400556087,0.1324123293161392,-0.0010202660411596,0.6530614098161459,-10.925186816453934,14941.0
28.9,4.099999904632568,84.0,24.16708374023437,22.82954216003418,-79.78274726532464,40.45902993650569,276.3065490608216,0.045077309012413,-0.0079081719741225,0.9935061931610109,0.1041683927178382,0.3416890702817381,0.1284248011759433,2.8749122210133105,-0.1323230117559433,0.0850167274475097,0.1436196416616439,-0.067224588682875,0.4499853809550405,-10.525888645648957,14941.0
29.1,4.0,82.0,23.88286781311035,27.012176513671875,-79.78274747279302,40.45902964878484,276.87817333984384,0.0573180578649044,-0.0018931673839688,0.9931448101997375,0.101855494081974,0.3144831733088703,0.2105277864690569,2.7696384670921668,0.0218360405415296,-0.006704123225063,0.0174953788518905,0.1671563638374209,0.5427065799012779,-9.115222726464276,14941.0
29.3,4.199999809265137,78.0,23.77143478393555,28.5468692779541,-79.78274782267006,40.45902954882565,277.2658061866761,0.0627174898982048,-0.0095739709213376,0.9933556914329528,0.0960180088877678,0.241881719612956,0.1489468296090885,2.5248772372204096,0.1261488497257232,0.041414737701416,-0.0070165782235562,-0.0134349829517304,0.5978163316100836,-9.100436287522315,14942.0
29.4,4.300000190734863,74.0,23.686294555664062,29.10349273681641,-79.78274823929898,40.45902972111335,277.3696279411316,0.0559146553277969,-0.0041853804141283,0.9938550591468812,0.0954373031854629,0.2068363507780488,0.1414058550671983,2.403701762008357,0.1563925743103027,0.1658644527196884,-0.0206823386251926,0.0605976605275645,0.5225527258962394,-9.343446570038797,14942.0
29.6,4.300000190734863,77.0,23.8365421295166,27.370006561279297,-79.78274794286278,40.45902938068611,277.8516578559876,0.0502303801476955,0.0051158955320715,0.9940794706344604,0.096212513744831,0.0359957841684197,0.1824646231949569,2.387947109201108,-0.0118300346657633,0.0609764531254768,-0.0584603808820247,0.1606419991515577,0.6330976268649101,-9.515334244966509,14942.0
29.8,4.300000190734863,76.0,23.768930435180664,28.07771301269531,-79.78274816164223,40.4590295728557,278.0744633560181,0.0496948324143886,0.011707229539752,0.9938153624534608,0.0986125916242599,-0.0395166711782563,0.1819440956956648,2.253777582780188,-0.0731959417462349,0.0334254242479801,-0.0220816191285848,0.118485291916877,0.3768305370211601,-9.62592321932316,14943.0
29.9,4.199999809265137,75.0,23.84154891967773,27.38591003417969,-79.78274851302872,40.45903016827807,277.9926304702759,0.0491539798676967,0.0124197714030742,0.9935629963874816,0.1013032123446464,-0.0511894736979318,0.1272931119482626,2.109001395334794,0.0866806581616401,-0.0209827367216348,0.0471779555082321,0.223278341665864,0.5051449436321855,-9.896263972520831,14942.0
30.01,3.900000095367432,76.0,23.808996200561523,27.7039794921875,-79.78274820841983,40.45903006528291,278.2020745162964,0.0455986186861991,0.0092715872451663,0.9936705827713012,0.1022426635026931,-0.0915539032727361,0.1250434836290603,2.10738724097554,0.163258820772171,-0.0714777261018753,0.010099091567099,0.2876061374880373,0.2464667909592389,-9.81068178534508,14943.0
30.2,3.799999952316284,75.0,23.662506103515625,29.81915283203125,-79.7827481999,40.45903010664415,278.56997107315067,0.0370106361806392,0.0080834394320845,0.9947763085365297,0.0947895571589469,-0.1706567919279999,0.0566610013562507,2.0920994286441386,0.2002396136522293,0.0668497905135154,-0.0714497193694114,0.0753678506053984,0.3899986859411001,-10.051998714208604,14943.0
30.4,3.299999952316284,70.0,23.801483154296875,27.958436965942383,-79.78274733682412,40.459029640162186,279.133496749878,0.0147898010909557,0.013539751060307,0.9957062005996704,0.0903732553124427,-0.2740904972503826,0.0705515063711405,2.2935509842668016,0.2768939435482025,-0.0231142695993185,0.0376852788031101,0.2264330424182117,0.218262124992907,-10.420152275562288,14944.0
30.51,3.299999952316284,66.0,23.50224304199219,32.2682991027832,-79.78274686722379,40.45902957245206,279.36428545761106,0.006054766010493,0.0144142350181937,0.9957551360130308,0.0907049775123596,-0.3509023933179847,0.066413495879113,2.3449995607172824,0.1020550802350044,0.0840006247162818,0.0735078081488609,0.1649067207053303,0.0603800207655876,-10.427026262283324,14944.0
30.7,3.0999999046325684,73.0,23.89664077758789,26.209047317504893,-79.78274577672357,40.45902927955677,279.9032001380921,0.0044849873520433,0.0188349224627018,0.9955018162727356,0.0927430763840675,-0.4022943860438446,0.0480694517686677,2.438177154890897,0.1016164794564247,0.0263375975191593,0.059328056871891,0.2544063413701952,0.1470070322882384,-10.489906049966812,14944.0
30.8,3.0,73.0,23.67252349853516,28.8887939453125,-79.78274528160163,40.45902925016761,280.14557312774656,-0.0006895278929732,0.0229201111942529,0.9953306317329408,0.093761034309864,-0.4117290415761447,0.0403260812040735,2.409697477316229,0.0790680348873138,0.0285796746611595,-0.0155306700617074,0.2600217331945896,0.2250199348479509,-9.698562594652175,14945.0
30.9,3.0,58.0,23.67377471923828,29.23072052001953,-79.78274451436485,40.459029027086586,280.49034260559085,-0.0094525376334786,0.021541116759181,0.9951910972595216,0.0950867757201194,-0.4186462864528476,0.0469478348917082,2.413907071032645,0.245907187461853,-0.1598478108644485,0.1021875888109207,0.31210175011307,-0.2196262255869805,-9.677866374850272,14945.0
31.11,3.0,38.0,23.865339279174805,26.527118682861328,-79.78274356715731,40.4590290163598,280.96732281494144,-0.0229593254625797,0.0116641512140631,0.9944764375686646,0.1017524152994156,-0.4572410273125646,-0.0007653037126791,2.3318026998179744,0.1993017345666885,-0.0081906523555517,-0.0231121871620416,0.4031727186217904,0.0733742972463369,-9.46491428911686,14945.0
31.2,3.0,351.0,23.589887619018555,30.35192108154297,-79.78274274212698,40.45902861110381,281.3357376937866,-0.0297508221119642,0.0102909188717603,0.9940442442893982,0.1043314412236213,-0.4678340186068459,0.0032048131501096,2.3240967085788324,0.1570086926221847,-0.1074924245476722,0.0008717442397028,0.4712872992083431,-0.1471089108847081,-9.31964957177639,14946.0
31.4,3.0999999046325684,343.0,23.60491180419922,29.75553894042969,-79.78274152121502,40.45902838437062,281.9338641052246,-0.0329242758452892,0.0179182365536689,0.9936618208885192,0.1059773415327072,-0.48059759528768,0.0419882744629996,2.307236239109556,-0.0766041949391365,0.2611084878444672,0.0589444190263748,0.4555199532955885,-0.6197370314598084,-9.51517169237137,14946.0
31.6,3.400000095367432,333.0,23.597400665283203,30.495052337646484,-79.78274093371144,40.45902824488593,282.3965277557373,-0.0228385813534259,0.0324964895844459,0.9939773678779602,0.1021343469619751,-0.3590865620172947,0.1475151721715192,2.2769643291807298,-0.1192637458443641,0.0988618284463882,0.0377330742776393,0.6672511404007674,-0.3380643377825618,-9.527273674607278,14947.0
31.7,3.5999999046325684,330.0,23.44965744018555,33.469017028808594,-79.7827399952388,40.45902791658109,282.7759013061524,-0.0140309054404497,0.0407936610281467,0.994083821773529,0.0996822491288185,-0.3208586059276527,0.1953302657050981,2.291839393057186,-0.1401354372501373,0.1398067325353622,0.0338030233979225,0.5852021332830191,-0.1351347085833549,-9.42335754275322,14947.0
31.8,4.099999904632568,323.0,23.34698867797852,34.26419448852539,-79.78273979569293,40.45902784121663,283.00496434021,-0.0074744555167853,0.0486110672354698,0.9939895868301392,0.0978053212165832,-0.2519465849405469,0.2263751212295041,2.25044155450598,-0.1343546062707901,0.1373418271541595,0.0291113890707492,0.5832492363452911,0.0384326704032719,-9.355129306912422,14948.0
32.0,4.300000190734863,318.0,23.28188323974609,35.560333251953125,-79.78273895833962,40.45902745170514,283.5822338943482,-0.0033244378864765,0.0513152107596397,0.9939558506011964,0.0969920977950096,-0.1750282046763879,0.2376864920065218,2.3111686087758327,0.1281357556581497,0.0793533101677894,0.0306730344891548,0.6451133626699448,0.1000998551957309,-10.030378049612043,14948.0
32.1,4.800000190734863,325.0,23.17671012878418,37.55622863769531,-79.78273881525914,40.45902743618394,283.8175101165772,-0.0115866279229521,0.0506169274449348,0.9939447045326232,0.096839040517807,-0.1365420219282114,0.2227189055943739,2.3699923075701057,0.2693979740142822,-0.0491537787020206,0.0521543733775615,0.7295209173113109,0.1390375057607889,-10.264016414880754,14948.0
32.31,5.0,331.0,23.363265991210927,34.22443389892578,-79.78273816936753,40.45902707746149,284.4665694122315,-0.0302588865160942,0.0403375551104545,0.9939441680908204,0.0976339429616928,-0.1719478432116378,0.183628708373946,2.5720871554026967,0.050205785781145,-0.1152280792593956,0.0188055224716663,0.8420846425741911,-0.0015166581049561,-10.369194960594175,14949.0
32.4,5.199999809265137,343.0,23.39957618713379,33.548534393310554,-79.78273753380317,40.45902648031718,284.8941893463135,-0.0284919422119855,0.0356119386851787,0.9940555095672609,0.0988619327545166,-0.1893524359544684,0.1958545044254226,2.659910579530332,-0.05665959790349,-0.0860536321997642,0.1073926538228988,0.7118933893740178,-0.1476878035068512,-10.066560620069504,14949.0
32.6,5.199999809265137,344.0,23.368274688720703,33.89046096801758,-79.78273761863053,40.45902652689581,285.431140411377,-0.0117473024874925,0.039560854434967,0.9942716360092164,0.0985949411988258,-0.0553884924343768,0.1490281612200188,2.7002374901129818,-0.1987964957952499,0.0566529184579849,-0.134801298379898,0.6606828899681568,0.1058445070311427,-10.021341762542724,14950.0
32.7,5.400000095367432,344.0,23.4033317565918,33.309982299804695,-79.78273741581559,40.459026103774015,285.8070883636475,-0.0054628769867122,0.0434679351747036,0.994281530380249,0.097391590476036,0.0135940901275848,0.1913114146083768,2.74776462106556,-0.0794927924871444,0.0735471621155738,-0.0165631063282489,0.7057736203819513,0.1405115888267755,-10.015726096630097,14950.0
32.9,5.400000095367432,345.0,23.31944465637207,34.407325744628906,-79.7827375829068,40.45902583504189,286.4524960403444,-0.0046506025828421,0.0447889380156993,0.9944083094596864,0.0955224111676216,0.0722838619269863,0.2061960169410058,2.74574767214236,-0.0506203807890415,-0.0586451888084411,-0.1091252937912941,0.6654212542623282,0.0513090615347027,-9.70452441573143,14951.0
33.1,5.400000095367432,342.0,23.47219467163086,31.33794021606445,-79.78273786720412,40.45902596783844,287.00808953094486,-0.0061881262809038,0.035208735615015,0.9948307871818542,0.0950470045208931,0.1033668550515784,0.1734184501965066,2.8295100431810254,0.105994701385498,-0.1321734338998794,0.041620347648859,0.7576853471249342,-0.0930829405970871,-9.964656515121462,14952.0
33.2,5.5,340.0,23.500991821289062,31.27432632446289,-79.78273789875648,40.459025672733816,287.3905968551636,-0.0095223067328333,0.0356707796454429,0.9945665597915648,0.0973369255661964,0.0970259344551628,0.1643947121764521,2.9061911474505515,0.0646648555994033,0.0551470853388309,0.1158252954483032,0.7756118139624596,-0.0966008904855698,-10.2478149497509,14952.0
33.3,5.400000095367432,338.0,23.21677589416504,36.29189682006836,-79.7827380618084,40.45902573547991,287.6814217453003,-0.0096999546512961,0.0407245457172393,0.9939010739326476,0.1020207777619362,0.064401893046971,0.1559226088303185,2.9042948832605204,-0.1192753314971923,0.0576101541519165,0.0717517361044883,0.6048038639500738,-0.2582745668850839,-9.936228522062304,14952.0
33.5,5.5,337.0,23.499740600585927,31.059629440307607,-79.78273849242437,40.45902574259532,288.32914303588865,0.0009477026178501,0.0465445779263973,0.9933038353919984,0.1057368591427803,0.1408607880380501,0.2061722883149588,2.9238402826198104,0.0742275938391685,-0.1855406910181045,-0.0269778743386268,0.9424678136408332,-0.1405876665841788,-9.768684743642806,14953.0
33.6,5.400000095367432,335.0,23.49848747253418,30.526859283447266,-79.78273868472651,40.45902583432907,288.620650756836,-0.0041030831634998,0.0372860766947269,0.9938528537750244,0.1041610613465309,0.1637216614655253,0.2083697364883587,2.898886373542884,0.1651804149150848,-0.2451505362987518,-0.1114082932472229,0.8629285776615143,-0.03156378172338,-9.611051411032678,14953.0
33.8,5.400000095367432,335.0,23.51100730895996,30.16107940673828,-79.78273902145277,40.45902594940581,289.2833323364258,-0.0132389366626739,0.0277614779770374,0.9947888851165771,0.0972063690423965,0.1234873438507163,0.0987024784345551,2.9413848180696296,-0.0334276035428047,-0.0580882094800472,-0.1198187842965126,0.7341391944140196,-0.1920140470191836,-9.889451966285709,14954.0
34.0,5.300000190734863,332.0,23.556081771850582,29.278430938720703,-79.78273927298062,40.45902597877134,289.9437479858399,-0.0043155122548341,0.0274961087852716,0.9954431056976318,0.0912062153220176,0.1350147120462405,0.1151491750467395,2.979642392154364,-0.1544537842273712,-0.0031120725907385,-0.1277540624141693,0.7454203006625176,-0.2712271910905838,-9.807772210836411,14954.0
34.1,5.300000190734863,332.0,23.500991821289062,30.685895919799805,-79.78273951569066,40.45902605489801,290.2431139831544,-0.0025762447621673,0.0304412264376878,0.9955800175666808,0.0888094455003738,0.1766309914750374,0.1196528476091143,3.006990275357736,-0.1196978464722633,0.0464294292032718,-0.0805674418807029,0.5107312638312579,-0.0292648027092218,-9.956763943433762,14955.0
34.2,5.400000095367432,329.0,23.539804458618164,29.723730087280277,-79.78273965632845,40.459026042118616,290.6045489196777,-0.0020347591489553,0.0395194590091705,0.9952610731124878,0.0888232812285423,0.2031475606461424,0.1374389674457796,3.0253647221970925,0.0597363300621509,0.1896311491727829,0.1183758527040481,0.8221190323680639,-0.2215352135896683,-9.999594798088074,14955.0
34.4,5.400000095367432,330.0,23.48847198486328,30.35192108154297,-79.7827401236801,40.459026137281256,291.27214382934574,0.00250855833292,0.048155128955841,0.9944891333580016,0.0930928662419319,0.2049206202763821,0.2509217276828059,3.011607269827936,-0.0523926876485347,-0.1233019083738327,-0.0867983028292656,0.9955617742985488,-0.0064232029393315,-9.569534425735474,14956.0
34.51,5.5,332.0,23.380794525146484,31.68781852722168,-79.7827403717533,40.459026207877066,291.57270954895023,0.0048631262034177,0.043169979006052,0.9944532513618468,0.0957895368337631,0.1854619498486589,0.2532643106458639,2.9839496309048217,-0.2039546519517898,-0.0965301021933555,-0.1177733838558197,0.9454233618825676,0.0682072772271931,-9.549225291609764,14956.0
34.7,5.5,331.0,23.527284622192383,30.28830718994141,-79.78274084084771,40.45902602928986,292.24928044128416,0.0057074329815804,0.0389376766979694,0.9942644238471984,0.0994471609592437,0.2089053005111666,0.2141657925825318,2.981609198175553,0.0782139152288436,0.1155877634882927,-0.0417641587555408,0.7536785425990821,-0.0310313561931252,-9.537862982153891,14957.0
34.9,5.5,331.0,23.36451911926269,32.18082809448242,-79.78274129315254,40.45902617369349,292.9079451446533,-0.0025604898110032,0.0465180426836013,0.9938189387321472,0.1007644534111023,0.1251715358809736,0.2456815938360438,2.9478100579128235,-0.1110564023256302,0.0061308555305004,0.0038869557902216,0.9356340265274048,-0.1896836026757956,-9.414780846834184,14957.0
35.0,5.5,332.0,23.29064750671387,34.081302642822266,-79.78274145374496,40.4590262200295,293.2019762878418,-0.0029009962454438,0.0498427562415599,0.9935455322265624,0.1018561497330665,0.0879845898554964,0.2320630126154705,2.9153425400092567,-0.044888000935316,0.105092704296112,-0.0829089060425758,0.8040836611390114,-0.2768830931559205,-9.455863968729972,14958.0
35.1,5.599999904632568,332.0,23.31944465637207,33.38949966430664,-79.78274159188669,40.4590262751084,293.4923529510498,-0.0012191482819616,0.049349620938301,0.9935365319252014,0.102217711508274,0.0792404797202705,0.2436423692326535,2.880214744709104,0.0319879502058029,-0.0338963940739631,0.081500194966793,0.8954568576067686,-0.3453145928308368,-9.457916926145554,14958.0
35.31,5.599999904632568,331.0,23.28313446044922,34.03359222412109,-79.78274183081045,40.45902618838807,294.1508479003906,-0.003297567134723,0.0405459403991699,0.9940491318702698,0.1010523289442062,0.0649704854315761,0.1961993901619632,2.846880229754253,-0.0732641443610191,-0.0895782485604286,-0.0780186504125595,0.6920092016458512,-0.264808921739459,-9.298921777009962,14959.0
35.5,5.599999904632568,329.0,23.41960906982422,31.13119506835937,-79.78274185878735,40.45902611917927,294.8096804504395,-0.0017875720513984,0.0337309725582599,0.9944496750831604,0.099644087255001,0.0601257928048382,0.180156672644556,2.912658968721169,0.0473062917590141,0.0338070429861545,-0.0626463964581489,0.7508773608505727,-0.3174139455333352,-9.5543714261055,14959.0
35.6,5.699999809265138,329.0,23.46468162536621,30.582523345947266,-79.78274195974083,40.459026152796014,295.1026034240723,-0.0069587053731083,0.0327394939959049,0.9946563243865968,0.0976656451821327,0.0561282412887571,0.1856418139004874,2.93077179671725,0.0773669704794883,0.0533807687461376,0.0274522844702005,0.8958271325379611,-0.3145355439931154,-9.993215485811234,14960.0
35.7,5.9000000953674325,329.0,23.28939437866211,33.42130661010742,-79.78274200321424,40.45902610033011,295.4723334197998,-0.0078548705205321,0.0344688855111599,0.9946281909942628,0.0972883030772209,0.0057287924808973,0.2075754699074075,2.9837189393291568,-0.0514582954347133,-0.0047515113838017,-0.0550844259560108,0.9106518707424404,-0.2585408892855048,-9.811239609718324,14960.0
35.9,5.9000000953674325,330.0,23.27061462402344,33.381546020507805,-79.78274219022909,40.45902606494632,296.06957958984384,-0.0010382739128544,0.0438852086663246,0.9943512678146362,0.0966368541121482,0.0299297214626416,0.2876741550327663,2.9680786021107584,-0.0865260139107704,0.1460636407136917,-0.1033983156085014,1.0188476528227328,-0.0013582351058721,-9.70466474890709,14961.0
36.0,5.800000190734862,332.0,23.2856388092041,33.36564254760742,-79.78274227881182,40.45902608079172,296.4204153900147,0.001436146791093,0.0465919226408004,0.9942344427108764,0.096566341817379,0.0540451530132375,0.2976624371266906,2.99429741291902,0.0003322852717246,0.0287060905247926,0.0747480913996696,0.8795935808122158,-0.2929190089926124,-9.874387199878694,14961.0
36.2,5.800000190734862,330.0,23.30442047119141,33.07938003540039,-79.78274248710801,40.459025976884064,297.0684313659668,-0.0018826089799404,0.0487138554453849,0.9939982295036316,0.0979342237114906,0.05762186413928,0.3211164248697388,3.033023070657064,-0.0410813279449939,-0.0039008115418255,-0.0319469980895519,0.8544512113183738,-0.2145880087651313,-9.931983443498618,14962.0
36.3,5.800000190734862,330.0,23.14040184020996,35.7670783996582,-79.78274258461816,40.45902596995976,297.3731303100586,0.0014176291879266,0.0494092851877212,0.9938266277313232,0.0993255451321602,0.0286263091568992,0.3102801203979545,3.022260496349023,-0.0728427916765213,-0.0052212658338248,0.0395444817841053,0.8299141748249531,-0.300263404212892,-9.728770480155944,14962.0
36.5,5.800000190734862,330.0,23.344486236572266,31.74348068237305,-79.78274250406619,40.45902591153786,298.0191340332032,0.0082782236859202,0.0367188639938831,0.9941834211349488,0.1009087264537811,0.0297048646503658,0.2947089104999193,3.0790485295124035,0.0654094293713569,-0.19488225877285,0.0342819839715957,0.8680761739611627,-0.182559811938554,-10.211897842884063,14963.0
36.7,5.9000000953674325,328.0,23.348241806030277,32.2682991027832,-79.78274245510309,40.459025945025786,298.67002819824216,-0.0043197353370487,0.0330457538366317,0.9943013787269592,0.1012630015611648,-0.0220285466018092,0.2413780622869296,3.106392503131765,0.0963299870491027,0.0041439868509769,0.0709664896130561,0.7759786536544562,-0.1254235431924462,-10.127779798507689,14963.0
36.8,5.9000000953674325,333.0,23.288143157958984,32.37166976928711,-79.78274242858222,40.45902590931994,298.98133610534666,-0.0080511597916483,0.0347607657313346,0.9942427277565002,0.1010362729430198,-0.0830179291710555,0.2538833123432201,3.0957165085264884,0.1087091416120529,0.0449789203703403,-0.110459491610527,0.8804583840072155,-0.3237594535946846,-9.695419131517411,14963.0
36.9,5.9000000953674325,335.0,23.27311897277832,33.087329864501946,-79.78274239811489,40.45902585762268,299.2926134948732,-0.0117878895252943,0.0379977598786354,0.9939852356910706,0.1020320877432823,-0.1049411411022205,0.2743700171252757,3.1002795292856784,0.0929827988147735,-0.0479049198329448,0.219615176320076,0.96879153996706,-0.4118956680223345,-9.828083099126816,14964.0
37.1,5.9000000953674325,334.0,23.32695770263672,32.23649215698242,-79.78274225222351,40.459025679754745,299.94678829956064,-0.0142115894705057,0.0475657619535923,0.9931950569152832,0.1053523048758506,-0.150183781678517,0.3095035933251225,3.1122485522702057,-0.1124949380755424,-0.0288436319679021,0.0471880473196506,0.9920731061697008,-0.2608873403817415,-9.879374874830246,14964.0
37.2,5.9000000953674325,336.0,23.27812767028809,33.04757308959961,-79.78274206295431,40.45902566781486,300.29403256225584,-0.0092161260545253,0.0477955266833305,0.9934034943580629,0.1038283482193946,-0.1498288920810353,0.3240846481519624,3.1074392970328324,-0.1311973184347152,-0.1461845189332962,0.0480398498475551,0.8761655775457621,-0.3568833455443382,-9.845865651369095,14965.0
37.4,5.9000000953674325,333.0,23.48471450805664,28.554821014404297,-79.78274214655613,40.45902567711384,300.9315543060303,-0.0001700826833257,0.0408353470265865,0.9943492412567142,0.09799075871706,-0.0704709244427949,0.3240037794019616,3.0978187809025264,-0.0408562682569026,-0.0718665570020675,0.0423518940806388,0.980906605347991,-0.2319709951803088,-9.738311381936072,14965.0
37.6,6.0,333.0,23.420860290527344,30.033849716186523,-79.7827421144191,40.45902556561627,301.550036895752,-0.0047074221074581,0.0382238142192363,0.994684100151062,0.0955007672309875,-0.043220588287125,0.2991564596735934,3.0308160872246326,0.1674525737762451,0.0790521278977394,0.0387053936719894,1.0120682448148728,-0.4300015347450972,-9.652559040784835,14966.0
37.7,6.099999904632568,333.0,23.35825729370117,30.542762756347656,-79.7827421844555,40.45902561458461,301.8951315765381,-0.0058376626111567,0.0445958636701107,0.9945473670959472,0.0940885469317436,-0.0872715831141398,0.3009215925137748,2.9841395873619487,-0.2759737968444824,0.1190804615616798,-0.2654985487461089,0.9164327935874462,0.0067176924739032,-9.21901197373867,14966.0
37.8,6.199999809265138,334.0,23.231800079345703,33.15094375610352,-79.78274217858353,40.459025538301184,302.19367932128915,-0.0036774398759007,0.0506324097514152,0.9943360686302184,0.0933734998106956,-0.0755694893107139,0.3463130246113376,2.952561857763958,-0.0147111769765615,0.1053865402936935,-0.2169142514467239,0.981746704056859,-0.0940937049128115,-9.446317219734192,14967.0
38.0,6.199999809265138,336.0,23.29690742492676,31.4890251159668,-79.78274199468316,40.45902535599096,302.85381077575687,-0.0006700079538859,0.055568628013134,0.9940798282623292,0.0933654531836509,-0.0869490049572412,0.3997254877678305,3.0045157575074715,-0.1052318587899208,0.1445190161466598,0.0173136256635189,0.9136884029209614,-0.3418082003295422,-9.874221138954162,14967.0
38.2,6.099999904632568,339.0,23.35074615478516,30.80517196655273,-79.78274197072584,40.45902515912357,303.5000929718018,0.0024710949510335,0.052268911153078,0.994261622428894,0.0933046415448188,-0.0492870872815426,0.3881298214065977,3.021014464104366,-0.0133628342300653,-0.0546838901937007,-0.1255953758955001,0.9393608225136996,-0.1812682899087668,-9.754643824696544,14968.0
38.3,6.099999904632568,340.0,23.320695877075195,31.878662109375,-79.78274193901608,40.459025105004415,303.80569599914554,0.0013579775113612,0.0511995516717433,0.9942674040794371,0.0938577651977539,-0.0627023434161715,0.3546725524343238,3.044734178334839,-0.1064681187272071,-0.0027754816692322,0.1354937851428985,0.6390879531204701,-0.3296568456664681,-9.944179565906524,14968.0
38.4,6.099999904632568,339.0,23.344486236572266,31.425411224365234,-79.78274182580424,40.45902501486594,304.1443858032227,0.0020765957888215,0.051598560065031,0.994238555431366,0.0939312726259231,-0.0552663482202442,0.3483418811412558,3.04006360425183,0.0091957747936248,0.1476612687110901,-0.0175930447876453,0.7438482036441565,-0.0187665290012955,-9.71461378633976,14969.0
38.6,6.300000190734862,340.0,23.152921676635746,34.288047790527344,-79.7827417710507,40.45902493297008,304.7522807006836,0.0062473295256495,0.0489815957844257,0.9941369891166688,0.0961950570344924,-0.0473204114369111,0.3491724827890358,2.989177099927907,-0.1273289918899536,-0.0645876452326774,-0.0124540878459811,0.9892260237783194,-0.1129768127761781,-9.558906526565552,14969.0
38.7,6.4000000953674325,343.0,23.37954330444336,30.44734191894531,-79.78274170505918,40.45902494303771,305.08716915893564,0.0076045338064432,0.0449140705168247,0.9941913485527042,0.0975123718380928,-0.0251481358669399,0.3676080548162488,2.9961625122482296,0.0025233691558241,-0.1622508913278579,-0.0426842719316482,1.1290711762011052,0.0136364378035068,-9.632950403094291,14970.0
38.9,6.4000000953674325,344.0,23.31318473815918,31.13914680480957,-79.78274172176717,40.45902487555731,305.72794293212894,-0.0044234613887965,0.0494388900697231,0.9937874078750608,0.0996132045984268,0.0009321694668155,0.3740230753552533,3.0161756586922746,0.2916367053985596,0.0833588689565658,0.1823010146617889,1.3235476684570309,-0.1038928983081132,-9.835285699367525,14970.0
39.0,6.5,346.0,23.507251739501957,27.33024787902832,-79.7827417617185,40.45902478130719,306.03349255371086,-0.010941157117486,0.0541466288268566,0.993515968322754,0.0993704423308372,-0.0401505489452157,0.4207285978514492,3.041335972035742,-0.0377726070582866,-0.0438393875956535,-0.0134259788319468,1.18005699634552,-0.1802411716617644,-9.95775563120842,14971.0
39.2,6.599999904632568,350.0,23.33572196960449,31.61625289916992,-79.78274194264776,40.45902454368403,306.66427944946287,0.0035687426570802,0.0672921389341354,0.9926589727401732,0.1004356145858764,-0.0244333931755558,0.5057095695458784,2.98908443814493,-0.264424741268158,0.1657703518867492,-0.1512491554021835,1.3269462163746355,0.2895240973122418,-9.495185324549675,14971.0
39.3,6.599999904632568,352.0,23.39832305908203,30.45529365539551,-79.78274204521472,40.45902443653429,306.9663920288086,0.0132372519001364,0.0719986408948898,0.9920851588249208,0.1020201444625854,0.0573319880394913,0.5420910911092953,2.973087815631692,-0.0457391068339347,-0.0372341088950634,0.0131910201162099,1.4077250620722772,0.1866076383367181,-9.584330220222474,14971.0
39.5,6.599999904632568,353.0,23.447153091430664,28.610483169555664,-79.78274213013205,40.45902416696481,307.5944590454102,0.0205126963555812,0.0712702870368957,0.9920204877853394,0.1019568964838981,0.0851847067845246,0.5578976277801566,2.9893003967874265,-0.1126916483044624,0.024544283747673,-0.1662312746047973,1.2806883086264134,0.2099781553074717,-9.963650794029236,14972.0
39.6,6.800000190734862,349.0,23.430877685546875,29.008071899414062,-79.7827421691642,40.45902408348872,307.8982729797364,0.0241528544574976,0.0681931376457214,0.9920989871025084,0.1024992987513542,0.0735123872335156,0.5258373421196413,2.9868062433392835,-0.0802196934819221,-0.1955520808696746,0.0507739037275314,1.216473528519273,0.0224405812751501,-9.772784811258315,14972.0
39.8,6.9000000953674325,349.0,23.65374183654785,25.159412384033203,-79.78274224249219,40.459023912761936,308.531367767334,0.0115016959607601,0.0647206753492355,0.9926130771636964,0.1019720956683158,0.0631260331350996,0.4949837059488363,2.9837283729748982,0.2283569127321244,-0.0685037299990654,-0.0095376381650567,1.1670057917386294,-0.1759157304279506,-9.769383485913275,14973.0
40.0,7.099999904632568,349.0,23.503496170043945,27.29048728942871,-79.78274238343356,40.459023802705055,309.1755213623046,-0.0041029350832104,0.0659875720739364,0.993294894695282,0.0948373675346374,-0.0500698855138327,0.4618199180143084,2.9613505923828365,0.0415324829518795,0.0413022711873054,-0.1267739236354828,1.3360472613573076,-0.1347231925092637,-9.52340457201004,14974.0
40.1,7.199999809265138,350.0,23.57736778259277,26.23290252685547,-79.78274239624845,40.459023733972906,309.4753031616211,-0.0039972378872334,0.0703488141298294,0.9934996366500854,0.0894064679741859,-0.0662065048624024,0.4696212349146858,2.962123063195873,-0.1491466760635376,-0.0051612816751003,-0.0967882201075554,1.2796285007894042,-0.0193409631215035,-9.69847605586052,14974.0
40.2,7.199999809265138,354.0,23.582374572753903,26.28061294555664,-79.78274248369556,40.459023695078656,309.7991328125001,0.0034420061856508,0.0757446512579917,0.9932279586791992,0.0880294814705848,-0.0399005358947271,0.4929053544864868,2.9437540290072968,-0.2781336903572082,0.1487272232770919,-0.0579940341413021,1.4337632980942727,-0.0766091413982212,-9.516508950591088,14974.0
40.4,7.300000190734862,352.0,23.69380760192871,24.03026008605957,-79.78274249358431,40.4590236254426,310.42085217285165,0.016455752775073,0.0784462839365005,0.9926199316978456,0.0910001993179321,0.0803360678761023,0.5125257332146184,2.835253063908878,-0.0165512897074222,0.0613678470253944,-0.0549384728074073,1.5817892168462278,0.2430990871042013,-9.014302123188973,14975.0
40.5,7.300000190734862,350.0,23.5147647857666,27.34615135192871,-79.78274253777731,40.45902358422307,310.7039866333008,0.0190541762858629,0.081515684723854,0.991972804069519,0.0947742089629173,0.0671566036238753,0.4866131172349967,2.740388596748617,-0.0358694307506084,0.0154460482299327,0.1084344089031219,1.3469860862195493,0.0158477451279759,-8.816603084206582,14975.0
40.7,7.300000190734862,349.0,23.53104019165039,27.425668716430664,-79.78274256827558,40.459023491158135,311.3063464050293,0.0152666214853525,0.0758271664381027,0.9921465516090392,0.0982973352074623,0.0156089672687606,0.4994685756092612,2.76573162987589,0.0525764971971511,-0.0612436011433601,0.1244328320026397,1.5801120892167089,-0.1725334085337817,-9.71269356071949,14976.0
40.9,7.400000095367432,347.0,23.69881629943848,24.53122329711914,-79.7827426927985,40.45902344238304,311.9098887329102,0.0044620460830628,0.0764496028423309,0.9921658039093018,0.0987051576375961,-0.0668536238853232,0.4710574541504449,2.8222926627299327,0.0897578671574592,0.1555166244506836,-0.0052675008773803,1.5016718374192717,-0.0233575160522013,-9.921908690929412,14976.0
41.01,7.400000095367432,347.0,23.55858612060547,26.94061088562012,-79.78274259203894,40.45902339443243,312.19410275268564,0.0026609536726027,0.0797348916530609,0.991957664489746,0.0982611030340194,-0.1248879646748653,0.45430133325509,2.7921586763774293,-0.0029206338804215,0.2250491082668304,-0.1150436475872993,1.5104644417762758,-0.187966988068074,-9.576016649007798,14977.0
41.1,7.400000095367432,345.0,23.5786190032959,25.62856674194336,-79.78274245711852,40.45902335046464,312.47582577514646,0.0030148846562951,0.0814486891031265,0.9918502569198608,0.0979298204183578,-0.1719000857974562,0.4558544062933161,2.773544694802389,-0.1021962314844131,0.0548741891980171,0.0774836763739585,1.5236487436294557,-0.4356612009555101,-9.617448264956474,14977.0
41.3,7.400000095367432,345.0,23.58487892150879,26.01820373535156,-79.78274220786469,40.45902340561869,313.06608914184574,-0.0039840284734964,0.0742362961173057,0.9925748705863952,0.0962723270058632,-0.1835559165411048,0.4134444840441776,2.8326732282422835,0.060293111950159,-0.0223537720739841,-0.1720426827669143,1.3852721925079825,-0.0700942650809884,-9.91865179181099,14978.0
41.4,7.300000190734862,348.0,23.56860160827637,26.638442993164062,-79.78274210496603,40.45902343700247,313.37488125610355,-0.0095154484733939,0.068882830440998,0.99297034740448,0.0957843512296676,-0.1960996686451198,0.3988999191797104,2.8604095892936034,0.127469778060913,-0.0740728974342346,-0.0154520729556679,1.2681666424870492,-0.2957740399427712,-10.063507204055789,14978.0
41.6,7.400000095367432,349.0,23.54857063293457,26.535070419311523,-79.78274179185979,40.45902340665787,313.9552073364258,-0.0038462581578642,0.0585779547691345,0.993398666381836,0.098554752767086,-0.197136184474093,0.3590557877524162,2.886613581659143,-0.0478016175329685,0.0134224649518728,-0.0984293818473816,1.125506274998188,0.0762272725347429,-9.782068435549736,14978.0
41.8,7.400000095367432,349.0,23.314435958862305,30.50300407409668,-79.78274151310556,40.459023653850544,314.5298418884277,-0.0062450468540191,0.0632629245519638,0.9932222962379456,0.0973058342933654,-0.1169584396854881,0.3334753549491973,2.87969654942348,-0.0289646945893764,0.1934433132410049,-0.0833553969860076,1.1483985628187656,0.0082258721161633,-9.802708522081378,14979.0
41.9,7.599999904632567,350.0,23.54606628417969,26.46350288391113,-79.78274134555058,40.45902372476626,314.82780026245115,-0.0023513729684054,0.0643229931592941,0.99323308467865,0.0966706573963165,-0.1108969071348803,0.3701943228511546,2.904129059351274,-0.0781667530536651,-0.0446121022105217,0.0765096694231033,1.6698849758505825,0.0406859589088708,-10.183509610891342,14979.0
42.0,7.699999809265138,351.0,23.344486236572266,29.683971405029297,-79.7827413191478,40.459023698282095,315.1231989746093,0.0049312557093799,0.0642096996307373,0.9932085275650024,0.0968999043107032,-0.0639260922659205,0.416152655967276,2.9432365720469127,-0.1488756835460662,0.1836851686239242,0.1337858438491821,1.7077834117412567,0.2217597832158208,-10.094752385616305,14980.0
42.2,7.699999809265138,351.0,23.56735038757324,26.527118682861328,-79.78274153227309,40.45902366492515,315.7201075439453,0.0177398659288883,0.0749848932027816,0.99217689037323,0.0982228890061378,0.064419552167645,0.4814138542775889,2.9050855449453445,-0.0064684166572988,0.156364694237709,0.2076293677091598,1.436661324352026,-0.0766751235723495,-9.49453160583973,14980.0
42.41,7.900000095367432,354.0,23.314435958862305,31.727577209472656,-79.782741553605,40.45902354641523,316.3040652160645,0.0217843297868967,0.0866274833679199,0.9910700917243958,0.0990017652511596,0.0949816889213156,0.5683239006622854,2.766486681594383,-0.1204873844981193,0.0882706046104431,-0.1355444341897964,1.7569717977941035,0.5512564882636071,-9.176216202378273,14981.0
42.5,7.900000095367432,356.0,23.25934600830078,31.62420463562012,-79.78274161262833,40.45902346549629,316.58530758667,0.0248777829110622,0.0851606801152229,0.9911369085311892,0.0988757982850074,0.0924864692243202,0.5827066244309382,2.7440992208192627,-0.141960397362709,-0.1184824779629707,-0.038210391998291,1.4625753070414067,0.4328807037323713,-9.400212509036065,14981.0
42.6,8.100000381469728,356.0,23.35325050354004,29.930477142333984,-79.78274168034292,40.45902339088546,316.8670000915528,0.0264592580497264,0.0797114670276641,0.9915713667869568,0.0986521542072296,0.1336572257387151,0.5762740466379583,2.7693216540086887,-0.0506701283156871,-0.1635835468769073,-0.1048964858055114,1.7218882115185257,0.5519390045106412,-9.764577074646953,14981.0
42.8,8.199999809265138,355.0,23.417104721069336,29.04783058166504,-79.78274181343627,40.45902335917104,317.4495615844727,0.0254760924726724,0.0751850083470344,0.9920737147331238,0.0974069908261299,0.1527174546044388,0.5193454598761275,2.805893074134528,0.0897736251354217,0.0050341561436653,0.0828340500593185,1.5443958342075348,-0.1022673632204532,-9.836486717462538,14982.0
42.9,8.399999618530272,356.0,23.36577033996582,29.47722625732422,-79.78274198116553,40.45902328561441,317.7452616577149,0.0250924229621887,0.0751258134841919,0.9920803904533386,0.097483180463314,0.1392418536556919,0.5311201153656622,2.799867801869806,-0.1762967258691787,0.0135403973981738,-0.1295861601829528,1.7844254985451695,0.6486218382418156,-9.739672613739968,14982.0
43.1,8.5,356.0,23.499740600585927,27.640365600585927,-79.78274211125967,40.45902310948561,318.3121600036621,0.0285482592880725,0.0786191150546073,0.991531252861023,0.0993471965193748,0.1199063422529984,0.5674534751655486,2.7272854955374504,-0.0503289699554443,-0.0276469625532627,0.1018680334091186,1.6841296702623367,0.0665361247211694,-9.139881019592288,14983.0
43.2,8.800000190734863,355.0,23.32695770263672,30.28830718994141,-79.78274232040755,40.45902314215763,318.6058421020508,0.0273346062749624,0.0821660235524177,0.9912270307540894,0.0998527109622955,0.1293708409485409,0.5796679420415278,2.61483996498204,0.0519612431526184,0.2143718302249908,-0.009780497290194,1.5399640832841397,0.2020631266571581,-8.717609723210336,14983.0
43.41,8.899999618530273,357.0,23.20050048828125,31.767335891723643,-79.78274250563184,40.4590230173804,319.16132305908206,0.0200910624116659,0.0953896790742874,0.9903638958930968,0.0983692035079002,0.0861459540011386,0.647865659167421,2.4703981999790137,0.1769707649946212,0.074721060693264,0.3463308215141296,2.1478469082713127,-0.1260388347320258,-8.910826286673545,14984.0
43.5,8.899999618530273,356.0,23.417104721069336,28.57072448730469,-79.78274255396809,40.45902284563165,319.4162211303711,0.0251412782818079,0.0917343720793724,0.990586280822754,0.0984454229474067,0.0429806711615986,0.6955111449463336,2.471094440292502,-0.2402845472097397,-0.2490006387233734,0.0241249911487102,1.8380178612470628,0.2292957112938165,-9.485821593403816,14984.0
43.71,9.0,355.0,23.27812767028809,30.240596771240234,-79.78274267308845,40.4590226051679,319.9785761718751,0.0265148840844631,0.1006690189242363,0.9893325567245485,0.1019016355276107,0.0939922557472669,0.6581094923381762,2.4888469267759668,0.1414791494607925,0.1202969849109649,-0.1225345879793167,1.8379795619845392,0.5998249963670971,-9.344364582896231,14984.0
43.8,9.0,354.0,23.265605926513672,30.789268493652344,-79.78274267772645,40.45902247585391,320.2371973876953,0.0205256659537553,0.1004901602864265,0.9892645478248596,0.1040971279144287,0.0547298372888045,0.6608205776465883,2.5221895705814563,0.1323088407516479,-0.0985645726323127,-0.2631182372570038,1.907395513504744,0.1637802546098828,-9.905197348594664,14985.0
44.0,9.0,355.0,23.748897552490234,22.77388000488281,-79.7827426658279,40.459022287738,320.8049502258301,0.0093638524413108,0.0950224325060844,0.9903289675712584,0.1006560400128364,-0.0173327273221767,0.6113929463467564,2.698652199603812,0.1143840849399566,-0.1714032292366027,0.0491334199905395,1.7143046651780611,-0.0385013020969927,-10.20780946969986,14985.0
44.2,9.0,353.0,23.63996887207031,24.58688545227051,-79.78274265263353,40.45902220913575,321.35450314331064,0.013255207799375,0.0897546559572219,0.9909294247627258,0.0991332083940506,-0.0367366838930839,0.5500619399556193,2.7371171317169405,-0.0299688223749399,0.0041509941220283,-0.1076211258769035,1.7928394956886768,-0.1529263422824442,-10.104199147224426,14986.0
44.31,9.100000381469728,352.0,23.61868476867676,24.81748580932617,-79.78274260119404,40.45902217623827,321.6342921142578,0.0123622715473175,0.0886630788445472,0.9911945462226868,0.0975679159164428,-0.0202445274354208,0.5227358341240274,2.755299662921104,0.1116383299231529,-0.0337700620293617,0.0750830397009849,1.6128969888389109,0.0426711525768041,-9.841486086845398,14986.0
44.4,9.0,351.0,23.57235908508301,25.10375022888184,-79.7827426230488,40.45902226565962,321.9035792236328,0.0088085504248738,0.0879053398966789,0.9914687275886536,0.0958380848169326,-0.0319461085538676,0.4850979240809729,2.7196498518469574,-0.0140436151996254,-0.1517921388149261,0.2634925246238708,1.4600270904600616,-0.2097920859418808,-9.67075557589531,14986.0
44.6,8.899999618530273,351.0,23.230548858642567,32.093360900878906,-79.78274251617273,40.459022312279046,322.45384930419925,6.104484054958448e-05,0.0864471942186355,0.9916874170303344,0.0953048020601272,-0.0392609200708279,0.4016210700013221,2.6894622219734496,0.1780158579349517,-0.0060310033150017,0.0286434050649404,1.341027481108904,-0.0144090582733042,-9.474058164954188,14987.0
44.7,8.699999809265138,351.0,23.32946014404297,29.64421272277832,-79.78274252416973,40.459022389472814,322.73057507324216,-0.0005112888757139,0.0851042941212654,0.991825520992279,0.0950743407011032,-0.0928518905718336,0.3906357666942567,2.6941517024960744,-0.1075135618448257,-0.0111977364867925,-0.2188767790794372,1.392583258599043,0.0549129563570022,-9.779918414354324,14987.0
44.9,8.699999809265138,351.0,23.70132064819336,23.12375831604004,-79.78274250077743,40.459022808712696,323.2749323730468,0.0026821224018931,0.0700829625129699,0.9931820034980774,0.0931174531579017,-0.0360959740253943,0.3566075194147625,2.8482353023390945,-0.1232302188873291,-0.2316968142986297,0.1831430941820144,1.6773778903484344,-0.0036061788909137,-10.536419481039047,14988.0
45.1,8.5,351.0,23.46343040466309,27.5369930267334,-79.78274253245347,40.45902293268048,323.84948681640634,0.0144222034141421,0.0728033557534217,0.99253249168396,0.0968042612075805,0.0295235927430882,0.3468062476898345,2.824378988384073,-0.2327634990215301,0.0841645449399948,0.14300636947155,1.6152705198526385,0.0755773453786969,-9.92315882563591,14988.0
45.2,8.5,348.0,23.50850486755371,26.84518814086914,-79.78274284952306,40.45902301951031,324.1205553894044,0.019025195389986,0.077850192785263,0.9917958974838256,0.0995910614728927,0.0738875429735987,0.3832362013847103,2.744026247685301,-0.1073113232851028,0.0059049502015113,0.2336186915636062,1.5845087568461895,-0.0821305757761001,-9.332744411230088,14989.0
45.3,8.5,348.0,23.19423866271973,32.093360900878906,-79.7827428808843,40.45902304210183,324.396903503418,0.0196605063974857,0.0815889462828636,0.9912248849868774,0.1021274775266647,0.0819693410655093,0.4237393611865732,2.718361244902888,0.0634180009365081,0.0636020451784133,0.199455127120018,1.6360918700695042,-0.1506202369742095,-9.421114550828934,14989.0
45.5,8.399999618530272,348.0,23.417104721069336,28.92855262756348,-79.78274298610756,40.459023275686334,324.9691729431152,0.0159528031945228,0.0861215218901634,0.9909412860870358,0.1018042266368866,0.04070203685801,0.4426436134878099,2.804066061204752,0.1802654415369033,0.0333120115101337,0.0287777092307806,1.901255790889264,-0.3197780479118228,-10.1639413189888,14989.0
45.6,8.399999618530272,347.0,23.22929763793945,31.27432632446289,-79.78274293652608,40.45902330927088,325.2547526245117,0.0118362577632069,0.0880686044692993,0.9909836649894714,0.1002758964896202,-0.0138401239826887,0.4483081674932497,2.836476573139261,0.0101224360987544,-0.0435799323022365,0.0852907225489616,1.7153232501447202,-0.1777331729605794,-10.001380537748338,14990.0
45.8,8.300000190734862,349.0,23.2856388092041,29.62035751342773,-79.782742925468,40.4590235490497,325.8392481689453,0.0048611969687044,0.084703117609024,0.9915814995765686,0.0978155508637428,-0.0291041157025363,0.4527430613168834,2.8862682899831578,0.2351759970188141,-0.0617414973676204,-0.0187591928988695,1.730594715625048,-0.2597216248512268,-10.045203080177307,14990.0
46.0,8.300000190734862,349.0,23.205507278442383,30.526859283447266,-79.78274281548028,40.459023811175264,326.4250635986328,0.0004650092450901,0.0792515575885772,0.992559850215912,0.0924342647194862,-0.0531453581498135,0.3774121172738302,2.9549235644941336,-0.0965150073170662,-0.0629678666591644,-0.3256833255290985,1.6625284476578237,-0.1065390100702643,-10.16298939228058,14991.0
46.1,8.300000190734862,350.0,23.20676040649414,31.886613845825195,-79.78274277842135,40.45902390217687,326.72509335327146,-0.0001624344295123,0.0783881470561027,0.9928216338157654,0.0903362855315208,-0.0451857653298439,0.3764870215386536,2.998279338184992,-0.0193165428936481,-0.0826136544346809,-0.2184739708900452,1.770950882434845,0.1765231464989483,-10.118265209198,14991.0
46.2,8.300000190734862,351.0,23.30692481994629,30.48710060119629,-79.78274277178481,40.45902417044736,327.0263895874024,0.0033786930143833,0.0771736651659011,0.9928759336471558,0.0907210260629654,-0.0597874497798325,0.3485490650390549,3.0149131435180734,-0.1560356467962265,-0.066913217306137,0.1309519708156585,1.4565306016802788,0.0953970584180206,-10.045178521871568,14992.0
46.4,8.300000190734862,349.0,23.28689193725586,29.81915283203125,-79.78274298778848,40.45902443876295,327.6297869567872,0.0109689161181449,0.0746392682194709,0.9925904273986816,0.09525216370821,0.0486781912788204,0.3429531151786795,3.0115555866077863,0.1107038632035255,0.0254382714629173,-0.1722276210784912,1.5707230688631535,0.1158438670635223,-9.77920914709568,14992.0
46.6,8.199999809265138,347.0,23.11661148071289,33.27022171020508,-79.78274297581405,40.45902466912256,328.23800991821287,0.0096078878268599,0.0721534714102745,0.9923775792121888,0.0994406193494796,0.0361075014990524,0.3220905685423471,3.043884695626068,0.0255468226969242,-0.052409291267395,0.1735453605651855,1.3682600109279155,0.1689105285331607,-9.783892766833306,14993.0
46.7,8.100000381469728,347.0,23.14916610717773,33.222511291503906,-79.78274311726982,40.45902496340916,328.5462031250001,0.009866495616734,0.0690287724137306,0.9924103617668152,0.1012887805700302,0.0157364051239032,0.3093073139792479,3.0652054130838664,-0.1358541548252105,0.0227071959525346,-0.0289211645722389,1.4051679284870626,-0.1793529065139592,-10.07743878006935,14993.0
46.8,8.0,348.0,23.276874542236328,30.42348670959473,-79.78274309200262,40.45902507951435,328.8564066772461,0.0082976706326007,0.0659977048635482,0.9925276637077332,0.1022949293255806,0.0303657983689027,0.3053539619750304,3.114475349449976,0.1737082600593567,-0.0921030342578888,0.0930579900741577,1.5192231322824956,-0.3808744713664055,-10.225982615947723,14993.0
47.0,7.900000095367432,350.0,23.139148712158203,32.594322204589844,-79.78274316957645,40.45902544818419,329.49022625732425,-0.0027145573403686,0.0637504532933235,0.9927871227264404,0.1015007197856903,-0.0456144080040873,0.2632159123161438,3.177304610229783,-0.0358388051390647,-0.0221020895987749,0.0478021726012229,1.2691875663399697,-0.3590876727551222,-10.112292863130572,14994.0
47.1,7.900000095367432,350.0,23.32695770263672,29.26252746582031,-79.7827431435152,40.45902556691954,329.81119488525394,-0.0015693184686824,0.0640614554286003,0.9929735064506532,0.0994854122400283,-0.0648565897067264,0.2774593496621988,3.2222863059005005,-0.1369164437055587,-0.0778967589139938,0.1212343499064445,1.3659709721803666,-0.137886161589995,-10.107257241010666,14994.0
47.31,7.900000095367432,350.0,23.21677589416504,29.57264709472656,-79.78274318953245,40.45902592179229,330.459517944336,0.0056656314991414,0.0668958202004432,0.9930256009101868,0.0969183444976806,-0.0132826427125119,0.304744285469728,3.2218842593882417,-0.0761233568191528,0.1436369121074676,-0.1198760345578193,1.4014952923357489,-0.0536447318270802,-9.825872851610184,14995.0
47.4,7.800000190734862,347.0,23.31694030761719,29.143251419067383,-79.78274321971169,40.45902612524689,330.7952723388672,0.0077226315625011,0.0661043897271156,0.9931005239486694,0.0965500921010971,0.0139270437886267,0.3201446762822106,3.222973310822649,0.0627413913607597,0.0174326226115226,0.1406984329223632,1.4349855123460291,-0.4694648317247629,-9.982959469556809,14995.0
