time,wind_speed,wind_angle,battery_voltage,battery_current,position_x,position_y,position_z,orientation_x,orientation_y,orientation_z,orientation_w,velocity_x,velocity_y,velocity_z,angular_x,angular_y,angular_z,linear_acceleration_x,linear_acceleration_y,linear_acceleration_z,node_ids
0.0,1.5,115.0,24.540193557739247,-0.0636141896247863,-79.78280525307233,40.4589912464891,279.8072766439915,0.0112315108999609,-0.0035694881808012,0.9982655048370358,0.0576810799539089,-0.0255081708131348,-0.0183865346711764,0.0088412932824452,-0.0032561973202973,0.0010439904872328,-0.0080814883112907,-0.0838767827767878,0.1839509010873735,-9.812826544046402,14944.0
0.1,1.600000023841858,117.0,24.5539665222168,-0.0636141896247863,-79.78280516254983,40.45899135799687,279.7833757476807,0.0111867040395736,-0.0035984870046377,0.9982675909996032,0.0576519295573234,-0.0165543643651379,-0.0115993949982678,0.0072987170467334,0.0028308378532528,-0.0003202178049832,0.0060759698972105,-0.0853744739759713,0.184962049126625,-9.812292108535765,14944.0
0.21,1.600000023841858,118.0,24.543949127197266,-0.1033730581402778,-79.78280513917602,40.45899136776767,279.78408218193056,0.0111746508628129,-0.0035836366005241,0.9982680082321168,0.0576485320925712,-0.0200485970924085,-0.0145444449040829,0.0075609751761039,-0.004220092203468,-0.0019539557397365,-0.007688904646784,-0.0900701718684286,0.2037855702079832,-9.808876165151595,14944.0
0.4,1.7999999523162842,122.0,24.54645347595215,-0.055662415921688,-79.78280497459372,40.458991541719335,279.7593464927673,0.0111678261309862,-0.003606017678976,0.9982709884643556,0.0575971715152263,-0.0215785301300282,-0.020756343419074,0.0045592744546085,-0.0025384451728314,-0.0032471164595335,-0.006936702877283,-0.0852625911589712,0.1838306128978728,-9.811750656366348,14944.0
0.5,1.7999999523162842,127.0,24.53518486022949,-0.0477106422185897,-79.78280494481119,40.45899155932052,279.75976700353624,0.0111894402652978,-0.0035890315193682,0.9982721209526062,0.057574063539505,-0.0238531197388903,-0.0238873352103526,0.0046426289683689,0.0007220102706924,0.0023159314878284,0.0057771345600485,-0.0846730821859091,0.1840063582733273,-9.812892032861711,14944.0
0.7,1.8999999761581416,128.0,24.54269790649414,-0.0477106422185897,-79.78280479857395,40.45899166683044,279.7342624740601,0.0111397858709096,-0.0036145870108157,0.9982755184173584,0.057522639632225,-0.0233074069273822,-0.0165865268028525,0.0019829517867479,0.0009710971498861,0.0017044245032593,0.004267772193998,-0.0910926854331046,0.203706833794713,-9.809564967155456,14944.0
0.8,1.8999999761581416,132.0,24.55021095275879,-0.055662415921688,-79.78280476669197,40.45899168033338,279.7344261484146,0.0111319553107023,-0.0035751983523368,0.9982768297195436,0.057504303753376,-0.0268280532319829,-0.0195471207916586,0.0022076068539018,-0.0003039214061573,0.001040315371938,-0.006755584385246,-0.0912405103538185,0.2033912486024201,-9.809207702279087,14944.0
1.0,1.8999999761581416,128.0,24.53643798828125,-0.0874695107340812,-79.7828046900113,40.45899184621098,279.7089101748466,0.0110915219411253,-0.0035984658170491,0.998281478881836,0.05743008852005,-0.017060448054234,-0.0213325601229436,6.782307308105911e-05,-0.0001725300244288,-0.0001151487740571,-0.0057448190636932,-0.0869425144884735,0.183592521585524,-9.81210616707802,14944.0
1.2,1.8999999761581416,127.0,24.55021095275879,-0.0715659633278846,-79.78280458863145,40.45899199582985,279.68288666772844,0.0110763367265462,-0.0036206229124218,0.9982845783233644,0.0573769249022007,-0.012386573756433,-0.0191877181363364,-0.0017162116265502,-0.0018603253411129,0.0017760705668479,0.000176987654413,-0.0892638225574046,0.1863858826830984,-9.812169317007063,14944.0
1.3,2.0,129.0,24.543949127197266,-0.0954212844371795,-79.78280457001391,40.45899201298069,279.6827031450272,0.0110757984220981,-0.0036177653819322,0.998285472393036,0.0573626384139061,-0.0146335020241955,-0.0223330682802442,-0.0016307225659673,0.0031705510336905,0.003559194272384,0.0023148385807871,-0.0898169782944023,0.1936307107843458,-9.809855573773383,14944.0
1.4,2.0,129.0,24.53518486022949,-0.0954212844371795,-79.78280445143673,40.45899216610735,279.65716672706606,0.011048830114305,-0.0036228389944881,0.9982898831367492,0.0572906769812107,-0.0124967219210025,-0.0217168554807862,-0.0024989146167832,0.0039651780389249,0.0027135792188346,0.0076602967455983,-0.0873972542770206,0.1892329285293817,-9.811439584493638,14944.0
1.6,2.200000047683716,132.0,24.54895782470703,-0.055662415921688,-79.78280433030021,40.458992318021714,279.6298486070633,0.0110413106158375,-0.0036491139326244,0.998293936252594,0.0572189800441265,-0.0116041521352951,-0.0188718906477384,-0.0059704664987071,0.0085132839158177,0.002395377960056,0.0078287161886692,-0.0852516824472695,0.1853488424420356,-9.811807959079744,14944.0
1.7,2.200000047683716,132.0,24.55021095275879,-0.0636141896247863,-79.78280431179195,40.45899233478689,279.6292483286858,0.0110436994582414,-0.0036514592356979,0.9982953667640686,0.0571928583085537,-0.0156012149735265,-0.0216258318967291,-0.0056535980988911,-0.0029128906317055,-0.0037830264773219,-0.0061284797266125,-0.0902824623417109,0.2037493722885847,-9.810251430273055,14944.0
1.9,2.200000047683716,134.0,24.54645347595215,-0.0318070948123931,-79.7828041933603,40.45899248999969,279.60320485401155,0.010999858379364,-0.003686572657898,0.9982975125312804,0.0571624636650085,-0.0144322226471488,-0.0191139529529697,-0.0054700474320016,-0.0038522768300026,-0.0010275655658915,-0.0046551832929253,-0.0851328012440353,0.1819733179360628,-9.812232466936118,14944.0
2.0,2.0999999046325684,135.0,24.547706604003903,-0.0636141896247863,-79.78280417269325,40.45899250693286,279.6026408748627,0.0110041880980134,-0.0036840829998254,0.9983000159263612,0.0571187585592269,-0.0164955151513146,-0.0220815577405002,-0.0053884038814865,0.0014515275834128,0.0007450953125953,0.0054579321295022,-0.085876347804442,0.1828897776268422,-9.8124429666996,14944.0
2.2,2.0999999046325684,134.0,24.551462173461918,-0.0715659633278846,-79.78280403336882,40.45899269558072,279.5747764782906,0.0109750851988792,-0.003683092771098,0.9983030557632446,0.0570706091821193,-0.0178517567984922,-0.0263268336534891,-0.0084760789331085,-0.0017659156583249,-0.0015435626264661,0.0033404775895178,-0.0863445635978132,0.185261061117053,-9.812515472173692,14944.0
2.3,2.0999999046325684,135.0,24.55021095275879,-0.0397588685154914,-79.78280400738144,40.45899271862151,279.5739026145935,0.010973229072988,-0.0036713234148919,0.9983033537864684,0.0570662543177604,-0.0204950429020474,-0.0293438892898743,-0.0084358714834617,0.0029909706208854,3.5973404010292136e-05,-0.0022189549636095,-0.0901557239424437,0.2003793478198349,-9.808837573528288,14944.0
2.51,2.0999999046325684,135.0,24.54645347595215,-0.0715659633278846,-79.78280394055297,40.458992871772864,279.54707408714296,0.0109342671930789,-0.0037027318030595,0.9983064532279968,0.0570179559290409,-0.0148010472374274,-0.0263187180805489,-0.0102120833607173,0.0018602571217343,0.0007582112448289,-0.0044122198596596,-0.0884432663396,0.1848557394370436,-9.812500269412997,14944.0
2.6,2.0999999046325684,135.0,24.54645347595215,-0.055662415921688,-79.78280386755324,40.45899299275916,279.52148748207094,0.0109133822843432,-0.0037412301171571,0.9983077049255372,0.0569971278309822,-0.0107936412245702,-0.0187269800307761,-0.0114939956623484,0.0004620811960194,-0.0029841437935829,0.0038957467768341,-0.0869814624264836,0.1852359911799431,-9.81312709093094,14944.0
2.8,2.0999999046325684,133.0,24.545202255249023,-0.055662415921688,-79.78280385126769,40.45899300961611,279.52033294010164,0.0109111797064542,-0.0037414897233247,0.99830824136734,0.0569884069263935,-0.0131914401030296,-0.0216259549574393,-0.0113318703797206,0.0024884962476789,0.0022318728733807,-0.0021093238610774,-0.0909425216261297,0.1962921988964081,-9.810016372203828,14944.0
2.91,2.200000047683716,131.0,24.55021095275879,-0.0636141896247863,-79.78280377909294,40.45899315064696,279.4953726606369,0.0108694406226277,-0.0037784313317388,0.9983110427856444,0.0569444894790649,-0.008724169295027,-0.0183486005441149,-0.0096671581999792,0.002084776526317,0.001710888929665,0.0011415436165407,-0.0898451728373766,0.196323207411915,-9.809273191094398,14944.0
3.11,2.0999999046325684,130.0,24.545202255249023,-0.055662415921688,-79.78280369689973,40.45899330972532,279.47052771615984,0.0108256554231047,-0.0037770324852317,0.99831360578537,0.0569087341427803,-0.0076719831240995,-0.0187469819243728,-0.0083364148584285,0.0006767570739611,0.0022857671137899,0.000601663312409,-0.0891231422033161,0.1975824418477714,-9.809513511657718,14944.0
3.21,2.0999999046325684,126.0,24.540193557739247,-0.0715659633278846,-79.7828036839153,40.45899332671645,279.46969492006303,0.0108333909884095,-0.0037803244777023,0.9983146190643308,0.0568882524967193,-0.0101933934555042,-0.0212614633827184,-0.0081501663140817,-0.0028687673620879,-0.0014579788548871,0.0025789719074964,-0.0879957990255206,0.1872184896469116,-9.81317620754242,14944.0
3.41,2.200000047683716,121.0,24.547706604003903,-0.0715659633278846,-79.78280360251169,40.45899348258251,279.44370210933687,0.010817190632224,-0.0037844988983124,0.9983168244361876,0.0568523444235324,-0.0103982318248043,-0.021934515677555,-0.0098841851157781,-0.0038587867747992,-0.000205235541216,0.0003979949397034,-0.0894335745368152,0.1890272892639041,-9.811245456933976,14944.0
3.6,2.200000047683716,122.0,24.551462173461918,-0.055662415921688,-79.7828035865068,40.45899350239007,279.44270557928087,0.0108280787244439,-0.0037992242723703,0.9983167052268982,0.0568527355790138,-0.0121357690330182,-0.0248221950696868,-0.0098377013858345,0.0043262024410068,0.0037523510400205,0.0061405291780829,-0.0899037729017436,0.1909145512059331,-9.810908657312394,14944.0
3.7,2.299999952316284,123.0,24.54269790649414,-0.0715659633278846,-79.78280351972617,40.45899362949097,279.41687298583986,0.0108081065118312,-0.0038097812794148,0.9983190894126892,0.0568134300410747,-0.0103339633148556,-0.0201308838630629,-0.0111947326751706,0.0073475409299135,0.0027282263617962,0.0058117597363889,-0.0892699529975652,0.1952092762850224,-9.810602263212203,14944.0
3.8,2.5,124.0,24.54895782470703,-0.055662415921688,-79.78280350308161,40.45899364739086,279.41576010751726,0.0108137680217623,-0.0038123365957289,0.9983209371566772,0.0567792169749736,-0.0139817214638308,-0.0225515001354076,-0.0108891733871426,-0.0066411383450031,-0.0030366512946784,-0.0112013453617692,-0.091711311712861,0.1980638686940074,-9.809529299139976,14944.0
4.0,2.400000095367432,120.0,24.54269790649414,-0.0715659633278846,-79.78280348674467,40.45899375752719,279.39090395736696,0.010783246718347,-0.0038663102313876,0.9983242750167848,0.0567238628864288,-0.0068652544146059,-0.0159602460461461,-0.0093257943887997,-0.0079003209248185,-0.0035876922775059,-0.0155950877815485,-0.0854425940383225,0.1845607656799257,-9.81079989910126,14944.0
4.1,2.400000095367432,126.0,24.54895782470703,-0.0636141896247863,-79.782803422316,40.45899385323357,279.36540723609926,0.0107671665027737,-0.0039095650427043,0.9983264207839966,0.0566850379109382,-0.00621931265265,-0.0075792188197783,-0.0108602784080961,0.0040081283077597,0.0020321712363511,0.0070148999802768,-0.0866797917801886,0.1829192147031426,-9.81215645313263,14944.0
4.3,2.299999952316284,132.0,24.54645347595215,-0.055662415921688,-79.7828034123277,40.45899386021692,279.36431909370424,0.0107674403116107,-0.0038941586390137,0.9983275532722472,0.0566664636135101,-0.0092349378801136,-0.0094751930050783,-0.0107273558255657,-0.0042466130107641,-0.0028629738371819,-0.0087340706959366,-0.0882165953703224,0.2051826710253954,-9.808934637308123,14944.0
4.5,2.400000095367432,135.0,24.54895782470703,-0.0795177370309829,-79.7828033698632,40.45899400043108,279.33835286664964,0.0107413325458765,-0.0039249034598469,0.9983302354812622,0.0566213503479957,-0.0065717033460695,-0.0109093054989028,-0.0115507130446798,-0.0018734636250883,-0.002670042682439,-0.007422583643347,-0.0914041775744408,0.2037111643888056,-9.809955561161042,14944.0
4.6,2.5999999046325684,141.0,24.551462173461918,-0.0636141896247863,-79.78280332189313,40.45899413623568,279.3122522311211,0.0107221361249685,-0.0039362250827252,0.9983325004577636,0.0565845444798469,-0.0045690851099998,-0.0102290158394091,-0.0120926786108624,-0.0072687743231654,-0.0025379515718668,-0.0085284123197197,-0.0900234306883066,0.2036298515461384,-9.810583552122118,14944.0
4.7,2.5999999046325684,141.0,24.547706604003903,-0.0636141896247863,-79.78280331465788,40.45899414596192,279.3110338525772,0.0107381707057356,-0.003939464688301,0.9983342289924622,0.0565511286258697,-0.0058768561734124,-0.0126107335257047,-0.0122716456663324,0.0031454805284738,0.0042778099887073,0.0049907164648175,-0.0860010488145053,0.1848286229744553,-9.81056834936142,14944.0
4.9,2.5999999046325684,153.0,24.547706604003903,-0.0795177370309829,-79.78280323951289,40.45899426434732,279.28246546554567,0.0107331713661551,-0.0039440197870135,0.9983361959457396,0.0565165989100933,-0.008448993560802,-0.0095419983052487,-0.0162126388319571,0.0029676409903913,-0.0007423983770422,0.0031103075016289,-0.088009000942111,0.1961178056895733,-9.80900129556656,14944.0
5.0,2.5999999046325684,158.0,24.545202255249023,-0.0477106422185897,-79.78280322669345,40.458994272757394,279.2808315830231,0.0107499919831752,-0.0039449180476367,0.9983368515968324,0.0565023124217987,-0.0114370150610266,-0.0113165527658522,-0.0162181260114715,-0.0063310302793979,-0.0009805291192606,-0.0028923812787979,-0.0881391837168485,0.1916522870957852,-9.81056834936142,14944.0
5.2,2.700000047683716,163.0,24.55897521972656,-0.0397588685154914,-79.78280317844751,40.458994419126135,279.2539790945053,0.0107187209650874,-0.0039791893213987,0.99834007024765,0.0564492605626583,-0.0089108368073213,-0.0132040171967528,-0.0155956830827223,0.0005977282417006,-0.0012985550565645,0.005884570069611,-0.0877846962679177,0.1955220840498805,-9.809443929791447,14944.0
5.3,2.700000047683716,165.0,24.551462173461918,-0.055662415921688,-79.78280316533188,40.45899443106925,279.2524058895111,0.0107168173417449,-0.0039678858593106,0.9983412623405457,0.0564284995198249,-0.0110394174418969,-0.0153907025909737,-0.0156451087500226,-0.0023469461593776,-0.0002929574984591,-0.0060130394995212,-0.0898250638972967,0.2031432718411088,-9.807341271042825,14944.0
5.51,2.700000047683716,165.0,24.54269790649414,-0.0477106422185897,-79.78280312584789,40.45899456725884,279.2231021003724,0.0107125006616115,-0.0039832787588238,0.9983441829681396,0.0563761405646801,-0.0092824726009057,-0.0143795352153389,-0.0177362667970733,-0.0050218044780194,0.0034786390606313,-0.0107677392661571,-0.0864167767111212,0.1848644554428756,-9.810430355072024,14944.0
5.6,2.799999952316284,168.0,24.54269790649414,-0.0715659633278846,-79.78280306110376,40.45899471156868,279.19469488430025,0.0107054309919476,-0.0040001510642468,0.9983459711074828,0.056344598531723,-0.0090202767781047,-0.0148950697177943,-0.0195815729001878,0.0021544068586081,0.0035497786011546,0.0073835817165672,-0.0845833182893693,0.1847850064001977,-9.811168273687365,14944.0
5.81,3.0,166.0,24.551462173461918,-0.055662415921688,-79.78280303052506,40.45899474016677,279.1907574014664,0.010711008682847,-0.0039747105911374,0.9983479380607604,0.0563104934990406,-0.0131406484574082,-0.019525980298295,-0.0197194247489948,0.0086011011153459,0.0042110146023333,0.0068074180744588,-0.0869931294489652,0.1858705237135291,-9.81135187625885,14944.0
6.0,3.2000000476837163,166.0,24.545202255249023,-0.0636141896247863,-79.7828029874556,40.458994851270624,279.16373325157167,0.0106914648786187,-0.0039900755509734,0.9983513355255128,0.0562528893351554,-0.0124374873396737,-0.0121625695209356,-0.017439953684478,-0.005275975447148,-0.0036902308929711,-0.0065641175024211,-0.0883991198614239,0.196379285864532,-9.809517019987108,14944.0
6.11,3.2000000476837163,168.0,24.545202255249023,-0.0795177370309829,-79.78280298653729,40.45899500485783,279.13345170784,0.0106644891202449,-0.003993006888777,0.998355507850647,0.0561839900910854,-0.0034162644652906,-0.0125802062875074,-0.0169355229098537,-0.0048426040448248,-0.0029642281588166,-0.0029301769100129,-0.0879830173775553,0.1899584035389124,-9.809664369821547,14944.0
6.2,3.2000000476837163,170.0,24.545202255249023,-0.0238553211092948,-79.78280298028393,40.45899501696585,279.1317519025803,0.0106640560552477,-0.0039852266199886,0.9983561038970948,0.0561754293739795,-0.0049198963202044,-0.0148888583149458,-0.0170265637857947,0.0033107546623796,-6.19830534560606e-05,0.0036002025008201,-0.0887776905298233,0.1930497716367245,-9.810141502618787,14944.0
6.4,3.400000095367432,169.0,24.543949127197266,-0.0636141896247863,-79.78280293337582,40.458995151815145,279.101566441536,0.0105981016531586,-0.0040118242613971,0.9983601570129396,0.0561135224997997,-0.004740926326053,-0.0129456098752956,-0.0163556253719573,0.0032275903504341,-0.0012870921054854,-0.0011316421441733,-0.088238458475098,0.1874438267201185,-9.811176459789277,14944.0
6.5,3.400000095367432,168.0,24.541446685791016,0.0079517737030982,-79.78280292463833,40.45899516374227,279.09992516803743,0.0106006041169166,-0.0040191267617046,0.998361885547638,0.0560803823173046,-0.007481079219187,-0.0149358305107735,-0.0164157057249572,-0.0039007682353258,-0.0006438344134949,-0.0003368851321283,-0.0889187363348901,0.1906002085469663,-9.81047245502472,14944.0
6.71,3.400000095367432,170.0,24.53894233703613,-0.0715659633278846,-79.78280290355116,40.45899531985457,279.0671864824295,0.0105743370950222,-0.0040140599012374,0.9983639717102052,0.0560489669442176,-0.0040471409762231,-0.0155240221230285,-0.0189049323925049,-0.0051301135681569,-0.0003232394519727,-0.0004762105818372,-0.0902627097163349,0.1933749316446484,-9.80928897857666,14944.0
6.81,3.400000095367432,172.0,24.545202255249023,-0.0715659633278846,-79.78280289618836,40.4589953346667,279.065288312912,0.0105671267956495,-0.0040175374597311,0.9983643889427184,0.0560421161353588,-0.0055201737654228,-0.0178994265738182,-0.0190570894225414,0.006376280914992,-0.0006601056084036,0.0048379334621131,-0.0876477983314544,0.1934741698578,-9.80885979294777,14944.0
7.0,3.400000095367432,172.0,24.52767372131348,-0.0397588685154914,-79.78280283302483,40.45899548072411,279.0318696575165,0.0105630857869982,-0.0040205465629696,0.9983668923377992,0.0559996590018272,-0.0083295480388378,-0.0173114273583242,-0.0206983984717101,-0.0001089568177121,0.0047822287306189,-0.0010352141689509,-0.0896952922549098,0.1849107763543725,-9.810647871494291,14944.0
7.2,3.400000095367432,175.0,24.521413803100582,-0.0477106422185897,-79.7828028297526,40.458995622564544,279.0016385393143,0.0105344969779253,-0.0040325010195374,0.9983676075935364,0.0559910461306572,-0.0018368122165255,-0.0147836924809996,-0.0192062917230707,-0.0010890328558161,-0.0009817719692364,0.0052752825431525,-0.0847235966473817,0.1849970593303442,-9.811992731094358,14944.0
7.3,3.5999999046325684,176.0,24.53768920898437,0.0079517737030982,-79.78280282473989,40.45899563661058,278.9997195081711,0.0105090150609612,-0.0040257610380649,0.9983683228492736,0.055982768535614,-0.0041659615705823,-0.0166599511312093,-0.0192667451820245,-0.0045866128057241,-0.0038465748075395,-0.0072056539356708,-0.0876295531913638,0.2034111839532852,-9.80836394906044,14943.0
7.51,3.5,177.0,24.525169372558597,0.1351801604032516,-79.78280278005222,40.45899580981661,278.96584499645235,0.0104890177026391,-0.0040319538675248,0.9983714818954468,0.0559300072491169,-0.0048146984992485,-0.020080364407783,-0.0208316333809335,-0.0051026921719312,0.0007215511286631,-0.0057613584212958,-0.0903838567156344,0.1952600374259054,-9.808677944540976,14943.0
7.6,3.299999952316284,179.0,24.54269790649414,0.0159035474061965,-79.78280272753094,40.45899594429787,278.93115664291383,0.0104639548808336,-0.0040797307156026,0.99837327003479,0.0558993443846702,-0.0064385647083897,-0.0148876820282856,-0.0221899195031457,0.0040551437996327,0.0005886134458705,0.0045817904174327,-0.0900086938776075,0.1946310597471893,-9.808332374095915,14943.0
7.7,3.299999952316284,177.0,24.5289249420166,-0.0238553211092948,-79.78280271723094,40.45899595801191,278.9289332704544,0.0104516483843326,-0.0040796590037643,0.9983747601509094,0.0558756552636623,-0.008544133020329,-0.0168629159584868,-0.022109722865928,-0.0018089024815708,-0.0024955254048109,-0.0064454334788024,-0.0892855394817888,0.2043010022677481,-9.809111807942394,14943.0
7.9,2.900000095367432,179.0,24.545202255249023,-0.0079517737030982,-79.78280266433474,40.45899609302464,278.8936094121933,0.0104418052360415,-0.004081361927092,0.9983784556388856,0.0558115355670452,-0.0099169543641532,-0.0132981890282981,-0.0229674365648938,-0.0016559448558837,-0.0013192049227654,-0.0030792271718382,-0.0904118319880217,0.1929608391411602,-9.809329324364665,14943.0
8.0,2.900000095367432,182.0,24.53643798828125,0.0079517737030982,-79.78280265121013,40.45899610493586,278.89128626155855,0.010433817282319,-0.0040822187438607,0.9983779191970824,0.0558210611343383,-0.0105918024173996,-0.0153820214695886,-0.0231759809243049,0.0049117975868284,0.0025008337106555,0.0010675900848582,-0.0906846320070326,0.1947493379563093,-9.808642276525498,14943.0
8.2,2.900000095367432,179.0,24.54269790649414,0.0238553211092948,-79.78280268020508,40.4589962416563,278.8549646215439,0.0103965029120445,-0.0041028219275176,0.998379409313202,0.0558014661073684,-0.0023538411117961,-0.0114658909670742,-0.0241446814126042,-0.0044079748913645,-0.003715869737789,-0.0078038619831204,-0.0840782102197408,0.1887994123063981,-9.811538987159729,14943.0
8.4,2.799999952316284,178.0,24.54269790649414,0.0238553211092948,-79.78280267578387,40.45899625273272,278.85254073905946,0.0103907715529203,-0.0041091442108154,0.9983808398246764,0.0557759068906307,-0.0031575939201366,-0.0135734780537172,-0.0244064818902385,0.0048053148202598,-0.0009329793974757,0.007794224191457,-0.0856374890450388,0.1863964259438217,-9.810811593532565,14943.0
8.5,2.799999952316284,174.0,24.53894233703613,-0.0238553211092948,-79.78280263968792,40.45899642916047,278.8159353809357,0.0103679988533258,-0.0040816534310579,0.9983834624290466,0.0557339452207088,-0.0033628031472303,-0.0177808170007559,-0.0251958447848396,0.0054884073324501,0.0002339607017347,0.0086869830265641,-0.0906568211875856,0.1936885251291096,-9.809402999281884,14943.0
8.71,2.799999952316284,173.0,24.53768920898437,0.0079517737030982,-79.78280262273081,40.45899653766586,278.7808853464127,0.0103674866259098,-0.0041201054118573,0.9983851909637452,0.0557005815207958,-0.0025948414182726,-0.0086615959419472,-0.0251056145496006,-0.0026012165471911,-0.002770088147372,0.0004241314600221,-0.086587131684646,0.1910068093053996,-9.80993977367878,14943.0
8.81,2.799999952316284,171.0,24.54645347595215,-0.0318070948123931,-79.78280261278042,40.458996556621386,278.7758296804428,0.0103681096807122,-0.0041088173165917,0.998388648033142,0.055640123784542,-0.0053024833919454,-0.0126091318325479,-0.0253891341488496,-0.0003859944117721,0.0003676230262499,0.0044353581033647,-0.087452081060037,0.1838124134391546,-9.811316792964936,14943.0
9.0,2.700000047683716,174.0,24.53393363952637,0.0079517737030982,-79.78280259935784,40.458996687263095,278.7420450525284,0.0103323487564921,-0.0041257040575146,0.9983895421028136,0.0556290000677108,-0.0022441842161828,-0.0090784555161765,-0.0225399629869827,-0.0007446271483786,-0.0041831755079329,-0.0035091813188046,-0.0911148043535649,0.2015223322995007,-9.807383955717087,14943.0
9.1,2.799999952316284,173.0,24.543949127197266,0.0079517737030982,-79.78280260617109,40.4589968317301,278.7048192100525,0.0102891754359006,-0.0041254912503063,0.998392641544342,0.0555819757282733,0.0011375624725795,-0.0068530075549369,-0.0209780595337056,-0.0029526879079639,-0.0032143762800842,-0.0045419647358357,-0.0872357340808957,0.2027483655139804,-9.808231801986697,14943.0
9.2,2.799999952316284,172.0,24.543949127197266,0.0397588685154914,-79.78280260652879,40.45899683927133,278.7027204113007,0.0102853700518608,-0.0041343546472489,0.9983947277069092,0.0555446445941925,0.0007710668812325,-0.0092500009233734,-0.0212633714679581,0.0040612514130771,0.0023193389642983,0.0060482327826321,-0.0846578337438404,0.1863913644477724,-9.810635007619858,14943.0
9.4,2.900000095367432,174.0,24.543949127197266,0.0159035474061965,-79.7828025678642,40.45899699017981,278.6667357759476,0.0102765541523695,-0.0041170972399413,0.9983969926834106,0.0555068403482437,-0.0020933592335188,-0.0098893126107203,-0.0186066208808381,0.0040173474699258,0.0046915211714804,0.00348452758044,-0.0940694298315793,0.201805776078254,-9.808254021406174,14943.0
9.5,3.0,168.0,24.53643798828125,0.0397588685154914,-79.78280256329928,40.45899700004144,278.66487193870546,0.0102891521528363,-0.0041146930307149,0.998399257659912,0.0554633699357509,-0.003934914129141,-0.011634708511944,-0.0187625142088655,-0.0004229986807331,-0.0014482164988294,0.003146099159494,-0.0819254481419921,0.1853119867108762,-9.811261829137804,14943.0
9.7,3.0,163.0,24.540193557739247,0.0159035474061965,-79.78280256285393,40.45899714434651,278.6271237211228,0.0102546913549304,-0.0041283639147877,0.9984018206596376,0.0554232411086559,-2.155125680950308e-06,-0.0104698108679429,-0.018097755450059,0.0003429617499932,0.0015492712846025,0.0069609866477549,-0.0882351054623723,0.1838334634155035,-9.811350706815723,14943.0
9.8,2.900000095367432,162.0,24.54269790649414,0.0079517737030982,-79.78280256066391,40.45899715451338,278.6253233032227,0.0102664893493056,-0.0041166106238961,0.9984020590782166,0.0554167181253433,-0.0020686564745078,-0.0116342584759962,-0.0180966969833677,-0.0064030713401734,-0.0030407158192247,-0.0106237698346376,-0.0861083817668259,0.2017479617334902,-9.808489079475404,14943.0
10.0,3.700000047683716,160.0,24.54269790649414,-0.0715659633278846,-79.78280258591259,40.458997282441366,278.5882803277969,0.0102495132014155,-0.0041206362657248,0.998404860496521,0.0553693585097789,0.0030238343383273,-0.0078029513812272,-0.0152837877806501,-0.0047967135906219,0.0004580374225042,-0.0044944412074983,-0.0871875859145075,0.1879654349014163,-9.810377730131153,14943.0
10.2,3.799999952316284,161.0,24.55021095275879,-0.055662415921688,-79.7828025443563,40.45899743105475,278.5489351825714,0.0102445166558027,-0.004124216735363,0.9984058737754822,0.0553517304360866,0.0013258858781146,-0.0078690526805542,-0.018769438152459,0.002619314007461,0.0004884866066277,0.0019752206280827,-0.0859619638323783,0.201542011834681,-9.807809048295024,14943.0
10.3,4.099999904632568,162.0,24.54895782470703,-0.0397588685154914,-79.78280254364634,40.45899743923879,278.547056801796,0.010251342318952,-0.0041166041046381,0.9984063506126404,0.0553421936929225,-0.0002770143589767,-0.0102671034810868,-0.0190022929116861,0.0011954052606597,-0.0014882502146065,0.0065525434911251,-0.0879361756984144,0.1885515451803804,-9.810460760593417,14943.0
10.4,4.199999809265137,161.0,24.540193557739247,-0.0477106422185897,-79.7828025236528,40.45899760178472,278.5076633768082,0.0102472761645913,-0.0041308868676424,0.9984099864959716,0.0552764795720577,-0.0001010144295475,-0.0118159470540327,-0.0189912003919091,0.0076979724690318,0.001715627964586,0.0032139103859663,-0.0800676689576357,0.1870745202340185,-9.809591279625892,14943.0
10.6,4.400000095367432,156.0,24.55021095275879,-0.055662415921688,-79.78280250491903,40.45899777737724,278.46681714820863,0.0102498019114136,-0.0041234819218516,0.9984139204025269,0.0552049614489078,-0.0001247858229571,-0.0161755491908812,-0.0211886247965928,0.0094103040173649,0.0035340166650712,0.0070327776484191,-0.0907749988976866,0.20066494775936,-9.808758051395415,14943.0
10.7,4.5,150.0,24.55021095275879,-0.0397588685154914,-79.78280250205665,40.45899779262932,278.4647057132721,0.0102470330893993,-0.0041383793577551,0.9984173774719238,0.0551420003175735,-0.0022207615152444,-0.0172441028703033,-0.0212943166441338,-0.0084761204198002,-0.0003936866996809,-0.0097119035199284,-0.0847611924167722,0.1977810096368193,-9.807911959290506,14943.0
10.9,4.800000190734863,147.0,24.543949127197266,-0.055662415921688,-79.78280249495317,40.45899795503113,278.4229210691452,0.0102294096723198,-0.0041583194397389,0.9984188675880432,0.055117379873991,-0.0008723845852783,-0.0163963457541029,-0.0230557909897497,-0.0030064738821238,-0.0014288413804024,-0.0075287939980626,-0.0938956122100353,0.1846647182106972,-9.809561458826066,14943.0
11.0,4.900000095367432,145.0,24.54269790649414,-0.0477106422185897,-79.78280249155813,40.45899797116828,278.4206101970673,0.0102442912757396,-0.0041529280133545,0.9984185099601746,0.0551205389201641,-0.0012055979765152,-0.0179286882537243,-0.02338982391927,0.0049991803243756,0.0037665187846869,0.0056326664052903,-0.0768065671529621,0.1942588479258119,-9.809539824128152,14943.0
11.2,5.0,143.0,24.55021095275879,-0.0636141896247863,-79.7828025205471,40.45899807920356,278.3805131988525,0.0102341268211603,-0.004173157736659,0.9984228014945984,0.0550443492829799,0.0028190862921123,-0.0097727648614569,-0.0211160586904866,0.0020291642285883,0.0030838213860988,0.0013848395319655,-0.0904407939780503,0.1917349521070719,-9.8097947627306,14943.0
11.4,5.199999809265137,146.0,24.55021095275879,-0.055662415921688,-79.78280252178811,40.45899808878743,278.37840176391603,0.0102447224780917,-0.004166517406702,0.9984235763549804,0.0550279207527637,0.0011037393120576,-0.0109308902053579,-0.0213969123346477,0.001425672089681,0.0017517728265374,0.0031356993131339,-0.0868995922710746,0.1882401626743376,-9.810619804859163,14943.0
11.51,5.0,149.0,24.545202255249023,-0.0715659633278846,-79.7828025104384,40.45899822727762,278.3384124116898,0.0102514857426285,-0.0041685681790113,0.9984248876571656,0.0550032258033752,0.0007029632723269,-0.0095546193532616,-0.0201584045866345,0.0018215843010693,0.0027961935847997,0.0055147963576018,-0.082072834521532,0.181182006932795,-9.810431524515153,14943.0
11.7,4.800000190734863,147.0,24.54645347595215,-0.0636141896247863,-79.78280249964702,40.45899839442789,278.2999076919556,0.0102489171549677,-0.0041888430714607,0.9984252452850342,0.0549951195716857,0.0018851334133178,-0.012553238937152,-0.019491577523773,-0.0025173365138471,-0.0043915091082453,-0.0082606375217437,-0.0902965230681002,0.2037544155120849,-9.808330035209655,14943.0
11.8,5.0,148.0,24.53894233703613,-0.055662415921688,-79.78280249889914,40.45899842013522,278.29596746730806,0.0102765932679176,-0.0041957162320613,0.9984275102615356,0.0549485944211483,-0.0009357266520365,-0.0156298644418873,-0.0199738398905895,-0.0051770145073533,-0.0016393006080761,-0.0069071496836841,-0.0896340152621269,0.2019559764303267,-9.808575033545496,14943.0
11.9,4.699999809265137,147.0,24.53768920898437,-0.0715659633278846,-79.78280249814918,40.45899854027342,278.2555558757782,0.0102779548615217,-0.0042273555882275,0.9984289407730104,0.0549204163253307,0.0017937092622664,-0.0094142465497579,-0.0219454930932193,0.0039745550602674,0.002761245239526,0.0094129331409931,-0.0827332866657525,0.1857382852770388,-9.81016723036766,14943.0
12.1,4.699999809265137,145.0,24.53643798828125,-0.1669872552156448,-79.78280254120966,40.45899867785217,278.2163646297455,0.0102548701688647,-0.0042293351143598,0.99843031167984,0.0548990480601787,0.0074512458705289,-0.0072662218258318,-0.0208610391924015,0.001186424284242,0.0017164193559437,0.0035896629560738,-0.0883930807840079,0.2015003138780594,-9.807790337204931,14943.0
12.21,4.5,145.0,24.53017807006836,-0.1431319266557693,-79.78280254811112,40.458998685645646,278.2143008785248,0.0102801481261849,-0.0042305449023842,0.9984307885169984,0.054886594414711,0.0050109242745142,-0.0086248195768087,-0.0208897885778287,-0.0068747526966035,-0.0011660469463095,-0.0044505414552986,-0.0917895273584872,0.1928192999772728,-9.809806457161905,14943.0
12.4,4.300000190734863,149.0,24.52767372131348,-0.1192766055464744,-79.7828025504909,40.45899885200339,278.1786913948059,0.0102978283539414,-0.0042357612401247,0.9984326958656312,0.0548483468592166,0.0040983504178977,-0.0122255980732491,-0.0169064218480353,-0.00568881444633,-0.0036005822475999,-0.0033794371411204,-0.0888310737814754,0.189358588848263,-9.809601219892505,14943.0
12.6,4.300000190734863,150.0,24.53017807006836,-0.1510837078094482,-79.78280255375084,40.45899886462525,278.17699838447567,0.010296082124114,-0.0042237020097672,0.9984332919120787,0.0548379383981227,0.0038551942720437,-0.0143595817854673,-0.017335452250755,0.0037045618519186,0.0032200238201767,0.0043256469070911,-0.0848678036034107,0.1882340596430004,-9.80987954735756,14943.0
12.71,4.199999809265137,152.0,24.531429290771484,-0.1669872552156448,-79.78280257018125,40.45899900426853,278.1412992553711,0.010272042825818,-0.0042198514565825,0.9984365701675416,0.054782960563898,0.0047386125643216,-0.0128128955867289,-0.0157867868970967,0.0073448624461889,0.002355802571401,0.0077764042653143,-0.092195397214964,0.19997075535357,-9.807830682992936,14943.0
12.9,4.199999809265137,153.0,24.53768920898437,-0.1669872552156448,-79.78280257295174,40.45899901699854,278.1397321300507,0.0102517185732722,-0.0042150341905653,0.9984392523765564,0.0547381564974784,0.0025219487606886,-0.0144068259574063,-0.0159486357339253,-0.0021891854703426,-0.0006167248939163,-0.0081122452393174,-0.0905255694687366,0.2050312098674476,-9.807254147529603,14943.0
13.0,4.099999904632568,153.0,24.5289249420166,-0.1590354740619659,-79.7828024560252,40.4589991307131,278.1070172863007,0.0102874431759119,-0.0042156991548836,0.998440146446228,0.0547160655260086,-0.0119626197244807,-0.0116572639400869,-0.0121150190183065,-0.0046160789206624,-0.0008450563182123,-0.0061930124647915,-0.0897693234868347,0.206528901066631,-9.807930670380593,14943.0
13.2,4.099999904632568,151.0,24.525169372558597,-0.1510837078094482,-79.78280252430844,40.45899924966558,278.07486844825746,0.0102526294067502,-0.0042409943416714,0.9984413981437684,0.0546971522271633,-0.0014694661650049,-0.0077838994612254,-0.0109506227189514,0.0038815021980553,0.0009943409822881,0.0051475609652698,-0.0869856559764594,0.1860650167241692,-9.809519943594934,14943.0
13.3,4.0,150.0,24.531429290771484,-0.1431319266557693,-79.78280251536398,40.45899926590364,278.07263923454286,0.0102703720331192,-0.0042624836787581,0.9984431266784668,0.0546601824462413,-0.004056002475437,-0.0110063396993538,-0.0115274403346332,0.0031164591200649,0.0002198068832512,0.0045877764932811,-0.0860419793240726,0.1828294416703284,-9.809359729886056,14943.0
13.5,3.900000095367432,149.0,24.52767372131348,-0.1272283792495727,-79.78280254546063,40.45899938419589,278.041663892746,0.0102619268000125,-0.0042765038087964,0.998443841934204,0.0546478107571601,-0.0010685849447055,-0.0086230046638361,-0.0106266826658382,-0.0012895202962681,-0.0039697606116533,-0.0069650723598897,-0.0892798019014299,0.2054350880160928,-9.807777473330498,14943.0
13.6,4.099999904632568,152.0,24.5289249420166,-0.1351801604032516,-79.78280253714281,40.458999536576975,278.00833106803896,0.0102362986654043,-0.0043081850744783,0.9984472393989564,0.0545876361429691,-0.003021272431739,-0.0130417582509735,-0.012525886864893,-0.0010481681674718,-0.0007943849777802,-0.0094165876507759,-0.0913788152765482,0.2023671270534396,-9.807027860283853,14943.0
13.7,4.0,153.0,24.52642059326172,-0.1828908026218414,-79.78280253183549,40.45899954853029,278.0070645885468,0.0102581353858113,-0.0043327333405613,0.9984496235847472,0.0545386523008346,-0.00373588819736,-0.0146983361003053,-0.0128671434183207,0.0006941522005945,0.0050776745192706,0.0074756466783583,-0.0893413255736231,0.1841124121472239,-9.810364866256712,14943.0
13.9,4.199999809265137,153.0,24.53017807006836,-0.1590354740619659,-79.78280263327906,40.458999663152646,277.97400999832155,0.0102060148492455,-0.0043513043783605,0.9984521865844728,0.0544998236000537,0.0070939926491901,-0.0092255045003838,-0.0142450688269575,-0.004088798072189,-0.0010839273454621,0.0021275130566209,-0.0909567924868315,0.2018197545781732,-9.807250054478644,14942.0
14.1,4.099999904632568,154.0,24.517656326293945,-0.1749390214681625,-79.78280263986622,40.458999673012016,277.9725847320557,0.0102132689207792,-0.0043612956069409,0.9984527826309204,0.0544868744909763,0.0060632737648208,-0.010680375667733,-0.0146361925798376,-0.0013204861897975,-0.0004550881276372,0.0045191161334514,-0.0866806231811642,0.1959887101314962,-9.808474461436273,14942.0
14.21,4.0,153.0,24.52266502380371,-0.1749390214681625,-79.78280263275342,40.45899981095457,277.93973542022707,0.0101946555078029,-0.0043897638097405,0.998455047607422,0.0544461533427238,0.0021864721656281,-0.0122544680721899,-0.0156637828853628,0.0077015026472508,0.0011933057103306,-0.0001177183585241,-0.0909595699142664,0.1910233825072646,-9.80775642335415,14942.0
14.4,4.0,155.0,24.531429290771484,-0.1669872552156448,-79.78280263301376,40.45899982233245,277.9381699638367,0.0102027831599116,-0.0044035571627318,0.9984557628631592,0.054430566728115,0.0004832089807923,-0.0129163537870834,-0.0159094970882296,-0.0006338923703879,-0.0009412835352122,0.0029680205043405,-0.0889782774355262,0.1921782989613712,-9.809992983341218,14942.0
14.5,3.799999952316284,155.0,24.52642059326172,-0.1669872552156448,-79.78280269994814,40.45899986966821,277.9064302520752,0.0102002825587987,-0.0044401134364306,0.9984565377235411,0.054413266479969,0.0048456791898441,-0.0018418053783134,-0.0164421580765239,-0.003528312081471,-0.0029658435378223,0.0006080161547288,-0.0888482499774545,0.1891110506281256,-9.80905918300152,14942.0
14.7,3.799999952316284,155.0,24.52266502380371,-0.1510837078094482,-79.78280269099805,40.45900000708337,277.8764889316559,0.0101913670077919,-0.0044316123239696,0.9984565377235411,0.0544161982834339,0.0036852324761604,-0.0061181323819282,-0.0169319912342477,0.004774231929332,-0.0004776943242177,0.0048849754966795,-0.0893396901804953,0.1949072310514748,-9.807351796030998,14942.0
14.8,3.5999999046325684,155.0,24.543949127197266,-0.0715659633278846,-79.78280269373656,40.45900001341026,277.8747947292328,0.0102128256112337,-0.0044289175420999,0.9984574317932128,0.0543951392173767,0.0016800456811291,-0.0072054714280805,-0.0171871859151699,-0.0033864907454699,-0.0024226596578955,-0.0013115996262058,-0.0895119363628327,0.1896137467212975,-9.80890774011612,14942.0
15.0,3.5,154.0,24.53393363952637,-0.1033730581402778,-79.78280274100148,40.459000116579325,277.8439169006348,0.0101947709918022,-0.0044340644963085,0.9984590411186218,0.054370243102312,0.0044169627647094,-0.0044862346169954,-0.0172882934862685,-0.0051861987449228,-0.0038925639819353,-0.0030990857630968,-0.0895924178045243,0.1947719959169626,-9.807395065426826,14942.0
15.1,3.400000095367432,154.0,24.54269790649414,-0.0715659633278846,-79.78280273521453,40.45900025707261,277.81277681159975,0.0101973703131079,-0.0044309590011835,0.9984593987464904,0.0543621815741062,0.0012240010402921,-0.0093612385403053,-0.017861184456175,-0.0074895694851875,-0.0019957881886512,-0.0076524154283106,-0.0904684037994593,0.1983736980333924,-9.807158837914466,14942.0
15.3,3.299999952316284,153.0,24.54645347595215,-0.055662415921688,-79.78280273583186,40.459000266413724,277.81097436714174,0.0101989740505814,-0.0044272858649492,0.9984601140022278,0.0543503835797309,0.0013250364020293,-0.0107945244671809,-0.0184148962413968,0.0044871661812067,0.00419214181602,0.0053529441356658,-0.0845629352610558,0.184637784473598,-9.80971348643303,14942.0
15.4,3.0999999046325684,152.0,24.53768920898437,-0.0715659633278846,-79.78280279175364,40.459000364785965,277.780917175293,0.0101529853418469,-0.0044258097186684,0.9984618425369264,0.0543265305459499,0.0063009494879305,-0.0081650352083019,-0.0184790658179718,0.0039821756072342,0.0034263965208083,0.0051384265534579,-0.0894712708052247,0.2031123546883464,-9.807151821255683,14942.0
15.51,3.0999999046325684,152.0,24.54645347595215,0.0079517737030982,-79.78280279731764,40.45900037313217,277.7790734844208,0.0101682692766189,-0.0044350046664476,0.998462438583374,0.0543126352131366,0.0042500690967153,-0.0090427077380709,-0.0187548641935428,-0.0028876196593046,-0.0005089473561383,-0.0088152568787336,-0.0900450653862208,0.2027502475865184,-9.805916889309882,14942.0
15.7,3.0999999046325684,150.0,24.54895782470703,-0.0636141896247863,-79.78280274825781,40.45900046079132,277.7469675617218,0.0101947840303182,-0.0044249882921576,0.9984636902809144,0.0542834773659706,-0.0034776170433022,-0.006429388482301,-0.0210128961883379,-0.0059802164323627,-0.0031764877494424,-0.010065771639347,-0.085315508460626,0.1854654030315578,-9.809187821745873,14942.0
15.9,3.0999999046325684,152.0,24.547706604003903,-0.0636141896247863,-79.78280274364828,40.459000467003605,277.7448334770203,0.0101914759725332,-0.0044225747697055,0.9984647631645204,0.0542650297284126,-0.0034984743071613,-0.0077596199492333,-0.0216273118403325,0.0073383930139243,0.0036707872059196,0.0049015777185559,-0.085832822592929,0.1874873519316316,-9.808795473575591,14942.0
16.0,3.2000000476837163,150.0,24.53894233703613,-0.0795177370309829,-79.78280273547753,40.45900057351621,277.716598279953,0.010175734758377,-0.0044074263423681,0.9984666109085084,0.0542365908622741,-0.0046807181363168,-0.0087008285365852,-0.0191770659485976,0.003545350395143,0.0069269444793462,0.0031395582482218,-0.0875258656125515,0.1851936902292073,-9.8089568567276,14942.0
16.1,3.2000000476837163,149.0,24.543949127197266,-0.0715659633278846,-79.78280279934272,40.45900067110262,277.6895399169922,0.0101627651602029,-0.0044132214970886,0.998467743396759,0.0542171671986579,0.0035892254850288,-0.0067188620400572,-0.0181739531582498,-0.0059192511253058,-0.0008317154133692,-0.0028237546794116,-0.0887828525248915,0.1950587835721672,-9.80766169846058,14942.0
16.3,3.2000000476837163,149.0,24.491363525390625,0.9542128443717957,-79.7828028028862,40.45900067843972,277.6877133922577,0.0101698506623506,-0.0044269696809351,0.9984676241874696,0.0542170517146587,0.0034017340929925,-0.0083640214599364,-0.0185962071379107,0.0058079953305423,0.0013358019059523,0.0050145057030022,-0.0876652577519416,0.1908519677259028,-9.808836988806725,14942.0
16.5,3.0999999046325684,148.0,24.520160675048828,0.2385532110929489,-79.78280281665029,40.45900075575156,277.6592085437775,0.0101354038342833,-0.0044521437957882,0.9984723925590516,0.0541325621306896,0.0028715908650412,-0.0044595556107363,-0.0175404888986166,-0.0049258898943662,0.000649788591545,0.0092536145821213,-0.0897728044074028,0.2211325414292514,-9.804120624661444,14942.0
16.6,3.0999999046325684,151.0,24.525169372558597,0.2385532110929489,-79.7828028245447,40.45900085446196,277.63251663017274,0.0101212132722139,-0.0044753537513315,0.9984754920005798,0.0540767759084701,0.0022113449478635,-0.0063781005545155,-0.0156334715387056,-0.0018493479583412,-0.0047635096125304,-0.0102441571652889,-0.0917251166235655,0.2067762017436325,-9.809630455970764,14942.0
16.7,3.0,152.0,24.517656326293945,0.2465049922466278,-79.78280282652428,40.45900086089004,277.6309413986206,0.0101527078077197,-0.0044683720916509,0.998469352722168,0.054184541106224,0.0020684760102113,-0.007149148458661,-0.0161752472333681,0.0037350619677454,0.0018088544020429,0.0070801894180476,-0.0839853582624346,0.1861933996528387,-9.810064319372175,14942.0
16.91,3.0,152.0,24.52642059326172,0.2465049922466278,-79.7828028482448,40.45900094157924,277.6063675956726,0.0101402513682842,-0.0045029073953628,0.9984742403030396,0.0540937185287475,0.004492147216416,-0.006091073127055,-0.0127583357311526,0.0030656268354505,0.0037122620269656,0.0154507402330636,-0.083236256847158,0.1956945769116282,-9.807457045912743,14942.0
17.0,3.0999999046325684,153.0,24.518909454345703,0.2703603208065033,-79.78280285086244,40.45900094780173,277.60510350036617,0.0101647684350609,-0.0045163454487919,0.9984757900238036,0.0540592521429061,0.0013171262956522,-0.0073136427155285,-0.0129609976087454,-0.0028077554889023,0.0011992236832156,-0.0187969394028186,-0.0920275090355426,0.1970272121764719,-9.807175210118292,14942.0
17.21,3.0999999046325684,151.0,24.518909454345703,0.326022744178772,-79.78280286229612,40.45900100608353,277.5821409301758,0.0101552540436387,-0.0045281583443284,0.9984772205352784,0.0540338568389415,0.0014482573701539,-0.0031315656643111,-0.0096179148940243,-0.0035191590432077,-0.003228624118492,-0.0110299093648791,-0.0868761120457202,0.1947508545778692,-9.810587060451509,14942.0
17.4,3.0,152.0,23.099082946777344,27.807353973388672,-79.7828028632592,40.45900100979662,277.5811493473053,0.0101539464667439,-0.0045425677672028,0.9984819293022156,0.0539459399878978,0.0012174434568626,-0.0047750233043207,-0.0100082352749753,0.0066503719426691,0.0069051724858582,0.0085310144349932,-0.086843120958656,0.1913451255485415,-9.813659187555311,14942.0
17.5,3.0,145.0,24.36490631103516,2.3537251949310303,-79.7828029263811,40.45900107908567,277.55728841590883,0.0103821363300085,-0.0042751347646117,0.9984681606292723,0.0541791208088398,0.0034202915793831,-0.0067678152952178,-0.0099765675054669,-0.0037346058525145,0.0390910953283309,0.0123690096661448,-0.043074564775452,0.2374060186743736,-9.807641817927363,14942.0
17.6,3.0,146.0,24.51264953613281,0.3975887000560761,-79.78280291408218,40.45900114163209,277.5355060176849,0.0106350872665643,-0.0040303501300513,0.9984685182571412,0.0541420206427574,0.0011214197800773,-0.0001088352542573,-0.0058540178319446,-0.0358927734196186,-0.0043932846747338,-0.0062736072577536,-0.1018604152835905,0.2156835577078164,-9.799280299544336,14942.0
17.8,3.0,148.0,23.310680389404297,15.076562881469728,-79.78280291902304,40.459001147082965,277.5338819103241,0.0106832943856716,-0.0039453045465052,0.9984723329544068,0.0540680214762687,-0.0010820968527465,-0.0051039135386619,-0.0067161617900524,-0.0289612375199794,0.0184113774448633,0.0024385820142924,-0.0545340339420363,0.2250265860557556,-9.83648788690567,14942.0
17.9,3.0999999046325684,148.0,24.431264877319336,1.6778242588043213,-79.78280292296357,40.459001207518014,277.51337576675417,0.0107991024851799,-0.0039048371836543,0.998469054698944,0.0541088655591011,-0.0007904933447068,-0.0002973327135436,-0.0045873316304283,-0.0101394383236765,-0.046339027583599,-0.050433836877346,-0.0966576998401433,0.2749254088103771,-9.775323672294617,14942.0
18.1,3.0999999046325684,153.0,24.517656326293945,0.1749390214681625,-79.78280295508178,40.459001228639046,277.49513555336,0.0108017232269048,-0.0038982508704066,0.9984736442565918,0.0540238954126834,-0.0011650664458323,0.0037712064065063,-0.0017472110142472,-0.0288010984659194,-0.0310514532029628,-0.0191994253545999,-0.0543778676027432,0.2240815663710236,-9.819583586454392,14942.0
18.2,3.0999999046325684,150.0,24.51640510559082,0.1908425688743592,-79.78280295874542,40.45900122695413,277.49487829971315,0.0107783917337656,-0.0039162174798548,0.998477816581726,0.0539501421153545,0.001958160676684,0.001090885571169,-0.0027850584054498,0.0065001640468835,0.0005356526235118,0.00992560852319,-0.0860701099131256,0.2002946911007166,-9.798159973025324,14942.0
18.4,3.0999999046325684,149.0,24.276010513305664,3.7929961681365967,-79.78280299562564,40.45900125491307,277.47893405723573,0.0107925590127706,-0.0039472626522183,0.9984782934188844,0.0539371073246002,0.0033749964660415,0.0045680253437894,0.0033709513118295,-0.0063028908334672,-0.0048309243284165,-0.005670896731317,-0.0797776744700968,0.2198768153227865,-9.803092684149744,14942.0
18.5,3.0,150.0,24.2221736907959,4.667691230773926,-79.7828030011227,40.45900125216965,277.4792516307831,0.0107777863740921,-0.0038587197195738,0.9984793066978456,0.0539267733693122,0.0046028768406523,0.0019682687055327,0.0026076575588435,0.0042594582773745,-0.0144214611500501,0.0081057725474238,-0.1009297304134816,0.1790388379432261,-9.808408972620963,14942.0
18.7,3.0,147.0,24.070674896240234,7.029367923736572,-79.78280300843086,40.45900127100539,277.46318794059755,0.010904568247497,-0.0037182855885475,0.9984763860702516,0.0539644621312618,0.0011506440982532,0.0036487694282569,0.0065901608360296,-0.0150730777531862,-9.431808575754984e-05,-0.027369737625122,-0.092800940349698,0.2561163413152099,-9.79205021739006,14942.0
18.81,3.0999999046325684,145.0,24.00556755065918,7.999484539031982,-79.78280300955875,40.45900126747561,277.4637994842529,0.0109784873202443,-0.0037038866430521,0.9984758496284484,0.0539614558219909,-0.000677893052145,0.0024906996609037,0.0053064061753087,-0.025709981098771,-0.0500873960554599,0.0094231227412819,-0.1146996948681772,0.1911658352985978,-9.784026668071748,14942.0
19.01,3.2000000476837163,145.0,23.81150054931641,11.180193901062012,-79.78280304154413,40.45900127033014,277.4502801971436,0.0104484502226114,-0.0031413603574037,0.9984928965568542,0.0537865236401557,0.0027018768862124,0.0047926849079537,0.0065632632227467,0.0742421820759773,0.0136345410719513,-0.1212265715003013,-0.1083190486952662,0.3354677720367908,-9.766657513976098,14942.0
19.1,3.2000000476837163,145.0,23.742637634277344,12.365008354187012,-79.78280313605427,40.45900128725928,277.43998766708376,0.010260765440762,-0.0026481652166694,0.9984988570213318,0.0537375286221504,0.0144300060350071,0.007030820669774,0.0202044824250882,-0.0158043038100004,-0.0253257993608713,0.0129669113084673,-0.0349818904045969,0.1164356601051986,-9.825389871597288,14942.0
19.3,3.2000000476837163,146.0,23.53855323791504,15.664994239807127,-79.78280316723011,40.45900126931591,277.4441061096192,0.0099184671416878,-0.001790459966287,0.9985248446464542,0.0533546097576618,0.0114241558767811,0.0132937978471225,0.0265101577140028,-0.0219265054911375,0.0453085675835609,-0.0307585708796978,-0.0202286344114691,0.1390379991196096,-9.884293552637098,14942.0
19.41,3.0,148.0,23.390811920166016,17.565467834472653,-79.78280321406879,40.459001259479095,277.4381506519318,0.0093571944162249,-0.0013114786706864,0.9985276460647584,0.0534166358411312,0.0141855313505739,0.0165004391491088,0.0409916707026191,-0.0371362492442131,-0.0251571256667375,0.0236108638346195,-0.0955930589139461,0.1678326674178242,-9.852168949842453,14942.0
19.6,2.700000047683716,152.0,23.19173622131348,20.921117782592773,-79.78280324992797,40.45900129017932,277.4300482349396,0.0081443199887871,0.0020032091997563,0.9985064268112184,0.0539867579936981,0.0237398261432845,0.0040344030078771,0.0495251609536625,0.0385601446032524,0.066396415233612,-0.0249906349927186,-0.1535557036846876,0.1377277203183621,-9.801610999703408,14942.0
19.7,2.799999952316284,152.0,23.079050064086918,22.718217849731445,-79.7828032796903,40.459001288921925,277.43501115608217,0.0074095493182539,0.0031787795014679,0.9984182119369508,0.0556425563991069,0.0289352906934424,0.0011475482403502,0.0532918134334821,0.0725474953651428,0.0862865522503852,0.0203002542257308,0.0430564018618315,0.1400459220539778,-9.858094518184664,14942.0
19.9,3.0999999046325684,158.0,22.81862449645996,26.7497673034668,-79.78280322111854,40.45900131146164,277.43074107933046,0.010592128150165,0.0023254659026861,0.9983558058738708,0.0562872774899005,-0.0111764602975563,-0.0039797516112708,0.1600106813765919,-0.1146755144000053,0.0618587397038936,-0.0625270083546638,-0.001308570317924,0.1280963876936584,-10.098629089593889,14942.0
20.0,3.2000000476837163,157.0,22.68966293334961,28.61843490600586,-79.78280319538179,40.4590013128916,277.451673992157,0.0168781112879514,0.0004016741586383,0.998269259929657,0.056333303451538,-0.0252950476021736,-0.0117931931692774,0.2671709345115405,-0.1453687995672226,-0.0245643500238657,0.1377159357070922,0.0885707265045493,-0.0943116416037082,-10.870804202556611,14942.0
20.2,3.2000000476837163,158.0,23.09031867980957,22.217256546020508,-79.78280314880344,40.45900139132046,277.45401788520815,0.0073284972459077,-0.000930433452595,0.9984644651412964,0.0549011155962944,-0.046231768867584,-0.0064373423769615,0.3183185196661265,0.074939951300621,0.0381675884127616,-0.0209355745464563,-0.019559244706761,0.1080122251901775,-10.171757876873016,14942.0
20.4,3.0999999046325684,161.0,23.03773307800293,22.77388000488281,-79.78280308134434,40.45900139066722,277.4849202709198,0.004338408820331,0.0011802722001448,0.9985338449478148,0.053945492953062,-0.0527844530320809,-0.0025012550609554,0.3015641213351031,0.0279107000678777,0.0503851324319839,-0.0216592215001583,0.0278106869710609,0.0492181931482628,-9.77806777060032,14942.0
20.5,3.0,162.0,22.98639869689941,23.42592620849609,-79.78280307094981,40.459001568960815,277.48309589195253,0.0072510074824094,0.0031696127261966,0.9986068606376648,0.0521714799106121,-0.0360366402664516,-0.0260798630241243,0.195431463591952,0.015845350921154,0.1291673928499221,0.0265797395259141,0.0158991960575804,-0.065596513710916,-9.5274835896492,14942.0
20.6,3.0,162.0,22.98264312744141,23.68833541870117,-79.78280276060819,40.45900168828501,277.4682300167084,0.0071791289374232,0.0060626878403127,0.9986526370048524,0.0510354079306125,-0.0724986306610158,-0.0340752569278592,0.1479203732749126,-0.0326738804578781,0.0546470806002616,-0.0662107542157173,0.0642345921183005,0.23307418204844,-9.414098476767538,14942.0
20.71,3.0999999046325684,160.0,22.887487411499023,24.714113235473643,-79.7828026658131,40.4590017145668,277.48054910469057,0.0079116420820355,0.0054762582294642,0.998662292957306,0.0508054420351982,-0.0809692856535881,-0.0472937633321734,0.1070881852585868,0.0301194675266742,0.0965473428368568,0.0532801747322082,-0.0545214761327952,-0.2037131560966373,-9.437478568553924,14942.0
20.91,3.0999999046325684,161.0,22.80986022949219,26.169288635253903,-79.78280269153895,40.45900198587112,277.4888982849121,0.0032931289169937,0.0016517838230356,0.9986634254455566,0.0515549704432487,-0.0741555127796993,-0.0704783242731583,0.0884414012822719,0.001845444086939,-0.1407448947429657,-0.0612085796892643,-0.156526984591037,0.1664432776160538,-9.684153301119805,14942.0
21.0,3.400000095367432,159.0,22.781063079833984,25.962541580200195,-79.78280261232767,40.45900204609119,277.49793363380434,-0.0011461750837042,-0.0003859934222418,0.998627245426178,0.0523669905960559,-0.0570662162639475,-0.0778102468291132,0.0981722652535642,0.1307255327701568,0.0659874454140663,0.1032432839274406,-0.0998875921312719,0.0426872324198484,-9.863559325933458,14942.0
21.2,3.400000095367432,159.0,22.72972869873047,26.455551147460927,-79.78280222872506,40.45900218394839,277.5053446369172,0.0023230786900967,-0.0057849823497235,0.9984790086746216,0.0547798126935958,-0.069813406546059,-0.0683836445759034,0.1074161912204246,0.0011955954832956,-0.0174874980002641,0.0625549778342247,-0.0399032360035926,-0.1116586402337998,-9.816221437454224,14942.0
21.4,3.799999952316284,156.0,22.72597312927246,26.19314384460449,-79.78280213804321,40.459002238509306,277.5171558933258,0.0009191581048071,-0.0053114024922251,0.9984005093574524,0.0562799088656902,-0.0828861154543687,-0.0631740751849384,0.1269678868560153,-0.1324177682399749,-0.0919884666800499,-0.0890867412090301,-0.0235904956189915,0.2030897880904376,-9.92465454339981,14942.0
21.5,3.5,154.0,22.777305603027344,26.12952995300293,-79.78280176026637,40.45900246219743,277.51534391212465,-0.0014550763880833,-0.0052013779059052,0.9982645511627196,0.0586418136954307,-0.0778661044916699,-0.0508446446034339,0.1733943387304591,0.1067669615149498,0.0883153900504112,0.0615824721753597,-0.0444108819589018,-0.1178717088606208,-10.002793225049976,14942.0
21.7,3.299999952316284,155.0,22.80234718322754,24.74592018127441,-79.78280180522387,40.4590025876397,277.49025274086,-0.0011635405244305,-0.0039604287594556,0.9982855916023254,0.0583864264190197,-0.0529108860438111,-0.0474490308455601,0.1831979291278593,0.0387172549962997,0.1018076613545417,0.0754936710000038,0.0190113925770856,-0.1318322194553911,-10.031546323299407,14942.0
21.9,3.400000095367432,153.0,22.66086578369141,26.93265914916992,-79.78280165312336,40.45900266838795,277.5323407726288,0.001254386617802,0.0008046653238125,0.998348355293274,0.0574310757219791,-0.0672839796626383,-0.0544215936265887,0.2193330940105946,-0.1504914611577987,0.0248502884060144,-0.1956745535135269,-0.0004994527157396,0.3138635527342558,-9.852308113574985,14942.0
22.01,3.2000000476837163,161.0,22.73974418640137,25.85121726989746,-79.78280155934793,40.45900284673683,277.5113833026886,0.0019622433464974,0.0028045536018908,0.9983012080192566,0.0581641793251037,-0.0452355241297059,-0.0608399053328926,0.2013958358773769,0.1126405298709869,0.0528233870863914,0.1396398544311523,0.0290866225166246,0.0615118498541414,-9.878460370302196,14942.0
22.1,3.2000000476837163,163.0,23.6612548828125,12.126455307006836,-79.78280149358837,40.45900312167614,277.5177247600556,0.0027534654363989,-0.0005118093104101,0.9982277750968932,0.0594436302781105,-0.0209318512651095,-0.0652554844619244,0.1736539304943734,0.1126084104180336,0.0535027720034122,0.1129783168435096,0.0808249199297279,-0.1276129600033164,-9.485806390643118,14942.0
22.3,2.799999952316284,165.0,22.514375686645508,29.35795021057129,-79.78280144976435,40.45900316827571,277.52737761306764,-0.000798012362793,-0.0057548065669834,0.9981853365898132,0.0599364526569843,-0.0339435270382243,-0.060782009536048,0.0265589407904807,0.0490816943347454,-0.0575512163341045,0.0077200271189212,-0.1131714154221117,0.0122472352953627,-8.717297481894494,14942.0
22.41,2.799999952316284,167.0,22.3641300201416,31.544687271118164,-79.78280140836792,40.45900322002127,277.52574492263795,-0.0039665917865932,-0.0050014327280223,0.998020887374878,0.0625599473714828,-0.0230493035179271,-0.0684377450673644,-0.0369380611926909,0.0797311887145042,0.1258880943059921,0.0742296129465103,-0.2160746998898684,0.0291822107881307,-9.165028139948843,14942.0
22.6,2.5999999046325684,167.0,22.151281356811523,34.5822639465332,-79.78280119016769,40.45900360356068,277.5183758811951,-0.0057633267715573,0.0079338420182466,0.9979059100151062,0.063934326171875,-0.0275186593577193,-0.0383950115513866,0.2736625508396335,-0.2416373193264008,-0.1118798702955246,-0.2013895660638808,0.1639622491970658,-0.0616215034201741,-10.99114457845688,14942.0
22.7,2.400000095367432,168.0,22.101198196411133,36.411170959472656,-79.78280115701315,40.459003645663735,277.5533006267548,0.0049074622802436,0.0021088060457259,0.9982286691665648,0.0592536330223083,-0.0248905358003108,-0.0482859295396577,0.4256414870486177,-0.137390524148941,-0.1188589632511138,-0.1179595813155174,0.0673502215929329,-0.07244997122325,-11.318495099544526,14942.0
22.9,2.200000047683716,171.0,22.03734397888184,36.657676696777344,-79.78280111919251,40.45900369127189,277.60557461547853,0.0123986983671784,-0.003842611098662,0.9984435439109802,0.0542416758835315,-0.0229888043199073,-0.0559624134033908,0.6309192952712274,-0.0858753621578216,-0.0221378654241561,-0.0699224099516868,-0.0798275311198085,0.0634288366651162,-11.78074556350708,14942.0
23.0,1.7000000476837158,172.0,21.796951293945312,40.30754089355469,-79.78280121908236,40.459003993834926,277.71994281578066,0.008361903950572,-0.0039277668111026,0.9988242387771606,0.0475911125540733,-0.0362137299537379,-0.0528314956774345,1.083296533276307,0.149752601981163,0.0523125939071178,0.0301069654524326,-0.0602236397238448,-0.0216034175944514,-12.223272199630737,14942.0
23.21,1.7999999523162842,167.0,21.664234161376957,42.03307723999024,-79.78280092148023,40.45900420657457,277.9419601039886,-0.0012086909264326,0.0019653984345495,0.9990890622138976,0.0426132418215274,-0.0940531705599219,-0.0393200377658247,1.5765720833547672,0.1150932163000106,-0.0032401322387158,-0.0329298712313175,-0.0046631088014692,-0.0224660212313756,-12.305662976503372,14942.0
23.3,2.0,171.0,21.67424964904785,41.62753677368164,-79.78280079331769,40.45900423364435,278.11271620559694,-0.0039954297244548,0.0025648192968219,0.9991632103919984,0.04062544927001,-0.1101563798065312,-0.0287928282219684,1.83700415553342,0.0181662011891603,-0.0843853056430816,-0.156103104352951,0.0390395976835861,-0.0640175873273983,-12.377801245450971,14943.0
23.41,2.0,172.0,21.72933959960937,41.10271835327149,-79.78280058076669,40.459004457501,278.24582625198366,-0.0043080202303826,-0.0001195976146846,0.9992045164108276,0.0396459177136421,-0.1146065510339856,-0.0371996851680545,2.051113496647716,0.0213405396789312,-0.0329914204776287,0.027861351147294,0.0791861006990075,-0.0487713333964347,-12.339180386066436,14943.0
23.6,2.200000047683716,169.0,21.64545249938965,42.30343627929688,-79.78280030782108,40.459004765327066,278.62099171447755,-0.008129933848977,-0.0105870170518755,0.9991024732589722,0.0402021817862987,-0.0888475920485315,-0.0466816663247199,2.468590316636976,0.0378436110913753,-0.2140832841396332,-0.0209716856479644,0.1443344710115343,-0.0025987173384055,-12.154528824090958,14943.0
23.8,2.299999952316284,170.0,21.415075302124023,34.995758056640625,-79.78280024006436,40.459004779943264,278.8797938899994,-0.0091514531522989,-0.0180054735392332,0.9989222288131714,0.0417916923761367,-0.0960023565840787,-0.0651720980090133,2.69968123660159,-0.0362430848181247,-0.151187002658844,0.0444640219211578,0.00025377658254,0.0018712186440825,-12.138688716888428,14943.0
23.9,2.400000095367432,170.0,21.40255546569824,34.41527938842773,-79.78280011548324,40.45900514492229,279.2706277446747,-0.0023226214107126,-0.0194428656250238,0.9987307786941528,0.0464055202901363,-0.0576899708954475,-0.0915864765819608,2.871878180737283,-0.1984179466962814,0.0908315405249595,0.0573486685752868,-0.1331054141186178,-0.0724087163759395,-11.149565531015396,14944.0
24.1,2.5999999046325684,174.0,21.475173950195312,33.97792816162109,-79.78279994548572,40.45900573313693,279.5786998348236,0.0109149031341075,-0.008327042683959,0.9987725615501404,0.0475925281643867,-0.0134046724601919,-0.0515048598508349,2.860156588281752,-0.0966214537620544,0.1108327507972717,0.001472734613344,-0.0714909593341872,-0.0945298615191132,-10.566434408426288,14944.0
24.2,2.799999952316284,176.0,21.5991268157959,32.15697479248047,-79.78279987313496,40.45900570432909,279.86752075719835,0.0148252313956618,-0.0079473936930298,0.9987312555313108,0.0474649332463741,-0.0238792118946556,-0.0212641292350098,2.9123527183805384,-0.1323761045932769,-0.0020907109137624,-0.017993725836277,-0.1572223464399576,-0.142506421264261,-10.392883200645446,14944.0
24.4,3.0,175.0,21.55906105041504,32.538658142089844,-79.78279975526486,40.45900567028509,280.1598406286836,0.0154761187732219,-0.0094801550731062,0.9987758994102478,0.0460152588784694,-0.0306407454893607,-0.0164561526720864,2.9366708579205305,0.0542076677083969,0.0090016098693013,-0.0238796323537826,-0.1094408918358385,-0.0633505799062549,-10.124831632375717,14945.0
24.5,3.0999999046325684,175.0,21.90087127685547,36.48273849487305,-79.78279936941003,40.45900712843361,280.16127198952444,0.0051177819259464,-0.01349906809628,0.9989669919013976,0.0430882088840007,-0.0931869707749185,-0.1199511098661211,2.6826567406395774,0.1197775080800056,0.0620920695364475,0.0257345456629991,-0.2561618582345545,-0.1744481706619262,-10.044796113967896,14945.0
24.71,3.299999952316284,176.0,22.15879440307617,32.093360900878906,-79.78279880943235,40.45900887116663,280.0690068231821,0.0001980496163014,-0.0087991142645478,0.999045431613922,0.0427890792489051,-0.1783390166414624,-0.2168001755075639,2.418163737466876,0.0195359699428081,0.1208872944116592,0.0225378088653087,-0.2159537904337048,-0.235084820240736,-10.275662899017334,14945.0
24.9,3.299999952316284,176.0,22.273983001708984,30.08156013488769,-79.78279856925583,40.4590089978129,280.31163759547474,0.0010150441667065,-0.0066873347386717,0.9990444183349608,0.0431805327534675,-0.1967794132897745,-0.1996199813959266,2.424141561795905,-0.0347030349075794,0.0325016938149929,-0.0567166246473789,-0.1824136863648892,-0.0942799021862447,-9.893058528900148,14945.0
25.01,3.400000095367432,185.0,22.339088439941406,28.284460067749023,-79.78279922165761,40.45900954013703,280.1489067898989,0.0010008634999394,-0.0061901817098259,0.9990315437316896,0.0435504205524921,-0.1368374510956624,-0.1796879105541773,2.2146624725275506,-0.0045136916451156,0.0332458466291427,0.008806156925857,-0.1857226257026195,-0.0630951662175357,-9.65934882760048,14945.0
25.11,3.400000095367432,186.0,22.272729873657227,29.930477142333984,-79.7827979230092,40.459009976584646,280.6556881146431,0.0005074245855212,0.0002956513199023,0.999077081680298,0.0429511815309524,-0.2177479382747946,-0.1919599462809186,2.167082438134069,0.032547578215599,0.1152506843209266,-0.0013348764041438,-0.0412829870358109,-0.1705509648844599,-9.373735147118571,14945.0
25.3,3.5,193.0,22.273983001708984,29.055782318115234,-79.78279763232015,40.45901012165172,280.87071413564684,-0.0009669808787293,0.0045024282298982,0.9990534782409668,0.0432550720870494,-0.2325201896818329,-0.1838323362112426,2.1308292869819003,0.113895945250988,0.0469476543366909,0.0220956839621067,-0.07155863171909,-0.1292305739410221,-9.431262393593787,14945.0
25.4,3.5,193.0,22.14627265930176,31.81504821777344,-79.78279722189455,40.4590105003409,281.3841358499527,-0.0096495607867836,0.0058159222826361,0.9988811612129213,0.0459310673177242,-0.2405430056113638,-0.1969893874819189,2.141300025904663,0.0770454630255699,-0.0001206587185151,0.0422367788851261,-0.0664213274326175,-0.085996864400804,-9.693639823794364,14946.0
25.6,3.5999999046325684,199.0,22.18132972717285,30.821075439453125,-79.78279653391381,40.45901076067366,281.89405060577394,-0.0162709504365921,0.0067021949216723,0.99862802028656,0.0493209101259708,-0.2569431060976037,-0.2378263523869426,2.167070214363225,0.0030136017594486,0.0215741861611604,0.0062494985759258,-0.1854714877903461,0.0051327589899301,-9.744557377696037,14946.0
25.7,3.5999999046325684,201.0,22.23141288757324,30.28035545349121,-79.78279627462742,40.45901096969564,282.11184001731874,-0.0150034073740243,0.0081791458651423,0.9986136555671692,0.0497888028621673,-0.2570713927178512,-0.2648984017309313,2.163314509030452,-0.1004697605967521,-0.0531102381646633,-0.0755242705345153,-0.1251924959477037,-0.1934697296284139,-9.794192637205123,14947.0
25.8,3.5,203.0,22.34409713745117,28.30036354064941,-79.78279603306795,40.45901122526942,282.328227766037,-0.010814388282597,0.0086212269961833,0.9986776113510132,0.0495170392096042,-0.2332569669888828,-0.2800239447783717,2.147268619524823,-0.0917581617832183,-0.0896043330430984,0.0262089390307664,-0.0265995595883578,-0.1337971397303045,-9.6076793217659,14947.0
26.0,3.5,204.0,22.376649856567383,27.74374008178711,-79.78279554680644,40.45901154637298,282.8429365234375,-0.0123578989878296,-0.001786851324141,0.9988452792167664,0.0463927052915096,-0.1677191352554597,-0.2960794961673157,2.0468077884186817,0.158035859465599,0.0806022435426712,0.0910609066486358,-0.0625386300589889,-0.2441791957430541,-9.20104523420334,14947.0
26.2,3.5999999046325684,207.0,22.21138000488281,30.375776290893555,-79.78279527385062,40.45901154736708,283.16303993034364,-0.0123079363256692,-0.0003447271883487,0.9989338517189026,0.0444922484457492,-0.1762945856371572,-0.3113099288018973,2.0235221783539905,0.0460431799292564,0.1531617939472198,0.0448188744485378,-0.1727787540480494,-0.3402790438011289,-9.150349289774896,14948.0
26.4,3.700000047683716,208.0,21.970985412597656,34.327808380126946,-79.78279490993205,40.4590120810954,283.5542333202362,-0.0098325330764055,0.0128343189135193,0.9990311861038208,0.0409318841993808,-0.1618554615116751,-0.3021875019243733,1.887360655214252,0.0509812273085117,0.1622321456670761,0.0665855482220649,-0.0120550971594639,-0.2074700652435422,-9.18027124643326,14948.0
26.5,3.700000047683716,212.0,22.0135555267334,33.28612518310547,-79.78279444196664,40.459012312518894,284.09268070030214,-0.0118996258825063,0.0178654473274946,0.9990091919898988,0.0389864780008792,-0.1464779314902081,-0.2738772362703852,1.867854680792666,0.0991699248552322,-0.0007359267328865,0.0624344237148761,0.0952069508191198,0.064231563443318,-9.235219286084176,14949.0
26.6,3.799999952316284,212.0,22.02482414245605,33.413352966308594,-79.78279417879068,40.45901212268639,284.4794402198792,-0.013027511537075,0.0135533828288316,0.9990848898887634,0.0384192392230033,-0.1586811824511273,-0.2579810655336603,1.9331868012174829,-0.0064363973215222,-0.1159637942910194,0.0741592049598693,0.1271192996855825,-0.1805876374617219,-9.615547919869424,14949.0
26.8,3.900000095367432,217.0,22.02983283996582,32.73745346069336,-79.782794016027,40.45901235682162,284.6793799476624,-0.0161832794547081,0.0108896279707551,0.9990622401237488,0.0386554636061191,-0.1452294646760312,-0.2851978711150081,1.9314750206732043,0.0906409472227096,-0.0128056593239307,-0.081495314836502,0.045894832201302,-0.0577479194803163,-9.751272904872897,14949.0
26.9,3.900000095367432,222.0,21.992271423339844,33.61214828491211,-79.7827933871714,40.459012230428726,285.3192162590027,-0.0221126489341259,0.0113028921186923,0.9989117980003356,0.0394797623157501,-0.1607144084016186,-0.2830044119715512,2.0194402294228966,0.0685811415314674,0.0035271493252366,0.0182949639856815,0.0912442470900714,-0.2142499117925763,-9.820599832534793,14950.0
27.1,3.900000095367432,229.0,21.994773864746094,33.34973907470703,-79.78279281868899,40.45901155088399,286.1492066459656,-0.0262162704020738,0.0096727609634399,0.9987650513648988,0.041080929338932,-0.1667872942423139,-0.2297637386419224,2.185525389225852,-0.0235071890056133,-0.0399098433554172,-0.0067658759653568,0.1118753800727427,-0.3086257631331682,-9.897204204797744,14951.0
27.2,3.900000095367432,233.0,21.809471130371094,36.49069213867188,-79.78279274194304,40.45901179702353,286.36706972885133,-0.0257839821279048,0.0093190232291817,0.998747944831848,0.0418447479605674,-0.1439881294985485,-0.2397450769889003,2.173482850384055,-0.018258536234498,0.0624444521963596,-0.0052918563596904,0.0725881756469607,-0.2081007422693074,-9.694251442551613,14951.0
27.3,4.0,242.0,21.929668426513672,33.548534393310554,-79.78279269662009,40.45901204705355,286.58476877975465,-0.0244071073830127,0.0110144754871726,0.9987064599990844,0.0432249195873737,-0.121035140896638,-0.2496166983738675,2.188227949234109,-0.0563981607556343,0.0696938037872314,-0.0054920953698456,0.1058374264184385,-0.2118453174456954,-9.920361517667772,14951.0
27.5,4.099999904632568,244.0,21.95345687866211,33.40540313720703,-79.78279173839046,40.45901139580295,287.38122750091554,-0.0216334983706474,0.0186934284865856,0.9985042810440063,0.0466017797589302,-0.116430561901369,-0.1852273249288158,2.311928840112526,-0.0566729046404361,0.087587833404541,0.0103400088846683,0.2356784405373037,-0.279169500656426,-9.799812396168711,14952.0
27.7,4.099999904632568,249.0,21.914644241333008,33.6280517578125,-79.78279103441504,40.45901034672524,288.0554256515503,-0.019464774057269,0.0215096119791269,0.998444139957428,0.0476228930056095,-0.1339095366677749,-0.1104014532710528,2.4676419122412585,-0.0210508834570646,0.0581426098942756,0.0285405945032835,0.1815953319892287,-0.1645473727583885,-9.7745214343071,14953.0
27.9,4.099999904632568,250.0,21.88709831237793,34.04154586791992,-79.78279095565084,40.4590107198975,288.5485982971192,-0.0141268959268927,0.0188871324062347,0.9985633492469788,0.048113364726305,-0.0995828401673238,-0.1236747303225239,2.4751043386193534,-0.065963864326477,-0.047022134065628,-0.0081633729860186,0.2530253569409251,-0.1907123837247491,-9.85149418115616,14953.0
28.0,4.199999809265137,253.0,21.8670654296875,34.622024536132805,-79.78278977587746,40.45901030521048,288.95659733581545,-0.0156193999573588,0.0152632817625999,0.9986426830291748,0.0472863651812076,-0.1192937826650204,-0.1228241896359592,2.5265711372781894,0.1020070910453796,-0.0519429631531238,-0.0118916202336549,0.1186977285705506,-0.2084676002338528,-9.82351525425911,14953.0
28.1,4.099999904632568,254.0,21.984758377075195,32.20468521118164,-79.78278813035645,40.45900894626593,289.96344090271,-0.0204637311398983,0.0083249909803271,0.9987358450889589,0.045152448117733,-0.1967290956896358,-0.094116742501695,2.6959699819097755,0.034562811255455,-0.0159855000674724,0.0171709489077329,0.0723745558457449,-0.2500848287343979,-9.812412561178208,14954.0
28.3,4.099999904632568,256.0,21.801958084106445,35.504669189453125,-79.78278801017086,40.45900907745324,290.23315716552736,-0.0204937495291233,0.0063540255650877,0.998793125152588,0.0441809743642807,-0.1996949775717399,-0.1188078820493873,2.6973168230791686,-0.0713049322366714,-0.0144999343901872,-0.0772996172308921,0.0651790681947022,-0.2556848350726068,-9.879192441701887,14955.0
28.4,4.099999904632568,256.0,21.783178329467773,36.08515167236328,-79.78278879679796,40.45900936349186,290.8915176467896,-0.0143979638814926,0.0072084474377334,0.9989188313484192,0.0436111129820346,-0.1180753467117903,-0.1117160380351582,2.780857202114895,-0.0536605715751648,0.0158846825361251,0.0070841521956026,0.1974562333524227,-0.2766759189963341,-9.961412479877474,14955.0
28.51,4.199999809265137,255.0,21.67675399780273,36.93598937988281,-79.78278876438691,40.45900949242904,291.1718607025146,-0.013882870785892,0.0080638816580176,0.9989532232284546,0.0428346581757068,-0.1048484215882028,-0.1059646349924476,2.830922922422584,-0.0300553999841213,0.0246929805725812,-0.0917614176869392,0.2306421057879925,-0.2421545425057411,-10.228099308013917,14956.0
28.7,4.199999809265137,255.0,21.686769485473643,37.10297775268555,-79.78278996506776,40.45900967161421,291.8366403656006,-0.0102883214130997,0.0093620382249355,0.9990625381469728,0.0409951545298099,-0.0584765363189262,-0.0781501317804433,3.0195847654785326,-0.0589841417968273,0.0333534367382526,-0.1092805936932563,0.1133946328796446,-0.4245013513416052,-10.54982363820076,14956.0
28.9,4.099999904632568,254.0,21.30990219116211,32.109264373779304,-79.78278871236981,40.45900964765608,292.44640732574464,-0.0109100211411714,0.0110886357724666,0.9990147948265076,0.0415629148483276,-0.0999927503539196,-0.0566498162293347,3.1001096215378783,0.2325683534145355,0.0286016855388879,0.0839563235640525,0.2668708509765565,-0.2268856717273593,-10.3558726644516,14957.0
29.1,4.199999809265137,252.0,21.30990219116211,33.11118698120117,-79.78278863664843,40.45900975414881,292.75739670562746,-0.0185685399919748,0.0109007218852639,0.9988234639167786,0.0434524565935134,-0.1279336378527547,-0.0675158590777277,3.1162607048345787,0.1314175873994827,-0.0283800233155488,0.0345587395131588,0.197651548627764,-0.3711781067401171,-10.104567521810532,14957.0
29.2,4.099999904632568,247.0,21.103315353393555,39.7270622253418,-79.78278903518179,40.45900996515471,293.0080080108643,-0.023837985470891,0.0075258472934365,0.9986862540245056,0.0447316952049732,-0.1371948745708378,-0.0675512458953063,3.0998489121029245,0.0723784565925598,-0.1454417258501052,-0.0559715703129768,0.0759091063449159,-0.4632293609529734,-9.929043463468552,14958.0
29.3,4.199999809265137,251.0,21.8132266998291,33.429256439208984,-79.78278898783505,40.459010196525576,293.63312149810787,-0.0219063870608806,-0.0012865854660049,0.9987162351608276,0.045654758810997,-0.1447308969104035,-0.1175244246712775,3.1772765326695662,-0.1138657256960868,-0.102870762348175,-0.0226401686668396,-0.0100942128337919,-0.2162555981241166,-10.30958142757416,14958.0
29.51,4.099999904632568,247.0,21.864561080932614,32.45119094848633,-79.78279016464296,40.459010626179854,293.9063777999878,-0.0183640718460083,-0.0028029470704495,0.998763620853424,0.0461118221282959,-0.0345226786464169,-0.145737742243772,3.1900245920248302,-0.0514044463634491,0.0016562003875151,0.0780536606907844,-0.03196288845269,-0.3271649450808763,-10.06138466477394,14958.0
29.61,4.099999904632568,244.0,21.977245330810547,31.838903427124023,-79.78279029419164,40.459010880134734,294.5290918426514,-0.005753755569458,0.0004161220276728,0.9990046620368958,0.0442322827875614,0.0420332077875545,-0.1217990200271143,3.2108201866125494,-0.1756838113069534,-0.0303380545228719,-0.1335114687681198,0.0377168250270187,-0.1703708340972662,-9.901526466608049,14959.0
29.8,4.0,232.0,21.770658493041992,34.44708633422852,-79.78279058152589,40.4590110983054,295.17134857940675,0.0036824159324169,-6.610275158891454e-05,0.9992402791976928,0.0387999154627323,0.122640815918932,-0.1027057287048401,3.2309076831386987,-0.1175964400172233,-0.0267728436738252,-0.026303831487894,0.0538860116992145,-0.0235434894869104,-9.834553627967836,14960.0
29.9,4.0,225.0,21.902122497558597,31.92637252807617,-79.78279088464052,40.45901132490871,295.486143119812,0.0084570292383432,-0.0020391012076288,0.999297261238098,0.0364619418978691,0.1450381251029761,-0.104361526714754,3.2636014102005104,-0.1079357713460922,-0.0787367597222328,-0.0087249483913183,0.0322513868752867,-0.1089288950152695,-10.129850882291798,14960.0
30.01,3.900000095367432,219.0,21.96472549438477,31.838903427124023,-79.78279100351763,40.45901142540037,295.8134756164551,0.0109037281945347,-0.0043577975593507,0.9993654489517212,0.0336301364004612,0.1571101116317209,-0.1164277321908979,3.281525767805737,0.0296063516288995,-0.0143897524103522,-0.0445390343666076,-0.0973178413510322,-0.09412990283221,-10.00990694761276,14960.0
30.2,3.700000047683716,215.0,22.08993148803711,29.206865310668945,-79.78279144942309,40.45901174814322,296.45531178283693,0.0036647357046604,-0.0037784602027386,0.9994825720787048,0.0317322313785553,0.143413477187713,-0.1279738303705821,3.2747208613226406,0.1426328271627426,-0.0300535485148429,-0.0335139483213424,-0.0446576892770826,-0.0439666762948036,-9.738055273890495,14961.0
30.4,3.700000047683716,206.0,21.94344139099121,31.306133270263672,-79.78279153020831,40.45901184274761,296.7818555908203,-0.0002481944684404,-0.0066802147775888,0.9994204640388488,0.0333794578909874,0.0888681826629704,-0.120947541284605,3.2506655972301486,0.0058276606723666,-0.169942244887352,0.033935822546482,-0.0811182857025414,-0.1059444944187998,-9.595301350951194,14961.0
30.5,3.700000047683716,206.0,22.118728637695312,28.483253479003903,-79.78279198514659,40.45901215100201,297.439982421875,-0.0028262704145163,-0.0113384807482361,0.9991738796234132,0.0389243029057979,0.079888657309806,-0.1454827867785501,3.166752040397472,0.0758620053529739,0.03629831969738,0.0706839710474014,-0.1018619684502482,-0.1557702452503145,-9.40334369301796,14962.0
30.71,3.5999999046325684,201.0,21.849536895751957,32.72154998779297,-79.78279211499043,40.459012336373966,298.10045338439943,-0.0019939846824854,-0.0097477752715349,0.9990583062171936,0.042233757674694,0.0629572709535309,-0.1095508899037643,3.095903968239296,-0.1353504061698913,-0.051127977669239,-0.0910399556159973,-0.0609585662093013,-0.0350325967278331,-9.317669704556463,14963.0
30.9,3.5999999046325684,199.0,21.962221145629886,31.33794021606445,-79.7827922076517,40.45901237810449,298.4089803771973,-0.0008527420577593,-0.0084417443722486,0.9990596771240234,0.0425187535583972,0.0680594090064822,-0.0926964153159479,3.0739140985412337,-0.0558235682547092,0.054123006761074,0.0276988446712493,-0.0880659382045269,-0.0569841177994385,-9.50121731221676,14963.0
31.01,3.400000095367432,196.0,22.124988555908203,28.22084617614746,-79.78279210329427,40.45901242770621,298.7593469696045,-0.0007436932646669,-0.0054782619699835,0.999094307422638,0.0421913787722587,0.0886133529446108,-0.0737319499530248,3.087732860911036,0.0838517248630523,0.1120776608586311,0.0521251671016216,-0.0211565509904176,-0.1217209400609135,-9.522774242162702,14963.0
31.1,3.400000095367432,194.0,21.88960266113281,32.626129150390625,-79.78279220932136,40.4590126199778,299.4106512145996,-0.0008123914594762,0.0036531768273562,0.9991551041603088,0.0409277155995368,0.0647365352947087,-0.0209552802517054,3.0770195726999456,-0.036843653768301,0.0514165088534355,-0.1616884917020797,-0.0330327507597394,0.0661138324113562,-9.480469636917112,14964.0
31.3,3.5,194.0,22.00979995727539,29.97818756103516,-79.78279228604485,40.459012643828565,299.7178545074463,-0.0003900325100403,0.0052098692394793,0.9992228746414183,0.0390704236924648,0.0509219840623881,-0.0049156452062103,3.0692385232189565,-0.0603885352611541,-0.0064314529299736,-0.1012173071503639,-0.0593619657028466,-0.1351594678871333,-9.667369453310966,14964.0
31.4,3.5,192.0,21.98976707458496,30.375776290893555,-79.78279234290228,40.45901267471853,300.0242757873536,0.0014517290983349,0.0031542447395622,0.99930077791214,0.0372276119887828,0.0444478103028753,-0.0064554971474357,3.060392592425482,0.0218482874333858,-0.0512252710759639,-0.0169703867286443,-0.0286412428412586,-0.1302315076254308,-9.690363628864286,14965.0
31.51,3.400000095367432,191.0,21.89335823059082,31.711673736572266,-79.7827920315939,40.45901268981032,300.6747980194092,-0.0001741103333188,-0.0019956463947892,0.9993120431900024,0.0370341539382934,0.0057725075518296,-0.0515265900252165,3.1047415129303384,0.0390503443777561,0.019335564225912,0.1368405073881149,-0.2289580345898867,-0.2447160432301461,-9.85012008547783,14965.0
31.7,3.5,192.0,21.958465576171875,30.852882385253903,-79.78279185588181,40.45901280021503,301.3143377380371,-0.0011986684985458,-0.0039103804156184,0.9992183446884156,0.0393210835754871,-0.0188810929488206,-0.0623776724379387,3.1485339379764645,0.0957071185111999,-0.0341716632246971,0.1166174039244651,-0.0373521460639312,-0.2319568887725472,-9.843799245357513,14966.0
31.9,3.5,194.0,22.02983283996582,29.016023635864247,-79.78279182267245,40.45901284460364,301.62936878967287,-0.0049504339694976,-0.006235416047275,0.9991519451141356,0.0403988063335418,-0.0371423299644444,-0.074873056024296,3.1512397594207475,0.0720187053084373,-0.0607973225414753,-0.0954167693853378,-0.134908092431724,0.038518441747874,-9.825757076740263,14966.0
32.0,3.5,195.0,22.073654174804688,28.864938735961918,-79.78279173196195,40.45901298117583,302.2691850738525,-0.0096298344433307,-0.0085047557950019,0.9990931153297424,0.0405943617224693,-0.0810901166152052,-0.0796411182542677,3.165503443920536,0.0135847991332411,-0.0558471158146858,0.0875696614384651,-0.0640153260994702,-0.3671445512026549,-9.81295869112015,14967.0
32.2,3.400000095367432,197.0,22.028579711914062,29.707826614379893,-79.7827919767912,40.45901325580488,302.9192056732178,-0.0073576578870415,-0.0058461534790694,0.9991691708564758,0.0396561063826084,-0.0449670214218962,-0.0802630796966036,3.1603620041378733,0.0864651352167129,0.0995331853628158,0.000445134966867,-0.1681059699319303,-0.0248036512546241,-9.709196341037751,14967.0
32.3,3.400000095367432,200.0,21.942188262939453,30.88468933105469,-79.78279197647497,40.45901327623322,303.2349729614258,-0.0071658710949122,-0.0044956570491194,0.9991948008537292,0.0392213724553585,-0.0527136416773299,-0.0577210420049923,3.156272092866288,-0.0978960022330284,-0.031786635518074,-0.0937582775950431,-0.0364309948962181,-0.0581515737902373,-9.77349407851696,14968.0
32.41,3.299999952316284,204.0,22.061134338378903,29.381805419921875,-79.78279210158105,40.45901342375548,303.56047344970705,-0.0082478616386652,-0.0040089981630444,0.9991931915283204,0.0391017943620681,-0.0193820911357818,-0.0429048388666658,3.177417206386706,0.0748060718178749,0.0202276818454265,-0.0345888882875442,-0.0126614420022815,-0.1738851203396916,-9.797653019428251,14968.0
32.7,3.299999952316284,205.0,21.829504013061523,32.379623413085945,-79.78279215415607,40.45901355769213,304.19456959533693,-0.0106220729649066,-0.0037963890936225,0.9992080330848694,0.0381602235138416,-0.0357449528297597,-0.0313066182065179,3.1662174346303487,0.1416003108024597,0.1257842630147934,0.0511079356074333,0.0029066143557429,-0.1430691974982619,-9.686159480810169,14969.0
32.8,3.299999952316284,206.0,21.974742889404297,29.83505630493164,-79.782792178847,40.45901355611617,304.5100832061768,-0.0108319474384188,-0.0038663181476294,0.99921977519989,0.0377840250730514,-0.0520721498765493,-0.0207993697408606,3.147490471940128,-0.0495767258107662,-0.0252366457134485,-0.0765270814299583,-0.0596464601531624,-0.0644594997866079,-9.6606305372715,14969.0
32.91,3.299999952316284,210.0,22.03609275817871,28.07771301269531,-79.78279220052606,40.45901355014193,304.8252744750977,-0.0102341827005147,-0.0038840202614665,0.9992663264274596,0.0367015711963176,-0.0516597639174709,-0.0230875632712886,3.1564805337629696,-0.0190311148762702,-0.0155609091743826,-0.0064193732105195,-0.160662738494575,-0.2717360815778374,-9.744933938384056,14969.0
33.1,3.299999952316284,212.0,22.18383407592773,26.11362648010254,-79.78279217680208,40.459013539312096,305.4644861297608,-0.0083749964833259,0.0027349046431481,0.9993095993995668,0.0360927395522594,-0.043992410904371,-0.0025586483664349,3.1566358407824664,0.0536248870193958,0.050847802311182,0.0098451422527432,-0.1317572928685695,-0.1337925441842526,-9.63812694311142,14970.0
33.2,3.299999952316284,213.0,21.997278213500977,29.54084014892578,-79.78279203024184,40.45901364375224,306.0925359802246,-0.015944417566061,0.0064384471625089,0.9990389943122864,0.0403183475136756,-0.0805308935128969,0.0261102132349345,3.10509888265319,-0.0385615341365337,-0.136689007282257,0.0315998867154121,-0.0190339294821024,-0.2596551675908267,-9.460459295511246,14971.0
33.4,3.400000095367432,216.0,21.818235397338867,31.576494216918945,-79.78279203169788,40.45901366422029,306.40232754516603,-0.0174545142799615,0.0019334264798089,0.998969316482544,0.041855938732624,-0.0914074798852426,0.0068160587834781,3.0925222232419034,0.0497572869062423,-0.0640321597456932,0.0136680779978632,-0.031399580030702,-0.3696679171174765,-9.66221513271332,14971.0
33.5,3.400000095367432,218.0,22.04610824584961,28.57072448730469,-79.78279195187963,40.4590137190233,307.0369806365967,-0.0126457083970308,-0.0080616530030965,0.9990010857582092,0.0420962832868099,-0.1065732680571234,-0.0533626284511818,3.1642406557683462,-0.1539880186319351,-0.0820273756980896,-0.1590825468301773,-0.0898248537629842,-0.1146298023685813,-9.98891544342041,14972.0
33.7,3.5,219.0,22.001035690307614,29.35795021057129,-79.78279188412009,40.45901389177797,307.6556043701172,-0.0100755365565419,-0.0087884115055203,0.9990091919898988,0.0424492247402668,-0.0683029146999682,-0.0787388610256348,3.1553162654638363,0.074098065495491,0.0201572906225919,-0.0746352151036262,-0.216579990684986,-0.19716352539137,-9.84874949812889,14972.0
33.8,3.5999999046325684,219.0,21.93968391418457,30.53481101989746,-79.78279186334616,40.459013907105934,307.9712705688477,-0.012914634309709,-0.0076185087673366,0.9990205764770508,0.0416305996477603,-0.0815014692531267,-0.0766331583213724,3.1561500529914994,0.0547852031886577,0.0480177961289882,0.0985880196094513,-0.2121495553851128,-0.4490106866508721,-9.77917230963707,14972.0
34.0,3.799999952316284,218.0,21.96973419189453,29.61240577697754,-79.78279177615067,40.45901409315208,308.2672643737793,-0.0153873777016997,-0.0063225673511624,0.999079167842865,0.0395483970642089,-0.1101059030608324,-0.0729562272116765,3.1607449136416426,0.0910443514585495,-0.0246617496013641,0.005018288269639,-0.2297036824934185,-0.3664647392928601,-9.837097166776658,14973.0
34.21,3.900000095367432,217.0,22.054872512817383,27.831209182739247,-79.78279159621383,40.45901425444031,308.87575245666505,-0.0195926968008279,-0.0038685877807438,0.9992240071296692,0.033950287848711,-0.1580660309648872,-0.074266723837416,3.157664619933024,0.0218685697764158,-0.019792053848505,-0.0738507509231567,-0.3254783157259226,-0.2728313016146421,-9.7999942445755,14973.0
34.3,4.0,216.0,22.02357292175293,28.39578437805176,-79.78279149564409,40.45901433006993,309.5082063751221,-0.0224741641432046,-0.0087650623172521,0.9992077946662904,0.031653594225645,-0.1701648009353046,-0.0889329467043548,3.154167461251587,-0.0315874032676219,-0.0825900733470916,-0.0947838500142097,-0.1841337362118065,-0.3139855402708054,-9.86551112651825,14974.0
34.4,4.099999904632568,215.0,21.912139892578125,29.96228408813477,-79.78279122082537,40.4590145136319,309.7884550170898,-0.0230564288794994,-0.012691555544734,0.9991660714149476,0.031216587871313,-0.1852051137189352,-0.116942203925639,3.1288472456601726,-0.0722633227705955,-0.1123552769422531,0.0541866831481456,-0.2697840434499085,-0.2513878441974521,-9.754055594801905,14974.0
34.51,4.199999809265137,214.0,22.0135555267334,28.538917541503903,-79.78279116585264,40.4590145628772,310.1021947937012,-0.0224109832197427,-0.0153477806597948,0.9991411566734314,0.0312937311828136,-0.1817203818428786,-0.1387568099179577,3.130663430018035,0.0176422465592622,0.0643792822957038,-0.0769659280776977,-0.146229124199599,-0.2374674875289202,-9.789188005328176,14975.0
34.8,4.199999809265137,216.0,21.915895462036133,29.9066219329834,-79.78279111426984,40.45901485414287,310.7038965301514,-0.0216587763279676,-0.017708882689476,0.9990761280059814,0.0326217003166675,-0.1515508966745735,-0.1616906564081736,3.121393569652972,0.0005553594091907,-0.0320723392069339,0.1456246823072433,-0.256998686157167,-0.4863951157405973,-9.78163866519928,14975.0
34.91,4.300000190734863,214.0,21.99352264404297,28.8887939453125,-79.78279108973773,40.4590148934193,311.0167398529053,-0.0231404397636652,-0.01729741320014,0.9990003108978271,0.0341129601001739,-0.1432359059095033,-0.153584715808529,3.121182785176228,0.0694111585617065,0.0324890092015266,0.0572606176137924,-0.3161660400778055,-0.2499491367861629,-9.762431146502497,14976.0
35.01,4.300000190734863,214.0,21.928415298461918,29.59650230407715,-79.78279092591997,40.45901512978428,311.61435223388673,-0.0249969847500324,-0.0165483057498931,0.9988473653793336,0.0374868884682655,-0.1468350849438758,-0.1414421081732941,3.1127718963546367,0.0730008408427238,0.0814673975110054,0.0167639590799808,-0.1972987422533333,-0.3962158110737801,-9.79874469459057,14976.0
35.2,4.400000095367432,211.0,21.93467712402344,29.509033203125,-79.7827908339263,40.459015355237824,311.89963818359377,-0.0222733542323112,-0.0163879040628671,0.9988789558410645,0.0384207814931869,-0.160387311422108,-0.1333387040283618,3.1028999650219142,-0.150965616106987,-0.1619488596916198,-0.0547130070626735,-0.282874990850687,-0.2497241286188364,-9.741950104236604,14976.0
35.4,4.5,210.0,21.95721244812012,29.81120109558105,-79.78279083954948,40.45901539803975,312.5213155822754,-0.0191302839666605,-0.0155717320740222,0.9989442229270936,0.0387556999921798,-0.1194660375575695,-0.1262131176684192,3.1053997372522324,-0.0785591676831245,-0.0017305128276348,-0.0999887734651565,-0.209191924072802,-0.2727781650424004,-9.865409384965895,14977.0
35.5,4.5,210.0,21.88083839416504,30.638185501098643,-79.78279087451568,40.4590155433881,312.80509091186525,-0.0199583861976861,-0.0140236420556902,0.9989753961563108,0.0381205528974533,-0.0968893787600017,-0.1124928095271768,3.0846314687982432,0.0712631419301033,0.0013191852485761,0.1468795090913772,-0.2206203618831932,-0.4760189026594162,-9.6785557615757,14977.0
35.6,4.5,211.0,21.843276977539062,30.495052337646484,-79.78279091243749,40.45901569452924,313.4035596923828,-0.0213122945278882,-0.0128603773191571,0.9990169405937196,0.0366841480135917,-0.0961094040605624,-0.0876496467103245,3.0703679553172125,0.1113050282001495,0.0065629095770418,0.0415485501289367,-0.2825647777877748,-0.4669979645311833,-9.785235287547112,14978.0
35.8,4.599999904632568,213.0,21.819488525390625,31.512880325317383,-79.7827909404186,40.459015699888354,313.7117338256836,-0.0231330096721649,-0.0105641782283782,0.9990004897117616,0.0367606692016124,-0.1036397032754529,-0.0861827454796176,3.082882641864612,-0.0130613753572106,0.0694988667964935,-0.0794402509927749,-0.1866002927720546,-0.2667616724967957,-9.84957746386528,14978.0
35.9,4.599999904632568,215.0,21.87332534790039,30.32011413574219,-79.78279091756036,40.45901584638965,314.3063421325684,-0.023769024759531,-0.0074740452691912,0.9989799857139589,0.0376611985266208,-0.1253487226581485,-0.0727873400772838,3.1075312448179964,-0.06458780169487,0.0271488185971975,0.0097766425460577,-0.3724637267366052,-0.3444227097183466,-9.957299548387528,14979.0
36.1,4.699999809265137,215.0,21.910886764526367,30.065656661987305,-79.78279102570266,40.459016080002094,314.9026212768555,-0.0192834138870239,-0.0115693835541605,0.9990658164024352,0.0369040891528129,-0.0897642056203321,-0.0944561161052174,3.126259245675413,-0.0435615815222263,-0.0427195690572261,-0.1643856465816497,-0.1977272700704634,-0.5557376481592655,-10.054163353443148,14979.0
36.2,4.699999809265137,215.0,21.80571556091309,32.053600311279304,-79.78279106959765,40.45901611063011,315.2155408935547,-0.0205104779452085,-0.01461738999933,0.9990485310554504,0.0356075391173362,-0.0768657900440126,-0.1114836559276518,3.1278790044748304,0.028497140854597,-0.0468787960708141,0.0817028507590293,-0.1412278727442026,-0.4190932250395417,-9.902014124393464,14980.0
36.3,4.599999904632568,213.0,21.8282527923584,31.14709854125977,-79.78279111933789,40.45901613820497,315.52892208862306,-0.0240454766899347,-0.0161117259413003,0.9990003108978271,0.0340687781572341,-0.0880273207270655,-0.1229031547502655,3.1369334851674875,0.0095878019928932,0.0093911765143275,0.0501843951642513,-0.4096736164391041,-0.3145900692790747,-9.843339654207233,14980.0
36.6,4.599999904632568,214.0,21.92340850830078,29.74758529663086,-79.78279119662214,40.45901626509708,316.1287832336426,-0.0270645208656787,-0.0163434594869613,0.9990279674530028,0.0307173542678356,-0.1163471038923008,-0.1056233824893614,3.1336507662673925,-0.0754951760172844,0.0710982084274292,-0.091025598347187,-0.2758437688462436,-0.4463434426859021,-9.904123799800873,14981.0
36.7,4.599999904632568,215.0,21.86581420898437,30.60637855529785,-79.78279112526468,40.45901638865261,316.420809753418,-0.0239821504801511,-0.0134045565500855,0.9991626739501952,0.0303188245743513,-0.1404418554750623,-0.0921990991232382,3.138256727326649,-0.1877713650465012,0.0126122087240219,0.0257587656378746,-0.3474513481557369,-0.5671924898028374,-9.950024442672731,14981.0
36.9,4.599999904632568,215.0,21.988513946533203,28.79337310791016,-79.78279122009033,40.4590163398625,317.0512113647461,-0.0209690351039171,-0.0060883522965013,0.9992256760597228,0.0327310785651207,-0.0936264783013868,-0.0293492880381019,3.1668397085389763,0.1205155774950981,0.0890894085168838,0.1283614188432693,-0.1790375588648021,-0.5120607014000416,-9.996871165037156,14982.0
37.0,4.599999904632568,215.0,21.93968391418457,29.779394149780277,-79.78279135237261,40.45901648828976,317.66359997558595,-0.0295032560825347,-0.007975541986525,0.9988613724708556,0.0366338528692722,-0.1082667828383171,-0.0164984383800771,3.1760263174483665,-0.0041432939469814,-0.2086071372032164,-0.0277555249631404,-0.1797316233627498,-0.4927958799898625,-9.945823802948,14982.0
37.1,4.599999904632568,217.0,21.992271423339844,28.65024185180664,-79.78279140415076,40.45901660246043,317.9577550964356,-0.0327444411814212,-0.00851446762681,0.9987120628356934,0.0378105007112026,-0.119125079816832,-0.0333413572592815,3.157255122510215,0.0748213827610015,0.0076616611331701,0.1121413558721542,-0.1685892971232533,-0.5540266066789628,-9.796831485629085,14982.0
37.3,4.5,218.0,21.845781326293945,30.75746154785156,-79.782791485456,40.45901659050123,318.2738027648926,-0.0324277468025684,-0.0072433492168784,0.9987199902534484,0.0381364598870277,-0.137626737741928,-0.0387037397523244,3.1594134902537574,-0.0891043469309806,-0.0053828014060854,0.0952408164739608,-0.1629239846952259,-0.5229108678549529,-9.782418099045756,14983.0
37.5,4.400000095367432,218.0,22.13249969482422,25.86712074279785,-79.7827916284717,40.459016628540944,318.89161968994136,-0.0275692213326692,-0.0076340395025908,0.9989240169525146,0.0365033373236656,-0.1048036531499992,-0.0309372964110282,3.1937246303165656,-0.1294621676206588,0.0675616338849067,-0.1800437122583389,-0.1538099479302764,-0.3175898736342788,-9.990604119300842,14983.0
37.6,4.300000190734863,219.0,22.08993148803711,26.86109161376953,-79.78279174132646,40.4590166130541,319.21209240722663,-0.0221529603004455,-0.0068665905855596,0.9991036653518676,0.0354120358824729,-0.0891725960546858,-0.0286858958008754,3.212567688517169,-0.2121194899082184,-0.0393536873161792,-0.0684067532420158,-0.1252060084976256,-0.3542511848732829,-9.972795839309692,14984.0
37.7,4.300000190734863,220.0,22.137508392333984,26.32832336425781,-79.78279201402998,40.4590166774148,319.8290433959961,-0.0162538662552833,-0.0053632645867764,0.9991818070411682,0.0366445258259773,-0.023365417740492,-0.0239062336816286,3.174225179958922,0.0055887098424136,-0.0187294948846101,-0.0526618435978889,-0.1223611370846629,-0.3509600429981947,-9.72791854083538,14984.0
37.9,4.300000190734863,221.0,21.89461135864257,29.96228408813477,-79.7827922556562,40.459016768090045,320.4520330505371,-0.0237140748649835,-0.008897922001779,0.99899023771286,0.0371088944375515,-0.0507927480786662,-0.0294848093226417,3.1532616934279774,0.0989247560501098,-0.0976802855730056,0.0994440019130706,-0.1865085645765066,-0.4569039892405272,-9.699486454725266,14985.0
38.1,4.300000190734863,222.0,22.118728637695312,26.376033782958984,-79.78279233983419,40.45901676266225,320.7680425720215,-0.0255322717130184,-0.0098661510273814,0.9989177584648132,0.0376046299934387,-0.078727284017628,-0.0511136376378749,3.1650813722219486,0.0586962923407554,-0.0739200785756111,0.1450461894273758,-0.1730796663835644,-0.6248173116892577,-9.925877780914307,14985.0
38.21,4.300000190734863,221.0,22.028579711914062,27.77554702758789,-79.78279247095556,40.45901678092096,321.0798215942383,-0.0254327524453401,-0.0101871071383357,0.9988878965377808,0.0383714959025383,-0.0745913418459444,-0.0448461621336083,3.165964458267353,0.0795778185129165,0.0045661521144211,0.1108579486608505,-0.2255414699390531,-0.6051515905559063,-9.775217252969744,14986.0
38.4,4.300000190734863,221.0,21.932172775268555,29.62830924987793,-79.78279270627554,40.45901673903154,321.7076597290038,-0.0336430594325065,-0.0084749078378081,0.9984896183013916,0.0426017083227634,-0.071554988648088,-0.0411145698632796,3.1100143472444,0.0569564513862133,0.116158090531826,0.0084576560184359,-0.2678336133062839,-0.3871002211421729,-9.54126079916954,14986.0
38.52,4.199999809265137,220.0,21.885847091674805,28.849035263061523,-79.78279282314989,40.45901683437452,322.013884552002,-0.0305886641144752,-0.0047584390267729,0.998571753501892,0.0435453988611698,-0.088114700072534,-0.0331073898804615,3.0977371796604207,-0.1154913306236267,0.0349532663822174,-0.0769658163189888,-0.2574454134330153,-0.3134308587759733,-9.565697482824326,14987.0
38.61,4.199999809265137,219.0,21.869569778442383,30.41553497314453,-79.7827928724685,40.45901683150388,322.6500120239258,-0.0159819740802049,-0.0001570978492964,0.998991310596466,0.0419646874070167,-0.0047704701291911,0.006611300773704,3.1221026497316613,-0.0754744634032249,-0.0239405632019042,0.0851548910140991,-0.1461594144254923,-0.3822960756719113,-9.757478554844855,14987.0
38.72,4.199999809265137,221.0,21.870820999145508,29.78734588623047,-79.78279303254638,40.45901682829401,322.9624013977051,-0.0127712674438953,-0.0011881319805979,0.9991329908370972,0.0396091863512992,0.0296312365142404,0.0043221626393178,3.1319350711822875,-0.088694080710411,-0.0648561939597129,-0.0107511570677161,-0.172331387232989,-0.2637402334436774,-9.81896144270897,14987.0
38.9,4.199999809265137,216.0,22.0035400390625,28.01409912109375,-79.78279328314639,40.459016845992345,323.58902645874025,-0.0115674305707216,-0.0055384677834808,0.9993513822555542,0.0336531214416027,0.0489812209923715,-0.022927725011871,3.1368590118419446,-0.0441117249429225,-0.058729637414217,-0.1757902354001999,-0.204395946431905,-0.1121069754939526,-9.73994567871094,14988.0
39.1,4.199999809265137,215.0,22.04610824584961,26.94856262207031,-79.78279341680671,40.45901685794081,323.9014959411621,-0.012120041064918,-0.007713143248111,0.9994073510169984,0.0312827229499816,0.0378322193526256,-0.0495901282283584,3.1155646830806205,-0.0011959943221881,0.0044194408692419,-0.0084207262843847,-0.2510380162484944,-0.3606289622560144,-9.669598411917685,14988.0
39.2,4.099999904632568,214.0,21.95345687866211,28.92060089111328,-79.78279374612312,40.459016885586536,324.52544689941413,-0.0152413910254836,-0.0083364695310592,0.9993659257888794,0.0310812108218669,0.0320062007651452,-0.0715988880448555,3.0737171484091763,0.0272423140704631,-0.041534673422575,0.0372897461056709,-0.2965405368246138,-0.3538006569072604,-9.50053435742855,14989.0
39.41,4.0,210.0,21.843276977539062,29.58059883117676,-79.78279398385698,40.45901695040242,325.1451368408203,-0.014750188216567,-0.0063820211216807,0.9993009567260742,0.0337547287344932,0.0062883962479558,-0.0518445911664229,3.0484761822843134,-0.0737271085381507,0.0160674471408128,0.0728586539626121,-0.1904767043888569,-0.3250272395834327,-9.484346925616263,14990.0
39.5,4.0,211.0,21.848285675048828,30.391679763793945,-79.7827941106306,40.45901696662785,325.44932080078127,-0.0131639568135142,-0.0062348186038434,0.999253273010254,0.0357875637710094,0.0234270742142122,-0.0553297396837261,3.039222838002777,-0.0328955128788948,0.0224050525575876,0.1022327989339828,-0.0702066503930837,-0.2593828517943621,-9.742833033800128,14990.0
39.6,3.900000095367432,209.0,21.89461135864257,30.21674156188965,-79.78279416151489,40.45901702835409,325.76389599609377,-0.0114825395867228,-0.0065586352720856,0.9991848468780518,0.0381437875330448,0.031739695332299,-0.0431773267969446,3.0659047289753927,-0.0620396733283996,0.0179723091423511,-0.0591669045388698,-0.1281936524715274,-0.1763321435451507,-9.719800851345065,14990.0
39.8,3.799999952316284,207.0,22.018564224243164,27.55289649963379,-79.78279443515233,40.45901704804492,326.3767423706055,-0.0107964677736163,-0.0075412215664982,0.9990819692611694,0.0407659411430358,0.0576714693248337,-0.0508180283051334,3.062502361467112,0.0366194322705268,0.037594236433506,-0.0516284368932247,-0.1614694349840283,0.0501478775963187,-9.770655840039254,14991.0
40.0,3.700000047683716,207.0,21.88960266113281,29.683971405029297,-79.78279474359853,40.45901713958114,326.9840879516602,-0.0108903255313634,-0.0059523964300751,0.9991410970687866,0.0395358279347419,0.0466950892170659,-0.0263832825884885,3.0330251656165257,-0.1032900810241699,-0.0881842374801635,-0.1999024301767348,0.0535153987258672,0.0560498560778796,-9.559254435896872,14991.0
40.11,3.700000047683716,209.0,21.90963554382324,28.538917541503903,-79.78279483440812,40.45901720634871,327.2870969848633,-0.0083742225542664,-0.0082138990983366,0.9992290735244752,0.0374664664268493,0.0641197146229969,-0.0270605662595148,3.0368162812139365,-0.070009671151638,-0.0191272497177124,-0.1060025170445442,-0.0531738665141165,-0.0652953912410885,-9.685383555293084,14992.0
40.31,3.5999999046325684,211.0,22.021068572998047,27.7596435546875,-79.78279498695136,40.459017207632655,327.5902395324707,-0.0051771043799817,-0.005288784392178,0.9993103742599488,0.0363872237503528,0.0728361261092375,-0.03704275198726,3.0224502759866305,-0.1868353635072708,-0.0255943350493908,-0.0729653537273407,-0.0449795784987509,-0.0732133526355028,-9.62456374168396,14992.0
40.4,3.5999999046325684,212.0,21.937179565429688,29.48517799377441,-79.78279522993314,40.4590172918173,328.18503094482423,-0.0002518371329642,0.0001012254651868,0.9993528127670288,0.0359716080129146,0.0892037253760381,0.0109315451467825,2.9593423692986054,-0.1413893401622772,0.0172905009239912,-0.0572193972766399,-0.0206129380920901,-0.1272477465681731,-9.426590468287468,14993.0
40.6,3.5,210.0,21.823244094848643,30.16107940673828,-79.78279535576651,40.45901727446249,328.4788236694336,0.0014018485089764,0.0013666446320712,0.9993090033531188,0.0371172428131103,0.1001159135016448,0.0228759333692532,2.921794526254238,0.02227065525949,0.0351335667073726,0.0926428437232971,0.0267033545183949,-0.2818002908863127,-9.525563364028931,14993.0
40.7,3.5999999046325684,213.0,22.004791259765625,27.99819564819336,-79.78279566119593,40.45901734982052,329.0739889221192,-0.0005756454775109,0.0009505940251983,0.9991966485977172,0.0400619059801101,0.0803670796465926,0.0256474199472811,2.9468075977150177,0.1370029747486114,0.1180545762181282,0.0702230334281921,-0.0150049329455941,-0.1874330824613571,-9.714122035503388,14994.0
40.9,3.5999999046325684,216.0,21.884593963623047,30.15312576293945,-79.78279572436105,40.459017373945045,329.6487875061036,-0.0039720074273645,0.0033484864979982,0.999248743057251,0.0384075194597244,0.010666118344986,0.0291831502459894,2.892481093693162,0.178280234336853,0.052257977426052,-0.1661049872636795,-0.1472916911914944,-0.1451672698371112,-9.552823083400726,14994.0
41.0,3.5999999046325684,216.0,21.910886764526367,29.21481704711914,-79.78279573021614,40.45901735870297,329.9358015136719,-0.0118166292086243,0.0012849532067775,0.9993176460266112,0.0349728725850582,-0.0405238909181812,0.040447684407561,2.841991919514223,0.0894283950328826,-0.1607203185558319,-0.1480290591716766,0.051376003017649,-0.1032262426335364,-9.292396284341812,14994.0
41.2,3.5999999046325684,220.0,21.944692611694336,28.38783264160156,-79.78279591024153,40.45901732224135,330.222868927002,-0.0190370343625545,-0.0007059826748445,0.9993073344230652,0.0319705083966255,-0.0616760192991224,0.0189350220932279,2.8169308214151605,0.1273161619901657,-0.0769272223114967,-0.0121712647378444,-0.0111431861913297,-0.4380336356163025,-9.355295952558516,14995.0
41.4,3.5999999046325684,223.0,21.78067398071289,30.685895919799805,-79.78279594155704,40.45901731816835,330.77863598632814,-0.0216548703610897,0.0029905354604125,0.9993844628334044,0.0274410508573055,-0.1050674020238403,-0.0087205362342382,2.7345218599056413,-0.1035801172256469,0.0054267682135105,0.0396234467625618,-0.0901722514629364,-0.4527439145743847,-9.413361142873764,14995.0
41.5,3.5999999046325684,225.0,21.70429992675781,32.586368560791016,-79.78279601782937,40.459017375040055,331.3356351928711,-0.0146213388070464,0.0030138741713017,0.9995067119598388,0.0276324413716793,-0.0450569975068616,0.0123783648716124,2.7843520808817352,-0.0179196689277887,-0.0305845253169536,0.0108620664104819,-0.0272386237140744,-0.1894866611436009,-9.919396727085116,14996.0
41.6,3.700000047683716,225.0,21.696786880493164,32.594322204589844,-79.7827960239796,40.45901742808567,331.6129217224121,-0.0133342128247022,0.0005241679027676,0.9995042085647584,0.0285204891115427,-0.0341397429494899,0.0100470371148883,2.854690324875526,-0.0341331586241722,-0.0020383505616337,-0.0227887611836195,-0.0721444496372714,-0.1758418545126915,-10.179197874069212,14996.0
41.7,3.700000047683716,224.0,21.62166404724121,33.54058074951172,-79.78279608784673,40.45901743467505,331.9010229187012,-0.0121480217203497,-0.0022889485117048,0.999497652053833,0.0291833635419607,-0.021668886453092,-0.0046083661714254,2.9138273898106872,-0.0262140035629272,0.0219564270228147,-0.0669743865728378,3.722118213772774e-05,-0.1103624130226671,-10.3886474776268,14996.0
41.9,3.700000047683716,223.0,21.82073974609375,30.74155807495117,-79.78279610518717,40.45901759378828,332.4563856201172,-0.0086052631959319,-0.0053595900535583,0.9995123147964478,0.0295362100005149,-0.0235725353256098,-0.029457650007925,2.9690565944021707,0.0320102646946907,0.061240117996931,0.0084844129160046,0.0040945218969136,-0.261757917702198,-10.167349076271057,14997.0
42.01,3.700000047683716,226.0,21.84077262878418,30.272403717041016,-79.78279613146134,40.459017588940185,332.7542181091309,-0.0077351029030978,-0.0046081361360847,0.9995509386062622,0.0285811442881822,-0.0381867289723428,-0.0167545249310888,2.985001507323452,-0.0184615813195705,0.04864052683115,-0.0991642475128173,0.0184481207001954,-0.054605283178389,-9.984756903648377,14997.0
42.2,3.700000047683716,227.0,21.6091423034668,33.103233337402344,-79.78279627817828,40.459017693245066,333.30422497558595,-0.0122006582096219,0.0001329226943198,0.9995546936988832,0.0272321738302707,-0.0432408441051432,0.0020595954082055,2.988296366413336,0.1149957254528999,0.1068790107965469,-0.0001480846112826,0.0551100988872349,-0.2034028151258826,-10.111353800296785,14998.0
42.4,3.5999999046325684,228.0,21.86080551147461,30.16107940673828,-79.78279631432011,40.45901779323646,333.85393048095705,-0.0188959911465644,0.0064750602468848,0.9993654489517212,0.0294908508658409,-0.0870717365503677,0.0368083640609806,2.9826425232127862,0.0857898890972137,0.0800470113754272,-0.0403082594275474,0.144617722928524,-0.3292282082140446,-10.156677907705308,14998.0
42.5,3.5999999046325684,231.0,21.736852645874023,31.6560115814209,-79.78279632719263,40.45901777806309,334.15206051635744,-0.0198497511446476,0.0069041023962199,0.9993106126785278,0.0306058805435895,-0.104052795361747,0.0508352355153487,2.9774622324442683,0.0219646543264389,0.0102517362684011,-0.0117427157238125,0.1912296247668564,-0.3609131734818221,-9.844793272018434,14999.0
42.7,3.5,234.0,21.92716407775879,28.26060485839844,-79.78279638321806,40.45901797394498,334.4051504211426,-0.0181516669690608,0.0071643111295998,0.9993113279342652,0.0315606519579887,-0.1058700039801858,0.034104716860956,2.95557468313237,-0.0531302765011787,-0.0214420184493064,0.0483221150934696,0.0634628921281546,-0.5853941412270071,-9.981986492872238,14999.0
42.8,3.5,235.0,21.76439666748047,30.84493064880371,-79.78279639346658,40.45901798797826,334.9995489196777,-0.012508176267147,0.0058100884780287,0.999418079853058,0.0312004629522562,-0.0894418785846726,0.0353568124753093,2.9793658774443763,-0.0515379272401332,-0.0981402322649955,-0.0072023211978375,0.1371797631215304,-0.3616149489954114,-9.930231617689133,14999.0
43.01,3.5999999046325684,239.0,21.87958526611328,28.77746963500977,-79.78279647854264,40.45901818929868,335.55881787109377,-0.0189937688410282,-0.0003638659254647,0.9993435144424438,0.0308518055826425,-0.0991472142018442,0.0031777138024102,2.9932119312892924,0.0745383575558662,0.0134985484182834,-0.1386531442403793,0.1904135179147124,-0.3687846586480737,-9.968220977783202,15000.0
43.1,3.5999999046325684,242.0,21.88960266113281,29.175058364868164,-79.78279638706476,40.45901830683168,335.8234319763184,-0.0225338730961084,-0.0024731601588428,0.9992747902870178,0.0305950511246919,-0.122868905642974,-0.0096617495871335,2.972229510823175,0.0713045448064804,-0.0772464200854301,0.0162650700658559,0.0074633723543956,-0.5214923333376646,-9.953919857740402,15000.0
43.2,3.700000047683716,244.0,21.898366928100582,28.713855743408203,-79.78279636760631,40.45901830437757,336.1215238647461,-0.0227704290300607,-0.0019472114508971,0.9992725849151612,0.0305303782224655,-0.1558559813695549,-0.0173802612343533,2.985951183955321,-0.0161047149449586,0.1002993062138557,-0.0544911101460456,0.0285274551110342,-0.3062581524252891,-9.962750322818756,15001.0
43.41,3.700000047683716,244.0,22.126239776611328,25.42182159423828,-79.78279630396477,40.45901841525249,336.6895742492676,-0.0191956982016563,0.0071908175013959,0.9993547797203064,0.0294942073523998,-0.1667285603532746,0.010503862036627,2.986043489035442,-0.1325995624065399,0.024072803556919,-0.0358915925025939,0.0549486060999333,-0.5291588735952973,-9.89505710721016,15001.0
43.6,3.700000047683716,243.0,22.0035400390625,26.86109161376953,-79.78279626253635,40.45901840935449,336.9877920227051,-0.0199158657342195,0.0085940090939402,0.999327838420868,0.0295519959181547,-0.1448618525339846,0.0426644210219862,2.969827263634872,0.1284082978963852,-0.0065824319608509,0.1099617257714271,0.2119871306978166,-0.5992637367546558,-9.787071313261986,15001.0
43.7,3.700000047683716,241.0,22.012304306030277,26.89289855957031,-79.78279610801353,40.45901855768082,337.5521345214844,-0.0293732993304729,0.004851559177041,0.9990633130073548,0.0314051583409309,-0.1562486781260798,0.0062817989209495,2.9238213109282265,0.2532626390457153,0.0153731415048241,0.2524518668651581,-0.0817695924360305,-0.7715234407782555,-9.643705771565438,15002.0
43.91,3.700000047683716,239.0,21.804462432861328,30.55071449279785,-79.78279607957286,40.45901857841727,337.84397793579103,-0.0320093929767608,0.0041510225273668,0.9989740252494812,0.0317652150988578,-0.1829922407999016,-0.005237062922968,2.899643113106746,0.0898162350058555,0.0081763556227087,0.1152794659137725,0.0297145038424059,-0.6356164611876011,-9.608571606874468,15002.0
44.0,3.700000047683716,238.0,21.89461135864257,28.53096389770508,-79.78279600392456,40.459018637133305,338.40610028076173,-0.0266577899456024,0.0011247663060203,0.9991512298583984,0.031384490430355,-0.1812576892172008,-0.0054688357433541,2.904030396292242,-0.0835659280419349,-0.0066446019336581,0.0382030196487903,0.1634016839414835,-0.5110781498998404,-9.898842594623568,15003.0
44.2,3.799999952316284,239.0,21.785682678222656,31.63215637207031,-79.78279586149844,40.45901876693468,338.98374462890627,-0.022741375491023,0.0023918310180306,0.9993164539337158,0.0290495138615369,-0.1462096312107849,-0.028483717624597,2.910216409500332,0.0325147658586502,0.0722552016377449,-0.0464771911501884,-0.0649173230677843,-0.4000219464674592,-9.816019123792648,15003.0
44.4,3.799999952316284,238.0,21.753129959106445,30.87673759460449,-79.78279585072778,40.45901879288208,339.2766103820801,-0.0223747175186872,0.0043433555401861,0.9993858933448792,0.0266159307211637,-0.1413774152846396,-0.0187125793548167,2.9413362916815715,-0.0224449913948774,-0.0089817391708493,-0.1807522475719452,-0.004622580287978,-0.2938890437968075,-9.9800943338871,15004.0
44.5,4.0,239.0,21.82574844360352,29.52493667602539,-79.78279581646925,40.459018890597584,339.5685453491211,-0.0244141537696123,0.0046786745078861,0.999379575252533,0.0249532554298639,-0.139934881688294,-0.0076974070301194,2.9794087480972657,-0.0113948537036776,-0.0164139457046985,-0.0233107935637235,-0.0096565213333815,-0.3623064187914133,-10.020482221841812,15004.0
44.6,4.0,238.0,21.89711570739746,28.65024185180664,-79.78279583124474,40.45901906448699,340.1514005737305,-0.0277474280446767,0.0017925881547853,0.9993005990982056,0.0250042006373405,-0.1431581933720254,-0.0179190895305079,3.02946056023309,0.0897001773118972,0.0549746975302696,0.0867210701107978,0.064798779906705,-0.4806870272755623,-10.081474528312684,15005.0
44.8,4.0,238.0,21.82449531555176,29.222768783569336,-79.78279584893582,40.459019102037175,340.4551572875977,-0.0306046046316623,0.0027443978469818,0.999193012714386,0.025869932025671,-0.1487371885837181,-0.034195095773096,3.0290513132880066,0.0708288326859474,0.0141302272677421,-0.0766882225871086,0.058716085916385,-0.3523922088369727,-9.835924215316776,15005.0
44.9,4.0,238.0,21.743112564086918,31.46516990661621,-79.78279584856831,40.45901928228621,341.04314709472663,-0.0309857241809368,0.0067124981433153,0.9991392493247986,0.0267521385103464,-0.1658753033257378,-0.0271767926934616,3.0115544582366085,-0.058852382004261,-0.0736265629529953,0.1709546595811844,0.0503890843782574,-0.7821430076658726,-9.83508689403534,15006.0
45.1,4.0,236.0,21.82449531555176,30.08156013488769,-79.7827958864016,40.45901933425185,341.345744140625,-0.0264256875962018,0.0047546713612973,0.9992663264274596,0.027314169332385,-0.1466389313993311,-0.0222024890535332,3.038492182338892,-0.1186529248952865,-0.0252672638744115,-0.0167488045990467,0.0872635905817151,-0.2550759754702449,-9.989856845140457,15006.0
45.21,4.0,235.0,21.695533752441406,31.775287628173828,-79.78279596830063,40.45901952212301,341.94790173339845,-0.025450088083744,0.0012884485768154,0.999272644519806,0.0283723063766956,-0.0812161794973855,-0.0590701998995137,3.080067064682104,0.0484073422849178,0.0068957670591771,0.0136919785290956,0.0737289856933057,-0.4289798434451222,-10.00781247496605,15006.0
45.4,4.099999904632568,234.0,21.74186134338379,31.099388122558597,-79.78279605044773,40.459019587729,342.2569761352538,-0.0245333667844533,6.221849616849795e-05,0.9992905259132384,0.0285768881440162,-0.077691811824243,-0.0673737862676996,3.1002272109012807,-0.0057566869072616,-0.0473927408456802,-0.0695254132151603,-0.0018581503455061,-0.3211407780647278,-9.98296531677246,15007.0
45.5,4.199999809265137,230.0,21.78818702697754,30.407583236694336,-79.78279623768097,40.45901977781809,342.86341763305666,-0.0214113108813762,-0.0006846213364042,0.9992929697036744,0.0308985710144042,-0.0624303187480812,-0.0864697213770928,3.1268430621282524,-0.1539196521043777,-0.0305215790867805,-0.1160727366805076,-0.192075990960002,-0.2584717459604144,-9.983551207780838,15007.0
45.71,4.300000190734863,229.0,21.870820999145508,29.26252746582031,-79.78279680849785,40.459019919217965,343.4547300415038,-0.01643000356853,-0.0025241181720048,0.9993568658828736,0.03177485242486,-0.0094405174424172,-0.0829408165913504,3.12812221971127,-0.1170627176761627,-0.1465884447097778,-0.0918005034327507,-0.0825262038689106,-0.4511001891642809,-10.035460449457169,15008.0
45.8,4.300000190734863,229.0,21.91714859008789,28.594579696655277,-79.78279693093916,40.459019993487416,343.766757019043,-0.0187459774315357,-0.0078445896506309,0.9993387460708618,0.0301530677825212,0.0105450372892532,-0.1012966145017372,3.111331555115941,0.1880925148725509,-0.121335744857788,0.1798183917999267,-0.291509227026254,-0.7769305072724819,-9.67192911207676,15008.0
45.9,4.300000190734863,227.0,21.855796813964844,29.57264709472656,-79.7827969618485,40.45902030462855,344.05141735839845,-0.0224038790911436,-0.0132286725565791,0.9992575645446776,0.0284172389656305,-0.0294522957785923,-0.1402616457192043,3.069661323679973,0.0105186169967055,-0.1658128798007965,-0.1206705495715141,-0.177787826154381,-0.2660164448618889,-9.609618258476257,15009.0
46.1,4.199999809265137,224.0,21.76189422607422,30.62228202819824,-79.78279712164597,40.459020602348325,344.6666898803711,-0.0269122626632452,-0.0143259800970554,0.9991690516471864,0.0270525850355625,-0.0454504752532258,-0.1893245844441678,3.0696533394266505,0.1739489436149597,0.1055337712168693,0.1518070995807647,-0.2520920134149492,-0.6628910178691149,-9.836436431407927,15009.0
46.3,4.199999809265137,222.0,21.875829696655277,28.45939826965332,-79.78279723259142,40.459020679340256,344.97440625,-0.0274776499718427,-0.0098262364044785,0.9991803765296936,0.0280547197908163,-0.0615472015392249,-0.1663629106174946,3.076859880639466,-0.0672788992524147,0.0564937591552734,-0.0579164288938045,-0.1141126070078462,-0.3625283206254244,-9.847947260141371,15009.0
46.41,4.199999809265137,221.0,21.80070686340332,30.176982879638672,-79.78279736081336,40.459020749227534,345.2821836547852,-0.0267915595322847,-0.00561060057953,0.999204397201538,0.0290072485804557,-0.0441358490741711,-0.1331343136109724,3.0749387653410447,-0.0253407601267099,0.0083301234990358,-0.0218187663704156,-0.1242110133916139,-0.3244077636301518,-9.78642402648926,15010.0
46.61,4.199999809265137,222.0,21.76815414428711,31.22661590576172,-79.78279759419031,40.45902117004768,346.2310895996094,-0.0218118149787187,-0.0025242334231734,0.9993357658386228,0.0290845837444067,-0.0228529263238879,-0.0900077071655033,3.1402659385792213,-0.1870330870151519,-0.0530866123735904,-0.1206303983926773,-0.0714342459104955,-0.2750328696705401,-9.974400315284733,15011.0
46.7,4.099999904632568,221.0,21.849536895751957,29.008071899414062,-79.78279776283578,40.459021249955335,346.5460615234375,-0.0157390087842941,-0.003439764259383,0.9994663000106812,0.028420990332961,0.0154284224196419,-0.1068417557392528,3.168290155991897,-0.1028414592146873,0.0033002521377056,-0.0209158528596162,-0.2899145634099841,-0.1723041245900094,-10.013734534978868,15011.0
46.91,4.099999904632568,220.0,21.89711570739746,27.97434043884277,-79.78279793814096,40.45902134000364,346.86370373535163,-0.0106772072613239,-0.0038839736953377,0.9995580911636353,0.0274692140519619,0.0588513604225496,-0.1239307968552896,3.1898305538291645,-0.04831513017416,0.0340995900332927,0.0584912747144699,-0.2028685988858342,-0.3956394217908383,-10.083760789632798,15011.0
47.0,4.099999904632568,219.0,21.77942276000977,30.10541534423828,-79.7827981995489,40.45902154926824,347.5124158935547,-0.010174049064517,-0.0081415958702564,0.999550759792328,0.0269914586097002,0.0749310316999376,-0.1389177242832097,3.2057761882475218,-0.047333475202322,-0.151494488120079,0.0289783552289009,-0.28445900157094,-0.3107363156229257,-9.8821382689476,15012.0
47.2,4.0,214.0,21.84077262878418,28.65819358825684,-79.78279847074226,40.45902173047273,348.1629591064453,-0.0132839847356081,-0.011345500126481,0.9994261264801024,0.0290231276303529,0.0420932066011217,-0.1568546164227597,3.230515632458315,-0.0229920931160449,-0.0547614134848117,0.0471288450062274,-0.2131986555084586,-0.3763809226825833,-9.908847180604935,15013.0
