time,wind_speed,wind_angle,battery_voltage,battery_current,position_x,position_y,position_z,orientation_x,orientation_y,orientation_z,orientation_w,velocity_x,velocity_y,velocity_z,angular_x,angular_y,angular_z,linear_acceleration_x,linear_acceleration_y,linear_acceleration_z,node_ids
0.0,1.2000000476837158,136.0,24.32108497619629,-0.055662415921688,-79.78277461333798,40.45908282138482,270.95538768005366,0.0009846044704318,0.0129361832514405,0.9459686279296876,0.3239986300468445,-0.0157194910463039,-0.0116202968183192,-0.0333850626184679,0.0066354423761367,0.0027002240531146,0.0042285271920263,0.2220985745452344,-0.0957528158091008,-9.803356978297234,14935.0
0.1,1.2000000476837158,134.0,24.324840545654297,-0.0636141896247863,-79.78277482929677,40.45908284022916,270.9411717338562,0.0009696388733573,0.0129276663064956,0.9459811449050904,0.3239623606204986,-0.0108362203152355,-0.0077243351141647,-0.033284254149543,-0.0077720512636005,-0.0051252697594463,-0.0079127680510282,0.2195472699031234,-0.08323689638637,-9.802431948781011,14935.0
0.2,1.2000000476837158,131.0,24.31858062744141,-0.0397588685154914,-79.78277481463792,40.45908283943688,270.9378167076111,0.0009485483751632,0.0129147274419665,0.9459827542304992,0.3239582180976868,-0.0118578508792588,-0.0101343225581919,-0.0335297961903994,0.0060818796046078,0.0033153030090034,0.0049474686384201,0.2220342003554105,-0.0979533788748085,-9.803944038748742,14935.0
0.4,1.2000000476837158,129.0,24.32358932495117,-0.0159035474061965,-79.78277499056945,40.459082869909246,270.9189990444184,0.0009333589114248,0.0129216331988573,0.9459940195083618,0.3239251375198364,-0.0091314028695768,-0.0117037513561441,-0.0353678205360929,0.0062874020077288,0.0052079241722822,0.0052053076215088,0.2235789616405964,-0.0995287284068763,-9.80479422390461,14935.0
0.5,1.2000000476837158,126.0,24.319833755493164,-0.0318070948123931,-79.78277497142018,40.45908287222593,270.91544064712525,0.0009173037833534,0.0129355965182185,0.945997953414917,0.3239131569862366,-0.0129126245245725,-0.0140274545052346,-0.0353388999227207,-0.0068733701482415,-0.002017713850364,-0.0078723765909671,0.2202558428049088,-0.0805676972586661,-9.80148060679436,14935.0
0.7,1.2000000476837158,126.0,24.32233619689941,-0.0397588685154914,-79.78277514863629,40.45908287404397,270.89848193359376,0.0009093276457861,0.0129380989819765,0.9459981322288512,0.3239127695560455,-0.0129515990529716,-0.0111029916502401,-0.034834343918951,-0.0049257245846092,-0.0034572838339954,-0.0066527053713798,0.220055959392339,-0.0787283185310661,-9.8029184371233,14935.0
0.8,1.2000000476837158,128.0,24.32609367370605,-0.0238553211092948,-79.78277530365331,40.45908285870957,270.88999208641053,0.0009147605742327,0.0129339396953582,0.9460020661354064,0.3239012658596039,-0.0160019673549914,-0.0059003185484258,-0.0274024669284613,0.001413830788806,0.0022283028811216,0.0054216547869145,0.2220592337474227,-0.1025491076521575,-9.805480102300644,14935.0
1.0,1.2000000476837158,126.0,24.324840545654297,-0.0079517737030982,-79.78277525926354,40.4590828484648,270.884476272583,0.0009090043604373,0.0129649080336093,0.9460002183914183,0.3239053785800934,-0.0207410959847584,-0.0105114497872683,-0.0277449936114401,0.005355286411941,0.0035165601875633,0.008497305214405,0.221528471019119,-0.1028782328031957,-9.80423698425293,14935.0
1.1,1.100000023841858,130.0,24.32358932495117,-0.0238553211092948,-79.78277539635546,40.45908288122647,270.8810366077423,0.0009122341871261,0.0129629597067832,0.9460018277168274,0.3239008486270904,-0.0218125595189123,-0.0130950094599227,-0.0148882420740971,-0.0032569181639701,-0.0046709971502423,-0.003712487174198,0.2203935447335243,-0.0791218909621238,-9.801577085852625,14935.0
1.3,1.100000023841858,132.0,24.31732940673828,-0.0318070948123931,-79.78277548786295,40.45908289762689,270.87361535263057,0.0009070374653674,0.0129662742838263,0.9460006952285768,0.3239040374755859,-0.0268527184529579,-0.0162554486038358,-0.0068936959321868,-0.0013330484507605,-0.0011460374807938,-0.0079307695850729,0.2205597883835435,-0.0794195964653045,-9.802605611085893,14935.0
1.4,1.100000023841858,138.0,24.32609367370605,-0.0238553211092948,-79.78277545202816,40.45908289435637,270.872899143219,0.0008919943938963,0.012959761545062,0.946002960205078,0.3238975703716278,-0.0282654354385931,-0.0183270437320699,-0.0069939861831908,-0.0002934372751042,0.0005597483250312,0.0068382429890334,0.2221055546589196,-0.1003720613569021,-9.805160259604452,14935.0
1.6,1.100000023841858,143.0,24.32609367370605,-0.0159035474061965,-79.78277558254116,40.45908291529893,270.86556276512147,0.0008849579608067,0.0129556935280561,0.9460023641586304,0.3238996565341949,-0.0281336966989859,-0.0172965904739103,-0.0014008436406402,0.004027736838907,-0.0001120341476052,0.0038904470857232,0.2221506330370903,-0.1022066161315888,-9.805143887400629,14935.0
1.7,1.100000023841858,147.0,24.31858062744141,-0.0477106422185897,-79.78277554370291,40.45908291204611,270.86539873313905,0.0008738036849536,0.0129515500739216,0.9460092782974244,0.3238795399665832,-0.031274218247252,-0.0196333072165188,-0.0013071373609537,-0.0054324879311025,-0.0015193704748526,-0.0077096144668757,0.2207414357922972,-0.0791173867788165,-9.80281494140625,14935.0
1.9,1.100000023841858,148.0,24.324840545654297,-0.0159035474061965,-79.78277566239043,40.45908291861991,270.85855778884894,0.0008586343610659,0.012937081977725,0.9460093379020692,0.3238799571990967,-0.0338964757822099,-0.0176760052658239,0.002994837462795,-0.0042933113873004,-0.0005728869582526,-0.0061370083130896,0.220741234794259,-0.0787478153407573,-9.801857167482376,14935.0
2.01,1.0,150.0,24.32734489440918,0.0,-79.7827756165868,40.459082913040206,270.8588210029602,0.0008733906433917,0.0129449320957064,0.9460111856460572,0.323874294757843,-0.0350721016863663,-0.0200778857954886,0.0027711694140251,0.0050616059452295,0.0023460264783352,0.0056070913560688,0.2217046366631984,-0.0995935868192464,-9.804220027327538,14935.0
2.2,1.0,152.0,24.324840545654297,-0.0318070948123931,-79.7827757477238,40.4590829202898,270.8498948497773,0.0008653528639115,0.0129431523382663,0.9460116028785706,0.3238732516765594,-0.0363719659390693,-0.018076263439002,0.0036004296803544,0.007435149513185,0.0047359997406601,0.0047110724262893,0.2227195488475263,-0.0973204086441546,-9.803951640129087,14935.0
2.3,1.0,154.0,24.324840545654297,-0.0318070948123931,-79.78277592443675,40.45908297118673,270.8402191085816,0.0008502593263983,0.0129523389041423,0.9460113644599916,0.3238734304904938,-0.0325819237941506,-0.0175019769206141,0.0042531048495928,-0.0069598690606653,-0.0059641525149345,-0.0033006740268319,0.2184671978093684,-0.0864526365883648,-9.802096318602562,14935.0
2.5,1.0,154.0,24.32358932495117,-0.0238553211092948,-79.7827758348252,40.45908296190493,270.84098991584784,0.0008197056595236,0.0129674524068832,0.946007251739502,0.3238850235939026,-0.0367141790179792,-0.0220803709974546,0.0041191265522912,-0.0010894245933741,0.0002115599490934,-0.0031322953291237,0.2190049223788082,-0.0927812425419688,-9.803349376916886,14935.0
2.6,1.0,157.0,24.324840545654297,-0.0159035474061965,-79.78277610302739,40.45908299884588,270.8285509033203,0.0007748708012513,0.0129591673612594,0.9460082650184632,0.3238824307918549,-0.0257317880795703,-0.0131399886940494,0.0016567854496795,0.0026818457990884,0.00274248723872,0.0002205995551776,0.2214538093842566,-0.0872609227895736,-9.802319682240489,14935.0
2.8,1.0,156.0,24.32609367370605,-0.0238553211092948,-79.78277632285959,40.45908305763224,270.8146556301117,0.0007660604314878,0.0129694007337093,0.9460128545761108,0.3238687813282013,-0.0182492789302493,-0.0106261965688513,-0.0020070303346528,-7.742244633845985e-05,-0.0020483736880123,-0.0038940468803048,0.220306530855596,-0.081222759000957,-9.80146072626114,14935.0
2.9,0.8999999761581421,159.0,24.32358932495117,-0.0318070948123931,-79.78277629825577,40.45908305499617,270.8144315166473,0.0007766695925965,0.0129514466971158,0.9460163116455078,0.3238593339920044,-0.0198087130801949,-0.0126488030759089,-0.0021707867034955,0.0037269010208547,0.0003959123860113,0.00355637492612,0.2211335646919906,-0.1019238758459687,-9.804635179638865,14935.0
3.1,0.8999999761581421,160.0,24.324840545654297,-0.0318070948123931,-79.7827765164211,40.45908312151951,270.7963748855591,0.0007387173827737,0.0129367085173726,0.9460273385047911,0.3238278925418854,-0.0144377557598068,-0.0119537065048901,-0.0094541013270433,0.0086011597886681,0.00121872627642,0.0031608853023499,0.2218937940895557,-0.0997283468674868,-9.805077229142189,14935.0
3.2,0.8999999761581421,162.0,24.319833755493164,-0.0477106422185897,-79.78277649423465,40.4590831217514,270.7954073829651,0.0007414251449517,0.0129450326785445,0.9460314512252808,0.3238154053688049,-0.0175736271042776,-0.0140149622641026,-0.0094286532317737,-0.0105501823127269,-0.0039186254143714,-0.0070717176422476,0.2193954615667462,-0.0820475087687373,-9.802388679385183,14935.0
3.4,0.8999999761581421,164.0,24.324840545654297,-0.0238553211092948,-79.78277665600767,40.45908318665799,270.78128060531617,0.0007235263474285,0.0129324356094002,0.9460325837135316,0.3238126933574676,-0.0180847566141986,-0.0159522437164882,-0.0100494889397364,-0.0059109372086823,-0.0051842615939676,-0.0046937000006437,0.2189138702675701,-0.0884690306335687,-9.803437669873238,14935.0
3.51,1.0,162.0,24.33736228942871,0.055662415921688,-79.7827766264398,40.45908318846475,270.7802363319397,0.0007406315999105,0.0129461921751499,0.9460309743881226,0.3238169848918915,-0.0191369039432572,-0.0184568349259474,-0.0102122107303135,0.0048324270173907,0.0017778344918042,0.0003541693731676,0.2217079439945519,-0.0901863487344235,-9.803839958310128,14935.0
3.7,1.0,162.0,24.319833755493164,-0.0318070948123931,-79.78277684796414,40.45908326019849,270.7636495513916,0.0007337744464166,0.0129396822303533,0.9460302591323853,0.3238193392753601,-0.0144920981171003,-0.0160092184334019,-0.0131867659130081,0.0009507545037195,0.0004663528234232,-7.836963050067426e-05,0.2194531114585697,-0.0836799782887101,-9.8019021910429,14935.0
3.8,1.0,162.0,24.32609367370605,-0.0159035474061965,-79.78277708399837,40.45908333322586,270.7480164451599,0.0007284962921403,0.0129297282546758,0.9460302591323853,0.3238196074962616,-0.0091646312603941,-0.0121954020299903,-0.0157453399318115,0.001856954419054,-0.0009951591491699,0.0029012768063694,0.2195638248324394,-0.09980922116898,-9.804562089443207,14935.0
4.01,1.0,161.0,24.319833755493164,-0.0079517737030982,-79.78277704440401,40.45908334050284,270.74480208587653,0.0007361005991697,0.0129360752180218,0.9460297226905824,0.3238208293914795,-0.0128149117652424,-0.0164062804441656,-0.0158801071054671,0.0008050594478845,-0.0006206661928445,0.0073930588550865,0.22207997309044,-0.1008027179259807,-9.804925786256788,14935.0
4.1,1.0,160.0,24.32358932495117,-0.0238553211092948,-79.78277727561193,40.45908341733482,270.7288728637696,0.0007293784292414,0.0129431681707501,0.9460336565971376,0.3238091766834259,-0.0104359651467613,-0.0141732078750005,-0.0178491210885623,-0.003425431670621,-0.0020714143756777,-0.0072762323543429,0.2199131959676742,-0.0790437392704188,-9.80305877029896,14935.0
4.3,1.0,158.0,24.32108497619629,-0.0238553211092948,-79.78277748841406,40.45908348540621,270.71174081993104,0.0007324643083848,0.0129406359046697,0.9460361003875732,0.3238021731376648,-0.009918001794611,-0.0109647078059065,-0.0192292800787216,-0.0039832284674048,-0.0008319003973156,-0.0058570513501763,0.2190596486628056,-0.0864748194627463,-9.802882184386254,14935.0
4.4,1.0,153.0,24.32734489440918,-0.0318070948123931,-79.7827774724397,40.45908348786783,270.70978388023383,0.0007174416095949,0.0129407672211527,0.9460343718528748,0.3238072395324707,-0.0107020909911651,-0.0131820659479842,-0.0193990481707909,0.0049148080870509,0.0053834593854844,0.0022663290146738,0.222593267261982,-0.0907427295763045,-9.804290778636927,14935.0
4.6,1.0,152.0,24.319833755493164,-0.0079517737030982,-79.78277768544423,40.4590835508646,270.69249424171454,0.0007326600607484,0.01292853243649,0.9460396766662598,0.3237921297550201,-0.011686508087885,-0.0098388189382822,-0.0205314937097502,0.0001952229795278,0.0019401271129027,-0.0066662514582276,0.2210202748887241,-0.0826000797841697,-9.801619770526887,14935.0
4.7,1.0,152.0,24.31858062744141,-0.0238553211092948,-79.78277766740949,40.45908355103905,270.69041690063483,0.000732694286853,0.0129176005721092,0.9460419416427612,0.3237859010696411,-0.0132903325228338,-0.0118139827046922,-0.0207777668859358,0.003630445105955,0.0002821483649313,0.0032227651681751,0.2215567386522888,-0.0997963847033679,-9.803721259832384,14935.0
4.9,1.0,152.0,24.32609367370605,-0.0079517737030982,-79.78277791592693,40.45908364222584,270.67298850250245,0.0007153185433708,0.0129168052226305,0.9460470080375672,0.3237712383270264,-0.0081115783706618,-0.0100438469191174,-0.0216645499220638,0.0087084956467151,0.0029071879107505,0.0036399646196514,0.2228651445172727,-0.0970016805734485,-9.803344699144365,14935.0
5.0,1.0,154.0,24.32108497619629,-0.0477106422185897,-79.78277789906714,40.45908364433211,270.67080578041083,0.0007255583186633,0.0129279578104615,0.9460555911064148,0.3237457871437073,-0.0112311344876769,-0.0121680141332704,-0.0216621712166716,-0.0005930335610173,-0.0046859881840646,-0.0050196470692753,0.2189590400084852,-0.0890770862437784,-9.801985221505166,14935.0
5.2,0.8999999761581421,156.0,24.3148250579834,-0.0477106422185897,-79.78277812547685,40.45908373653339,270.65070995521546,0.0007061180076561,0.0129244588315486,0.9460609555244446,0.3237300813198089,-0.0094112654902223,-0.0127271291209224,-0.0255843989415942,0.0003860087308567,-0.0019586773123592,0.0043814443051815,0.2194646414369344,-0.0979940901137888,-9.803349961638451,14935.0
5.3,0.8999999761581421,154.0,24.31232070922852,-0.055662415921688,-79.78277838329275,40.45908383111201,270.63451155853267,0.000678511802107,0.0129420477896928,0.946065068244934,0.3237175345420837,-0.0041929039634032,-0.0093022926701937,-0.0272245119328832,-0.0018764639971777,0.0032465395051985,-0.0071982108056545,0.2199991317652166,-0.0806298970151692,-9.80099938094616,14935.0
5.5,0.8000000119209291,153.0,24.31858062744141,-0.0397588685154914,-79.78277835851465,40.45908383937342,270.6289971752167,0.0006852318765595,0.0129542592912912,0.9460726976394652,0.3236947357654571,-0.0082002765793039,-0.0133602778848765,-0.0273344925530223,-0.0043348716571927,-0.0046671535819768,-0.0033846418373286,0.2191165311075747,-0.0881122225709259,-9.803632966876028,14935.0
5.6,0.8000000119209291,148.0,24.32108497619629,-0.0318070948123931,-79.78277858988561,40.45908393152317,270.61222943496705,0.0006883864407427,0.0129616418853402,0.9460741877555848,0.3236899375915527,-0.0059875763506317,-0.0124319780889089,-0.0290263294133488,0.0022956577595323,-5.3717751143267385e-05,-0.0014702276093885,0.2219091795757413,-0.0864083439297974,-9.802331961393357,14935.0
5.8,0.8000000119209291,148.0,24.32358932495117,-0.0397588685154914,-79.7827788215011,40.45908400833851,270.5923722667694,0.0006796398665755,0.0129548450931906,0.9460682272911072,0.3237077295780182,-0.0081896926231648,-0.009368116902204,-0.0303263868375906,-0.0060867452993988,-0.0040128570981323,-0.0053147654980421,0.2186081522516906,-0.0826095632370561,-9.8024103140831,14935.0
5.9,0.8000000119209291,145.0,24.309816360473643,0.0636141896247863,-79.78277880778391,40.45908401017801,270.58930620384217,0.0006668794667348,0.0129528325051069,0.9460691213607788,0.3237051963806152,-0.0089660922367838,-0.0115312908001323,-0.0305922058908029,0.0064479047432541,0.0043275547213852,0.0038849688135087,0.2225821575522422,-0.0926042363606393,-9.804175003767014,14935.0
6.1,0.699999988079071,145.0,24.32108497619629,-0.0397588685154914,-79.78277909013617,40.45908408938681,270.569188205719,0.0006399858975782,0.0129407113417983,0.9460728764533995,0.3236948549747467,-0.0053407514774015,-0.0061896299793263,-0.0316241220468611,-0.0048949900083243,0.0031581458169966,-0.002122385893017,0.2199742262810468,-0.0817979605682194,-9.80266115963459,14935.0
6.2,0.8000000119209291,141.0,24.31232070922852,-0.0795177370309829,-79.78277908116377,40.45908409025261,270.56600555610663,0.000627085508313,0.0129342144355177,0.946072280406952,0.3236969411373138,-0.0065673861045242,-0.0081062977211181,-0.0318000110746853,0.0033351422753185,-0.0006107980152592,0.0057364129461348,0.2230285011045635,-0.1001582816708833,-9.805139794349673,14935.0
6.4,0.8000000119209291,136.0,24.32108497619629,0.0318070948123931,-79.78277929731932,40.459084183034136,270.5480757637024,0.000612047908362,0.0129394046962261,0.9460720419883728,0.3236972391605377,-0.0069133574464033,-0.0104260075304023,-0.0299561039127926,0.0045457030646502,0.007978219538927,0.0056146914139389,0.2229104056209326,-0.0909609677642583,-9.803368088006971,14935.0
6.5,0.8000000119209291,131.0,24.319833755493164,0.0318070948123931,-79.78277928166821,40.45908418597026,270.5450597686768,0.0006282203830778,0.0129481684416532,0.9460790753364564,0.3236764073371887,-0.0092779362247216,-0.0125215754787267,-0.0300060129853657,-0.0027171899564564,-0.0043633501045405,0.0010938144987449,0.2189604652673006,-0.0951149668078869,-9.80360606968403,14935.0
6.7,0.8999999761581421,129.0,24.31357192993164,0.0715659633278846,-79.78277956410761,40.459084283887584,270.52511009407044,0.0005911127082072,0.0129289403557777,0.9460819363594056,0.3236687779426575,-0.0030036887676755,-0.0099883434835965,-0.0312002856196179,0.0051230913959443,0.0028159108478575,0.0043827299959957,0.2228749751485884,-0.0980598621536046,-9.804356852173806,14935.0
6.8,0.8999999761581421,129.0,24.3148250579834,0.1033730581402778,-79.78277983626194,40.459084354805455,270.50820216369635,0.000588992901612,0.012925649061799,0.9460847973823548,0.3236607015132904,-0.002299393379099,-0.0043109127790291,-0.0318099637150334,-0.0073507921770215,-0.0010582054965198,-0.0039812983013689,0.2189405847340822,-0.0852422264032066,-9.801938443779946,14935.0
7.01,1.0,129.0,24.31232070922852,0.0874695107340812,-79.78277982284831,40.45908435857142,270.50178894233704,0.0005912893102504,0.0129425833001732,0.9460887908935548,0.32364821434021,-0.0054569603258611,-0.008388791016319,-0.0320763212032049,-0.0036684351507574,-0.004043748602271,-0.0001216410310007,0.2193892854452133,-0.0935468075238168,-9.80395280957222,14935.0
7.1,1.0,130.0,24.316076278686523,0.0795177370309829,-79.78278013403201,40.45908447138568,270.48422774505616,0.0005585729377344,0.0129564264789223,0.9460874199867249,0.3236518800258636,0.0037897914738114,-0.0062742322662863,-0.0327927067285494,4.8943427827907726e-05,0.000543218338862,0.000589809496887,0.220466031935066,-0.0832556348852813,-9.8020401853323,14935.0
7.3,1.0,130.0,24.31232070922852,0.055662415921688,-79.78278038602936,40.45908457741948,270.4642861766815,0.0005523839499801,0.0129677085205912,0.9460875391960144,0.3236510455608368,0.0043985533168318,-0.0089201500182079,-0.0331071253616514,-0.0045907152816653,-0.0006316066137515,-0.0079638985916972,0.219916649479419,-0.0783091919403523,-9.802914344072342,14935.0
7.4,1.0,132.0,24.316076278686523,0.0715659633278846,-79.78278038467731,40.4590845855891,270.4609397335053,0.0005331074935384,0.0129585769027471,0.9460893869400024,0.3236460089683533,0.0037433351944109,-0.0109421868563972,-0.0333292534728831,0.0054216939024627,0.0017467915313318,0.0067151868715882,0.2215729281306266,-0.0997197861783206,-9.803950470685962,14935.0
7.61,1.0,132.0,24.3148250579834,0.0795177370309829,-79.78278066468248,40.4590846631017,270.44240984153754,0.0005414963816292,0.0129761034622788,0.9460976719856262,0.3236211240291595,0.0042811652877302,-0.0064254517397807,-0.0309828208884944,0.0067157321609556,0.0024767024442553,0.0066895186901092,0.2226318223401904,-0.0934194204490632,-9.804111853837966,14935.0
7.7,1.0,132.0,24.316076278686523,0.055662415921688,-79.78278066403034,40.459084669294406,270.4392939491272,0.0005338271730579,0.0129885282367467,0.9461024403572084,0.3236064910888672,0.0019122364884284,-0.0084017354034884,-0.030943893734097,-0.0052110785618424,-0.0023240169975906,-0.0009721547248773,0.2180148425884545,-0.0933129371702671,-9.804813519716264,14935.0
7.9,1.0,133.0,24.31858062744141,0.0636141896247863,-79.78278095295171,40.45908478123589,270.41853770446784,0.0005165000911802,0.0129909412935376,0.9461046457290648,0.323600172996521,0.0064896746550136,-0.0092087896254965,-0.0318787908976444,0.0001217088574776,0.0002620247832965,0.0048806928098201,0.2205525889992714,-0.0999648484680801,-9.804167987108231,14935.0
8.0,1.0,134.0,24.31357192993164,0.0636141896247863,-79.78278095102061,40.45908479096106,270.41531476211554,0.0005003621336072,0.0130085982382297,0.9461061358451844,0.3235951364040375,0.0043178634965228,-0.0114521895537153,-0.0319202451914112,-0.0016259903786703,-0.0013872551498934,-0.0077887433581054,0.220590248722583,-0.0800811266899109,-9.802505623698234,14935.0
8.2,1.0,133.0,24.316076278686523,0.0159035474061965,-79.78278119983881,40.459084847476895,270.3942533416748,0.000462849100586,0.0130022931843996,0.9461158514022828,0.3235668838024139,-0.0012340334868704,-0.0085921445588875,-0.0324475554836946,-0.0060702660121023,-0.0010325664188712,-0.006502098403871,0.2184203104488552,-0.0874042161181569,-9.802738927602768,14935.0
8.3,0.8999999761581421,133.0,24.31106948852539,0.0477106422185897,-79.78278145605252,40.45908494753808,270.376576511383,0.0004457999020814,0.0129934884607791,0.9461188316345216,0.3235587775707245,0.0026048457072827,-0.0093978120156359,-0.032878541439949,0.0032623389270156,0.0045323874801397,0.0023352173157036,0.2223313120007515,-0.0889991538226604,-9.803890829086304,14935.0
8.5,0.8999999761581421,132.0,24.31732940673828,0.055662415921688,-79.78278144310268,40.45908496265884,270.3699124736786,0.000437986687757,0.0129928952082991,0.946122109889984,0.3235492706298828,-0.0009792989365924,-0.0135235133576491,-0.0332657131996196,0.0007264857995323,-0.00146366993431,-0.0022572271991521,0.2214894225820899,-0.0809679848514497,-9.800774847865103,14935.0
8.6,0.8000000119209291,130.0,24.31732940673828,0.0636141896247863,-79.78278170993879,40.45908507790037,270.3537088317871,0.0004382121260277,0.0130021339282393,0.9461257457733154,0.323538064956665,0.0048105682002297,-0.0147967775513543,-0.0311131999851313,0.0024252778384834,0.0039373151957988,0.0061610122211277,0.2217539725452661,-0.0994121404085308,-9.804071508049962,14935.0
8.8,0.8999999761581421,129.0,24.306060791015625,-0.0159035474061965,-79.78278198225053,40.45908517081501,270.33229359817506,0.0004236478707753,0.0130125544965267,0.94613116979599,0.3235217630863189,0.0053947623441505,-0.0123712950972508,-0.0320922907592545,0.0047078877687454,0.0041099502705037,0.004185888916254,0.2230562753789127,-0.0924244436156004,-9.802725479006767,14935.0
8.9,0.8999999761581421,128.0,24.316076278686523,0.0715659633278846,-79.78278197803698,40.4590851815638,270.32905134391785,0.0004225583688821,0.0129912188276648,0.9461313486099244,0.3235223293304443,0.0032815018063574,-0.0142025255828489,-0.0321017024675941,-0.0058492608368396,-0.0045443810522556,0.0041237538680434,0.2200641637668013,-0.095666130837053,-9.8041533690691,14935.0
9.1,0.8999999761581421,127.0,24.31858062744141,0.0715659633278846,-79.78278226942071,40.45908529337592,270.30739912223817,0.0004223251889925,0.0129908761009573,0.946134090423584,0.3235140442848205,0.0078561971044139,-0.013477902438033,-0.0330872460583289,0.0038080725353211,-0.0004868973628617,0.0020020087249577,0.2212791786342859,-0.1003617921844124,-9.804376732707023,14935.0
9.2,0.8999999761581421,129.0,24.319833755493164,0.0238553211092948,-79.78278226746149,40.4590853065348,270.30404648017884,0.0004162768600508,0.0130079109221696,0.9461426734924316,0.3234883844852447,0.0056616673573882,-0.0155283403124801,-0.0331339376944308,-0.0043420661240816,-0.0023255059495568,-0.006814707070589,0.2196116258203983,-0.0813812185451388,-9.802499776482582,14935.0
9.4,0.8999999761581421,129.0,24.319833755493164,-0.0238553211092948,-79.78278252513968,40.45908537979941,270.28315171432496,0.0004321352753322,0.0130036482587456,0.9461559057235718,0.3234497606754303,0.0033827774570851,-0.0121677570509315,-0.0335746568906696,-0.0043459208682179,-0.0034827934578061,-0.0006085924105718,0.2180152445845306,-0.0902548251114785,-9.802649465203288,14935.0
9.5,0.8000000119209291,131.0,24.32358932495117,0.0,-79.78278251880951,40.45908539024333,270.27974399757386,0.0004395952564664,0.0130049800500273,0.9461551904678344,0.3234519064426422,0.0026213035441518,-0.0144597219078161,-0.0337776365651156,0.0044676670804619,0.0035394316073507,0.0002535737585276,0.2222351435758173,-0.0877502890583127,-9.803458719849589,14935.0
9.7,0.8000000119209291,133.0,24.32233619689941,-0.0159035474061965,-79.78278278583673,40.45908547763408,270.26121982765204,0.0004408263775985,0.012984212487936,0.9461618065834044,0.3234331905841827,0.0022035926917902,-0.0126202502781817,-0.0308479033376506,-0.0028360220603644,-0.0015095518901944,-0.0031866710633039,0.2196224248968065,-0.0805230848304927,-9.801992822885516,14935.0
9.8,0.8000000119209291,139.0,24.32358932495117,-0.0079517737030982,-79.78278303212234,40.45908556079832,270.2450483722687,0.0004409540269989,0.0129822734743356,0.9461693167686462,0.3234114050865173,0.0026265095288204,-0.0110404684222031,-0.0291388821069878,0.0042280959896743,0.0003521503822412,0.0026485403068363,0.2231465234979987,-0.099832372488454,-9.804964377880095,14935.0
10.0,0.8000000119209291,142.0,24.31858062744141,-0.0079517737030982,-79.78278301664552,40.4590855788171,270.2391305847168,0.0004309882933739,0.0129869692027568,0.9461858868598938,0.3233627080917358,-6.879070617157325e-05,-0.0152622589129697,-0.0294244353859872,0.0051671667024493,0.0040108673274517,0.0060649118386209,0.2222872020676732,-0.0955564224533736,-9.80422704398632,14935.0
10.1,0.8000000119209291,146.0,24.32108497619629,-0.0159035474061965,-79.7827832715662,40.459085651106406,270.2265928668976,0.000430620246334,0.012971119955182,0.9461929202079772,0.3233428597450256,-0.000924664436044,-0.0116863778800745,-0.0232853961952535,-0.0059480248019099,-0.0041290880180895,-0.0014057483058422,0.2186527555435896,-0.089898601770401,-9.80376452922821,14935.0
10.3,0.8000000119209291,147.0,24.319833755493164,-0.0318070948123931,-79.78278355056506,40.45908575352615,270.2054880542755,0.0003950982354581,0.0129741374403238,0.9461984634399414,0.3233265280723572,0.0051667825670277,-0.0104254476644113,-0.0271132739032657,-0.000992396264337,-0.0013545012334361,0.004329914227128,0.2206307772360742,-0.098875777143985,-9.80391714155674,14935.0
10.4,0.699999988079071,148.0,24.309816360473643,-0.0079517737030982,-79.7827835483838,40.45908576347677,270.20273813438416,0.000381175923394,0.0129941999912261,0.9462029933929444,0.3233124017715454,0.0034199980384247,-0.0125698191613871,-0.0272079461048538,-0.0028336644172668,-0.001490524620749,-0.0054960250854492,0.2204964191839099,-0.0807947519514709,-9.80207819223404,14935.0
10.6,0.699999988079071,151.0,24.32108497619629,-0.0159035474061965,-79.78278377717434,40.4590858510248,270.18242510986335,0.0004016030288767,0.0130129707977175,0.9462143182754515,0.3232787251472473,0.0012413073267046,-0.012913567177751,-0.0290087125358607,-0.0027107051573693,-0.0042731100693345,-0.0061634047888219,0.2192363076657057,-0.0842428093403577,-9.801641989946368,14935.0
10.7,0.699999988079071,154.0,24.332353591918945,-0.0079517737030982,-79.78278376994189,40.459085860453136,270.1794742031097,0.0003761695406865,0.01301861833781,0.9462167024612428,0.3232715129852295,0.0010168866418657,-0.0150976060113449,-0.0292836112241096,0.004585244692862,0.0060040005482733,0.0055078258737921,0.2220279694162309,-0.0930095397680998,-9.803302599191666,14935.0
10.9,0.699999988079071,155.0,24.319833755493164,-0.0238553211092948,-79.78278400564443,40.45908591881437,270.1643265171051,0.0003469796793069,0.0129904961213469,0.9462358355522156,0.323216438293457,-0.0026433846861824,-0.0110066659253789,-0.0237345914547509,-0.0009303450933657,0.0019230222096666,-0.0060836086049675,0.2200965609960258,-0.0826407818868756,-9.803118411898613,14935.0
11.0,0.699999988079071,154.0,24.32233619689941,-0.0238553211092948,-79.78278399421532,40.45908592494964,270.16192230415345,0.0003541608166415,0.0129960915073752,0.9462462663650512,0.3231857717037201,-0.0036673513917206,-0.0128928512627178,-0.0238299776233556,0.0027294177561998,0.0020255784038454,0.0036523176822811,0.2216654055006802,-0.0997747317329049,-9.805660781264306,14935.0
11.2,0.699999988079071,158.0,24.319833755493164,-0.0318070948123931,-79.78278415710426,40.4590859992835,270.15246614646907,0.0003528295783326,0.0130007863044738,0.9462567567825316,0.3231549561023712,-0.0103026243067495,-0.0162412613526166,-0.0127826502642408,0.0046556578017771,0.0024718341883271,0.0042181718163192,0.222466876041144,-0.0981360404100269,-9.803082743883133,14935.0
11.3,0.6000000238418579,160.0,24.32108497619629,-0.0318070948123931,-79.78278432237967,40.45908605952558,270.14645704460145,0.0003718505322467,0.0130109665915369,0.9462632536888124,0.3231355249881744,-0.017589094062396,-0.0162371209280452,-0.000173081965117,-0.0067541692405939,-0.0019432575209066,-0.0049066054634749,0.2194158720038832,-0.0873428751714527,-9.801027447581292,14935.0
11.5,0.6000000238418579,162.0,24.32233619689941,-0.0159035474061965,-79.7827842635025,40.45908606547995,270.14632090759284,0.000378830183763,0.0130277397111058,0.946274995803833,0.3231003284454345,-0.0195982355724233,-0.0205120875183779,-0.000438487241885,0.0003407376934774,-0.0026723081246018,0.0009683914831839,0.2195911971107125,-0.0986043475661426,-9.804688974022868,14935.0
11.6,0.6000000238418579,164.0,24.31858062744141,-0.0238553211092948,-79.78278446891758,40.459086119697865,270.1389938278199,0.0003741392574738,0.0130159799009561,0.9462753534317015,0.3230997025966644,-0.0217443953621484,-0.0167244024763638,0.0080762781758859,-0.002328512025997,0.001836122595705,-0.0049837562255561,0.2204681332781911,-0.0795722910203039,-9.802183442115783,14935.0
11.8,0.5,168.0,24.319833755493164,-0.0159035474061965,-79.7827846703187,40.45908618973812,270.1306751651764,0.00035028567072,0.0129998391494154,0.9462754726409912,0.3231001496315002,-0.0201874438198207,-0.0144816754463963,0.0127844128172041,-0.0064782458357512,-0.0040157716721296,-0.0053009912371635,0.2189733474142848,-0.0859049991611391,-9.802075268626211,14935.0
11.9,0.5,173.0,24.32233619689941,-0.0159035474061965,-79.7827846413917,40.45908618972148,270.1319223327637,0.0003399626875761,0.0129936067387461,0.9462751746177672,0.3231011629104614,-0.0205817661927769,-0.0166728151446955,0.0126277347860452,0.0019592740572988,0.005970318801701,0.0025117953773587,0.2218765448033809,-0.0900302646216005,-9.803289150595663,14935.0
12.1,0.5,176.0,24.32233619689941,-0.0238553211092948,-79.78278484084488,40.459086260636646,270.1239975376129,0.0003274326445534,0.0130004091188311,0.9462785720825196,0.3230910003185272,-0.0196150620654888,-0.0154331080728057,0.0157934252496709,-0.0043742810375988,0.0017901946557685,-0.0065186526626348,0.220035987496376,-0.0789319752249866,-9.80232669889927,14935.0
12.2,0.4000000059604645,185.0,24.3148250579834,-0.0318070948123931,-79.78278481166491,40.459086261258776,270.1255446357727,0.0003346909361425,0.0130041576921939,0.9462818503379822,0.323081374168396,-0.0199394937596793,-0.0173782688529582,0.0156337507570625,0.0054592182859778,0.0040707942098379,0.0021854760125279,0.2222902718558908,-0.0988270442560315,-9.804621731042864,14935.0
12.4,0.4000000059604645,188.0,24.31732940673828,-0.0477106422185897,-79.78278501692256,40.45908633009827,270.11644562912,0.0002995283866766,0.0130285788327455,0.9462853074073792,0.3230703175067901,-0.0173534202162132,-0.0152326006734672,0.0157277623954604,0.0046542496420443,0.0035535637289285,0.004556777421385,0.2215203580074012,-0.0901125733181834,-9.803513098955158,14935.0
12.5,0.3000000119209289,194.0,24.3148250579834,-0.055662415921688,-79.78278498798153,40.4590863318417,270.11799749565125,0.0003012586385011,0.013032860122621,0.9462873935699464,0.3230639696121216,-0.0190787529061284,-0.0171629853110775,0.0157381838693715,0.0003011629742104,-0.002226183656603,0.0025873235426843,0.2183611804805696,-0.0971909750439226,-9.804654475450516,14935.0
12.7,0.3000000119209289,197.0,24.32233619689941,-0.0397588685154914,-79.78278517240199,40.45908638329257,270.1071711463929,0.0002982416481245,0.0130202928557991,0.9462857246398926,0.3230692744255066,-0.019540440387304,-0.0148749943747227,0.0132736315490417,0.004438308533281,0.002387261018157,0.0052436981350183,0.2212183493189513,-0.1006093212682754,-9.805156166553498,14935.0
12.8,0.3000000119209289,198.0,24.319833755493164,-0.0318070948123931,-79.78278536047098,40.45908645145789,270.09563550186164,0.0002902384730987,0.0130139300599694,0.9462944865226746,0.323043942451477,-0.0203355754514211,-0.0139340356178524,0.0116865208150178,-0.0078541599214077,-0.0004628565802704,-0.0093589862808585,0.2189011708460748,-0.0845293046347797,-9.803246465921402,14935.0
13.0,0.3000000119209289,198.0,24.3148250579834,-0.0159035474061965,-79.78278529967962,40.45908645152928,270.0978804512024,0.000289515388431,0.0130149843171238,0.9463003277778624,0.3230266571044922,-0.0222886492743806,-0.018028734376238,0.0114174109462472,0.0007698545232415,-0.0029232900124043,-0.000375123519916,0.2182921102456748,-0.0963440880831331,-9.804933972358704,14935.0
13.1,0.3000000119209289,199.0,24.31232070922852,-0.0477106422185897,-79.78278555371486,40.45908651551853,270.0865608139038,0.0002545727184042,0.0130141330882906,0.9463012218475342,0.3230243623256683,-0.0163847164226475,-0.0118011290250013,0.0099251691415646,-0.0023553571663796,0.0022067390382289,-0.0044754850678145,0.2214126596041024,-0.0810949790664017,-9.802787459492684,14935.0
13.3,0.3000000119209289,199.0,24.316076278686523,-0.0238553211092948,-79.78278572803856,40.45908659435589,270.07502278518683,0.0002491471532266,0.0130286579951643,0.9462996125221252,0.3230283856391907,-0.0146355463341684,-0.0129260771875187,0.0059854813314051,-0.0027824596036225,-0.001329627004452,-0.0049240663647651,0.2195508878678083,-0.0862205203995108,-9.803183315992356,14935.0
13.4,0.3000000119209289,197.0,24.32108497619629,-0.0318070948123931,-79.78278570571437,40.45908659611864,270.0755873603821,0.0002480396360624,0.0130263278260827,0.9463012814521792,0.3230236172676086,-0.0147200716393324,-0.014964942610433,0.0057599783075983,0.0031889241654425,0.0022066917736083,0.0019948829431086,0.2228765283152461,-0.089198854509741,-9.803622441887857,14935.0
13.6,0.3000000119209289,193.0,24.31732940673828,-0.0079517737030982,-79.78278589854786,40.459086676911966,270.0646000785828,0.0002451078325975,0.0130320312455296,0.9463083744049072,0.3230025768280029,-0.0112092289688959,-0.0136751446746927,0.0032183367566912,-0.0041568051092326,-0.0012609155382961,-0.0078404620289802,0.2202886603027582,-0.0805136927403509,-9.802350672483444,14935.0
13.7,0.3000000119209289,184.0,24.31732940673828,-0.0159035474061965,-79.78278587862981,40.45908668073215,270.06488403511054,0.0002129479835275,0.0130287166684865,0.946319818496704,0.3229692876338959,-0.0112556745823985,-0.015621563551113,0.0029509428902238,0.0048373402096331,0.0035944411065429,0.0089663937687873,0.2225525012053549,-0.0963187806028872,-9.8033154630661,14935.0
13.9,0.3000000119209289,179.0,24.303556442260746,-0.0636141896247863,-79.78278607006347,40.45908673986419,270.05430278015143,0.0002016722573898,0.0130165675655007,0.9463219046592712,0.3229634165763855,-0.0107412575797078,-0.0112910967023119,0.0010940889436222,-0.0039027733728289,-0.0007466886308975,-0.0032435648608952,0.22053544934839,-0.0823390107415616,-9.801992822885516,14935.0
14.0,0.3000000119209289,167.0,24.30480766296387,-0.0954212844371795,-79.78278605080034,40.45908674246108,270.0543843193054,0.0002016722573898,0.0130165675655007,0.9463219046592712,0.3229634165763855,-0.011153098008753,-0.0132741969553072,0.0009486742230275,0.0062914029695093,0.0025666162837296,0.0028646294958889,0.2224052244611084,-0.0993337877187878,-9.8049626237154,14935.0
14.2,0.3000000119209289,162.0,24.30480766296387,-0.1192766055464744,-79.78278623585045,40.45908680270369,270.04444750976563,0.0001844050566432,0.0129981497302651,0.946321666240692,0.3229649066925049,-0.0107131772862269,-0.0104380009815824,0.0001273274381166,0.0013998376671224,0.0031998236663639,0.0010241691488772,0.2209869823046028,-0.0856137073226273,-9.803922404050828,14935.0
14.3,0.3000000119209289,149.0,24.31232070922852,-0.0477106422185897,-79.7827864132858,40.4590868814879,270.0354979915619,0.0001731316442601,0.012995408847928,0.9463218450546264,0.3229644298553467,-0.0072593026711084,-0.0093805229699164,-0.0003040773527318,0.0038007595576345,0.0025300839915871,0.0035263998433947,0.2212910740636289,-0.099225650774315,-9.805684170126916,14935.0
14.5,0.3000000119209289,143.0,24.32108497619629,-0.0079517737030982,-79.78278638223378,40.45908688801178,270.03539356422425,0.0001559537631692,0.0129903843626379,0.946323573589325,0.3229598701000213,-0.0091953065579377,-0.0133694571151334,-0.000411985528338,0.0037624170072376,0.0039028448518365,0.0048260618932545,0.2211410747095942,-0.0899215886369347,-9.80371541261673,14935.0
14.6,0.3000000119209289,132.0,24.32358932495117,-0.0079517737030982,-79.78278658376139,40.459086943644095,270.0269153995514,0.0001377434964524,0.0129570635035634,0.946330189704895,0.322941780090332,-0.0059514178179418,-0.0061536125989386,-0.0008118884882002,-0.0009772168705239,0.0004591172328218,0.0018787471344694,0.2204561830312013,-0.098216713713482,-9.804441052079204,14935.0
14.8,0.3000000119209289,127.0,24.32358932495117,-0.0159035474061965,-79.78278674802206,40.45908703395379,270.0174632949829,0.0001206700253533,0.0129746012389659,0.94633811712265,0.3229176998138428,-0.001737845832897,-0.0086514599666456,-0.0032606898193827,0.0048400028608739,0.0008668396621942,0.0028317146934568,0.22274169517681,-0.0925960868038237,-9.804268559217451,14935.0
14.9,0.3000000119209289,115.0,24.316076278686523,-0.0238553211092948,-79.78278673950503,40.45908703888615,270.0171185417176,0.0001338658476015,0.0129732470959424,0.9463407397270204,0.3229101598262787,-0.0030813086551689,-0.0103327553404344,-0.0032524519482462,-0.0034322130959481,-0.0005126067553646,0.0016537313349545,0.2196872193552553,-0.0955878146924078,-9.804256864786147,14935.0
15.1,0.2000000029802322,111.0,24.31732940673828,-0.0238553211092948,-79.7827868971151,40.45908711552652,270.0069254322052,0.0001501253282185,0.0129686770960688,0.9463451504707336,0.3228972852230072,-0.001947179209358,-0.0098938048088997,-0.0065183604599924,0.0067924270406365,0.0008325906237587,0.0068173147737979,0.2224954177625476,-0.0971022983640432,-9.804182020425795,14935.0
15.2,0.2000000029802322,111.0,24.30856513977051,-0.0397588685154914,-79.78278688777165,40.45908712124256,270.006244747162,0.0001345095806755,0.0129646705463528,0.9463483095169068,0.3228882253170013,-0.0037502911818118,-0.0115630658530458,-0.006598909875983,-0.0036569121293723,-0.004815868102014,0.0008619739091955,0.2185553811304272,-0.0931182157527655,-9.803970351219178,14935.0
15.4,0.2000000029802322,107.0,24.32108497619629,-0.0238553211092948,-79.78278701877373,40.45908721321893,269.99724611473084,0.000162518088473,0.0129728056490421,0.946344554424286,0.3228990733623505,-0.0021880920251186,-0.0147809672126582,-0.0079338219003513,0.0073797879740595,0.0060407095588743,0.0024707585107535,0.2221881831251085,-0.099604714801535,-9.803939945697785,14934.0
15.5,0.2000000029802322,101.0,24.32233619689941,0.0,-79.7827870045056,40.45908722260703,269.9964180870056,0.0001683477457845,0.0129890954121947,0.9463517069816588,0.3228773176670074,-0.0041411552611165,-0.016816568554541,-0.007931079463767,-0.0056749773211777,-0.0074148592539131,-0.0044690910726785,0.2180480255372822,-0.0877329027280211,-9.802820203900335,14934.0
15.71,0.2000000029802322,98.0,24.21466064453125,0.2942156493663788,-79.78278716672837,40.45908729756299,269.9901474399568,0.0001596761867403,0.0129977753385901,0.9463757872581482,0.3228062391281128,0.0006317392360771,-0.0139060243874358,-0.0061842621985357,-0.0006815589149482,0.0004642430576495,0.0151823870837688,0.2195210670679808,-0.0904224209301173,-9.804901227951053,14934.0
15.8,0.2000000029802322,86.0,24.298547744750977,0.278312087059021,-79.78278733667548,40.45908733824898,269.9880207462311,0.0001438524777768,0.0129841035231947,0.946356236934662,0.3228643536567688,-0.0001650948211974,-0.0040561650683796,-0.000164596123248,-0.0106284068897366,0.00054735946469,-0.006734091322869,0.2153373842686415,-0.0701511109806597,-9.802350672483444,14934.0
16.0,0.1000000014901161,81.0,24.30105209350586,0.2942156493663788,-79.78278732785769,40.45908734643685,269.9879520816803,0.0001296352420467,0.0129662174731493,0.9463669657707214,0.3228336572647095,-0.0018174242570426,-0.0073955397233604,-0.0001748790652078,-0.006252265535295,-0.0065373010002076,0.0004472886794246,0.2214070316590368,-0.0932580372970551,-9.804797732234002,14934.0
16.1,0.1000000014901161,66.0,24.298547744750977,0.2862638533115387,-79.78278745503412,40.45908741531176,269.9828701896668,0.0001197356759803,0.0129692321643233,0.9463481903076172,0.3228884637355804,-0.0012781930880378,-0.0073204269038865,-0.0004559769166434,-0.0049539301544427,0.0001077704728231,-0.0104904631152749,0.2240274613536894,-0.0848163298331201,-9.803627119660378,14934.0
16.3,0.1000000014901161,58.0,24.298547744750977,0.278312087059021,-79.78278756116534,40.459087515864624,269.97997960281367,0.0001067266930476,0.0129865277558565,0.9463582038879396,0.3228583931922913,0.0011534365751783,-0.0128495501250382,0.001985302872264,-0.0048707849346101,-0.0083735333755612,-0.0045212935656309,0.2150499936193228,-0.102558353561908,-9.801692860722545,14934.0
16.4,0.1000000014901161,43.0,24.29479217529297,0.3101191818714142,-79.78278755338476,40.459087526390654,269.9801336212158,9.394918015459552e-05,0.0130075579509139,0.9463603496551514,0.322851300239563,0.0005957351041529,-0.0149656560298207,0.0017290207981933,-0.005288659594953,-0.0010219423566013,-0.0016206853324547,0.2197338691726327,-0.0820247959904372,-9.802734249830246,14934.0
16.6,0.1000000014901161,36.0,24.289783477783203,0.3896369338035584,-79.78278767717127,40.459087600824354,269.9761322422028,9.619084448786452e-05,0.0129975592717528,0.9463586807250975,0.3228564560413361,0.0019555856681704,-0.0118798255210777,0.000959992571213,-0.0023599653504788,-0.0017297295853495,-0.0021162808407098,0.2194022589549422,-0.0938623196259141,-9.800498859286307,14934.0
16.7,0.1000000014901161,25.0,24.28477478027344,0.4214440286159515,-79.78278767088891,40.45908761052913,269.9761794490814,9.671910083852708e-05,0.012988138012588,0.9463634490966796,0.3228429853916168,0.00179496917905,-0.0134775808379788,0.00070760313032,0.0025919703766703,0.0017362514045089,0.0034418154973536,0.2187418342195452,-0.078985723927617,-9.80062165081501,14934.0
16.91,0.1000000014901161,17.0,24.21716499328613,0.8587915897369385,-79.78278776831475,40.45908768655167,269.9729247970581,-7.255469245137647e-05,0.0131767569109797,0.9464008212089542,0.322725772857666,-0.0024337234735474,-0.0117838018586744,0.0010644233079677,-0.0157065577805042,-0.0007616066141054,-0.0394518114626407,0.2301330691203475,-0.0385801938269287,-9.792171254754066,14934.0
17.0,0.1000000014901161,11.0,24.28227233886719,0.3180709481239319,-79.78278775747873,40.45908769643143,269.97291049194337,-2.4165998183889315e-05,0.013175287283957,0.9464071989059448,0.3227070569992065,-0.0023326254161575,-0.0161511352737646,0.0002670985553504,-0.0027582009788602,-0.0049009001813828,-0.0080611938610672,0.2386703146062792,-0.0794979217462241,-9.814894119501112,14934.0
17.2,0.2000000029802322,14.0,23.732622146606445,5.518531322479248,-79.78278782545196,40.45908776018451,269.97190794181824,-8.701043952896725e-06,0.0131915397942066,0.9464168548583984,0.3226782083511352,-0.0016748166419242,-0.0157710568219852,0.0027636061892944,0.0145739754661917,-0.0067549012601375,0.0037457053549587,0.2356492958217859,-0.1078214871883392,-9.806606860756872,14934.0
17.3,0.2000000029802322,15.0,24.233442306518555,0.8110809326171875,-79.78278792462338,40.45908783160479,269.9687932415009,-8.02985960035585e-05,0.0132085885852575,0.9464355111122132,0.3226226568222046,-0.00056845621559,-0.0140625607066126,-0.00090658993214,0.0169714149087667,-0.0044872625730931,0.0107444785535335,0.2348666460067034,-0.1294689393416047,-9.795902947783471,14934.0
17.5,0.2000000029802322,12.0,24.29103660583496,0.2306014448404312,-79.7827878960871,40.459087851449134,269.968602268219,1.574203633936122e-05,0.0132122803479433,0.9464318156242372,0.3226334154605865,-0.0012753522455178,-0.0174511077264944,-0.0003574170342256,-0.0008344147936441,0.003704487113282,0.0227893888950347,0.2511959641613066,-0.1360327586811036,-9.809479597806927,14934.0
17.6,0.2000000029802322,9.0,24.28101921081543,0.508913516998291,-79.78278799521074,40.45908787598803,269.9647620601654,4.49902618129272e-05,0.0131956003606319,0.9464251399040222,0.3226536810398102,-0.0043271689996003,-0.0090706669367924,-0.0037736339150163,0.005088516511023,0.0284507945179939,-0.0135408854112029,0.2263716649264097,-0.055737176220864,-9.791101799011232,14934.0
17.8,0.3000000119209289,7.0,23.98678779602051,4.0315494537353525,-79.78278808591574,40.45908793936323,269.96366223526,5.540412530535833e-05,0.0131612243130803,0.9464330077171326,0.3226321935653686,-0.0017993694476118,-0.009891785181981,-0.003354106709519,0.0011132099898532,-0.0129934484139084,-0.0025481230113655,0.2279839980974793,-0.0818812651187181,-9.800626913309095,14934.0
17.9,0.3000000119209289,7.0,23.93294906616211,4.9778103828430185,-79.78278807473959,40.45908794506156,269.96335920524604,3.363403448020108e-05,0.0132285477593541,0.9464329481124878,0.3226293325424194,-0.0050958795864239,-0.0156166499972813,-0.002480962975755,-0.0117680840194225,0.0081209745258092,0.0213232561945915,0.2089584374427796,-0.0729800578672438,-9.801265429258349,14934.0
18.1,0.4000000059604645,12.0,23.75015068054199,7.1327409744262695,-79.78278812678906,40.45908800448292,269.9600950164795,-5.1595037803053856e-05,0.0133341690525412,0.9464698433876038,0.3225168287754059,-0.0063900738658132,-0.0142839469365424,-0.0067732156383935,-0.0367474108934402,-0.033669963479042,0.0487026534974575,0.2169773455336689,-0.0444111103657633,-9.807732449769976,14934.0
18.2,0.4000000059604645,3.0,23.718849182128903,8.532253265380861,-79.78278811069102,40.459088011729285,269.95947059822083,-8.144209277816117e-05,0.0133078545331954,0.9464799165725708,0.32248854637146,-0.0036322808889595,-0.0150234803875566,-0.0057528184698883,0.0374828577041626,-0.0172650795429945,-0.0711642131209373,0.2607740323059261,-0.1809304487518966,-9.823579573631289,14934.0
18.4,0.5,359.0,23.50474739074707,11.355133056640623,-79.78278819314602,40.45908809549204,269.9577940387726,-0.0006455279653891,0.0136805269867181,0.9465040564537048,0.3224013149738312,-0.0005727070943754,-0.0170582369983095,-0.003287917548457,0.0119182849302887,-0.0240617077797651,0.0870321840047836,0.3630370649322868,-0.1586292778886854,-9.885077079534527,14934.0
18.5,0.6000000238418579,358.0,23.37203025817871,12.635368347167969,-79.78278818222566,40.45908811048613,269.9574299736023,-0.0017492691986262,0.0140319569036364,0.9464971423149108,0.3224024474620819,0.0043356866619231,-0.0172785247930024,-0.0033744470617288,-0.0213646702468395,-0.0616790652275085,-0.0091824252158403,0.2791703229211271,-0.1476503721904009,-9.82327785730362,14934.0
18.7,0.6000000238418579,352.0,23.11786460876465,15.712705612182615,-79.78278828970329,40.45908818240238,269.9534963054657,-0.0029322311747819,0.014130599796772,0.9465253353118896,0.3223066926002502,-0.0025473512379637,-0.0139015456747362,-0.0110775043118943,-0.020496629178524,0.0245508011430502,0.0033515365794301,0.3626890459656715,-0.2427766131609678,-9.803373935222629,14934.0
18.8,0.699999988079071,342.0,23.022708892822266,17.358722686767578,-79.78278840147037,40.45908820405348,269.95043906402594,-0.002370003145188,0.0128023782745003,0.9465349912643432,0.3223384916782379,-0.0125928917508163,-0.0013872150813366,-0.0035834734884334,-0.0658209845423698,-0.0453807413578033,0.043643731623888,0.2277697707340121,-0.1699627898074686,-9.865883009433746,14934.0
19.0,0.699999988079071,338.0,22.758525848388672,20.475818634033203,-79.782788357387,40.45908817352852,269.9523194713593,0.0035331058315932,0.0056796479038894,0.9463974833488464,0.3229353129863739,-0.0373718044493831,0.0122825031537431,0.0101463768557688,-0.1210706084966659,-0.1688482463359832,0.0772487744688987,0.2104494591616094,-0.2609803476557136,-9.749557331800464,14934.0
19.1,0.8000000119209291,340.0,22.65460586547852,22.31267738342285,-79.78278853262424,40.45908820872551,269.9453502578736,0.0060431784950196,0.00163319054991,0.946738302707672,0.3219432830810547,-0.0313213788916852,0.0179729529882694,0.022336751456659,-0.1019841879606247,0.017975078895688,-0.1101268455386161,0.1842214079014957,0.1341879255976528,-9.965873905420304,14934.0
19.21,0.8000000119209291,340.0,22.499351501464844,24.35628318786621,-79.78278851608489,40.45908817414903,269.95072159004206,0.0077843307517468,-0.0028102465439587,0.9468843936920166,0.3214676976203918,-0.0475512769950536,0.037523749761131,0.0901653004679372,-0.0651695951819419,-0.157902330160141,0.0624775402247905,0.2845749226212501,-0.0988060125522315,-10.345165243148806,14934.0
19.4,0.8000000119209291,335.0,22.87747001647949,18.074382781982425,-79.78278864204701,40.45908815545767,269.970079032898,0.0153043679893016,-0.01224219892174,0.94703209400177,0.3205404877662659,-0.0867133129932564,0.0778741627605528,0.3090336447064899,0.04234304651618,-0.0816018506884574,-0.0874883607029914,0.1872448386624456,0.2111943030729889,-10.880357383489606,14934.0
19.51,0.8999999761581421,333.0,22.8323974609375,19.418231964111328,-79.78278861114116,40.45908804659671,270.0026644153595,0.0076960250735282,-0.0060845753178,0.9472007155418396,0.3204913139343261,-0.0934124870252653,0.0877127599468372,0.3332135060474281,0.2324089407920837,0.077670007944107,-0.0197750534862279,0.1739203132688999,0.0277794614690356,-10.178394466638563,14935.0
19.7,1.0,328.0,22.698427200317383,21.072200775146484,-79.7827885008498,40.45908773469765,270.0599106235504,-0.0029721278697252,0.0097495559602975,0.9471317529678344,0.3206831216812134,-0.1235994045976258,0.1160075718169433,0.282407176425647,-0.0309883169829845,0.0275049433112144,-0.0048865694552659,0.2329196328297257,-0.120012164376676,-9.732805643677713,14935.0
19.8,1.0,332.0,22.751012802124023,20.110036849975582,-79.78278865929754,40.45908759125485,270.07550415229804,-0.0010694485390558,0.0118706664070487,0.947090744972229,0.3207447528839111,-0.098480919370652,0.1198278619157486,0.2151034639040172,-0.0990479364991188,-0.0019204362761229,-0.0503165312111377,0.2501123837381601,-0.0770287522114813,-9.47696306169033,14935.0
20.0,1.0,333.0,22.72096443176269,20.316781997680664,-79.78278866489404,40.45908733192584,270.11205681991584,-6.909592775627971e-05,0.0113809490576386,0.9469822645187378,0.3210843205451965,-0.079200722504083,0.1161357401008375,0.1491487903162524,0.0219204369932413,0.009555647149682,0.0071136271581053,0.1887743606418371,-0.0221473982278257,-9.522478957772256,14935.0
20.1,1.0,330.0,22.62080001831055,21.52545166015625,-79.7827890723427,40.45908743948568,270.11566695404053,-0.0018985068891197,0.0119632631540298,0.9469795823097228,0.3210655450820923,-0.0153409912251637,0.1200867181021394,0.092970995087095,0.077827088534832,0.0203888192772865,-0.0057362876832485,0.217215181030333,0.0188409439567476,-9.515910195708274,14935.0
20.3,1.100000023841858,332.0,22.62580871582031,21.604969024658203,-79.78278919627253,40.45908699453297,270.14893111419684,-0.0044677550904452,0.0156318116933107,0.946777880191803,0.3214767873287201,-0.0301997793407827,0.1387240955085776,0.1095963799711326,0.0053337556309998,0.0061395233497023,0.0359709374606609,0.2069628741033375,-0.1011025064997375,-9.869742171764372,14935.0
20.4,1.100000023841858,329.0,22.65585708618164,20.610998153686523,-79.78278926763291,40.45908687773427,270.16006716918946,-0.0026861818041652,0.0124691231176257,0.9466777443885804,0.321929395198822,-0.0294201647945967,0.146283283537649,0.102678529135041,-0.0880035012960434,-0.1013449355959892,0.0039857220835983,0.3076234041899443,-0.1384599104896187,-9.77592008829117,14935.0
20.6,1.100000023841858,327.0,22.571969985961918,21.636775970458984,-79.78278934252656,40.459086756241,270.17029747200013,0.0013211913174018,0.0054103611037135,0.9467803239822388,0.3218324780464172,-0.0283303879591629,0.1475096045268611,0.0941673193592986,-0.0658816024661064,-0.0570909045636653,0.0467672497034072,0.1824312645569444,-0.1117659275047481,-9.72859389424324,14935.0
20.7,1.2000000476837158,319.0,22.624555587768555,21.34256172180176,-79.7827893430522,40.45908648990179,270.21318277549744,0.0018971733516082,0.0101208016276359,0.9468005895614624,0.3216561079025269,-0.0336466626486259,0.1376735761103079,0.118873725045484,0.0511648394167423,0.094564102590084,-0.0050935065373778,0.1902188239060342,-0.0693363654334098,-9.77572186768055,14935.0
20.9,1.2000000476837158,316.0,22.59951591491699,21.30280303955078,-79.78278938036692,40.45908612658515,270.2558327598572,-0.0010207762243226,0.0163955613970756,0.9471009969711304,0.3205150961875915,-0.0596996715121269,0.1574082254153866,0.1648302057846558,0.0495866872370243,-0.0074242888949811,0.0178462713956832,0.2619406980089843,-0.0891628484521061,-10.052595130205155,14935.0
21.0,1.2000000476837158,316.0,22.57572555541992,21.50954818725586,-79.78278943700941,40.459085992730095,270.2736946029663,-0.0036055317614227,0.0181879419833421,0.9474054574966432,0.3194983899593353,-0.0527915782022042,0.1513586986277223,0.1809231904806038,0.0024409194011241,-0.0236078966408968,-0.113263264298439,0.259561685230583,0.0498179301805794,-9.949281846284867,14935.0
21.1,1.100000023841858,318.0,23.159181594848643,15.45029640197754,-79.78278948439839,40.459085775980256,270.32870897483826,-0.0063345888629555,0.0198946073651313,0.947642982006073,0.3186486065387726,-0.0482381315823242,0.1560867801068149,0.1703826743424759,0.0238150656223297,0.0175617504864931,-0.0166665222495794,0.2642292433977127,-0.0609593245200812,-9.366459456682207,14935.0
21.31,1.100000023841858,321.0,22.3891716003418,23.61676788330078,-79.78278947276688,40.45908550586059,270.3870626373291,-0.0026473831385374,0.017935948446393,0.9483683705329896,0.3166525363922119,-0.034475386761084,0.1337169802066541,0.0219095867473287,-0.1511291414499282,-0.0119359483942389,0.0425477810204029,0.2061542772687972,-0.1373023262433707,-9.298197306990623,14935.0
21.5,1.0,320.0,22.170061111450195,27.34615135192871,-79.78278953541907,40.4590853979626,270.3904248161316,0.0039126183837652,0.0158443078398704,0.948470413684845,0.3164452612400055,-0.023122017888571,0.1227796032120259,0.0459143600066182,-0.1213489398360252,0.0465103015303611,0.0356128364801406,0.1871572217904031,-0.0584315549209714,-9.906689558029177,14935.0
21.6,1.0,319.0,22.00604248046875,29.055782318115234,-79.78278945372584,40.45908500794009,270.46921095085145,0.0111013436689972,0.0149837126955389,0.9481959939002992,0.3171383440494537,-0.0351586509219681,0.1229361594425359,0.2684082483850358,0.1165641695261001,0.0669922530651092,0.0491715371608734,0.2983079491183162,-0.0844457534048706,-10.862350298166277,14935.0
21.8,0.8999999761581421,323.0,21.86581420898437,31.210712432861328,-79.78278925013501,40.45908458186125,270.53923806381226,0.0023065137211233,0.0119924750179052,0.9476989507675172,0.3189319670200348,-0.0819538597002336,0.1291837810653698,0.5893944086360234,-0.0701042711734771,-0.1021982878446579,-0.0452663078904151,0.2084832963533699,0.0860705484542995,-11.64828624844551,14935.0
21.9,1.100000023841858,322.0,21.664234161376957,34.081302642822266,-79.78278925778629,40.45908446505128,270.6087439937592,-0.0016255817608907,0.011236198246479,0.9474100470542908,0.3198209702968597,-0.0862344977748054,0.1234172108893171,0.8033105859568747,-0.1036110371351242,-0.0659289360046386,-0.1442723423242569,0.1950954383052885,0.1846750604733824,-11.837050741910934,14935.0
22.0,1.2000000476837158,323.0,21.686769485473643,33.723472595214844,-79.78278926392531,40.459084354092624,270.7013576908112,-0.0018804989522323,0.0126118306070566,0.9472405314445496,0.3202700614929199,-0.0897735658988619,0.1196191891568954,1.0567734326523226,-0.1456911563873291,0.0278426893055439,-0.1545354276895523,0.2293167064525187,0.1541301743499935,-12.250205644369125,14935.0
22.2,1.2000000476837158,331.0,21.725584030151367,33.6280517578125,-79.78278935007945,40.45908419275126,270.9663558883667,0.0018005176680162,0.0182089302688837,0.9477550983428956,0.3184737861156464,-0.0649398860981706,0.1403086097457737,1.5252578289587462,-0.0331943295896053,-0.0124608362093567,-0.0422517620027065,0.3099375128746033,-0.1262994926422834,-12.064626713991164,14935.0
22.4,1.2999999523162842,336.0,21.606639862060547,34.55045700073242,-79.7827894562416,40.4590840345151,271.31569203567506,-0.0007508520502597,0.0147986030206084,0.9485231041908264,0.3163612186908722,-0.0629009940656515,0.1630732820706822,1.9779620826183448,-0.0034614903852343,-0.0215951986610889,-0.0601966008543968,0.3575464928895235,-0.0646439657360315,-12.189019210338593,14936.0
22.5,1.600000023841858,341.0,21.390033721923828,36.140811920166016,-79.7827894855593,40.45908393745822,271.526242105484,0.0017762929201126,0.0115445395931601,0.9488270878791808,0.3155800104141235,-0.0811346560929902,0.1617243819392669,2.229500321835701,-0.1612674742937088,-0.0159463454037904,-0.072067305445671,0.275182393938303,-0.0402151940949261,-12.3342277944088,14936.0
22.7,1.7000000476837158,341.0,21.81447982788086,30.2962589263916,-79.78278968478476,40.459083838516726,271.9997529668808,0.0094439284875988,0.0114320181310176,0.9488352537155152,0.3154233396053314,-0.0483415510406915,0.1769334157782706,2.6799524965211763,-0.0420908033847808,0.0618451014161109,-0.0227365605533123,0.3553105541691184,-0.0167279520817101,-12.164186085462571,14936.0
22.8,2.0,339.0,21.7844295501709,31.47312164306641,-79.78278989437405,40.459083815542506,272.2484747452736,0.0139477020129561,0.0108304778113961,0.9487328529357908,0.3155853450298309,-0.0558354299758893,0.1941306883648916,2.815051850058325,-0.1664160639047622,-0.0040736650116741,-0.0457175262272357,0.3391661724820733,0.0026116565871052,-11.659034600257876,14937.0
23.0,2.200000047683716,337.0,21.981002807617188,28.01409912109375,-79.78278986108455,40.459083522091646,272.840843050003,0.0190976336598396,0.0087895495817065,0.948468804359436,0.3161723911762237,-0.0588981732597265,0.2184875176235157,3.0972513445541416,-0.0338187515735626,-0.0602113865315914,-0.0362623929977417,0.3515058440342545,-0.0400661357771605,-11.213393737077713,14937.0
23.11,2.5,336.0,22.04861259460449,27.05988693237305,-79.78279010092473,40.45908356124463,273.09692253005505,0.016915775835514,0.008703994564712,0.948373794555664,0.3165838420391083,-0.0590269366645557,0.2119945604729717,3.1514612117560645,0.0066593149676918,-0.002512983744964,-0.0166266877204179,0.2590977634862065,-0.0850176019594073,-10.854554790258408,14938.0
23.3,2.700000047683716,338.0,22.11246681213379,26.169288635253903,-79.78279001902911,40.45908337787751,273.4155895395279,0.0172603130340576,0.0104806376621127,0.9482104182243348,0.3170006871223449,-0.1248256425133603,0.2098188875590236,3.2151570878454026,-0.2239209562540054,-0.0341079905629158,-0.1485858559608459,0.2584031873568893,0.0434437616262584,-10.485057538747787,14938.0
23.4,3.0,331.0,22.126239776611328,25.57290458679199,-79.7827902790319,40.45908331725915,273.9423096461296,0.0278685856610536,0.0170059874653816,0.9479563236236572,0.3167221546173096,-0.1496287796602457,0.2245676895509697,3.1666593011107667,-0.1573595106601715,0.0107508702203631,-0.0675256326794624,0.3053902428969741,0.0202193245477974,-9.815563040971757,14938.0
23.5,2.900000095367432,325.0,22.124988555908203,25.73194122314453,-79.78279008185275,40.4590831079661,274.2571338100433,0.0286165308207273,0.0176261570304632,0.9479745626449584,0.3165670335292816,-0.1696920984704845,0.2281455631179694,3.135454319231518,-0.0065795225091278,0.0345529206097126,-0.0734717547893524,0.194266065582633,0.0942244632728398,-9.564773622751236,14939.0
23.7,2.900000095367432,317.0,22.19510269165039,24.523271560668945,-79.78279002362211,40.45908299036547,274.77258190345765,0.0286168400198221,0.0160412658005952,0.9481703639030457,0.316064715385437,-0.2350657251333042,0.1722710591076214,2.9962524972137685,-0.080795370042324,-0.0604225657880306,-0.1135111451148986,0.2310695920698345,0.0910165711306035,-9.31236627995968,14939.0
23.81,2.900000095367432,311.0,22.098695755004886,25.914831161499023,-79.78279008475924,40.45908305125382,274.9795964641571,0.0264635533094406,0.011574825271964,0.9484849572181702,0.3155027627944946,-0.237810083252313,0.1379199319099611,2.8832363306700097,0.1372507810592651,-0.0544135719537735,0.0524020381271839,0.2219789076223969,-0.1023337656632065,-9.266113634705544,14939.0
24.0,2.799999952316284,293.0,22.08867835998535,25.73194122314453,-79.78278930628842,40.459082640588825,275.54570421409613,0.0138335088267922,0.0040211728774011,0.9487736821174622,0.3156280517578125,-0.334582096826085,0.0465969603777415,2.8050374668842424,0.1085472255945205,-0.0039018706884235,0.0938147827982902,0.0729795370995998,-0.1884926344826816,-9.462922142744064,14940.0
24.2,2.700000047683716,290.0,22.014806747436523,26.86904335021973,-79.78278850691855,40.45908220661921,276.116635887146,0.0115589229390025,0.006986716762185,0.9487102627754213,0.3158583343029022,-0.3934918016239067,0.0071220744040328,2.7442975672922407,0.1643316745758056,0.1151211708784103,0.1129492968320846,0.1199000622890889,0.0188293774332851,-9.53387635052204,14941.0
24.3,2.400000095367432,284.0,22.06614112854004,25.652421951293945,-79.78278813591604,40.459081969623256,276.41035446357733,0.0103960987180471,0.010383915156126,0.9487329721450806,0.3157371580600738,-0.4032321800538033,0.0209704610573896,2.7408872967455338,0.0747514218091964,0.0772294849157333,0.0205703843384981,0.206981037016958,-0.0504290921241045,-9.808895460963251,14941.0
24.5,2.400000095367432,283.0,22.07740974426269,25.54109764099121,-79.78278720480483,40.4590815321896,276.95764121246344,0.0029471539892256,0.0165840573608875,0.948646366596222,0.3158898055553436,-0.4515005820090168,0.0340416447630486,2.7361237565174945,0.1007521301507949,0.0347120836377143,-0.0060186968185007,0.1911057917028665,0.0898776066116988,-9.763744431138038,14941.0
24.61,2.400000095367432,277.0,22.0673942565918,25.81941032409668,-79.78278665445276,40.45908104481071,277.32349166107184,-0.0004637034726329,0.0164875611662864,0.9487290382385254,0.3156601190567017,-0.4532682548364999,0.0447278981239028,2.743174551247002,0.2146206498146057,0.0234471336007118,0.1477236449718475,0.2660328536108136,-0.3672230500727892,-9.814876577854156,14942.0
24.8,2.299999952316284,277.0,22.091182708740234,25.135557174682607,-79.78278619264971,40.459080837096025,277.59830054473883,-0.0040814098902046,0.0163812488317489,0.9487364888191224,0.3156169950962067,-0.4827207732359282,0.0315666000767904,2.744370796123391,-0.0181226599961519,-0.1076128482818603,-0.067774124443531,0.2356570799276233,0.0242369829677045,-9.817817727327348,14942.0
24.91,2.0999999046325684,273.0,22.03984832763672,25.81941032409668,-79.78278526689607,40.459080562552586,278.1320205612183,-0.0131829902529716,0.0181326959282159,0.948443591594696,0.3161523342132568,-0.4450097150852389,-0.0049487743797198,2.7178641515683526,0.2285639941692353,0.0432217828929424,0.1714832782745361,0.2558256798796356,-0.3321731583774089,-9.966474999189376,14943.0
25.1,2.0,277.0,22.091182708740234,25.54904937744141,-79.78278419349421,40.459080332772686,278.6548548622132,-0.0156896375119686,0.0191006679087877,0.9479759931564332,0.3173808157444,-0.4056453486288521,-0.0363538768939926,2.6906380012927973,0.0807545334100723,0.115823321044445,0.0702038779854774,0.1547191899642348,-0.0989938452187925,-9.807091594934462,14943.0
25.2,2.0999999046325684,289.0,22.0035400390625,26.14543342590332,-79.78278384848129,40.45908025601411,278.924412815094,-0.0151601210236549,0.0205713082104921,0.9476690292358398,0.3182300925254822,-0.3907308892957076,-0.0379050626916177,2.67715123464156,-0.1274008452892303,-0.0519689209759235,-0.120762713253498,0.1953449865058064,0.1805273745954037,-9.678800175189972,14943.0
25.31,2.0,297.0,21.970985412597656,26.95651435852051,-79.78278355692332,40.4590803824776,279.12097415161134,-0.0153283309191465,0.0207400918006896,0.9473463892936708,0.3191705048084259,-0.3164526416791332,-0.0506283860169702,2.6077112965592475,0.0503656640648841,0.061548214405775,0.0933609902858734,0.1690728618577122,-0.029049045019783,-9.676516837477685,14944.0
25.51,2.0999999046325684,307.0,22.151281356811523,23.95869445800781,-79.78278304314108,40.45908039845397,279.64130267333985,-0.0175620503723621,0.0236465018242597,0.9468820691108704,0.3202293217182159,-0.2365935327758895,-0.0710657711296778,2.583812838412241,0.1094057485461235,0.0607174932956695,0.0072116660885512,0.2195675341598689,0.0382573270238936,-9.687618945837023,14944.0
25.7,2.0,311.0,21.96973419189453,26.185192108154297,-79.78278303383136,40.45908044540405,279.87841567230225,-0.0188199002295732,0.0249956175684928,0.9468380212783812,0.3201857209205627,-0.172782527126676,-0.0670562785766493,2.5139499185590664,0.0736639127135276,-0.0012757785152643,0.1067529618740081,0.2739194136299193,-0.2817671993002296,-9.576592015028,14944.0
25.8,2.200000047683716,320.0,21.83701705932617,28.022050857543945,-79.78278202118993,40.459080078565,280.55675038528443,-0.0206612255424261,0.0252601560205221,0.9468660950660706,0.3199682831764221,-0.1223674398480314,-0.0718438950716168,2.49922751274884,0.0817205384373664,0.0496427975594997,0.0484631285071373,0.2701895661279559,-0.1751823982223868,-9.595093774795531,14945.0
26.0,2.299999952316284,318.0,21.845781326293945,27.57675170898437,-79.78278188548524,40.45908037810535,281.05803021621705,-0.0216998625546693,0.0214708689600229,0.9470908045768738,0.3195110857486725,-0.035837997538969,-0.093974033889117,2.51874084106641,0.0662600323557853,-0.0446415394544601,-0.0663568526506424,0.2483057585544884,0.0669552421756088,-9.864013069868088,14946.0
26.1,2.5,314.0,21.922155380249023,26.36808204650879,-79.78278111914908,40.459079924141776,281.4973588867188,-0.0226930305361747,0.0194306354969739,0.9469836354255676,0.3198899328708649,-0.0094853141172848,-0.0968825547501457,2.572987125590392,0.0975764468312263,0.0903207212686538,0.0778295323252677,0.1494430645555257,-0.1142255587689578,-9.923480422496796,14946.0
26.2,2.5999999046325684,313.0,21.872074127197266,27.22687339782715,-79.78278113489857,40.45908012452136,281.7549596710205,-0.0223589297384023,0.0190677903592586,0.9468747973442078,0.3202573359012604,0.0279804972391856,-0.1156305454813398,2.589085902262705,0.0272070989012718,0.0060585476458072,0.0581936314702034,0.189707283899188,-0.2484737380966545,-9.972238014936448,14946.0
26.4,2.799999952316284,309.0,21.87332534790039,27.807353973388672,-79.78278070040061,40.4590800083515,282.4326578063965,-0.0223104692995548,0.0158117245882749,0.9471533298492432,0.3196137845516205,0.0581437898561115,-0.095630163569061,2.6536096496634425,-0.1852699667215348,-0.1474771350622177,-0.269408255815506,0.1249995378311723,0.1301783345080912,-9.912021049261094,14947.0
26.6,3.0,308.0,21.88709831237793,26.821332931518555,-79.78278042741707,40.45908016882679,283.09406813812257,-0.0206981748342514,0.0131326643750071,0.9477533102035522,0.3180611133575439,0.1604635859928579,-0.1202432464307421,2.67201665180812,0.1795568168163299,0.1184706687927246,0.054124541580677,0.1695147651806473,-0.0854528906196355,-9.75726045370102,14948.0
26.7,3.0999999046325684,300.0,21.932172775268555,26.39193725585937,-79.7827806014962,40.45908043792297,283.35980662536616,-0.0207340791821479,0.0140330381691455,0.9476738572120668,0.3182571530342102,0.196129466916519,-0.1180997601706047,2.665092938364492,0.0531957708299159,0.0939522758126258,0.0681185498833656,0.0843242409545928,-0.2620554496161639,-9.742372857928276,14948.0
26.8,3.2000000476837163,297.0,21.8570499420166,27.79145050048828,-79.78278041122066,40.45908054488793,283.757860748291,-0.020415024831891,0.0155822522938251,0.9475588798522948,0.3185476660728454,0.2232215746156855,-0.1100412054279698,2.6849835454782003,0.0468712337315082,-0.0087401391938328,0.0593790151178836,0.2047349753044546,-0.2876601328700781,-9.78521716117859,14948.0
27.0,3.400000095367432,292.0,21.78818702697754,27.91867828369141,-79.78278092962967,40.45908117082009,284.2910343093872,-0.0215068291872739,0.0139048360288143,0.9473538398742676,0.3191629350185394,0.2686763595870678,-0.102163810134002,2.6845803205459746,-0.1328839212656021,-0.0750122815370559,-0.1441251337528228,0.0297978175291791,0.0119401788152754,-9.737574632763865,14949.0
27.1,3.5,286.0,21.88083839416504,26.92470741271973,-79.78278080173642,40.4590810843931,284.69878634643555,-0.0167497359216213,0.0110993813723325,0.9478179216384888,0.31817826628685,0.3068153911650672,-0.1043537756928147,2.7172918449251307,0.05229477211833,0.037039577960968,0.1260215938091278,0.0983952365163713,-0.2771792180836201,-9.798643537759784,14949.0
27.3,3.5999999046325684,277.0,21.83075523376465,28.642290115356445,-79.78278080053055,40.45908137912548,285.3738923950196,-0.0115653295069932,0.0058150426484644,0.948714315891266,0.3158696293830872,0.3632693732178581,-0.1031458070153803,2.7310411911049,0.0793373808264732,0.006708487868309,0.016854403540492,0.123915601093322,-0.220619539618492,-9.688715883493424,14950.0
27.5,3.700000047683716,273.0,21.76064109802246,28.037954330444336,-79.78278147333675,40.459082034111965,285.91651877593995,-0.0126480758190155,0.0031788772903382,0.9491570591926576,0.3145326375961304,0.3972683145723066,-0.1170932071747638,2.7439470818300125,0.0800428390502929,0.0640635192394256,0.0361220613121986,0.0662020522775128,-0.1765488011576235,-10.025973926782608,14950.0
27.6,3.700000047683716,267.0,21.855796813964844,26.550973892211918,-79.78278156847173,40.45908220461008,286.3140483779908,-0.0116688655689358,0.0026672875974327,0.9489006400108336,0.3153479397296905,0.4009281511902849,-0.1052386620715429,2.8077072206338625,0.0787963047623634,0.0257238782942295,0.1041583344340324,0.0952878525294363,-0.3364105624705553,-10.03780986070633,14951.0
27.7,3.5999999046325684,264.0,21.7744140625,27.57675170898437,-79.78278194489364,40.45908252612399,286.5940147323608,-0.0102932387962937,0.001872839173302,0.9484293460845948,0.3168159425258636,0.4233596320515093,-0.0981701889174802,2.806940857178716,0.11873409897089,0.087599292397499,0.1299040913581848,0.1147732601501047,-0.2489606284350157,-9.854683252573016,14951.0
27.9,3.5,261.0,21.844528198242188,27.20301818847656,-79.78278247254207,40.459083008416464,287.25679263305665,-0.0056923227384686,0.0026980643160641,0.9481293559074402,0.3178225159645081,0.4463378463023333,-0.0827476406576827,2.83284239361426,-0.0295012667775154,0.008793500252068,0.0538554042577743,0.152038597902283,-0.2229282030835748,-9.876198667287827,14952.0
28.0,3.5,259.0,21.829504013061523,27.266632080078125,-79.78278287976585,40.45908332742287,287.5397458953857,-0.0029661932494491,0.0002499066467862,0.9480575919151306,0.3180850744247436,0.4415526053273484,-0.0615795341809243,2.8388948842406427,-0.2295447736978531,-0.1910979896783828,0.0062872380949556,0.0833364086877554,-0.0948376808781176,-9.839557675123215,14952.0
28.2,3.5,252.0,21.91339111328125,25.056039810180664,-79.7827834226353,40.459083808597256,288.20498236846925,0.0016090929275378,-0.0083610396832227,0.9475951790809632,0.3193603754043579,0.4543997355191492,-0.0666972977660863,2.8679263935308352,-0.1253778338432312,-0.0634027570486068,-0.161859706044197,0.0238484606123529,0.1507934059202671,-9.790114204287528,14953.0
28.41,3.5,251.0,21.87833404541016,26.19314384460449,-79.78278402150917,40.45908410450061,288.85642489624024,0.0062071029096841,-0.0103155979886651,0.94772607088089,0.3188581168651581,0.4630213516920728,-0.0592045324918144,2.8499841985913354,-0.0280362069606781,0.0295439772307872,0.1319997608661651,0.0304418312315829,-0.3851541215926409,-9.7039057803154,14953.0
28.5,3.5,251.0,21.90337562561035,26.09772109985352,-79.78278439922127,40.45908432302822,289.1415782852173,0.006099603138864,-0.0068602883256971,0.9481529593467712,0.3176819086074829,0.4330800435592535,-0.0347533846778958,2.8378184265518875,-0.0464437082409858,0.047000229358673,-0.18204565346241,0.0693240360310301,0.0191860210429877,-9.635606208443642,14954.0
28.6,3.400000095367432,251.0,21.83952140808105,26.78952598571777,-79.78278443411862,40.45908435131484,289.5078073425293,0.0038307984359562,-0.002925670472905,0.9487475752830504,0.3159983158111572,0.3803491701493961,-0.0057751306238465,2.8476076030124067,0.0764846876263618,0.0599811635911464,-0.148854985833168,0.0448426440171897,0.0018858366832137,-9.650828264951707,14954.0
28.8,3.5,252.0,21.92716407775879,25.262784957885746,-79.78278503271142,40.45908450628208,290.15692195129395,0.0015640598721802,0.0018036228138953,0.9499622583389282,0.3123556971549988,0.3294488767418416,0.0304217967912208,2.846192059072102,0.0900389999151229,0.1350463330745697,0.019070079550147,-0.0005856488971039,-0.3345240314304829,-9.617987962961196,14955.0
29.0,3.5,251.0,21.77190971374512,27.163259506225582,-79.78278561230249,40.459084772695896,290.7217374725342,-0.0004290585929993,0.0038977011572569,0.9500993490219116,0.3119228184223175,0.2637040944542446,0.042262160828018,2.8077822768100043,0.013760520145297,-0.0030481072608381,0.0131317311897873,-0.0196715043950826,-0.294147180095315,-9.656650922298432,14955.0
29.1,3.5999999046325684,251.0,21.818235397338867,26.360130310058597,-79.78278576511717,40.45908482133572,291.0855241699219,-0.0024587826337665,0.0036973969545215,0.9496834278106692,0.3131800591945648,0.2461222402846461,0.0415125648302929,2.8524645925708105,-0.0302893407642841,0.0068866810761392,0.0019062799401581,-0.0177168167475611,-0.2823196332715452,-9.90864369750023,14956.0
29.3,3.5999999046325684,252.0,21.86581420898437,25.95458984375,-79.78278593860885,40.45908478777158,291.72419413757325,-0.0076429327018558,0.000374663650291,0.9491079449653624,0.3148581385612488,0.1705037595807423,0.0238051516318107,2.874006768449937,0.0533765964210033,-0.0306199211627244,0.0303972754627466,0.0469144906802102,-0.3831124566122889,-9.802293369770052,14956.0
29.4,3.700000047683716,257.0,21.912139892578125,25.453628540039062,-79.78278614607869,40.4590848766202,292.0108457489014,-0.0091615039855241,-0.0017164822202175,0.9489291310310364,0.3153519332408905,0.1427211531643342,0.0154719415237616,2.8638956391866315,-0.1544158607721328,-0.0810183137655258,0.0117916222661733,-0.0200319304224103,-0.2342766619473696,-9.709399824142457,14957.0
29.51,3.700000047683716,259.0,21.778169631958008,26.964466094970703,-79.78278634816003,40.459084957289,292.29584178161616,-0.0099575649946928,-0.0018804536666721,0.9488593935966492,0.3155363798141479,0.1332615713202012,0.0112974168618063,2.84884316679185,-0.0964158028364181,-0.0259079691022634,-0.216330423951149,-0.0622146120853722,-0.0497057550027966,-9.640418466925624,14957.0
29.7,3.700000047683716,260.0,21.86831855773925,25.37411117553711,-79.78278646477591,40.45908475956117,292.936571685791,-0.0073728743009269,0.0014422840904444,0.9494513869285583,0.3138242363929748,0.0954411271819456,0.0446405583420973,2.879233442958101,-0.0902021080255508,0.0913092046976089,-0.1262686252593994,-0.006731580182095,-0.0894747334532439,-9.865387165546418,14957.0
29.8,3.700000047683716,260.0,21.875829696655277,25.15146064758301,-79.78278625085504,40.459084544595015,293.29048785400386,-0.0030644268263131,0.004314674064517,0.94979989528656,0.3128133416175842,0.0810039190769756,0.0585962522942833,2.9034083883357886,-0.0289794709533453,0.1446106731891632,-0.118278183043003,0.0536896777292713,-0.10394805399701,-9.89505710721016,14958.0
30.0,3.5999999046325684,257.0,21.75563240051269,27.7039794921875,-79.7827865557873,40.45908458175872,293.8743825836182,-0.0026217764243483,0.0108220931142568,0.9499135613441468,0.3123143911361694,0.0856300356690986,0.0975795302059267,2.9477518163527057,0.0679861754179,-0.0590761266648769,0.0106591936200857,0.0999000722821802,-0.3020069525577128,-10.114793132543564,14958.0
30.2,3.5999999046325684,254.0,21.849536895751957,25.62856674194336,-79.78278662144714,40.45908448116293,294.520519821167,-0.0044638207182288,0.0119725158438086,0.9498105645179749,0.3125646710395813,0.0415641609524473,0.0845399237048925,3.0187329240427334,-0.0046541229821741,-0.0128018921241164,-0.0092249633744359,0.0792197404615581,-0.3221234392002225,-10.06678983092308,14959.0
30.3,3.5999999046325684,253.0,21.816984176635746,26.3521785736084,-79.78278650227054,40.45908425091336,294.85962924194337,-0.0066746803931891,0.0100015606731176,0.9494895339012146,0.3135683536529541,0.0311680040911012,0.0788202756164131,3.0204875577535386,0.0873620361089706,-0.0380249843001365,0.0651855170726776,0.1075956567563116,-0.3428420976921916,-10.002393275499344,14959.0
30.5,3.5999999046325684,252.0,21.72683525085449,27.3620548248291,-79.78278657908123,40.4590842781447,295.16298350524914,-0.0085619129240512,0.0058607505634427,0.9489269852638244,0.3153251111507416,0.0172373553147767,0.058229155389266,3.0463231110793108,0.0452496819198131,-0.050017986446619,0.0382685251533985,0.0786813580803573,-0.2333897672407329,-10.0210646045208,14960.0
30.6,3.5,255.0,21.888351440429688,25.06399154663086,-79.78278659481386,40.4590841657314,295.8107839508057,-0.0117007065564394,-0.0017113675130531,0.9475422501564026,0.319411963224411,0.0206728594243226,0.0057140773425257,3.106797067556578,0.1045692563056945,-0.0306073483079671,0.1248433217406272,-0.1142415107041597,-0.3164931552484632,-10.207195512056352,14960.0
30.8,3.5,256.0,22.02231979370117,23.00448226928711,-79.78278657424367,40.45908401963104,296.466507522583,-0.012665064074099,0.0018219568300992,0.947443187236786,0.3196682035923004,-0.0046383249089857,-0.0096259638224517,3.1327146783891,-0.0954464524984359,-0.0430184826254844,0.0227704010903835,-0.000316626727581,-0.4162916412949562,-9.968736702203753,14961.0
30.9,3.400000095367432,256.0,21.91714859008789,25.127605438232425,-79.78278666224458,40.45908404446894,296.7785688323975,-0.0117795076221227,0.0019171133171767,0.9479902386665344,0.3180756270885467,-0.0114664794447163,0.0113953185850495,3.1108453876825792,-0.1671901643276214,-0.0593974702060222,-0.2354392111301422,-0.0245877291122451,-0.099856565343216,-9.672307426929477,14961.0
31.0,3.400000095367432,257.0,21.94719696044922,23.78375625610352,-79.78278674938254,40.45908406637124,297.08847865295417,-0.0097221042960882,0.0013154812622815,0.9484459757804872,0.3167872726917267,-0.0017242882702298,0.0138553091650727,3.094859371843204,0.0160995498299598,0.0299264676868915,-0.0472522936761379,-0.0638527460955083,-0.1022057116404175,-9.673465760350226,14962.0
31.2,3.400000095367432,258.0,21.90337562561035,24.05411529541016,-79.78278684563062,40.45908402008139,297.7274671478272,-0.0062849503010511,0.001894378918223,0.9484274983406068,0.3169263601303101,0.0265174508434428,0.0199818178827622,3.0409507629963493,0.0291608981788158,0.0829038694500923,0.0139170894399285,0.0354309474304318,-0.3183056459203363,-9.655841082930566,14962.0
31.3,3.400000095367432,254.0,21.938432693481445,24.01435661315918,-79.78278671936772,40.45908380696872,298.0805974884033,-0.006133965216577,0.004114787094295,0.9480039477348328,0.3181729316711426,0.0055844274398314,0.03028896750648,3.035323312975628,-0.1190304160118103,-0.0012521961471065,-0.1423244178295135,0.0233683927869424,-0.0532188718020916,-9.668457035422326,14963.0
31.5,3.5,253.0,21.978498458862305,23.89508056640625,-79.78278684546197,40.459083819766334,298.68511065673835,-0.007989514619112,0.0064215031452476,0.9467875361442566,0.321696013212204,0.0002287773206861,0.0445118273461671,3.0123942403181863,0.2180924415588379,0.0602519884705543,0.0867988839745521,0.0491327187325805,-0.3826014465093613,-9.73126080930233,14963.0
31.7,3.5,253.0,22.058629989624023,21.978702545166016,-79.7827867401431,40.45908366036753,299.0373044891357,-0.0095469141378998,0.0044479337520897,0.9465742111206056,0.3223141729831696,-0.0219561987760327,0.0312855036797033,3.001456270001352,-0.02715440467,-0.1118175238370895,-0.0026942756958305,-0.0178898486495018,-0.3497888822481036,-9.627168676257131,14964.0
31.8,3.5,252.0,21.87332534790039,24.55507850646973,-79.78278658058505,40.459083416148026,299.69286975097657,-0.0103917177766561,0.0024608534295111,0.9474108815193176,0.3198415040969849,-0.0214217712618292,0.0022485968943701,2.9434843434158666,0.1764780282974243,0.0305351801216602,0.0330368839204311,0.0052522477554157,-0.4355036915838719,-9.400871490240098,14964.0
31.91,3.5,254.0,21.829504013061523,25.914831161499023,-79.78278660033166,40.459083423910776,299.98569354248053,-0.0127054536715149,0.001190468436107,0.9480831623077391,0.3177664279937744,-0.0532779390146112,0.00306999673114,2.9142424484897,-0.0964623019099235,-0.1268850862979889,-0.2600125968456268,-0.0064847037708386,-0.054124395372346,-9.451076268553734,14964.0
32.1,3.5,256.0,21.838268280029297,25.636518478393555,-79.78278673020375,40.459083347939774,300.6161313934326,-0.0144954584538936,0.002993545262143,0.9493959546089172,0.313732773065567,-0.0251610047045114,-0.0195781839918682,2.9233970854676588,0.0957678779959678,0.1382466405630111,0.0776980221271514,-0.0490335718821734,-0.331504638902843,-9.751200984120368,14965.0
32.2,3.5,256.0,21.82699966430664,25.23097801208496,-79.78278678308807,40.45908336908255,300.90893229675294,-0.0112540870904922,0.0059196590445935,0.9495875239372252,0.3132440447807312,-0.0328890185069098,0.0013139616647167,2.9329746118982003,-0.0913456454873085,0.0865478664636612,-0.0506569258868694,0.0722938140202313,-0.3382353322952986,-9.849807844161989,14965.0
32.4,3.5,257.0,21.90963554382324,24.10182762145996,-79.78278652334386,40.45908316605037,301.5499864501953,-0.0085217719897627,0.0105936275795102,0.9492034316062928,0.3143693804740906,-0.0419839989752398,0.0253605411230078,2.966716354304201,-0.0625184550881385,-0.0540102533996105,-0.062425673007965,0.0451009995862841,-0.1840366358868778,-9.82714403629303,14966.0
32.6,3.5,258.0,21.88334274291992,24.642547607421875,-79.7827862720858,40.45908284327854,302.19477137756354,-0.0107052735984325,0.0105652986094355,0.9484160542488098,0.3166716694831848,-0.069697236833154,0.0342198766588032,2.9791800078702813,0.0505391024053096,-0.0647186189889907,0.0873875096440315,0.0333694201894104,-0.2271745059080422,-9.816512628793715,14967.0
32.71,3.5,259.0,21.87332534790039,24.769775390625,-79.78278626359969,40.4590828567729,302.49282321167,-0.0126437488943338,0.0086471969261765,0.9481561779975892,0.317435473203659,-0.0655042246941294,0.0207331947769395,2.9790511646122773,0.1636943370103836,0.0115728313103318,0.1174889430403709,0.0774727294687181,-0.4479540947824717,-9.845464532375336,14967.0
32.8,3.5,259.0,21.844528198242188,25.262784957885746,-79.78278600734382,40.45908263195141,302.842239944458,-0.0129420328885316,0.006507743615657,0.9479917287826538,0.3179653584957123,-0.0750280652532135,0.0021652617901709,2.9959163027955,0.1617269068956375,-0.0077191381715238,0.1135615929961204,0.0518516694428399,-0.5096422199159861,-9.827156900167466,14967.0
33.0,3.5,262.0,21.870820999145508,25.49338722229004,-79.78278598167185,40.45908266554345,303.44283923339844,-0.0147327380254864,0.0049610412679612,0.9475636482238772,0.3191889822483063,-0.0873199900063521,-0.0126535361658711,2.997683271492064,-0.0188889391720294,-0.0438317731022834,-0.1977938860654831,0.0639529618900269,0.096050512176007,-9.693288990855216,14968.0
33.2,3.400000095367432,264.0,21.696786880493164,27.5369930267334,-79.78278577284432,40.459082396220616,304.0897699279785,-0.0150995645672082,0.0067965886555612,0.9473561644554138,0.3197534084320068,-0.0797240391794369,0.00287279479543,3.0038648319280945,-0.0013623686973005,0.0357641503214836,0.0512787513434886,0.1058127219323069,-0.423655332326889,-9.884757821559909,14969.0
33.3,3.5,267.0,21.858301162719727,25.262784957885746,-79.78278548913157,40.45908224325071,304.4388891143799,-0.0129619901999831,0.0070082428865134,0.9472084641456604,0.3202798664569855,-0.0852942201133711,0.0039601949892977,3.0394831482523235,-0.0785270929336547,-0.0442327298223972,0.0197968930006027,0.076981143085286,-0.3268413016945124,-9.990917530059814,14969.0
33.5,3.5,267.0,21.859554290771484,24.97652244567871,-79.7827855072113,40.459082256148974,304.7432580871582,-0.0116570219397544,0.0075027872808277,0.9470813274383544,0.3206943869590759,-0.0676351576256175,0.0111017086713009,3.041662591081893,0.0207788031548261,-0.0144457835704088,-0.0623316578567028,0.0600581817934289,-0.1069241588562727,-9.864362733364104,14969.0
33.6,3.5,266.0,21.90337562561035,23.624719619750977,-79.78278537613896,40.45908210219194,305.38513049316407,-0.0112345535308122,0.0098353559151291,0.9473074674606324,0.3199777007102966,-0.0459221347526886,0.0262678495962946,3.0232484396503807,0.0077990316785871,-0.0009444944444112,0.0786576643586158,0.1249659528862685,-0.3489283913746476,-9.750722097158432,14970.0
33.7,3.5,269.0,21.78693389892578,25.76374816894531,-79.78278540981073,40.459082119636655,305.68689212036134,-0.0116436807438731,0.0106662902981042,0.9473989009857178,0.3196654617786407,-0.055276823206713,0.0368824867293488,3.011759166731641,-0.0871599987149238,-0.0547050647437572,-0.0957794040441513,0.0415375784598291,-0.0432109510805457,-9.653177676200867,14970.0
33.9,3.5999999046325684,272.0,21.743112564086918,26.455551147460927,-79.78278540358741,40.45908202490693,306.32315310668946,-0.0116567183285951,0.0134882861748337,0.9478728771209716,0.3181497752666473,-0.0346431710798489,0.0353020048145423,3.003267890186314,-0.0135637689381837,0.0227931812405586,0.028832621872425,0.1515031848102808,-0.3701210763305426,-9.809477258920673,14971.0
34.1,3.5999999046325684,275.0,21.72683525085449,26.43169593811035,-79.78278545380138,40.4590820589547,306.6230379028321,-0.0091552548110485,0.0147893205285072,0.9479598402976992,0.3179144561290741,-0.0435352550091028,0.0486231174381883,2.995208937308764,-0.115842156112194,-0.0172543004155159,-0.0444779507815837,0.1630842166766524,-0.1543133566528559,-9.6748895573616,14971.0
34.21,3.5999999046325684,277.0,21.789438247680664,25.75579643249512,-79.78278554786256,40.45908203225235,307.2515397949219,-0.0020840556826442,0.0094307092949748,0.9471561908721924,0.3206275105476379,0.0041120902763781,0.0638126972641607,3.029518340007765,0.1133731007575988,0.0219603739678859,0.1787146478891372,0.1213680788688361,-0.4792653498798609,-10.0199524641037,14972.0
34.4,3.5999999046325684,277.0,21.80821990966797,25.88302421569824,-79.78278548279019,40.4590818529491,307.8824067993164,-0.009986019693315,0.0143525442108511,0.94622403383255,0.3230394423007965,-0.0432285386787549,0.0607750141559412,3.043591886271978,-0.0312448367476463,-0.0622174143791198,-0.093694806098938,0.1553415164351463,-0.216015149652958,-9.829625594615935,14972.0
34.51,3.5,281.0,21.7844295501709,25.66037368774414,-79.78278551290056,40.45908185783691,308.1855874938965,-0.0173999946564435,0.0172943249344825,0.9462524056434632,0.3224975168704986,-0.055699420551035,0.0775145784801475,3.0219736207724552,0.2009477466344833,0.0138628408312797,-0.0357567630708217,0.2584458172135055,-0.2509421950019896,-9.7026018512249,14973.0
34.61,3.5,282.0,21.709306716918945,26.72591209411621,-79.78278550922953,40.45908173158249,308.5138612670898,-0.0211520884186029,0.017080508172512,0.9465115070343018,0.3215226233005524,-0.0804344058228771,0.0794037588729171,3.0055970297969883,0.0360250025987625,-0.0176882892847061,0.1522292196750641,0.2218799800425768,-0.6012884082645178,-9.777778918147089,14973.0
34.8,3.400000095367432,289.0,21.82073974609375,25.827362060546875,-79.78278544928986,40.45908155093383,309.14477786254884,-0.0147962644696235,0.0164906214922666,0.9468810558319092,0.3208199143409729,-0.0837762606120085,0.0678813653398913,3.0341632235418468,-0.1314168125391006,0.0522895827889442,-0.0641125589609146,0.1716632332094013,-0.2435632646642625,-9.930784764289855,14974.0
35.0,3.400000095367432,285.0,21.7456169128418,26.28856468200684,-79.7827855258476,40.45908158199099,309.4488817138672,-0.0100438669323921,0.0164305716753005,0.9474061131477356,0.3194540441036224,-0.0453889697486267,0.0710174699880501,3.0534592743712574,-0.0674687549471855,0.0565359406173229,-0.1138392686843872,0.0495435678586363,-0.0816256869770586,-9.967031654119491,14974.0
35.1,3.5,285.0,21.710559844970703,26.39193725585937,-79.78278551751889,40.45908146113137,310.0881906433105,-0.0049058040603995,0.0168155506253242,0.949146807193756,0.3143462240695953,-0.0129502514881884,0.0611515296632487,3.0788951997845664,-0.2431483119726181,-0.0896169692277908,-0.2190683335065841,0.0270678895851597,0.0171560322213918,-9.89918290257454,14975.0
35.3,3.5,285.0,21.87833404541016,24.35628318786621,-79.7827855782428,40.45908147705434,310.72381076049805,-0.0081723574548959,0.012615748681128,0.9508321285247804,0.3093420565128326,0.0175691884617821,0.0324609002951922,3.0734453606520136,0.2014475762844085,-0.0276032444089651,0.1281850039958954,0.1390192606206983,-0.4878254908695817,-9.769872313141825,14975.0
35.41,3.400000095367432,279.0,21.72433280944824,26.32832336425781,-79.78278560608196,40.4590815569655,311.02970751953126,-0.0124463662505149,0.0101647330448031,0.9510046243667604,0.3087590038776397,0.0014951094565676,-0.0094672691723711,3.0438184313450813,0.0860843285918235,-0.0398084074258804,0.130067378282547,-0.0562258481327444,-0.4297032902017236,-9.574195241332054,14976.0
35.6,3.400000095367432,280.0,21.72808837890625,25.898927688598643,-79.78278562675334,40.45908164338872,311.3327546997071,-0.0153017090633511,0.0087119024246931,0.9507185220718384,0.3095549643039703,-0.0339232147376397,-0.0308099555847832,3.021305918687895,-0.184014081954956,-0.1301130503416061,-0.0327279716730117,-0.0087065497878938,-0.2960878344252706,-9.56207922577858,14976.0
35.7,3.400000095367432,275.0,21.811975479125977,24.507368087768555,-79.78278565821857,40.459081693355714,311.97141513061524,-0.0130180763080716,0.0080143716186285,0.950053095817566,0.3117139339447021,-0.0251146899734012,-0.0548268845372482,2.996961023920496,0.0176302846521139,0.0753300860524177,0.0705169513821601,-0.0636196523252874,-0.1932976570352912,-9.590423018932343,14976.0
35.9,3.400000095367432,273.0,21.710559844970703,26.09772109985352,-79.78278552559742,40.45908179040831,312.6017442626953,-0.0129065681248903,0.010015700943768,0.9492061138153076,0.3142306804656982,-0.0152120406748387,-0.055037065453301,2.950172400454772,-0.1525812149047851,-0.0654664263129234,-0.0055517861619591,0.0698799280822277,-0.3409423007816076,-9.588899234533311,14977.0
36.0,3.5,269.0,21.666736602783203,26.95651435852051,-79.78278553632663,40.45908189856664,312.89682635498053,-0.0100565552711486,0.0091074481606483,0.9491621255874634,0.314495176076889,-0.0312430286179734,-0.0576383992020211,2.9580167423061687,-0.2198997437953949,-0.151842400431633,-0.0300594884902238,0.0078519826463889,-0.2547703122720122,-9.760349537730216,14977.0
36.1,3.5999999046325684,270.0,21.778169631958008,24.80158233642578,-79.78278538067856,40.45908177785516,313.2417932434082,-0.0096297115087509,0.0075153280049562,0.9496318101882936,0.3131298720836639,-0.0204265076233941,-0.0506267102373493,3.000204547085908,-0.0728472620248794,-0.1209780275821685,-0.1686132550239563,0.1098561355099082,-0.0832101819198578,-9.887051099538803,14978.0
36.3,3.900000095367432,269.0,21.76439666748047,25.517242431640625,-79.78278525278816,40.459081814852745,313.87517413330085,-0.0165199935436248,-0.0024400174152106,0.9512500762939452,0.3079684376716614,-0.0625943552900117,-0.0850642943721093,2.9764768798055683,0.0122816925868392,-0.1009123474359512,-0.1402313858270645,0.005633257809095,-0.3314088907465339,-9.520587383508683,14978.0
36.5,3.900000095367432,270.0,21.7456169128418,26.185192108154297,-79.78278522520195,40.45908187549767,314.17108401489264,-0.0176872834563255,-0.0003522543993312,0.9518232345581056,0.3061366379261017,-0.0758883527281936,-0.1032319954418842,2.945068043863268,-0.0235285684466362,0.0989953055977821,-0.1109909564256668,-0.028952739550732,-0.1935826357081532,-9.485172552466391,14979.0
36.6,4.0,271.0,21.656721115112305,27.07579040527344,-79.78278495251075,40.45908188147351,314.79844149780274,-0.0195883829146623,0.0140801453962922,0.9508236050605774,0.3087921440601349,-0.1087602632947258,-0.0349637801134117,2.919751388893665,-0.0120495948940515,0.0352955311536788,0.004121629986912,0.142650810945779,-0.3749483183026314,-9.47846638083458,14979.0
36.8,4.099999904632568,273.0,21.72808837890625,25.88302421569824,-79.7827847838398,40.45908180368957,315.42273196411134,-0.0226478334516286,0.0154883116483688,0.949420928955078,0.3128054738044739,-0.1613326232991277,0.0237776240219294,2.9217766745159413,-0.1351422369480133,-0.0903689563274383,-0.0194535348564386,0.2332638511061668,-0.4458466851711273,-9.71659306883812,14980.0
36.9,4.199999809265137,274.0,21.759389877319336,25.69218063354492,-79.7827847572121,40.4590818297054,315.7149034423828,-0.020627548918128,0.0140548320487141,0.9486551880836488,0.3153256773948669,-0.158800099567125,0.0093845055855524,2.9123861194704106,-0.0735367760062217,-0.0845693126320838,-0.072493702173233,0.2059680982679128,-0.3411273286119104,-9.68270319163799,14980.0
37.1,4.300000190734863,276.0,21.606639862060547,27.179162979125977,-79.78278450146222,40.45908169732324,316.3357110900879,-0.0183427389711141,0.0179292298853397,0.94747793674469,0.3187909424304962,-0.1704076342802781,0.0102878540255856,2.9302878120644773,-0.0591051802039146,-0.1066840961575508,-0.0590457692742347,0.2430844690650701,-0.5196213705092669,-9.86014922976494,14981.0
37.2,4.5,279.0,21.795698165893555,24.83338928222656,-79.78278442630432,40.459081709580886,316.63078936767585,-0.0165713466703891,0.0141777675598859,0.9476272463798524,0.318633109331131,-0.1991609274098988,0.0210427556729913,2.960501979242927,-0.1250174790620803,-0.1777960658073425,-0.1001588106155395,0.3083582530170679,-0.5882764530926943,-10.051388264894486,14981.0
37.4,4.599999904632568,283.0,21.82073974609375,24.268814086914062,-79.78278422060255,40.45908161038632,317.2565179748535,-0.0243503469973802,0.0109685743227601,0.9485716819763184,0.315433919429779,-0.1800192699231169,-0.0324631868729879,2.974864320125606,0.1058943271636962,0.0406792983412742,-0.1802848428487777,0.0715458089578896,-0.4382524311169982,-9.697417125105858,14982.0
37.5,4.699999809265137,285.0,21.644201278686523,28.06976127624512,-79.78278411920488,40.45908161524756,317.5537019653321,-0.0328508615493774,0.0167111810296773,0.9480256438255308,0.3160520493984222,-0.2276854540032629,-0.0416779762529368,2.956647443547246,0.1340365260839462,-0.0119225196540355,0.052912350744009,0.0819348493684083,-0.5967577297613025,-9.725655083656312,14982.0
37.6,4.699999809265137,286.0,21.56156539916992,28.26060485839844,-79.78278400167825,40.4590814932355,317.86641558837886,-0.0386925786733627,0.0228441599756479,0.9467523694038392,0.31881183385849,-0.2612389449407688,-0.0291827178177797,2.9451970984034404,0.030995950102806,0.0070672668516635,-0.1188931241631508,0.0411237600445747,-0.2923804621584713,-9.69095770597458,14982.0
37.8,4.699999809265137,290.0,21.54904556274414,27.735788345336918,-79.78278388544184,40.459081472038505,318.46885165405274,-0.0364938825368881,0.0166308283805847,0.9454432725906372,0.3233091533184051,-0.2291160709315374,-0.0002383901187268,2.9629854472906465,0.0642402842640876,-0.0946905985474586,0.1266531348228454,0.2569207354635,-0.6537765242904425,-9.906053380966188,14983.0
37.9,4.699999809265137,292.0,21.55906105041504,28.006147384643555,-79.78278388937711,40.45908153319578,318.7660623474121,-0.0332558713853359,0.0071213929913938,0.9453609585762024,0.3242470026016235,-0.1582362431611231,-0.0293375717519304,2.9659778491198026,0.0081236930564045,0.0004928309936076,0.1164453476667404,0.1119152873195708,-0.6658063665032388,-9.832792446613311,14983.0
38.1,4.699999809265137,292.0,21.43886375427246,29.65216445922852,-79.7827838399474,40.45908146632273,319.36943682861335,-0.0204527601599693,0.0117408437654376,0.9460925459861756,0.3230368494987488,-0.0988217982614222,-0.064370484232486,2.95838903093845,-0.2329824715852737,0.1834088861942291,-0.196551039814949,-0.0195377493370324,-0.1959869194217026,-9.724556976556777,14984.0
38.3,4.800000190734863,291.0,21.54904556274414,28.284460067749023,-79.78278387825998,40.45908153349932,319.66590365600587,-0.0125505123287439,0.0185958184301853,0.9469043016433716,0.3207318484783173,-0.0756181800197009,-0.0074568637662747,2.978477018853524,-0.168281078338623,0.0382270142436027,-0.1166104674339294,0.1618033840879798,-0.4452901033312083,-9.954405176639558,14984.0
38.4,4.900000095367432,283.0,21.610395431518555,26.87699508666992,-79.78278408061962,40.45908155067752,320.2716241760254,-0.0118758464232087,0.0187231674790382,0.948708951473236,0.3153725862503052,-0.0288191181559232,0.0509241867988398,3.0515096228099816,0.0507772788405418,-0.0688306093215942,-0.1969886124134064,0.106078770244494,-0.1492373156547546,-10.114000250101087,14985.0
38.5,4.900000095367432,280.0,21.58660697937012,27.55289649963379,-79.7827840907951,40.45908162461068,320.5773759765625,-0.0187436919659376,0.014866579324007,0.9491839408874512,0.3138113021850586,-0.0590118908898474,0.021409891930458,3.064934958214553,0.039278607815504,-0.1776170283555984,-0.1207904741168022,0.1434185046795755,-0.4098192851990461,-9.982533792257309,14985.0
38.71,4.800000190734863,278.0,21.46014976501465,28.554821014404297,-79.78278409627072,40.45908172643757,321.18469104003907,-0.0293981693685054,0.0088946772739291,0.9494782090187072,0.3123264610767364,-0.1105040307455568,-0.0711129300583537,3.0293666002584865,0.1030149236321449,0.0532950423657894,0.0868176221847534,-0.0091407146863639,-0.7342418861389161,-9.848631384372712,14986.0
38.9,4.800000190734863,277.0,21.463905334472656,28.95240974426269,-79.78278407396903,40.45908171526821,321.49595126342774,-0.0313153378665447,0.008859371766448,0.9492122530937196,0.3129489123821258,-0.1174257674140969,-0.0846504516052066,3.0260598084499373,-0.0489050634205341,-0.020189793780446,-0.1085443347692489,-0.0370761894620955,-0.3256744898110628,-9.871481133699415,14986.0
39.0,4.800000190734863,281.0,21.32367515563965,30.43143844604492,-79.7827841456442,40.45908191983797,322.1035943908692,-0.0328042320907115,0.00367172062397,0.9490315318107604,0.3134479224681854,-0.085489204634421,-0.0939003853518275,3.0481004147132893,0.0825322195887565,0.0026160450652241,0.0961835831403732,0.0613555738795548,-0.6035424002632499,-9.987571753263476,14987.0
39.2,4.800000190734863,281.0,21.52024841308593,27.9266300201416,-79.78278422481888,40.45908206976549,322.7202211303712,-0.0259236562997102,0.0014926005387678,0.9491872191429138,0.313639223575592,-0.0444480965055809,-0.0957111339665918,3.0882547057870644,-0.1162389665842056,0.0165440551936626,-0.0887333378195762,-0.096165830232203,-0.5517684850841761,-10.111823916435242,14987.0
39.31,4.900000095367432,279.0,21.493953704833984,28.39578437805176,-79.78278435559328,40.459082044620295,323.02612933349616,-0.0237896256148815,0.0021519204601645,0.9492226839065552,0.3136969804763794,-0.0032420680088194,-0.0842879680756885,3.081365148433788,0.0440972782671451,0.0670709833502769,-0.0403279289603233,-0.0631277324678376,-0.3540850143134594,-9.985230528116226,14988.0
39.41,5.0,278.0,21.57533836364746,26.98036956787109,-79.78278446661265,40.45908215052742,323.33469256591803,-0.023662831634283,0.003171530785039,0.9492223262786864,0.3136989176273346,-0.0090677235499574,-0.0659574143234321,3.0905796665245324,-0.0861036032438278,-0.0104406280443072,-0.013613780029118,-0.0768131269980222,-0.3805096781998873,-9.87843464255333,14988.0
39.6,5.0,272.0,21.45263671875,28.46735000610352,-79.78278481161993,40.45908229287389,323.956404296875,-0.0250204633921384,0.0025399073492735,0.949104368686676,0.3139561712741852,0.0258348686209092,-0.0400106877441151,3.0518912388937847,0.161471277475357,0.0136810112744569,0.0463851056993007,-0.0119826841901522,-0.4937431289255619,-9.68903864979744,14988.0
39.71,5.0,272.0,21.39253807067871,29.604454040527344,-79.78278496311628,40.459082392741024,324.26137789917,-0.0256922207772731,-4.403139973874204e-05,0.9489223957061768,0.3144619464874268,0.0135965576385968,-0.0327956677101642,3.0571804957934083,-0.0938941463828086,-0.0610294640064239,-0.1106865182518959,0.0142649757990147,-0.302769703567028,-9.768742046356204,14989.0
39.9,5.0,272.0,21.415075302124023,28.642290115356445,-79.78278523895851,40.45908246696136,324.8891435546875,-0.0231065973639488,-0.0029865745455026,0.9478996992111206,0.3177157342433929,0.0473983715105376,-0.037586643103854,3.075526421584436,0.1848640739917755,0.0574439689517021,0.2344611585140228,0.0526284080883488,-0.6806573440879584,-10.014078351259233,14989.0
40.1,5.0,272.0,21.37375831604004,29.532888412475582,-79.78278557441153,40.45908247608186,325.519579498291,-0.0233485233038663,0.0016883399803191,0.9468523263931274,0.3208158016204834,0.0316966953262034,0.012033447893439,3.0854882622111086,-0.0847472548484802,0.0309075843542814,-0.1096275150775909,0.0483204628201201,-0.285584316495806,-9.810632668733597,14990.0
40.2,4.900000095367432,275.0,21.45388984680176,28.63433837890625,-79.78278577996434,40.45908251908185,325.82822665405274,-0.0205009914934635,0.0061999442987143,0.9465333819389344,0.3218942880630493,0.0271623370668333,0.0341234466612863,3.095642892232717,-0.0580882616341114,0.0843574926257133,-0.0376044027507305,-0.0154244432598352,-0.532411058396101,-9.8516836309433,14990.0
40.3,4.900000095367432,271.0,21.53902816772461,27.71193122863769,-79.78278598541597,40.45908245659581,326.1547227783203,-0.018103189766407,0.0101658627390861,0.946613609790802,0.3217012882232666,0.040423596592539,0.0706510082302403,3.0900440539030622,-0.020184027031064,0.0465329363942146,-0.1128385439515113,0.0283581759338267,-0.3583719735592604,-9.735440983772278,14991.0
40.5,4.900000095367432,271.0,21.431352615356445,28.73771095275879,-79.78278640785516,40.45908255215164,326.76841220092774,-0.018525656312704,0.0100826108828187,0.947659969329834,0.3185841143131256,0.0374269440379275,0.0905789801736696,3.0639938579381885,0.0197404939681291,-0.0161778330802917,-0.0089278323575854,0.0239033764740452,-0.4144728648662567,-9.763173158168792,14991.0
40.7,4.900000095367432,271.0,21.390033721923828,29.83505630493164,-79.78278659059188,40.45908250965727,327.1018663330078,-0.0168487392365932,0.0067162308841943,0.9488625526428224,0.3151681423187256,0.0429440912948656,0.0709675930032235,3.0681125634464204,-0.0487927868962287,-0.0773735418915748,-0.0114086596295237,-0.0239320780802518,-0.5445587585493923,-9.69902452468872,14992.0
40.8,4.900000095367432,271.0,21.48518943786621,28.01409912109375,-79.78278693529558,40.45908239436743,327.74123629760743,-0.014228731393814,0.0030795445200055,0.950939118862152,0.309035450220108,0.054947178335174,0.0576347687167628,3.0724358675226173,-0.020943958312273,0.0221381895244121,-0.0874832868576049,0.0512344684218987,-0.4660176788270474,-9.821158826351166,14992.0
41.0,4.900000095367432,271.0,21.4426212310791,29.04783058166504,-79.78278728404699,40.4590824462284,328.35369357299805,-0.0152358952909708,0.0070860045962035,0.9509977698326112,0.30874103307724,0.0121586233553634,0.0633069646353179,3.046717332001065,-0.0203382689505815,-0.0274030100554227,0.1134227663278579,-0.026098284185864,-0.517049216888845,-9.61748217880726,14993.0
41.11,4.900000095367432,271.0,21.467660903930664,28.14132881164551,-79.78278734559727,40.45908237141172,328.6841035766602,-0.0144301541149616,0.0092425029724836,0.9504707455635072,0.3103413283824921,0.0028297742430982,0.0643190622717735,3.0568720686712934,-0.1091198176145553,0.0631381794810295,0.0005147015326656,-0.0483478259621188,-0.5268799943849445,-9.730933365225791,14993.0
41.3,4.900000095367432,270.0,21.54654121398925,27.266632080078125,-79.78278747618616,40.45908238982771,328.98935565185553,-0.0143200727179646,0.0105053288862109,0.9498993158340454,0.312051385641098,0.0026707421874919,0.0691768023229584,3.051834495016095,0.176536276936531,0.0771123170852661,0.1262245774269104,0.0236727175209671,-0.5336997116357088,-9.799812980890277,14993.0
41.4,4.900000095367432,267.0,21.632932662963867,25.636518478393555,-79.78278760551014,40.459082260974256,329.63030108642585,-0.0163406338542699,0.0085305646061897,0.949146330356598,0.3142953217029571,-0.0422912640753533,0.0522975910811914,3.0304474034928464,0.0038036718033254,-0.0202574450522661,-0.057871613651514,-0.0704557509161531,-0.4498338649794459,-9.519928987026216,14994.0
41.6,4.900000095367432,270.0,21.495206832885746,27.664220809936523,-79.78278775402413,40.459082160034654,330.27063616943366,-0.0204658079892396,0.0055836918763816,0.9488523602485656,0.3150068521499634,-0.0808237715578359,0.0140511956726482,3.007910254440545,-0.0132465921342372,0.0272007789462804,0.105797529220581,-0.2157174898311496,-0.5449103223904967,-9.581070982217788,14995.0
41.7,4.900000095367432,269.0,21.57909393310547,26.55892562866211,-79.78278779274991,40.45908217086961,330.57055911254884,-0.0232059191912412,0.0053744311444461,0.9488811492919922,0.3147338032722473,-0.1025042497764708,-0.0022724934278517,2.9891510111239987,0.0207921788096427,-0.0206486731767654,-0.0291226878762245,-0.1667267762124538,-0.4477576283365488,-9.582475483417513,14995.0
41.8,4.900000095367432,269.0,21.497711181640625,27.56879997253418,-79.7827876657337,40.45908199033635,330.90045413208014,-0.0251031517982482,0.0062462226487696,0.9489428400993348,0.3143855929374695,-0.1403366116915221,-0.0124036135827175,2.985389293363598,-0.0583372004330158,-0.0650545209646225,0.0349950827658176,-0.1670233762264252,-0.5340415544807912,-9.578552586436272,14995.0
42.0,5.0,270.0,21.455141067504886,28.06180953979492,-79.7827876865681,40.4590819974437,331.49214801025386,-0.0276852287352085,0.0067966366186738,0.9489613175392152,0.3141015172004699,-0.1445798234160623,-0.0157692812069811,2.925555888642089,0.0998964086174964,0.0311182048171758,0.0267935842275619,-0.0740185964573174,-0.6366837973147631,-9.519006296396256,14996.0
42.11,5.0,272.0,21.557809829711918,27.19506645202637,-79.78278753403734,40.45908192182186,331.8260370178224,-0.0260459929704666,0.0079725701361894,0.948985755443573,0.3141404390335083,-0.1596591780288833,-0.0324442604929127,2.945988879707629,0.0161895249038934,0.1232162117958068,-0.0470852963626384,-0.1495628593862056,-0.5387381477281451,-9.592441477775576,14996.0
42.3,5.0,271.0,21.4426212310791,29.071685791015625,-79.78278739335731,40.45908176397218,332.4551912231445,-0.0248511116951704,0.0076491255313158,0.9490683674812316,0.3139954507350921,-0.1618495179335944,-0.0184491436361403,2.9458294456049074,-0.0374040901660919,0.0033864376600831,0.0085876211524009,0.0247041754983365,-0.5797397375106812,-9.614320004582405,14997.0
42.5,5.0,270.0,21.473920822143555,27.98229217529297,-79.78278733753844,40.459081788348456,333.04242190551764,-0.0266345683485269,0.0057932022027671,0.949116826057434,0.3137425780296325,-0.1822843736382888,-0.0397822977354094,2.9258876583953524,-0.1251445710659027,-0.1097730249166488,0.104972556233406,-0.16466428052634,-0.6080423077940941,-9.704007521867752,14998.0
42.6,5.0,266.0,21.278602600097656,31.10733985900879,-79.78278711270002,40.45908163044295,333.3750825805664,-0.0276952479034662,0.0050584422424435,0.9490823149681092,0.3137677907943725,-0.1758019817953321,-0.052322635465449,2.951782718110505,0.1386934220790863,-0.0223155636340379,0.0992364361882209,-0.0722567116096615,-0.7084221167117357,-9.77118033528328,14998.0
42.7,5.0,270.0,21.422588348388672,29.00012016296387,-79.7827870677031,40.45908164765765,333.67155322265626,-0.0300563145428895,0.00483227847144,0.9489588737487792,0.3139272928237915,-0.1820599549862344,-0.064729164012547,2.9672857065294664,0.0143866948783397,-0.0213277321308851,0.0977804288268089,-0.104703623894602,-0.6689916372299195,-9.88803927898407,14998.0
42.9,5.0,270.0,21.282358169555664,30.598426818847656,-79.78278682219612,40.45908158391799,334.29334506225587,-0.029939204454422,0.0029414866585284,0.9488877654075624,0.3141769766807556,-0.1978931179260404,-0.0789280020258269,3.018313367991232,-0.0519889034330844,0.0028508568648248,-0.0900903791189193,-0.2779449109733105,-0.4182970169931649,-9.97741513967514,14999.0
43.1,5.0,269.0,21.3987979888916,29.30228614807129,-79.78278664308829,40.4590815123281,334.91526278686524,-0.0283246841281652,0.0047412300482392,0.9487492442131042,0.3147222995758057,-0.1755258886240289,-0.0839544483362904,3.0710737015191323,0.0571565590798854,0.1286288201808929,-0.1295916140079498,-0.1127791403420269,-0.3073654688894749,-10.022386075258256,14999.0
43.2,5.0,267.0,21.351221084594727,29.04783058166504,-79.78278661660677,40.45908154172047,335.2237573547364,-0.0269954614341259,0.0048046857118606,0.9486817121505736,0.3150416016578674,-0.1752981078211374,-0.0706578488728641,3.091877247692489,-0.0530832707881927,-0.0043526007793843,-0.0050911754369735,-0.1979826837591827,-0.5419794786348939,-10.045528185367584,15000.0
43.3,5.0,269.0,21.32868385314941,29.96228408813477,-79.78278659311606,40.45908151663781,335.53365954589844,-0.0264668352901935,0.0042718900367617,0.9485631585121156,0.3154509663581848,-0.1503728226291331,-0.0652730338564438,3.091642572464714,-0.0156923867762088,-0.0346449390053749,0.087495781481266,-0.2150012972764671,-0.6221837988495827,-10.02135462641716,15000.0
43.5,5.0,269.0,21.29362678527832,30.224693298339844,-79.78278658444725,40.4590815859392,336.15519580078126,-0.024939477443695,0.0021121890749782,0.9485325217247008,0.3156892359256744,-0.1383899594053035,-0.0635644306527926,3.119279080646,-0.0376632660627365,0.0281067676842212,-0.0071781603619456,-0.2765683485008776,-0.4325841402634977,-9.868748145103456,15001.0
43.6,5.0,269.0,21.37626266479492,28.936504364013672,-79.78278662208805,40.45908158874837,336.4638391418457,-0.0241150464862585,0.0019870430696755,0.9484949111938475,0.315867006778717,-0.1161051593792627,-0.0717739631106904,3.1141274512814485,-0.0362986288964748,-0.0643074214458465,0.1401862204074859,-0.2030164968967437,-0.6323338343203068,-10.008045194149018,15001.0
43.8,5.0,268.0,21.31866836547852,28.90469741821289,-79.78278672557137,40.45908160806104,337.0882860107422,-0.0243044383823871,0.0051740673370659,0.9484071731567384,0.3160797655582428,-0.0949319031563379,-0.0452616448592946,3.129146158663892,-0.0848733186721801,-0.0266716852784156,-0.0969584286212921,-0.0688588534807786,-0.3037186518497765,-9.982662431001664,15002.0
44.0,5.0,266.0,21.4138240814209,28.26060485839844,-79.78278678974426,40.459081707516745,337.71651324462886,-0.0248156376183033,0.0043938062153756,0.9485007524490356,0.315771073102951,-0.117625362808161,-0.0405566548146283,3.1422298631352663,-0.1089940965175628,-0.015161226503551,-0.0711108520627021,0.0056985090812668,-0.3302141218632461,-9.75831470668316,15002.0
44.1,5.0,266.0,21.35622978210449,29.80324935913086,-79.7827868371417,40.45908173610128,338.0205675048828,-0.022705502808094,0.002973886905238,0.948767066001892,0.3151454627513885,-0.0864448717460027,-0.0455371283395434,3.1036491263165167,0.0006153565482236,-0.0153649542480707,-0.0269275065511465,0.0187633952591568,-0.6450265315175057,-9.814380733966829,15003.0
44.2,5.0,266.0,21.375009536743164,28.77746963500977,-79.78278687669109,40.45908178550439,338.33102282714844,-0.0223649851977825,0.0022556043695658,0.948899507522583,0.3147768676280975,-0.0790423727395382,-0.0486693869008676,3.1019617099136414,0.0443374291062355,-0.0200526118278503,-0.0368674732744693,-0.0090804061386734,-0.3660890191420913,-9.742248896956443,15003.0
44.4,5.0,266.0,21.42634391784668,28.01409912109375,-79.78278700491879,40.45908182975532,338.95354327392585,-0.0225203335285186,0.0010871747508645,0.949295699596405,0.3135752081871033,-0.0732186038093755,-0.0425671922812248,3.078113820605939,0.0055672437883913,-0.0503531396389007,-0.091887466609478,-0.0447871137410402,-0.4924958447366953,-9.668551175594333,15003.0
44.6,5.099999904632568,267.0,21.24855232238769,30.44734191894531,-79.78278707809501,40.45908185351028,339.5765596313477,-0.0227654110640287,0.0012111768592149,0.94957172870636,0.3127200901508331,-0.0836883262298855,-0.0395217076839058,3.041147177821225,0.0498541258275508,0.0065262899734079,0.0269682146608829,-0.109095705114305,-0.4695420515164733,-9.62529581308365,15004.0
44.7,5.099999904632568,268.0,21.332439422607425,29.21481704711914,-79.78278712684728,40.45908187887797,339.88074359130866,-0.0232338421046733,0.001657860353589,0.949465811252594,0.313005119562149,-0.0861990763920071,-0.0239018931625834,3.0408736022999703,-0.0139995571225881,-0.0755718648433685,-0.0514762662351131,-0.0520639096666127,-0.6284277480840683,-9.72658771455288,15004.0
44.9,5.099999904632568,268.0,21.39629364013672,29.175058364868164,-79.78278721760569,40.45908189207736,340.50418719482417,-0.020408583804965,0.0033563163597136,0.9488430619239808,0.3150699436664581,-0.1083292946134747,-0.008889174430108,3.039834153205468,-0.1439941972494125,-0.0291399769484996,-0.0676850378513336,-0.0814623669348657,-0.3958020474761725,-9.695214478969577,15005.0
45.0,5.099999904632568,270.0,21.39253807067871,28.093616485595703,-79.78278725859144,40.45908189808032,340.8085771484375,-0.0186859257519245,0.002937872428447,0.9482585787773132,0.3169352412223816,-0.09481640568443,0.0049145381934115,3.0478192575621152,0.0277454368770122,-0.0166705213487148,-0.042060948908329,-0.0265872096293605,-0.4658650664985179,-9.807624861001967,15005.0
45.1,5.199999809265137,268.0,21.3700008392334,28.483253479003903,-79.78278726600098,40.45908184798774,341.1273485107422,-0.0217916406691074,0.0041405358351767,0.947836458683014,0.3179844617843628,-0.0888807209395398,-7.14603262240883e-05,3.0605895062907416,0.130641907453537,0.0285552218556404,-0.0073823221027851,0.094831349439919,-0.4383203319087625,-9.878074454069136,15006.0
45.3,5.099999904632568,268.0,21.331188201904297,29.175058364868164,-79.78278724163891,40.45908179412248,341.75050219726563,-0.0313256792724132,0.008311009965837,0.9474351406097412,0.3183024227619171,-0.1517635406077184,0.0003817022635498,3.04748095972376,0.0550395585596561,-0.0574787147343158,-0.0557073280215263,-0.0873835224565118,-0.5096816155314445,-9.746654189229012,15006.0
45.5,5.099999904632568,268.0,21.22726821899414,30.87673759460449,-79.78278727770277,40.4590818033039,342.05578479003907,-0.0323205925524234,0.007490855641663,0.9477382898330688,0.3173191845417023,-0.1592218197680941,0.0003038045242386,3.0509160009515788,0.006337481085211,-0.0742463842034339,-0.0291290078312158,-0.0064126322697848,-0.6037431790307165,-9.826154687404632,15007.0
45.61,5.099999904632568,271.0,21.311155319213867,29.55674362182617,-79.78278733154278,40.4590817200036,342.6837449951172,-0.0290087442845106,0.0034591208677738,0.9486229419708252,0.3150573372840881,-0.132619009590261,-0.0105945891990566,3.105354174650268,0.0045621367171406,0.0161097478121519,-0.0584554970264434,0.0162023330759257,-0.3975533616542816,-10.073010098934176,15007.0
45.8,5.099999904632568,270.0,21.390033721923828,28.89674568176269,-79.78278748615362,40.45908171007552,343.31372698974616,-0.0206633619964122,0.0038617181126028,0.949651300907135,0.3126029968261719,-0.075919057515695,-0.0117635464475369,3.1375102217192192,-0.0498825944960117,0.0875400081276893,-0.0783517286181449,-0.0890959069691598,-0.3904266655817628,-9.898214603662492,15008.0
45.9,5.0,270.0,21.284862518310547,29.222768783569336,-79.78278757422758,40.45908173376204,343.6271959228516,-0.0182369127869606,0.0050274827517569,0.949787974357605,0.3123218119144439,-0.0517273783404981,0.0022193425066178,3.132741773260088,0.0444682985544204,0.0306530874222517,0.0123972278088331,0.0295939666894264,-0.3055651477351785,-9.849790302515029,15008.0
46.0,5.0,270.0,21.364994049072266,28.538917541503903,-79.78278766568873,40.459081756840135,343.94039782714844,-0.0187494214624166,0.0042741321958601,0.9497058391571044,0.3125526010990143,-0.039817667997613,0.0199072383201912,3.132896942880909,0.0536101795732975,-0.0230340827256441,0.0945480689406395,-0.1126329873595386,-0.4196516706794501,-9.750460726618767,15008.0
46.2,4.900000095367432,269.0,21.39629364013672,28.92855262756348,-79.78278782966268,40.45908173182618,344.571020690918,-0.0182912722229957,0.0025307009927928,0.9494196176528932,0.313466876745224,-0.0369769718823474,0.0071578002181489,3.11459550225169,0.1143855527043342,0.0520086325705051,0.066248245537281,0.0207530200202018,-0.5505670284479857,-9.804871407151223,15009.0
46.4,4.800000190734863,267.0,21.278602600097656,29.34999847412109,-79.7827879175652,40.45908169360612,344.89254626464844,-0.0182414595037698,0.0032731336541473,0.9491987824440002,0.3141309022903442,-0.0369000535765463,0.0116791056536407,3.112597026542049,-0.0023145261220633,0.0594707168638706,-0.0479083098471164,-0.1610776715353131,-0.3041198256611824,-9.716856778264049,15009.0
46.5,4.800000190734863,267.0,21.37125396728516,28.51506042480469,-79.78278809477571,40.459081720504926,345.5138002319336,-0.015475919470191,0.0047198249958455,0.9490649104118348,0.3146650195121765,-0.0332245792919533,0.0185303546430097,3.0974389500752704,0.1320734620094299,0.0460571758449077,0.1647492796182632,0.0205669826315715,-0.6766245925426484,-9.76481447160244,15010.0
46.7,4.800000190734863,267.0,21.443872451782227,27.425668716430664,-79.78278824405146,40.4590817292921,346.13988360595704,-0.0172791760414838,0.0059248292818665,0.9491636157035828,0.3142528533935547,-0.0550629575723484,0.0247834790956886,3.059559965524474,-0.0324227064847946,-0.0450126565992832,-0.0182166509330272,-0.0711017586104571,-0.3722703666239977,-9.520997858047483,15011.0
46.8,4.800000190734863,267.0,21.46640968322754,27.11554908752441,-79.78278831740474,40.45908166384552,346.4599138183594,-0.0205363165587186,0.0062048593536019,0.9490997195243835,0.3142445385456085,-0.0582644917713975,0.0299141828509606,3.033777086072196,-0.0193575900048017,-0.0847209841012954,-0.0619262643158435,-0.0384677536971867,-0.3677006579563022,-9.494633932113649,15011.0
46.9,4.800000190734863,270.0,21.38126945495605,28.57072448730469,-79.78278838755922,40.45908167597944,346.76148852539063,-0.0220071543008089,0.0067453575320541,0.9492058157920836,0.3138130903244018,-0.068963379082335,0.019524356029899,2.996901271562137,0.0269314181059598,0.0166245065629482,-0.0652530267834663,-0.0591168120503425,-0.6515777519345284,-9.477427915334705,15011.0
47.1,4.699999809265137,270.0,21.361236572265625,28.451446533203125,-79.78278842343477,40.45908167537155,347.3901658935547,-0.020787188783288,0.0073620905168354,0.9494686722755432,0.3130862712860107,-0.0871659834182589,0.0139678466395825,3.007640077605456,0.0032926658168435,-0.005507968366146,-0.0810921043157577,0.0071844236226752,-0.2980440204218029,-9.65843841612339,15012.0
47.3,4.699999809265137,270.0,21.357481002807614,28.499156951904297,-79.78278843792496,40.459081584283794,348.0181184692383,-0.0219687316566705,0.0066327112726867,0.9491121172904968,0.314101368188858,-0.0843440776685452,0.0184125146571952,3.0214154714293886,0.1012848392128944,-0.0394962467253208,0.0965156778693199,0.0121231555519625,-0.6206914432346821,-9.719454696178436,15013.0
47.4,4.699999809265137,269.0,21.421335220336918,26.89289855957031,-79.7827884890103,40.45908159856909,348.32018908691407,-0.0228250306099653,0.0052841249853372,0.9489609003067015,0.3145224452018738,-0.0875672448695,0.0094586920530633,3.013933643307164,0.079990729689598,-0.013657490722835,0.0326374508440494,-0.1030430146493017,-0.4111823442578316,-9.685314558148384,15013.0
47.5,4.699999809265137,270.0,21.46014976501465,27.15530776977539,-79.7827885426367,40.45908161336968,348.6212984008789,-0.022722840309143,0.0047980244271457,0.9488735795021056,0.3148011565208435,-0.0896547869303642,0.0018840837831899,3.0020434907860896,0.0046809101477265,0.0183247439563274,-0.0996690988540649,-0.0248480192874558,-0.2660239548794925,-9.654827760457993,15013.0
