time,wind_speed,wind_angle,battery_voltage,battery_current,position_x,position_y,position_z,orientation_x,orientation_y,orientation_z,orientation_w,velocity_x,velocity_y,velocity_z,angular_x,angular_y,angular_z,linear_acceleration_x,linear_acceleration_y,linear_acceleration_z,node_ids
0.0,0.8999999761581421,297.0,23.75265312194824,-0.0795177370309829,-79.78279015091722,40.45905143781391,265.9984552574158,0.0005163727910257,-0.000453812564956,0.9912081956863404,0.1323099881410598,-0.0534177821913095,-0.0244769008462155,0.0103140535352228,0.0021436281967908,0.0019683227874338,0.0033348063006997,-0.0338187193265184,-0.0484496680134907,-9.807044232487677,14930.0
0.2,0.8000000119209291,295.0,23.75015068054199,-0.0874695107340812,-79.78279008264694,40.45905147679216,266.00234839439395,0.0004700888530351,-0.0004476684262044,0.991205632686615,0.1323293596506118,-0.0552365146461678,-0.0236918768019352,0.0132445409350368,-0.0042981128208339,-0.0042285900563001,-0.0081714643165469,-0.0292365350760519,-0.0629108053352683,-9.808937560915949,14931.0
0.3,0.8000000119209291,294.0,23.74764633178711,-0.1272283792495727,-79.7827900149731,40.45905148432182,266.0036725711824,0.0004437452589627,-0.0004626732261385,0.9912023544311525,0.13235405087471,-0.0595697643321808,-0.026011057600443,0.0131632409400347,0.0060357796028256,0.0066406792029738,0.0062674474902451,-0.0280013815755955,-0.0602726741088554,-9.80902702331543,14931.0
0.5,0.8000000119209291,293.0,23.748897552490234,-0.0954212844371795,-79.78278998584936,40.459051500685945,266.00863680362704,0.0004365792847238,-0.0004907248076051,0.9911959767341614,0.1324015706777572,-0.0570558045399216,-0.0205612322735373,0.0155279161096958,0.0001786802022252,0.0010070184944197,-0.0013721421128138,-0.032110233718995,-0.053943140823394,-9.808016624450683,14931.0
0.6,0.8000000119209291,293.0,23.75015068054199,-0.0795177370309829,-79.78278998363402,40.4590515508614,266.011516661644,0.0003732599143404,-0.0004901064676232,0.9911947250366212,0.1324111223220825,-0.0497497251665711,-0.0226732453058501,0.0164612599588963,0.0035703475587069,0.0005019011441618,0.0042626801878213,-0.0274067128915339,-0.0632644705194979,-9.809058013558388,14931.0
0.8,0.8000000119209291,293.0,23.75015068054199,-0.0874695107340812,-79.78278984520523,40.45905156727645,266.01482340812686,0.0003617004549596,-0.0004836547013837,0.9911911487579346,0.1324380487203598,-0.0608658038175982,-0.0271604984473876,0.016530012728076,0.0062547172419726,0.005853122100234,0.0033256257884204,-0.0345325958356261,-0.0422870727349072,-9.805677153468134,14931.0
0.9,0.8000000119209291,294.0,23.75140190124512,-0.0874695107340812,-79.78278985809605,40.459051571137024,266.01826772212985,0.000343984371284,-0.000498378125485,0.991190493106842,0.1324424892663955,-0.0546126075301417,-0.0199893981260442,0.0178506112787373,-0.0040040537714958,-0.0041663218289613,-0.0002873920020647,-0.0320945147587917,-0.0553711039759218,-9.80878436386585,14931.0
1.1,0.8000000119209291,293.0,23.75140190124512,-0.0874695107340812,-79.78278979809807,40.459051614930026,266.02356371402743,0.0003039898292627,-0.0005044128047302,0.9911856651306152,0.1324795484542846,-0.0505946173134609,-0.0222881003398915,0.0185948528104622,0.0053224451839923,0.0015230864519253,0.0070037427358329,-0.0340182761172764,-0.0436543618887662,-9.806603937149047,14931.0
1.2,0.8000000119209291,292.0,23.74514198303223,-0.1033730581402778,-79.78278972947801,40.45905162235461,266.0254270744324,0.000329322181642,-0.0004828860401175,0.9911855459213256,0.1324800997972488,-0.0576107020739344,-0.0241003300548664,0.0187856214357268,-0.0034172560553997,-0.0028620990924537,-0.0078109158203005,-0.0337851754948496,-0.0437946676556021,-9.806443723440172,14931.0
1.4,0.8000000119209291,293.0,23.75140190124512,-0.0795177370309829,-79.78278974025201,40.45905168360608,266.029182047844,0.0002585726615507,-0.0004931332077831,0.9911848306655884,0.1324858963489532,-0.0455301104693762,-0.0262459296856456,0.0164737713687788,-0.0046809744089841,-0.0046431710943579,-0.000102830112155,-0.0298695806809701,-0.0572462877631187,-9.8078178191185,14931.0
1.5,0.8000000119209291,295.0,23.74514198303223,-0.0795177370309829,-79.78278967704013,40.45905169609964,266.0308242750168,0.0002608408685773,-0.0004952897434122,0.9911834597587584,0.1324956268072128,-0.0511287574963008,-0.0286049260303376,0.0164986618716142,0.0010830631945282,-0.0003541438200045,-0.0046436339616775,-0.0346611820464022,-0.0416578209679573,-9.806154286265372,14931.0
1.7,0.8000000119209291,293.0,23.75390625,-0.0715659633278846,-79.78278959186528,40.459051716243614,266.03450557708743,0.0002336682082386,-0.0005190185038372,0.9911853671073914,0.1324814856052398,-0.055026340187572,-0.0261061278502091,0.0148788625491037,-0.00772101059556,-0.0028065941296517,-0.0066902902908623,-0.0268597766733728,-0.0633714791340753,-9.809615837931632,14931.0
1.8,0.8000000119209291,295.0,23.75390625,-0.0636141896247863,-79.782789522312,40.45905172622329,266.0359810304642,0.000218325672904,-0.0005220832535997,0.9911843538284302,0.132488802075386,-0.0592356538795265,-0.0283741171091435,0.0146528134919475,0.001960742752999,0.0044168247841298,0.0019581890664994,-0.0304310801206156,-0.0523270846204832,-9.806924364566804,14931.0
2.0,0.8000000119209291,297.0,23.75390625,-0.0715659633278846,-79.78278950264519,40.45905176699248,266.0399064731598,0.0002185283519793,-0.0005222064210101,0.9911823868751526,0.1325039118528366,-0.0538941603540583,-0.0274204863720905,0.0138784364558955,-0.0021755390334874,-0.0019072602735832,-0.0073042577132582,-0.0287584018567577,-0.0612853707466274,-9.80886973321438,14931.0
2.1,0.8000000119209291,297.0,23.75390625,-0.055662415921688,-79.78278953040423,40.45905175858117,266.042451710701,0.0001555480994284,-0.0005591030349023,0.9911796450614928,0.1325245648622512,-0.0439342605798756,-0.0182511563285227,0.0126918049511012,0.0053640161640942,0.0048294281587004,0.0069280732423067,-0.0264044224703684,-0.0618556204531341,-9.808854530453685,14931.0
2.3,0.8000000119209291,297.0,23.748897552490234,-0.0874695107340812,-79.7827894086643,40.459051769490856,266.04500231266024,0.0001509938010713,-0.0005382447270676,0.991177260875702,0.1325421780347824,-0.0549618147605639,-0.0220592379978338,0.0127403520237078,-0.0008956602541729,0.0025850443635135,0.0024416111409664,-0.0337724052672274,-0.050448936112225,-9.805736210346224,14931.0
2.4,0.8000000119209291,295.0,23.756410598754893,-0.0636141896247863,-79.78278947398208,40.45905179890055,266.04758510112765,0.0001002007775241,-0.000552462239284,0.9911764860153198,0.1325480788946151,-0.0394050358871541,-0.0197074212729119,0.0121638809908386,0.0038309984374791,-7.382839726233216e-07,0.0017883448163047,-0.0292795555084012,-0.0624721865030005,-9.80954859495163,14931.0
2.6,0.699999988079071,295.0,23.75390625,-0.0636141896247863,-79.78278936134086,40.459051815084656,266.0500435543061,8.227339276345447e-05,-0.0005575936520472,0.9911758303642272,0.1325531154870987,-0.0495264481237283,-0.0237275406098878,0.012206045976466,0.0071113929152488,0.0063555408269166,0.0089589152485132,-0.0351539333048276,-0.03966365091037,-9.806314499974247,14931.0
2.7,0.699999988079071,297.0,23.75265312194824,-0.0636141896247863,-79.78278941946994,40.4590517963309,266.049729795456,4.223821088089608e-05,-0.0005899159004911,0.9911739826202391,0.1325665414333343,-0.0395873873345834,-0.0134722777326488,0.0078854250712261,-0.0079446332529187,-0.00433538435027,-0.002907121554017,-0.0334945323318243,-0.0522309938538819,-9.806846596598623,14931.0
2.9,0.699999988079071,296.0,23.75015068054199,-0.055662415921688,-79.78278936812269,40.45905181062332,266.0520488929749,1.032927684718743e-05,-0.0005802778759971,0.9911715984344482,0.132583886384964,-0.0384857551277495,-0.0137134614071833,0.0060105056634098,0.0026696270797401,0.000760510971304,0.0065110973082482,-0.0327774809673428,-0.0460802711639553,-9.806358354091644,14931.0
3.0,0.699999988079071,296.0,23.75265312194824,-0.0636141896247863,-79.7827893165184,40.45905181357593,266.0526581716539,9.32397506403504e-06,-0.0005820879014208,0.991171419620514,0.1325859576463699,-0.0446314750360659,-0.0155040936589086,0.0062267685897807,-0.0050704330205917,-0.0041101155802607,-0.0077210068702697,-0.035454873049166,-0.0413511345069855,-9.80616598069668,14931.0
3.21,0.699999988079071,292.0,23.75265312194824,-0.0636141896247863,-79.78278931599577,40.45905182919268,266.0545369100571,-3.725515125552192e-05,-0.0005817700293846,0.9911702275276184,0.1325943022966385,-0.0348598483729384,-0.01255318270264,0.0042381262240659,-0.004540295805782,-0.0014359329361468,0.0007763410103507,-0.0280628253053873,-0.0586162401409819,-9.808614794611932,14931.0
3.3,0.699999988079071,296.0,23.75265312194824,-0.0795177370309829,-79.7827892734677,40.459051832240185,266.0549623680115,-5.72802709939424e-05,-0.0005605740589089,0.9911679625511168,0.1326114535331726,-0.0392914125124323,-0.0145037617680429,0.0042366345530266,0.0010106943082064,0.0020673284307122,0.0004196322988718,-0.0335140839591622,-0.0428496342664584,-9.805915135145188,14931.0
3.51,0.699999988079071,294.0,23.75265312194824,-0.0079517737030982,-79.78278921272627,40.45905184745892,266.0593117189408,-1.6297370166284963e-05,-0.0005583064630627,0.9911642670631408,0.1326391994953155,-0.0404476986543861,-0.0146604236708243,0.0060709265783651,-0.0071895634755492,-0.0052983374334871,-0.0046909712255001,-0.0269320286158472,-0.0639571645762771,-9.809941527843476,14931.0
3.6,0.699999988079071,294.0,23.75140190124512,-0.0477106422185897,-79.78278916203624,40.45905185084982,266.05991098403933,-3.568380270735361e-05,-0.0005711915437132,0.9911615252494812,0.1326597034931183,-0.0442972515211179,-0.0168607534964202,0.0059005929012911,0.0072168670594692,0.0010361099848523,0.0067582931369543,-0.028820836872328,-0.0566795144090429,-9.808261622786524,14931.0
3.8,0.699999988079071,291.0,23.75390625,-0.0795177370309829,-79.7827891439674,40.459051862275466,266.06180450439456,-9.001388389151543e-05,-0.0005756285972893,0.9911622405052184,0.1326543092727661,-0.0403392009258347,-0.0149437732533343,0.0039094467284694,-0.0045264423824846,0.0014728716341778,-0.0054833968169987,-0.0306014762073755,-0.0587367613054812,-9.80846627533436,14931.0
3.9,0.8000000119209291,293.0,23.755157470703125,-0.055662415921688,-79.78278916571709,40.45905185431466,266.0636952829361,-9.05873384908773e-05,-0.0006045859190635,0.991161286830902,0.1326616406440735,-0.0305551301546328,-0.0085875130415855,0.0028559544593751,0.0077285296283662,0.0032797802705317,0.0064174183644354,-0.026014525105711,-0.0641617211932316,-9.810169569253922,14931.0
4.1,0.8000000119209291,293.0,23.75015068054199,-0.0636141896247863,-79.78278910874155,40.45905186471871,266.0666323614121,-0.0001330121594946,-0.0006171488785184,0.991158127784729,0.1326849460601806,-0.0290991898883646,-0.0089682246778456,0.0022210911498812,0.0050595705397427,0.0039641517214477,0.0049716331996023,-0.0345049174921587,-0.0451308203861117,-9.806323855519295,14931.0
4.2,0.8000000119209291,296.0,23.75015068054199,-0.0715659633278846,-79.78278906906358,40.45905186552051,266.0668611240387,-8.75300684128888e-05,-0.0006032782257534,0.9911574721336364,0.132689356803894,-0.0350317947201498,-0.0105388665174713,0.0022588039292028,-0.0034620140213519,-0.0012936721323058,0.0024246003013104,-0.0312541259732097,-0.0589054077956825,-9.80781548023224,14931.0
4.41,0.8000000119209291,294.0,23.74639320373535,-0.0715659633278846,-79.782789015959,40.45905185927413,266.0697037887573,-0.0001337416033493,-0.00062970246654,0.9911558032035828,0.1327021420001983,-0.032765445559518,-0.0075185759896875,0.0016338146216443,0.006912921089679,0.0024182647466659,0.0083332695066928,-0.0348893810575828,-0.0407750010397285,-9.805461975932122,14931.0
4.5,0.8000000119209291,295.0,23.748897552490234,-0.0715659633278846,-79.78278897261104,40.45905185794764,266.069879026413,-0.0001119180669775,-0.0006162890349514,0.99115389585495,0.1327163130044937,-0.0390578110615833,-0.0089751112714959,0.0018117410816286,-0.0040866406634449,-0.0046609248965978,-0.0077496604062616,-0.0354947460349649,-0.0449954573437571,-9.805415198206903,14931.0
4.71,0.8000000119209291,294.0,23.75390625,-0.0636141896247863,-79.78278893229816,40.45905185012518,266.07311603546145,-0.0001670782949076,-0.0006475736154243,0.991153120994568,0.1327220052480697,-0.0353916872476477,-0.0057600675603861,0.0014275908432942,-0.0021092088427394,-0.0037983951624482,0.0002103345905197,-0.0304685388458892,-0.0546266437880694,-9.807183980941774,14931.0
4.8,0.8000000119209291,296.0,23.76141929626465,0.0,-79.78278889007879,40.45905184697462,266.0732545566559,-0.0001942052185768,-0.0006272644386626,0.9911491870880128,0.1327517628669738,-0.04011838608956,-0.0074050320642683,0.001407822703007,-0.0046837353147566,-0.002585494890809,-0.0048430608585476,-0.0340856081759557,-0.0400555285625159,-9.806149608492852,14931.0
5.01,0.8000000119209291,295.0,23.74514198303223,-0.0636141896247863,-79.7827888056822,40.45905185533277,266.07873329639443,-0.0001871387357823,-0.0006064241169951,0.991146683692932,0.1327703893184662,-0.0423817395334349,-0.0095065838821026,0.003594454117671,-0.0088013326749205,-0.0031710600014775,-0.0058761816471815,-0.0269478412228636,-0.0639315007813274,-9.809669632315638,14931.0
5.1,0.8000000119209291,296.0,23.75015068054199,-0.0715659633278846,-79.7827887853404,40.459051889949926,266.08388921737674,-0.0002433582703815,-0.0005912414635531,0.991142988204956,0.1327975243330001,-0.0319888846816769,-0.014529329562541,0.0057048023636378,0.0069290865212678,0.0046970481052994,0.002206209115684,-0.0301025693840347,-0.0528171315416693,-9.807631877660752,14931.0
5.3,0.8000000119209291,298.0,23.74764633178711,-0.0477106422185897,-79.78278869442708,40.45905190029506,266.0850500774384,-0.0002375460462644,-0.0005851510795764,0.9911460280418396,0.1327753961086273,-0.0419107358026501,-0.0178874559153933,0.0058430225290719,-0.0026286703068763,0.0011127025354653,-0.0057180938310921,-0.0302785545866936,-0.0597700236970558,-9.808255775570869,14931.0
5.4,0.8000000119209291,297.0,23.76016616821289,-0.055662415921688,-79.78278870688607,40.45905188655392,266.0935576868057,-0.0002743556105997,-0.0006322348490357,0.9911450147628784,0.1327826678752899,-0.0302248369931176,-0.0085114249751717,0.0120767839119331,0.0048981304280459,0.0049502640031278,0.0077352337539196,-0.0261802457040175,-0.0633289817534387,-9.809416447877885,14931.0
5.6,0.8000000119209291,298.0,23.748897552490234,-0.0238553211092948,-79.78278859928795,40.45905191415952,266.1024570178986,-0.0002784215612336,-0.0006371139315888,0.9911386966705322,0.1328293532133102,-0.0340335157985426,-0.0137037218584826,0.0150722924129227,0.004427018109709,0.0069223614409565,0.0044920537620782,-0.0344086325797252,-0.0462430750066414,-9.806329118013384,14931.0
5.7,0.8000000119209291,302.0,23.74764633178711,-0.0795177370309829,-79.78278855280269,40.45905191787584,266.10397371768954,-0.0002662935003172,-0.0006314094061963,0.99113792181015,0.1328355520963668,-0.0394723933104905,-0.0151223860388242,0.0151228375945127,-0.000494256557431,-0.0007039118208922,0.0023078417871147,-0.0307585881510749,-0.0599459563661366,-9.80872823059559,14931.0
5.9,0.8000000119209291,303.0,23.75015068054199,0.0159035474061965,-79.7827884469108,40.45905193291153,266.114202709198,-0.0002978233096655,-0.000618188350927,0.9911348819732666,0.1328580975532531,-0.0404406230740829,-0.0157386976224338,0.0190834547542224,0.0049237441271543,0.0035695715341717,0.008522966876626,-0.0351125733903609,-0.0401496002124622,-9.8066787815094,14931.0
6.0,0.8000000119209291,301.0,23.75265312194824,0.0238553211092948,-79.78278839241234,40.45905193695595,266.11613056182864,-0.0002913016942329,-0.0006183097721077,0.9911344647407532,0.132861390709877,-0.0464700891120322,-0.0171778520182684,0.0193329960682891,-0.0082221496850252,-0.0043675038032233,-0.0070392959751188,-0.0347308712638914,-0.0465183920692652,-9.805976530909538,14931.0
6.21,0.8000000119209291,302.0,23.74514198303223,0.055662415921688,-79.78278827185598,40.45905194999232,266.12737915039065,-0.0003319655370432,-0.0006353555363602,0.9911330938339232,0.1328708678483963,-0.0473645560229402,-0.0171614971333478,0.022855920300776,0.0004456419846974,-0.0035312206018716,0.0018445992609485,-0.0302339284541085,-0.053187872422859,-9.80734302520752,14931.0
6.3,0.8000000119209291,301.0,23.74388885498047,0.0159035474061965,-79.78278821355123,40.45905195392052,266.1296649885178,-0.0003543460043147,-0.0006333554629236,0.9911336302757264,0.1328674703836441,-0.0518205844711279,-0.0188057384580788,0.022879164800506,-0.0055061355233192,-0.0002816840133164,-0.0022595196496695,-0.0350464084907434,-0.0404043058399111,-9.806032079458236,14931.0
6.5,0.8000000119209291,300.0,23.737628936767567,0.1351801604032516,-79.78278817991037,40.459051982879465,266.14191469669345,-0.0003807220782618,-0.000620623875875,0.9911348819732666,0.1328575760126114,-0.0400348331282577,-0.0185708375325989,0.0259921345274996,-0.0049658906646072,-0.0034893185365945,-0.0028469236567616,-0.0278583760396577,-0.0638183023408055,-9.809248048067094,14931.0
6.6,0.8000000119209291,301.0,23.738882064819336,0.0079517737030982,-79.7827881581178,40.45905200790053,266.14964029312137,-0.0004462720826268,-0.0006384986918419,0.9911318421363832,0.1328804641962051,-0.0296867783945287,-0.0178295863135344,0.0245175580824525,0.0067715318873524,0.0026581608690321,0.0029812769498676,-0.0318964357604272,-0.0514070298057049,-9.80651681363583,14931.0
6.81,0.8000000119209291,300.0,23.738882064819336,0.0238553211092948,-79.7827880701742,40.45905202506021,266.15459880352023,-0.0004634267825167,-0.0006457205745391,0.9911293983459472,0.1328980177640915,-0.0391244595259574,-0.0209298775339131,0.0248991316651835,-0.0031444439664483,-0.0055311676114797,-0.0073241791687905,-0.0298191827069968,-0.0610274902638048,-9.809590694904328,14931.0
6.92,0.8000000119209291,301.0,23.737628936767567,0.0159035474061965,-79.78278801347237,40.45905202229263,266.1628579807282,-0.0004632052150554,-0.0006564984214492,0.9911282658576964,0.1329066157341003,-0.0365778415787305,-0.0161519455178732,0.0240236864247793,0.0055511225946247,0.0044707292690873,0.0092367641627788,-0.0263806019187904,-0.0622586946096271,-9.809020006656649,14931.0
7.1,0.8000000119209291,300.0,23.74514198303223,0.0318070948123931,-79.78278792848022,40.45905207049566,266.17426917076114,-0.0004991134628653,-0.0006649499991908,0.9911251664161682,0.1329299956560135,-0.0326080668934627,-0.0200083948478708,0.0237710464147084,0.0058061317540705,0.0018919201102107,0.000155887872097,-0.0344646196695975,-0.0502569098956883,-9.807171117067336,14931.0
7.2,0.699999988079071,300.0,23.74514198303223,0.0159035474061965,-79.78278788217695,40.4590520801014,266.1766601514817,-0.0004833497223444,-0.0006704620318487,0.9911229610443116,0.1329458802938461,-0.0370816006956964,-0.0214750815085232,0.0238259606881514,0.0042881607078015,-0.0005794000462628,0.0013453537831082,-0.0284461696771904,-0.061396143506281,-9.80837271988392,14931.0
7.41,0.699999988079071,298.0,23.74388885498047,-0.0079517737030982,-79.782787787347,40.459052117904136,266.1905882072449,-0.0005099658155813,-0.0006700491649098,0.991118311882019,0.1329806745052337,-0.035140326680548,-0.0221280420001121,0.0265429019295422,0.0027031817007809,0.0037916447035968,0.0098538268357515,-0.0346742994524538,-0.0392026345012709,-9.806575870513916,14931.0
7.5,0.699999988079071,295.0,23.737628936767567,0.0,-79.7827877371243,40.45905212859039,266.1932624292374,-0.0004912077565677,-0.0006740397657267,0.9911160469055176,0.1329973638057708,-0.0407490768665307,-0.0233206977370702,0.0267958955359847,-0.0056363861076533,-0.0059888260439038,-0.00551711441949,-0.0343633417831733,-0.0501163574494421,-9.806791632771493,14931.0
7.7,0.699999988079071,294.0,23.74138641357422,-0.0159035474061965,-79.7827876596492,40.45905210299968,266.2078729581833,-0.0005020709941163,-0.0007067383266985,0.9911136031150818,0.1330158710479736,-0.0396438008394987,-0.0119067165385035,0.0288809023362385,0.0009727751021273,-0.0004105703555978,0.0038474104367196,-0.0315097863413393,-0.0487175024673342,-9.807552355527882,14931.0
7.8,0.699999988079071,294.0,23.74138641357422,0.0159035474061965,-79.78278761069386,40.45905210411093,266.2107656908036,-0.000521317066159,-0.0006902893655933,0.9911118745803832,0.1330285519361496,-0.0441964883704018,-0.0133994166436064,0.0290543155424136,-0.0056134536862373,-0.0022075709421187,-0.0076015279628336,-0.0343823452340439,-0.0393834459409117,-9.806596920490266,14931.0
8.0,0.699999988079071,291.0,23.74764633178711,0.0238553211092948,-79.78278751172556,40.4590521517172,266.22325423479083,-0.0005022373516112,-0.0006904017645865,0.9911103248596193,0.1330402344465255,-0.0433041557727884,-0.0181979072376938,0.0279606781805075,-0.0070290439762175,-0.0048674931749701,-0.007744344882667,-0.0266894742334261,-0.0631031376169994,-9.809517604708672,14931.0
8.1,0.8000000119209291,289.0,23.748897552490234,0.0954212844371795,-79.78278753313442,40.45905215837259,266.2311199617386,-0.0005663671181537,-0.0007105881231836,0.9911065101623536,0.1330680400133133,-0.0263346371534961,-0.0078257593166639,0.021446788197152,0.0044700275175273,0.0056232744827866,0.0031812223605811,-0.030454400461167,-0.0515306024858728,-9.807438334822654,14931.0
8.3,0.8000000119209291,290.0,23.737628936767567,0.0079517737030982,-79.78278745996845,40.45905215937823,266.23543092727664,-0.0005697517190128,-0.0007089665741659,0.9911027550697328,0.1330963224172592,-0.0353531757892919,-0.0104390396206186,0.0216521019317042,-0.0017765356460586,-0.002958545461297,-0.0066382507793605,-0.0291282999166287,-0.0612817482138052,-9.808635259866715,14931.0
8.4,0.699999988079071,291.0,23.74764633178711,0.0079517737030982,-79.78278739900739,40.45905219018793,266.2456416201592,-0.0005597536219283,-0.0007140121888369,0.9911013841629028,0.1331061422824859,-0.0325290926189939,-0.0106760937241684,0.0193552488392537,0.0080775432288646,0.0052787433378398,0.0052877007983624,-0.026474589058198,-0.0634158677235245,-9.809457963109017,14931.0
8.6,0.699999988079071,295.0,23.73512458801269,-0.0477106422185897,-79.78278731924036,40.45905222701536,266.2591156673432,-0.000597360136453,-0.0006982565391808,0.991099774837494,0.1331181675195694,-0.0295039746406511,-0.0104127727579021,0.0176920845237759,0.0075140791013836,0.0084771811962127,0.0043422868475317,-0.0347014456079341,-0.0466250215284526,-9.807421377897263,14931.0
8.7,0.699999988079071,294.0,23.73011779785156,-0.0636141896247863,-79.78278727931361,40.45905222886332,266.26089611768725,-0.0005658767768181,-0.0006974025163799,0.9911003112792968,0.1331144273281097,-0.0343663359342986,-0.0116639811784621,0.017753054745455,-0.0013157266657799,0.002647059969604,0.0008722860366106,-0.0308895680657588,-0.0609009391581639,-9.808196133971215,14931.0
8.91,0.699999988079071,294.0,23.73512458801269,-0.1113248318433761,-79.78278718002453,40.45905226791176,266.27433553457263,-0.0006139539764262,-0.0006768523599021,0.991092324256897,0.1331742107868194,-0.0334156724334128,-0.0126525306109115,0.0167463452839862,0.0077846790663897,0.0056534246541559,0.0044198846444487,-0.0354958332516253,-0.0410553065082058,-9.805335676074026,14931.0
9.02,0.699999988079071,293.0,23.738882064819336,-0.1351801604032516,-79.78278713484211,40.4590522708511,266.27603241920474,-0.000602844171226,-0.0006628811825066,0.9910913705825806,0.1331811100244522,-0.0388649669996259,-0.013766415713161,0.0170098797093456,-0.0084990859031677,-0.0039909705519676,-0.0058421180583536,-0.0338822575472295,-0.0480209940159693,-9.806902145147324,14931.0
9.2,0.699999988079071,293.0,23.732622146606445,-0.1351801604032516,-79.78278704017133,40.45905230839458,266.291883559227,-0.0006196005269885,-0.0006798181566409,0.9910879135131836,0.1332063227891922,-0.0357231855600434,-0.0134824111048172,0.0189966960469748,-0.0023835345637053,-9.421934009878896e-06,0.0008652175310999,-0.0310704046301543,-0.0529921642877161,-9.807393895983695,14931.0
9.3,0.699999988079071,294.0,23.73136901855469,-0.1749390214681625,-79.78278699637258,40.45905231191887,266.2937925767899,-0.0006508791120722,-0.0006770815234631,0.9910851120948792,0.1332274377346038,-0.0395813856293418,-0.015013029584546,0.0191667439220749,-0.0011084782890975,-0.0001005517551675,-0.0049344878643751,-0.0346982067986391,-0.0407358932169154,-9.806698077321052,14931.0
9.5,0.8000000119209291,295.0,23.73637771606445,-0.1590354740619659,-79.78278690563214,40.45905237162015,266.310690612793,-0.0006489532534033,-0.0006629506242461,0.9910832047462464,0.1332416087388992,-0.0360323485006284,-0.0173357397080943,0.0209474865984002,-0.0064553483389317,-0.0034192237071692,-0.0072966031730175,-0.0274614551640115,-0.0630970208812505,-9.808642276525498,14931.0
9.6,0.699999988079071,297.0,23.7251091003418,-0.1510837078094482,-79.78278688578084,40.45905241020858,266.32617351531985,-0.0007208304596133,-0.0006681482191197,0.991081178188324,0.1332564204931259,-0.0236993786296203,-0.0130522316178105,0.0220532449351262,0.0039350795559585,0.006867344956845,0.0010137984063476,-0.0303446029988117,-0.0542445876309648,-9.808152279853822,14931.0
9.8,0.699999988079071,297.0,23.73011779785156,-0.1749390214681625,-79.7827868152406,40.459052421809616,266.3306283068657,-0.0007294361712411,-0.0006803905125707,0.9910789132118224,0.1332727670669555,-0.0320807202590631,-0.0158774183549084,0.0223306447704156,-0.003547309199348,-0.002804814139381,-0.0058376584202051,-0.0310200888826511,-0.059640973820351,-9.808897215127946,14931.0
9.9,0.699999988079071,296.0,23.73011779785156,-0.1669872552156448,-79.78278676889201,40.459052475557336,266.34562596797946,-0.0007250331109389,-0.000688066589646,0.9910774230957032,0.133284106850624,-0.0248696623000535,-0.0161819024846291,0.0227236222441792,0.0048401253297925,0.0040395385585725,0.0061238212510943,-0.0275787055422552,-0.0637812044983729,-9.807931255102158,14931.0
10.1,0.699999988079071,295.0,23.74388885498047,-0.1590354740619659,-79.78278663360442,40.45905255133618,266.3648428630829,-0.0007199725368991,-0.0006865750765427,0.991074562072754,0.1333054155111313,-0.0287467708619928,-0.0219534870333678,0.0261346700453031,0.00468878634274,0.0059608691371977,0.0058688055723905,-0.035034764308948,-0.0447250099154189,-9.805719253420827,14931.0
10.2,0.699999988079071,295.0,23.73637771606445,-0.1431319266557693,-79.78278659101716,40.459052563414936,266.3674834680557,-0.0007179026142694,-0.0006727417348884,0.991073727607727,0.1333118975162506,-0.0335717735806555,-0.0231595981192396,0.026428698978341,-0.0044362018816173,-0.0035125624854117,-0.0009019813733175,-0.0313141010468825,-0.0579906931333243,-9.808815938830376,14931.0
10.41,0.699999988079071,295.0,23.73512458801269,-0.1590354740619659,-79.78278645133227,40.45905259232758,266.3892206859589,-0.0007414985448122,-0.0007035912130959,0.9910721778869628,0.1333225965499878,-0.0365105590907557,-0.0177640462973341,0.0323043121410215,0.003093660576269,0.0012779693352058,0.0037929120007902,-0.0339105046237818,-0.0422099306015297,-9.807026106119157,14931.0
10.5,0.699999988079071,296.0,23.72636032104492,-0.1669872552156448,-79.7827864013246,40.459052599071285,266.39246609926226,-0.0007347671198658,-0.0006913265096955,0.9910684823989868,0.1333503425121307,-0.0415714639686072,-0.0190585679701065,0.0325177841913334,-0.0073904441669583,-0.0020014294423162,-0.010942586697638,-0.0348577901045791,-0.0436887782346457,-9.805630960464477,14931.0
10.71,0.699999988079071,297.0,23.73011779785156,-0.1431319266557693,-79.78278632945934,40.45905264482288,266.4153530311585,-0.0007616523653268,-0.0007279084529727,0.9910637736320496,0.1333848237991333,-0.0334893102018056,-0.0154045913673836,0.0369330910665764,-0.0044913459569215,-0.0016626509604975,0.0019738329574465,-0.0298466714727692,-0.0561433567106723,-9.808311324119568,14931.0
10.81,0.699999988079071,299.0,23.732622146606445,-0.1669872552156448,-79.78278628671819,40.45905265056953,266.4190540623665,-0.0007764939218759,-0.000718749652151,0.9910607933998108,0.1334072202444076,-0.0370647855337944,-0.0169933255175379,0.0370374965784583,-0.0039090034551918,-0.0004279953718651,-0.0031289877369999,-0.0346846325788646,-0.0421550809778273,-9.80631099164486,14931.0
11.0,0.699999988079071,296.0,23.737628936767567,-0.1351801604032516,-79.78278614549573,40.45905271069149,266.4405954194069,-0.0007842460181564,-0.0007447070092894,0.9910586476325988,0.1334226578474044,-0.0394752317240217,-0.0193543814050721,0.0389000022600122,-0.0075142476707696,-0.0020863043610006,-0.0075020026415586,-0.0269294384820386,-0.0635479965247213,-9.808952178955078,14931.0
11.1,0.699999988079071,299.0,23.73387336730957,-0.1669872552156448,-79.78278609330997,40.45905275255341,266.457216770649,-0.0008270628168247,-0.0007532495073974,0.9910566806793212,0.133436843752861,-0.0291521239970725,-0.0149408633800364,0.0368695503271,0.0019006941001862,0.0055650258436799,0.0055209919810295,-0.031718504531309,-0.052203744915314,-9.806285263895989,14931.0
11.31,0.699999988079071,298.0,23.728864669799805,-0.1749390214681625,-79.78278601034765,40.4590527647143,266.4646387410164,-0.0008278859895654,-0.0007500030915252,0.9910532236099244,0.1334627568721771,-0.0372579465687024,-0.0173568029842859,0.037296788748397,-0.0064183678478002,-0.0009478292195126,-0.0096814753487706,-0.030667392143514,-0.0612262362102046,-9.808438793420793,14931.0
11.4,0.699999988079071,301.0,23.732622146606445,-0.1590354740619659,-79.78278594774818,40.45905280561593,266.4798875164986,-0.0008492056513205,-0.0007471910794265,0.9910533428192142,0.1334618479013443,-0.0300668772417088,-0.0147796278204837,0.0335409227946846,0.0072603547014296,0.0049412888474762,0.0085576931014657,-0.027448129907716,-0.0622738973703235,-9.809176127314569,14931.0
11.6,0.699999988079071,299.0,23.73387336730957,-0.1510837078094482,-79.78278584643208,40.4590528892112,266.49934241294864,-0.0008777103503234,-0.0007450815755873,0.991049349308014,0.1334913074970245,-0.0260521685470579,-0.019466025479228,0.0309457648394064,0.0007333828834816,0.002602799097076,-0.0010593961924314,-0.0335889534442685,-0.0523808150505647,-9.807793845534324,14931.0
11.7,0.8000000119209291,299.0,23.728864669799805,-0.1431319266557693,-79.78278580833032,40.45905289992322,266.5024603915215,-0.0008585011819377,-0.0007407816592603,0.991049349308014,0.1334917396306991,-0.029552568417333,-0.0208149746244418,0.0311349264698656,0.0016885263612493,0.002453702269122,0.0038857839535921,-0.0276156252273358,-0.0632846479816362,-9.809543332457542,14931.0
11.9,0.8000000119209291,298.0,23.72636032104492,-0.1510837078094482,-79.78278567668458,40.4590529638894,266.5216957640648,-0.0008652581018395,-0.0007344232290051,0.9910471439361572,0.1335077434778213,-0.0309111760926735,-0.0220714902755767,0.0298391366484055,0.0080465283244848,0.0013488831464201,0.0073611605912446,-0.0331670197332277,-0.042036318546161,-9.806529092788695,14931.0
12.0,0.8000000119209291,298.0,23.756410598754893,0.0397588685154914,-79.7827856317608,40.45905297550266,266.5247034740448,-0.0008621218730695,-0.0007437446620315,0.9910478591918944,0.1335028856992721,-0.0354618747816449,-0.0230973985071199,0.0300705124102892,-0.0057955672964453,-0.0012814042856916,-0.0011520396219566,-0.0319306990737095,-0.0569919019052758,-9.808433530926704,14931.0
12.2,0.8000000119209291,299.0,23.73387336730957,-0.1669872552156448,-79.78278550570032,40.45905304856277,266.54443922758105,-0.0008678496815264,-0.0007349642110057,0.99104642868042,0.1335129588842392,-0.0341803886590046,-0.0238504765121949,0.0286244625859692,0.0060687107034027,0.0032251137308776,0.0108483107760548,-0.034242987355683,-0.0411493050679564,-9.80580169916153,14931.0
12.3,0.8000000119209291,301.0,23.732622146606445,-0.1749390214681625,-79.78278545934366,40.45905306099164,266.5473223638535,-0.0008862360264174,-0.0007280680583789,0.9910464882850648,0.1335123181343078,-0.0387500278998536,-0.0247923937326933,0.0289059878994676,-0.0059566823765635,-0.0048445458523929,-0.0060066217556595,-0.033914346427191,-0.0484887484274804,-9.806965295076369,14931.0
12.5,0.8000000119209291,300.0,23.728864669799805,-0.1590354740619659,-79.78278536386509,40.459053110550414,266.5669232916832,-0.000905756431166,-0.0007389028323814,0.991046667098999,0.1335108131170272,-0.0342431875113322,-0.0210731920436088,0.0278943054942646,-0.0014668244402855,0.0010188873857259,0.0024137343280017,-0.0320850198855623,-0.0492176266992464,-9.80668989121914,14931.0
12.6,0.8000000119209291,301.0,23.73136901855469,-0.1669872552156448,-79.78278527221778,40.459053192893656,266.58683464050296,-0.0009306679130531,-0.0007140595116652,0.9910440444946288,0.1335305124521255,-0.0324017849915907,-0.0245272652123629,0.0305783164727267,-0.0066789533011615,-0.0085423933342099,-0.0074225980788469,-0.0328829958010464,-0.0404669350013136,-9.806292865276337,14931.0
12.8,0.8000000119209291,300.0,23.73136901855469,-0.1828908026218414,-79.78278517743071,40.459053221176,266.59298566102984,-0.0009211250580847,-0.0007184241549111,0.9910427927970886,0.1335402131080627,-0.0392416025443831,-0.0272645334869378,0.0308657909340324,-0.005807040259242,-0.004258164204657,-0.001109636737965,-0.0273501525004394,-0.0599428180558607,-9.809426388144493,14931.0
12.9,0.8000000119209291,301.0,23.73637771606445,-0.1431319266557693,-79.78278509471785,40.45905327139796,266.6123443555832,-0.0009341841796413,-0.0007206498994491,0.9910417199134828,0.133547767996788,-0.0359982810715829,-0.0239090438989872,0.0320358999773018,0.0027108462527394,0.001889111357741,-0.0015710741281509,-0.0333210733090527,-0.0439441371057182,-9.806124465465548,14931.0
13.1,0.8000000119209291,301.0,23.73637771606445,-0.1431319266557693,-79.78278501562752,40.459053363329225,266.633325548172,-0.0009627757244743,-0.0007277919794432,0.9910380244255066,0.1335748881101608,-0.0269511470080845,-0.0247102522017247,0.0300627809137103,-0.0053890184499323,-0.0029412494041025,-0.006824193522334,-0.0274661557772196,-0.0628039154922589,-9.808852776288989,14931.0
13.21,0.8000000119209291,302.0,23.73512458801269,-0.1431319266557693,-79.78278497582518,40.45905337882117,266.6363334965706,-0.000943032617215,-0.0007312513771466,0.9910345077514648,0.1336012780666351,-0.0292074217101758,-0.0265212510172379,0.0299416384893853,0.0069591784849762,0.0022120450157672,0.005723447073251,-0.0300620637112297,-0.0558801406435668,-9.808026564717292,14931.0
13.4,0.699999988079071,303.0,23.74138641357422,-0.1749390214681625,-79.78278494316814,40.459053425399816,266.6563654255867,-0.0010112166637554,-0.0007665854645892,0.9910321235656738,0.1336179971694946,-0.0193584033820371,-0.0169235285032789,0.0273807073828744,-0.0061800139956176,-0.0032140263356268,-0.0054520312696695,-0.0320218722405843,-0.0585864102048799,-9.807787998318672,14931.0
13.5,0.699999988079071,306.0,23.718849182128903,-0.1510837078094482,-79.78278491404228,40.45905343562553,266.6591189217569,-0.0009866683976724,-0.0007659645634703,0.9910305738449096,0.1336300671100616,-0.0219974813537688,-0.0183571064288766,0.0274514750109794,0.0085871424525976,0.0008764353115111,0.0059424312785267,-0.0265017055207863,-0.0633656456228345,-9.809461471438407,14931.0
13.7,0.699999988079071,307.0,23.73387336730957,-0.1749390214681625,-79.78278484185131,40.45905346576372,266.67726889371875,-0.0010193942580372,-0.0007947164704091,0.9910306930541992,0.1336285322904586,-0.0208360424071227,-0.0100132296930885,0.021934096792125,0.0039087040349841,0.0046103629283607,0.0032769786193966,-0.033839492930565,-0.0482637082831934,-9.80818093121052,14931.0
13.8,0.8000000119209291,309.0,23.72761344909668,-0.2067461162805557,-79.78278481375497,40.459053469278494,266.6794838023186,-0.0010296994587406,-0.0008041288820095,0.9910301566123962,0.133632406592369,-0.0245007873788484,-0.0110678109818056,0.0221545358770119,-0.000770783633925,0.0029668814968317,0.0027514928951859,-0.0292506391997449,-0.0614392758579924,-9.809226998090743,14931.0
14.01,0.8000000119209291,305.0,23.72636032104492,-0.1669872552156448,-79.78278468808804,40.459053556040686,266.7006203246117,-0.0010190929751843,-0.0007853443385101,0.9910252690315248,0.1336686611175537,-0.0274357442852627,-0.0167082257229343,0.0229407835186354,0.0108859129250049,0.0035505923442542,0.0074658887460827,-0.0345433058333583,-0.0404588676709681,-9.806296958327296,14931.0
14.1,0.8999999761581421,306.0,23.7251091003418,-0.1749390214681625,-79.78278465928122,40.45905360569152,266.71739885330203,-0.0010752655798569,-0.0007961572846397,0.9910242557525636,0.1336755454540252,-0.0175349244781543,-0.0108372132105326,0.0193840871467324,-0.0052682617679238,-0.0046398919075727,-0.0044710752554237,-0.0338714630389586,-0.049787693680264,-9.806171827912332,14931.0
14.3,0.8999999761581421,308.0,23.73011779785156,-0.1669872552156448,-79.78278460749037,40.45905361721836,266.72127130746844,-0.0010823528282344,-0.0007983983377926,0.991025984287262,0.1336627900600433,-0.023245616742235,-0.0133493204291693,0.0193730212452376,0.0015375658404082,0.000384654093068,-0.0013672814238816,-0.0321433275891467,-0.050158420857042,-9.806491085886956,14931.0
14.4,0.8999999761581421,312.0,23.728864669799805,-0.198794350028038,-79.78278459282309,40.459053688886094,266.73885399222377,-0.001116017694585,-0.0007848572568036,0.9910250902175904,0.1336695849895477,-0.0117937321069561,-0.012421788589205,0.0175781191194098,-0.0049093458801507,-0.0021736579947173,-0.0046562398783862,-0.0342007092456333,-0.0402643015701323,-9.806720296740531,14931.0
14.6,0.8999999761581421,310.0,23.737628936767567,-0.1669872552156448,-79.78278447119402,40.45905374166736,266.7590235185624,-0.0011111896019428,-0.000801162153948,0.9910264611244202,0.1336590349674224,-0.0211328839308557,-0.0096380559248185,0.0170267745263407,-0.0086908666417002,-0.0039946879260241,-0.0054770065471529,-0.0268366527627222,-0.0639787992741912,-9.809225828647614,14931.0
14.7,0.8999999761581421,308.0,23.73136901855469,-0.1669872552156448,-79.7827844428995,40.45905374553557,266.7607302677632,-0.0011110700434073,-0.0008014505147002,0.9910240173339844,0.133677065372467,-0.0231470545114356,-0.0113234195980247,0.0169658405611121,0.0054848720319569,0.0035461205989122,0.0028410314116626,-0.0299903782177716,-0.0537554589053616,-9.8071734559536,14931.0
14.91,1.0,311.0,23.73136901855469,-0.1351801604032516,-79.78278434187222,40.459053819644254,266.7818982613087,-0.0011305299121886,-0.0008178684511221,0.991020441055298,0.1337035000324249,-0.0246704961462967,-0.0137334262008075,0.0189716979273261,-0.0014512992929667,-0.0044684768654406,-0.0055161858908832,-0.030403337823227,-0.0599521690327674,-9.807981541156767,14931.0
15.0,1.0,310.0,23.72761344909668,-0.1351801604032516,-79.78278430783362,40.4590538257908,266.7838013482094,-0.0011144041782245,-0.0008266000077128,0.9910203218460084,0.1337044239044189,-0.0270999165522391,-0.0149700667473696,0.0189300873786283,0.0048714503645896,0.0053140940144658,0.0067242691293358,-0.0266511429939419,-0.0639630346326157,-9.809307689666747,14931.0
15.2,1.0,311.0,23.68754768371582,0.7713220715522766,-79.78278424091802,40.45905392656615,266.8038503837586,-0.0011490520555526,-0.0008470746106468,0.991013526916504,0.1337543278932571,-0.0201724605186322,-0.0189594592109691,0.0179729378134703,0.0057649621739983,0.0090909702703356,0.0020570531487464,-0.0339587030396796,-0.0431837478233501,-9.806147854328156,14931.0
15.3,1.0,315.0,23.715091705322266,0.1431319266557693,-79.78278421091586,40.45905393763377,266.80567327260974,-0.0011618229327723,-0.0008334336453117,0.9910197257995604,0.133708581328392,-0.0242403574346391,-0.0194490111409731,0.0183320285509044,-0.0082449605688452,-0.0054160584695637,0.0029285056516528,-0.0366068224981427,-0.0476921932026743,-9.808204904794692,14931.0
15.5,1.0,315.0,23.72135353088379,0.2306014448404312,-79.78278413557389,40.45905400619549,266.82600471496585,-0.0011488106101751,-0.0008387739071622,0.991016149520874,0.1337354183197021,-0.0223950177782928,-0.0163082554260348,0.0172569759243735,-0.0011117467656731,-0.0015159234171733,0.008064430207014,-0.0338765793526545,-0.0518313046870753,-9.80697289645672,14931.0
15.6,0.8999999761581421,318.0,23.728864669799805,0.2306014448404312,-79.78278410536583,40.45905401517161,266.827755035162,-0.0011684959754347,-0.000829876284115,0.9910170435905457,0.13372802734375,-0.0259131363152675,-0.0173460809854718,0.01746762737562,-0.0035053838510066,0.0025732470676302,-0.0145271811634302,-0.0280863123829476,-0.046479421290569,-9.808664495944976,14931.0
15.8,0.8999999761581421,318.0,23.73512458801269,0.2226496636867523,-79.78278402004378,40.4590540895189,266.8488103759289,-0.0011828404385596,-0.000831923505757,0.9910141229629515,0.1337501257658004,-0.0257952678397164,-0.0158788831622607,0.0174478534084021,-0.0028496084269136,-0.0019984329119324,-0.0062553030438721,-0.0297357159876264,-0.0644499341072514,-9.809140459299089,14931.0
15.9,0.8999999761581421,318.0,23.73387336730957,0.2703603208065033,-79.78278397393305,40.45905418293836,266.86930039644244,-0.0012005434837192,-0.000814183440525,0.9910101890563964,0.133778914809227,-0.0187927950793356,-0.0188742222704818,0.0196141379486451,0.0020107629243284,0.0025798650458455,0.0036093043163418,-0.0349823814793489,-0.0507740367343649,-9.805154997110368,14931.0
16.1,0.8000000119209291,322.0,23.71759605407715,0.3101191818714142,-79.78278391490555,40.45905429577195,266.89079794406894,-0.0012319078668951,-0.0008175545372068,0.99100923538208,0.1337855607271194,-0.0135579505641024,-0.0207590918061203,0.0184114260264867,-0.0062241102568805,-0.0019535878673195,-0.0001566897408338,-0.0360719073330983,-0.0428916474245488,-9.80468605041504,14931.0
16.3,0.8000000119209291,324.0,22.61078453063965,28.30036354064941,-79.7827838662341,40.459054326158686,266.89452794313445,-0.0012464602477848,-0.0008214052650146,0.9909971356391908,0.133875161409378,-0.0185949069931214,-0.0216349087097019,0.0196527079131341,-0.0093652382493019,-0.0128500191494822,0.0080355741083621,-0.0252890066988766,-0.0673703122604638,-9.80812538266182,14931.0
16.4,0.8000000119209291,327.0,23.59113883972168,2.0674612522125244,-79.78278380738509,40.45905441646195,266.9187146735192,-0.0014744650106877,-0.0009223883971571,0.9909865856170654,0.133950263261795,-0.0177018021238504,-0.020050163905607,0.0247928862878757,0.0016136660706251,-0.017269330099225,-0.0257351901382207,-0.0643826363096013,-0.0472301306901499,-9.793459981083869,14931.0
16.6,0.8000000119209291,324.0,23.73011779785156,0.1908425688743592,-79.78278377440128,40.45905449553682,266.94218048572543,-0.0014804564416408,-0.000998304458335,0.9909894466400146,0.1339284926652908,-0.0113358414641977,-0.0148954970765148,0.0248972662911202,-0.0116690257564187,0.0314482674002647,-0.0039195846766233,-0.0544638856267556,-0.1003636194393038,-9.797247222661971,14931.0
16.7,0.8000000119209291,325.0,22.60953140258789,18.60715103149414,-79.7827837577762,40.45905450517692,266.94464564442643,-0.0014794284943491,-0.0009182342328131,0.9909886121749878,0.1339348256587982,-0.0125881027342957,-0.0134762585120302,0.0250271668519452,-0.0016732178628444,0.0014454660704359,0.017776470631361,-0.002559120724909,-0.0781672325078398,-9.813254560232163,14931.0
16.91,0.8000000119209291,325.0,23.716344833374023,0.3657816052436829,-79.78278367871047,40.4590545759877,266.9668214631081,-0.0014934699283912,-0.0009383929427713,0.9909940958023072,0.1338943988084793,-0.0138076503565557,-0.0128485190606974,0.0211003842299532,-0.0078694960102438,0.0330134741961956,0.0101448176428675,-0.0151673987461254,-0.0557168891234323,-9.79782317340374,14931.0
17.01,0.8000000119209291,327.0,23.7251091003418,0.1749390214681625,-79.78278365635047,40.45905458105721,266.9689996552468,-0.0014668968506157,-0.0008690572576597,0.9909859895706176,0.1339549124240875,-0.0189866664749036,-0.0142454881715921,0.0227231271112612,-0.0013780544977635,0.0362883917987346,-0.022223824635148,-0.0395859834412112,-0.0778735469654202,-9.801116909980774,14931.0
17.2,0.699999988079071,328.0,23.67753028869629,1.7096314430236816,-79.78278355664082,40.45905467439858,266.99289518713954,-0.0013832651311531,-0.0008649015217088,0.9909918308258056,0.1339126527309417,-0.0199494742088325,-0.012969196345428,0.01989010795128,0.0026275862473994,-0.0052442094311118,-0.002298527630046,-0.0257490021293051,-0.0349563910625875,-9.8127996468544,14931.0
17.31,0.699999988079071,329.0,23.526033401489247,3.6180572509765625,-79.78278353058445,40.45905468066804,266.99498842775824,-0.0013854373246431,-0.0008507548482157,0.990994155406952,0.1338952481746673,-0.0219306231616778,-0.0124073229055207,0.0208880341104222,-0.0009177137399092,-0.0047417068853974,0.0027222679927945,-0.0429039494181051,-0.0557050896249711,-9.810028066635134,14931.0
17.5,0.699999988079071,330.0,23.45967483520508,5.765036106109619,-79.78278346761185,40.45905479209261,267.0219532114268,-0.0015053222887218,-0.0009005132596939,0.9909799695014954,0.1339987963438034,-0.0147206818409131,-0.0144340305053871,0.0230550980720163,0.0237712897360324,-0.0028469879180192,-0.0088782981038093,0.0044465471198782,-0.0273309366311878,-9.811985714435576,14932.0
17.6,0.699999988079071,330.0,23.390811920166016,6.96575403213501,-79.78278338005019,40.459054894051256,267.0433176469803,-0.0015567549271509,-0.0008861832902766,0.9909801483154296,0.1339968889951706,-0.0173878638617201,-0.0155770947799096,0.0170811919954983,-0.0186810120940208,-0.0317125581204891,0.0160445943474769,-0.0541090738400816,-0.0148974309721961,-9.801987560391426,14932.0
17.8,0.699999988079071,326.0,23.27311897277832,9.247913360595703,-79.78278332616732,40.45905491236984,267.0469318491221,-0.001770703238435,-0.0009707086719572,0.990960419178009,0.1341395378112793,-0.0245234915162944,-0.0172221961926282,0.0179986928743914,-0.0023601746652275,-0.0543395616114139,0.0232786070555448,-0.0856876015104353,-0.0472307747974991,-9.763188945651056,14932.0
17.9,0.699999988079071,326.0,23.19423866271973,10.73489475250244,-79.78278327557534,40.45905501828018,267.07167104005816,-0.001974472310394,-0.0009424301679246,0.9909588098526,0.1341489553451538,-0.0154480259933468,-0.0209823215514062,0.0170300771997968,0.0248343404382467,-0.0375543236732482,0.0433611087501048,-0.0517058316618204,0.1201629311777651,-9.783903876543045,14932.0
18.1,0.699999988079071,325.0,23.04023742675781,13.50211238861084,-79.78278322231299,40.45905504608372,267.07602352023133,-0.0027274445164948,-0.0003401787253096,0.9909361600875854,0.1343054920434951,-0.0136631926657668,-0.0235151714137816,0.0234002741158151,0.0250665787607431,0.0246180985122919,0.0038325856439769,0.0042362163774669,-0.0921109506301582,-9.882104355096818,14932.0
18.2,0.699999988079071,332.0,22.943828582763672,15.323068618774414,-79.78278314177507,40.45905516558022,267.101061591208,-0.0036565423943102,0.0006888753268867,0.990920066833496,0.134401261806488,-0.0141606339313395,-0.0265090709093235,0.0370959550708114,-0.0264044813811779,0.0949036628007888,0.10405383259058,-0.0510788822360336,-0.1406701580062508,-9.931584663391114,14932.0
18.4,0.699999988079071,333.0,22.769794464111328,18.376548767089844,-79.78278300278869,40.45905530351901,267.13297262161973,-0.0043314439244568,0.0039828126318752,0.9909312129020692,0.1342411041259765,-0.0330710224281441,-0.0256802526516723,0.0357663215242236,-0.053931575268507,-0.0138476621359586,0.0651100575923919,0.0628610857296735,-0.0778089991863817,-9.919539399147034,14932.0
18.5,0.8000000119209291,332.0,22.69467163085937,19.72835159301757,-79.78278295835395,40.459055312692925,267.1365438562632,-0.0025932143907994,0.0030663439538329,0.9908781051635742,0.1347012668848037,-0.0367566523689431,-0.0222152081747558,0.0388970949536473,-0.061985820531845,0.0679405406117439,0.0145120723173022,0.1990757293626666,-0.2914599825069308,-9.838686439990996,14932.0
18.7,0.8000000119209291,332.0,22.47055435180664,23.736045837402344,-79.78278291366486,40.4590554277804,267.17348905399444,0.0080992486327886,-0.0031004787888377,0.9907580018043518,0.1353642642498016,-0.0588186467634344,0.0264923869924599,0.1965793755857224,-0.2229181230068206,-0.0394566841423511,-0.0195999108254909,0.1105432290304452,-0.2371234154328704,-10.260491713285449,14932.0
18.8,0.8999999761581421,331.0,22.754770278930664,17.549564361572266,-79.78278286095133,40.45905537747069,267.19982729785147,0.0110984798520803,-0.0091295503079891,0.990717113018036,0.1351782232522964,-0.062414550317927,0.051687775187282,0.3219360746399744,0.0255904477089643,-0.0519655980169773,-0.0254733692854642,0.0407706978544592,0.0058185962727293,-10.88197004556656,14932.0
19.0,0.8999999761581421,327.0,22.70218276977539,18.31293487548828,-79.78278280472206,40.45905538282442,267.2782315400243,0.0046285428106784,-0.0037601434160023,0.9909003973007202,0.1344654709100723,-0.0975060731845529,0.0942618579434898,0.3326531206339658,0.0197266805917024,0.0307346805930137,-0.0829519182443618,0.0389499023091048,-0.123373016025871,-10.372324390411377,14932.0
19.1,1.0,327.0,22.74600601196289,17.581371307373047,-79.78278268684274,40.459055271338656,267.31363441169265,0.0035589367616921,0.001476117875427,0.990912675857544,0.1344519406557083,-0.1048915783743657,0.1182765742098737,0.2611746520242211,-6.316068174783139e-05,0.0298232082277536,0.0132800480350852,0.184548175893724,-0.0722221079701557,-9.518270131945611,14932.0
19.3,1.0,330.0,22.632068634033203,19.31485939025879,-79.78278252612036,40.45905502559097,267.35723148405555,-0.0031180952209979,0.0137633820995688,0.9908804297447203,0.1340032666921615,-0.097624905376806,0.1253256800330031,0.1740054935099166,0.0975660383701324,0.0468186885118484,-0.0147281000390648,0.2293504558503628,0.061515920064412,-9.460048236250875,14932.0
19.4,1.100000023841858,335.0,22.59951591491699,20.19750595092773,-79.78278252002984,40.45905472157544,267.3893256348372,-0.0059598586522042,0.0169152710586786,0.9908318519592284,0.133905827999115,-0.0787787149800729,0.1628117492019215,0.1336018591908769,0.0284664314240217,0.0070470906794071,-0.0043832757510244,0.2996127918362617,-0.0421333320764824,-9.5728182220459,14932.0
19.6,1.100000023841858,339.0,22.55819702148437,20.714370727539062,-79.78278244965122,40.4590544240108,267.41552949070933,-0.0018478743731975,0.0131481997668743,0.9908984899520874,0.1339549273252487,-0.0669286812642691,0.1453762326953651,0.1265917671142881,-0.0419302508234977,0.0139001505449414,-0.0239641740918159,0.2175094238854945,-0.0078042878676205,-9.686627258062364,14932.0
19.7,1.2000000476837158,344.0,22.52439308166504,21.06424903869629,-79.78278220209168,40.45905443480414,267.46371792376044,-0.0001673372607911,0.0124901318922638,0.9909223914146424,0.1338540017604828,-0.0633621913597067,0.1230464959998731,0.1457804871081105,0.0401219353079795,0.0420334450900554,0.0121947964653372,0.1731721985712647,0.0345970157068222,-9.864631705284117,14932.0
19.9,1.2000000476837158,345.0,22.54692840576172,20.603046417236328,-79.78278221849541,40.459054221156826,267.53049248576167,-0.0019564179237931,0.0084214629605412,0.9909693598747252,0.1338099092245102,-0.052446483270275,0.1414073567900036,0.1800915745834537,-0.0413208454847335,-0.0199437197297811,0.0168739780783653,0.2713142780587077,0.0166400154400616,-9.995994082689288,14932.0
20.0,1.2999999523162842,345.0,22.47180557250977,22.28087043762207,-79.78278220224769,40.45905408917992,267.5488156986237,0.0009073225082829,0.0079496409744024,0.9909172654151917,0.1342349350452423,-0.0472971705997195,0.1381366243347552,0.1836713356528314,-0.0200435034930706,0.0532633922994136,-0.007516287267208,0.1232129850424826,0.049178011813201,-9.859495511054991,14932.0
20.2,1.2999999523162842,348.0,22.486831665039062,20.603046417236328,-79.78278231782559,40.45905377196579,267.6162727785111,0.0003627765108831,0.0125790368765592,0.9907134771347046,0.1353830248117447,-0.0290626900400631,0.1792998246011309,0.2538825622055269,0.0549563616514205,0.0664905309677124,0.0161426700651645,0.1756770909391343,0.1674856351688504,-10.111635636091233,14932.0
20.3,1.2999999523162842,351.0,22.57572555541992,19.116064071655277,-79.78278233955878,40.45905361328384,267.64241618037227,-0.0010125336702913,0.0140999248251318,0.9906302094459534,0.1358380317687988,-0.0231925446990596,0.182707022642318,0.2578253515492864,0.07838024944067,0.024946155026555,0.0204409677535295,0.2354744092561305,-0.0469044727552682,-9.875240893363951,14932.0
20.51,1.2999999523162842,352.0,22.469301223754886,21.119911193847656,-79.78278255789199,40.459053333970935,267.7160779547692,-0.0020423596724867,0.0182550083845853,0.9905170202255248,0.1361567229032516,0.0051590024050891,0.1757658913931849,0.2427646458904958,-0.0135088125243783,0.1080193892121315,0.0059386920183897,0.213928461112082,0.0007413858314976,-9.719369326829913,14932.0
20.6,1.2999999523162842,356.0,22.491838455200195,20.26907157897949,-79.78278274131097,40.459053163525454,267.759261341095,-0.0021200547926127,0.0228074975311756,0.99044668674469,0.1359812766313552,0.0348231189660896,0.1960134247069818,0.2654251778683226,-0.0443259514868259,0.0564177818596363,0.0328082367777824,0.2855431301705539,0.0012351101031526,-9.909675146341325,14932.0
20.7,1.2999999523162842,356.0,22.50060272216797,16.348846435546875,-79.78278284877662,40.45905301874312,267.7867303800583,-0.0010018650209531,0.0247091837227344,0.990436851978302,0.1357328295707702,0.040375188262359,0.1815917139904018,0.2631478996384842,-0.0915194675326347,-0.0030067933257669,-0.0001292506931349,0.3152937816828489,-0.0598313006898388,-9.778828493356707,14932.0
20.9,1.2999999523162842,358.0,22.3641300201416,24.26086235046387,-79.78278280446206,40.45905280286768,267.85188922405246,0.0046955798752605,0.0177677553147077,0.9906602501869202,0.1351094096899032,0.0185602911394836,0.1540684027700913,0.0536122403290122,-0.0985834002494812,-0.222003698348999,-0.0574747063219547,0.3747646060958505,0.0968355008773505,-9.012708172202109,14932.0
21.1,1.2999999523162842,358.0,22.18759155273437,26.272661209106445,-79.78278287354837,40.459052688031285,267.85887399435046,0.0068958727642893,0.0104856211692094,0.9907986521720886,0.1347613781690597,0.0222785614122088,0.1376495321578024,0.0910802218691,-0.0112006161361932,-0.1304108202457428,-0.0304323676973581,0.2178492750227451,0.0462740698177367,-9.952967931032182,14932.0
21.2,1.2999999523162842,356.0,22.10996437072754,27.78349876403809,-79.78278304120455,40.45905269316171,267.89886167764666,0.0076887891627848,0.0081652821972966,0.9908825159072876,0.1342614740133285,0.0303327505852199,0.093115371228665,0.2376710738897577,0.0203237384557724,-0.0534190386533737,0.0657437145709991,0.2243220513872802,-0.0607238827273249,-10.704441561698914,14932.0
21.41,1.2999999523162842,354.0,22.083669662475582,28.96831321716309,-79.78278311579109,40.45905252175419,268.054652364254,0.0060570421628654,0.0122728943824768,0.9910773038864136,0.1325841844081878,0.0012788076950247,0.1051862369605066,0.7135260164420342,-0.0317426919937133,-0.025686414912343,-0.1559077203273773,0.2722552412375808,0.0857877533510327,-11.467909001111984,14933.0
21.5,1.2999999523162842,347.0,22.00604248046875,29.19891357421875,-79.7827831416788,40.459052447790704,268.13555571556094,0.0048090452328324,0.012047054246068,0.9912004470825196,0.1317330300807953,0.0098028096426139,0.1023415445027312,0.903907562245038,0.1765812486410141,0.1043222621083259,-0.0469717271625995,0.2339701582118869,0.1459653965011239,-11.648455817699435,14933.0
21.7,1.2999999523162842,344.0,21.85078811645508,30.90059280395508,-79.78278312578595,40.45905245843911,268.2572010469437,0.0037084473296999,0.0121362032368779,0.991361141204834,0.1305454969406128,0.0028126431817101,0.1048550983579197,1.1011896465285844,0.0546699799597263,0.0581519454717636,0.009607408195734,0.2419059627503157,-0.0463193766027689,-11.885790792703624,14933.0
21.8,1.399999976158142,338.0,21.82073974609375,32.506851196289055,-79.78278313787986,40.459052325580174,268.5264985275269,0.0031146011315286,0.0103066638112068,0.991724967956543,0.1279283463954925,-0.016796967044207,0.1069204619597844,1.585181401337971,-0.0658482015132904,-0.0723034515976905,-0.0783055499196052,0.2457565187104046,-0.0020241964235901,-12.1950137758255,14933.0
22.0,1.5,333.0,21.778169631958008,32.618175506591804,-79.78278312686605,40.4590523340858,268.91036912918094,-0.0013355670962482,0.0107689164578914,0.9917170405387878,0.1279831230640411,-0.0226692744901523,0.0936183951721439,2.0579454300236284,0.0433947406709194,0.029632007703185,0.088196225464344,0.233862459808588,-0.0674813819490373,-12.176724854707718,14933.0
22.1,1.600000023841858,322.0,21.9497013092041,29.03192710876465,-79.78278309497357,40.45905242542583,269.1523031902313,-0.0012578720925375,0.0134979151189327,0.9914873242378236,0.1294955909252166,-0.0396675191770166,0.0941404403060793,2.268029753829914,-0.0872462391853332,0.0322700515389442,0.0176206436008215,0.1951121759600937,-0.0834187265206128,-11.9540161049366,14934.0
22.2,1.7999999523162842,317.0,21.699291229248047,33.755279541015625,-79.78278307908845,40.45905238374978,269.38888213157657,0.0004176438087597,0.0148463901132345,0.9911978840827942,0.1315530836582183,-0.0361273578420733,0.1009095080891645,2.466310909994005,0.0436280444264411,0.0538008213043212,-0.0017443246906623,0.2643320995755494,-0.0168974847905337,-11.875836492776871,14934.0
22.41,2.0,303.0,21.962221145629886,28.66614532470703,-79.7827829640657,40.459052615828384,270.0017919254303,0.0039256862364709,0.0129488268867135,0.990670382976532,0.1356065422296524,-0.0275274894530735,0.0861770906953748,2.9149293608982934,0.0751781538128852,0.0137304188683629,0.0718830972909927,0.210316380187869,-0.0096571997017599,-11.696200672388075,14935.0
22.51,2.0999999046325684,294.0,22.21638870239257,24.435800552368164,-79.78278291380892,40.45905261088756,270.29998752594,0.0012785228900611,0.0113666290417313,0.9903531670570374,0.1380940973758697,-0.0255713239950402,0.0695931026345794,3.0323594537433523,0.1945893913507461,0.0373540669679641,0.0680873617529869,0.2124469776637852,-0.0284241740964353,-11.081210410594943,14935.0
22.7,2.299999952316284,283.0,22.098695755004886,25.827362060546875,-79.7827826889994,40.45905316162797,270.7783183765412,-0.0005860098171979,0.011424534022808,0.9900277256965636,0.1404080986976623,-0.0548626124041895,0.0160169082414571,3.199354484544536,0.0463492646813392,0.0977949500083923,0.1232640296220779,0.1096877905167639,-0.2344073472172022,-10.617612748146056,14935.0
22.91,2.400000095367432,277.0,22.12248420715332,25.262784957885746,-79.78278248246706,40.459053243286576,271.4279215049744,0.0037997253239154,0.0166305657476186,0.989556849002838,0.1431304961442947,-0.0796435489747248,0.0149980356399807,3.278571664073277,0.0822977945208549,0.0679201185703277,0.0825088769197464,0.2180989876762032,-0.1988975354656576,-10.132353490591049,14936.0
23.0,2.5999999046325684,273.0,22.141263961791992,26.455551147460927,-79.78278232378682,40.45905378994512,271.925144405365,0.0044081825762987,0.017723724246025,0.9895003437995912,0.1433720588684082,-0.0718817830358246,-0.0048371008337131,3.3718714092053856,0.0497949235141277,0.0474196970462799,0.1193235591053962,0.2116806452348828,-0.2238231925293803,-9.964974603652957,14936.0
23.2,2.700000047683716,269.0,22.191347122192383,23.592912673950195,-79.78278207481831,40.45905422302531,272.6401927185059,0.0029667266644537,0.0214030593633651,0.989573895931244,0.1423962861299514,-0.096370963780747,-0.0417939821724668,3.3946970964767123,0.0614641830325126,0.0735362246632576,0.0406684055924415,0.1660830160416662,-0.1634016108512878,-9.823387784957887,14937.0
23.3,2.5999999046325684,263.0,22.098695755004886,25.68422889709473,-79.78278168665754,40.45905450784064,273.3157274436951,0.0027000571135431,0.0226464979350566,0.9899104237556458,0.1398470997810363,-0.1171621531001264,-0.0671443451275772,3.3641442026049653,0.0396443232893943,0.0408125706017017,0.0184065476059913,0.1684355153515935,-0.1657665172219276,-9.617440078854562,14938.0
23.4,2.400000095367432,263.0,22.09619140625,26.805429458618164,-79.782781742579,40.45905483471015,273.6652157020569,0.0033128357026726,0.0213125552982091,0.9901236295700072,0.1385284215211868,-0.1171062410944882,-0.0899632979064565,3.351336685586899,-0.0789587721228599,-0.0997160971164703,-0.0731101483106613,0.2289557139761746,-0.0023466429580003,-9.72040019094944,14938.0
23.6,2.200000047683716,258.0,22.078662872314453,25.76374816894531,-79.78278153335313,40.45905502956253,273.99976417541507,0.0039177886210381,0.0206092093139886,0.990207850933075,0.1380158811807632,-0.1014875180422216,-0.1239889890179089,3.355839250239085,0.1271732151508331,0.035138189792633,0.0919568091630935,0.1941393454559147,-0.175046651456505,-9.814324600696564,14938.0
23.8,2.0999999046325684,257.0,22.01981544494629,25.914831161499023,-79.78278115962,40.45905580350392,274.97464200973513,0.0048672398552298,0.0171636212617158,0.9903398156166076,0.1375098079442978,-0.0929004126509953,-0.1954838859094926,3.3400931117863166,0.0934019312262535,0.0717492178082466,0.0914947688579559,0.1777277460135519,0.1871942967921495,-9.78045518875122,14939.0
23.9,1.8999999761581416,264.0,22.061134338378903,25.159412384033203,-79.78278136556416,40.459056138628405,275.290050239563,0.0018432944780215,0.0165027827024459,0.9903638958930968,0.1374904364347458,-0.0809481617633422,-0.2040491763946134,3.3169125171734244,0.0165098905563354,-0.0880354344844818,0.0637601092457771,0.3043905152007937,-0.0866894122771918,-9.845682048797608,14940.0
24.0,1.7999999523162842,270.0,21.99602699279785,27.43362045288086,-79.78278115141217,40.45905639582912,275.6210457992554,-0.0018664202652871,0.0152371861040592,0.990304946899414,0.138059914112091,-0.0960356575551068,-0.2166875568721122,3.3256898494996685,0.1437366157770156,-0.0050579449161887,0.0465250499546527,0.226396022234112,-0.0545305027719587,-9.872220221757887,14940.0
24.2,1.600000023841858,282.0,22.052370071411133,25.723989486694336,-79.78278093590534,40.45905665877488,275.95366165161136,-0.0036666942760348,0.013251032680273,0.990283727645874,0.1383808404207229,-0.1205339576216137,-0.2362306503700341,3.341525129862017,0.0144869601354002,-0.0521867498755455,0.0244791712611913,0.2554071654193104,-0.075857906662859,-9.963378313779833,14940.0
24.4,1.5,288.0,22.06989860534668,25.64447021484375,-79.78278092515644,40.45905716563472,276.5814072799683,-0.0026718436274677,0.0126690836623311,0.990362584590912,0.1378927528858184,-0.1081607220429092,-0.2526185576156648,3.3126521618617817,-0.1382523477077484,-0.0449883304536342,-0.0050801136530935,0.1984446503408253,0.0019464832730591,-9.83805143237114,14941.0
24.5,1.5,299.0,22.171314239501957,23.083999633789062,-79.78278116886435,40.45905762420471,277.21862384796145,-0.0006801933050155,0.0129797123372554,0.9904541969299316,0.1372285932302475,-0.0445825442157541,-0.218556573171155,3.2872395736775104,0.0239486917853355,-0.0562616325914859,0.0591871403157711,0.3117679837346077,-0.0924143663048744,-9.728749430179596,14942.0
24.71,1.5,306.0,22.06989860534668,25.27868843078613,-79.7827810217692,40.45905821115633,277.79836532592776,-0.0025563046801835,0.0095717860385775,0.9903039336204528,0.1385640501976013,-0.0424009396343206,-0.2227393056341494,3.18286413581865,-0.0087467972189188,-0.086423359811306,-0.0214291848242282,0.2745239426381886,-0.1564952999912202,-9.542057189941406,14942.0
24.9,1.7999999523162842,313.0,22.034839630126957,25.898927688598643,-79.78278091032824,40.4590584764542,278.1164853286744,-0.0018880389397963,0.007922695018351,0.9902985095977784,0.1387175917625427,-0.0437950000283171,-0.2330247171347765,3.17527847943222,-0.0114151649177074,-0.0271403882652521,0.041759543120861,0.2715114023163915,-0.13941091443412,-9.707615253925324,14943.0
25.0,1.8999999761581416,318.0,22.021068572998047,26.36808204650879,-79.7827805480657,40.4590590258127,278.39496776580813,-0.0008760497439652,0.0070175677537918,0.9903536438941956,0.1383822709321975,-0.057305303026959,-0.2512456890125025,3.1277245905512974,0.0214281789958477,-0.0035283747129142,0.015994369983673,0.2618892607837915,-0.03293097037822,-9.703853740096092,14943.0
25.1,2.299999952316284,321.0,22.07991409301757,25.75579643249512,-79.78278092967778,40.45905935274072,279.014116973877,-0.0024096213746815,0.0082885343581438,0.99042946100235,0.1377501338720321,-0.0197828524829159,-0.2029476249905674,3.102640099904088,0.083860382437706,0.0723268166184425,-0.0844976752996444,0.2407665962353349,0.1335289992112666,-9.774782804846764,14944.0
25.3,2.299999952316284,319.0,22.08617401123047,23.545202255249023,-79.78278084600008,40.45905956183088,279.3235127639771,-0.0046093263663351,0.009578806348145,0.9904398322105408,0.1375359445810318,-0.0268262038948684,-0.1906359692678543,3.0882971061564684,-0.0287416726350784,-0.0248357653617858,0.0451195687055587,0.2860618330165744,-0.1046271898224949,-9.702773759365082,14944.0
25.4,2.5999999046325684,323.0,22.04110145568848,25.23097801208496,-79.7827807553394,40.45905987145564,279.8761841964722,-0.0023646850604563,0.008938823826611,0.99053692817688,0.1369346976280212,-0.057622870397402,-0.152444086385022,2.9987277180279297,-0.1629524827003479,-0.0976143106818199,0.0079560792073607,0.2122028564102948,-0.0971145044267177,-9.645978584289551,14944.0
25.6,2.700000047683716,323.0,22.02607536315918,26.02615547180176,-79.78278067224215,40.45906004555439,280.17534706115725,0.0018580702599138,0.0091138193383812,0.9906025528907776,0.1364558637142181,-0.0342514939850076,-0.1508201883767795,2.990412132643016,-0.0580395497381687,0.0541177615523338,0.0549305230379104,0.2394281868450344,-0.1374201476387679,-9.698207668662072,14945.0
25.7,2.900000095367432,323.0,22.03984832763672,25.42182159423828,-79.78278125982158,40.45906020553182,280.8308083724976,0.0031119370833039,0.0112077090889215,0.9906218647956848,0.1361361891031265,0.0290250431632375,-0.0790150011151864,2.9968633628172405,0.1459437310695648,0.0470533668994903,0.0591219998896122,0.311935469917953,-0.1098686430696398,-9.818740417957308,14945.0
25.91,3.0,322.0,22.07240104675293,24.82543754577637,-79.78278121724486,40.459060330764224,281.13061019897464,0.0001643020077608,0.0099775521084666,0.990631103515625,0.1362003237009048,0.015800621247424,-0.0716174638017579,3.003150504628944,0.0616294257342815,-0.05616320297122,0.0297591369599103,0.3271891379356384,-0.1501909143012017,-9.897066210508347,14946.0
26.0,2.900000095367432,320.0,22.05612564086914,24.849292755126957,-79.7827815546724,40.45906049139223,281.7847840499878,-0.0067730257287621,0.0079955961555242,0.9904307723045348,0.1376123577356338,0.000879032790632,-0.0527614203094623,2.9880657929650645,0.0401167795062065,-0.0390942692756652,0.0573379807174205,0.2866885631717741,-0.1691628907062113,-9.77172880411148,14946.0
26.2,2.900000095367432,327.0,22.021068572998047,25.859169006347656,-79.78278182931989,40.45906069916139,282.44438049316415,-0.0062103839591145,0.0050600371323525,0.9902234077453612,0.1392605900764465,0.0076391318319159,-0.0239364056364515,3.010930521150404,-0.0555467046797275,-0.0284407399594783,-0.0363023690879344,0.2505186921358108,-0.1427193786855787,-9.848403342962266,14947.0
26.31,2.900000095367432,329.0,22.07615852355957,23.839418411254893,-79.78278187481502,40.45906076376471,282.74590847015384,-0.0034680042881518,0.0059969266876578,0.9901745915412904,0.1396654546260833,0.019878523385015,-0.018708088789417,3.018507134969316,-0.0963497310876846,0.0448166914284229,-0.0391226671636104,0.258094892911613,0.0487225868040695,-9.846197773218156,14947.0
26.4,2.799999952316284,331.0,22.061134338378903,25.33435249328613,-79.78278229284865,40.459060697846304,283.0830447387696,-0.0006200139177963,0.0076987869106233,0.9901481866836548,0.1398109048604965,0.0630680858113343,0.0356173698041323,3.007592459341668,-0.0410694181919097,0.0729665458202362,-0.0247433483600616,0.2475543365254998,0.0713000614475458,-9.790374405384066,14948.0
26.6,2.700000047683716,335.0,22.017311096191406,25.708086013793945,-79.78278297377737,40.45906062493809,283.7221781921387,0.0033472154755145,0.0077032875269651,0.9899911284446716,0.1408794075250625,0.1216751908631568,0.108936232755901,3.0088920287030083,-0.1001743897795677,-0.0484359636902809,0.0457208976149559,0.2596763089299202,-0.0299753947276622,-9.844510266780851,14948.0
26.71,2.5999999046325684,339.0,22.1062068939209,24.04616355895996,-79.7827831322707,40.45906060350493,284.0234648895264,0.0046422774903476,0.0077578737400472,0.9900051951408386,0.1407411694526672,0.1384185342027151,0.1118452249587289,3.0077468491663564,0.0156541746109724,0.0412922352552413,-0.0031194624025374,0.2324440531991422,-0.0168273273389786,-9.79890432357788,14949.0
26.91,2.5,345.0,22.03609275817871,24.18929672241211,-79.7827841182974,40.459060459393314,284.67412635803225,0.0059500634670257,0.0108222924172878,0.9902139902114868,0.1390101611614227,0.1923663616035037,0.1696181627203095,3.0080938962241093,-0.003039033152163,0.0070527326315641,-0.0641406327486038,0.2270401661284268,0.0397848755680024,-9.85512530207634,14949.0
27.1,2.400000095367432,346.0,22.02732849121093,25.54904937744141,-79.78278433529329,40.45906040181843,284.97570297241214,0.006263839546591,0.0111774886026978,0.990346610546112,0.1380200535058975,0.1905278564221321,0.1825232462138993,3.0106118955462464,0.0849585309624672,0.0070034172385931,0.0307740252465009,0.2779944661259651,-0.0789406272768974,-9.83193056702614,14949.0
27.2,2.200000047683716,347.0,22.05612564086914,24.435800552368164,-79.78278454846709,40.45906033914854,285.27748367309573,0.0054867677390575,0.0095644444227218,0.9904637336730956,0.1373319029808044,0.1831756246690568,0.1908950174744096,3.015744337971755,0.0977100133895874,-0.0316507592797279,0.028587931767106,0.2478556143119932,0.0130260136141441,-9.85410203933716,14950.0
27.3,2.200000047683716,347.0,22.07740974426269,24.865196228027344,-79.78278497126449,40.45906034645075,285.923203201294,0.0032151171471923,0.0048311608843505,0.9907140135765076,0.1358389556407928,0.1530567013496621,0.175384863870628,3.0047265602149964,-1.6697280216249055e-06,-0.0463187098503112,0.0272445678710937,0.2486218553781509,-0.0905234315805137,-9.686362963914874,14950.0
27.5,2.200000047683716,347.0,22.01981544494629,24.66640281677246,-79.78278505868703,40.45906049167564,286.5666205596924,0.0023824970703572,0.0049886154010891,0.9907662868499756,0.1354681402444839,0.1201584083360508,0.1422518846830107,3.0059851015395265,0.0355777703225612,0.0005320798954926,-0.0347524993121624,0.2638380281254649,-0.014960775047075,-9.814994691610336,14951.0
27.7,2.200000047683716,345.0,22.02983283996582,24.348331451416016,-79.7827851399375,40.45906064743515,286.91020462036136,0.0020321619231253,0.0077606607228517,0.9906674027442932,0.1360655277967453,0.0999292850073335,0.1389436754735128,3.0205634638298764,0.0632619336247444,0.0860200673341751,0.0086619276553392,0.2631696365587413,-0.0600965450098738,-9.853601517677308,14951.0
27.8,2.200000047683716,337.0,21.994773864746094,25.23892974853516,-79.78278526646106,40.45906057275561,287.2130286407471,0.0030558325815945,0.011075940914452,0.9904817938804626,0.1371639966964721,0.0873068150955647,0.1595076196249231,3.0295997744359893,0.0387282781302928,0.0504081472754478,0.0556263625621795,0.2473304978013039,-0.076344431550242,-9.877755196094514,14952.0
28.0,2.200000047683716,338.0,22.047361373901367,23.74399757385254,-79.78278567073954,40.45906041447436,288.15042182922366,0.0025268069002777,0.0124469846487045,0.9903145432472228,0.1382601410150528,0.0803539999767957,0.1958893893279354,3.0114716679379443,0.1071748882532119,-0.0765935108065605,-0.0299814268946647,0.2210561621747911,-0.1053304910939186,-9.76844208419323,14953.0
28.1,2.200000047683716,332.0,21.955961227416992,26.185192108154297,-79.78278578630409,40.45906047451515,288.4821192932129,-0.0020489306189119,0.0129699818789958,0.990329086780548,0.1381153762340545,0.0629037798342889,0.1785198267126951,3.015302050558072,0.1403662264347076,-0.0070837740786373,0.1065867841243744,0.2765702671185136,-0.2134934282675385,-9.830862865448,14953.0
28.2,2.299999952316284,328.0,21.945945739746094,25.98639678955078,-79.78278587499716,40.45906039931173,288.78532287597665,-0.0032172636128962,0.0135181872174143,0.9902570843696594,0.1385567337274551,0.0264633492472459,0.176516269038863,3.042487639960208,0.031888123601675,0.0231297761201858,0.0548416338860988,0.2122730412706732,-0.1165403892192989,-9.985432841777802,14953.0
28.4,2.400000095367432,324.0,22.033588409423828,24.23700714111328,-79.7827860971883,40.45906041385816,289.4254824829102,0.0032973275519907,0.0108840465545654,0.9902532696723938,0.1388134062290191,0.0294036228117254,0.1684019451345257,3.0653435115233965,-0.039733201265335,0.0619939416646957,-0.008789132349193,0.2105254729650914,-0.0447318940982222,-9.86108010649681,14954.0
28.6,2.5,320.0,21.997278213500977,24.523271560668945,-79.7827861754002,40.45906033932676,289.73293563842776,0.004871109034866,0.0112482002004981,0.9902751445770264,0.1385819315910339,0.0460422562488155,0.1669885462851122,3.0793635467033864,-0.056791964918375,-0.0042144232429564,-0.08101287484169,0.236157035138458,0.0991566719021648,-9.924088532924651,14954.0
28.7,2.700000047683716,319.0,22.058629989624023,24.69820976257324,-79.78278635058818,40.45906031108844,290.3814265441895,0.0001653197250561,0.0124256452545523,0.990408182144165,0.1376124322414398,0.0256645590623487,0.1844677900733549,3.100136317484566,0.0373976752161979,-0.0041342051699757,0.0372813567519187,0.2529443364590406,-0.1361916933115571,-9.922903887033463,14955.0
28.9,2.700000047683716,319.0,22.047361373901367,23.70423889160156,-79.78278623124437,40.459060403777634,291.0227725219727,-0.0004703443264588,0.0146417682990431,0.9905037879943848,0.1367028653621673,-0.0120222698994472,0.1722442495126691,3.1127948942839385,0.0511026419699192,0.0806721076369285,0.0839518755674362,0.3151852061972022,-0.2086442957818508,-9.966574401855471,14956.0
29.0,2.700000047683716,319.0,22.01605987548828,25.00832939147949,-79.7827862626597,40.45906032583992,291.3339144897461,0.0005738044274039,0.0166962556540966,0.99042946100235,0.1370049566030502,-0.0081039611493813,0.1763886483834708,3.1032851556723298,0.0080943731591105,0.0582413300871849,-0.0507877431809902,0.2644713363982737,-0.0257421110942959,-9.762153988480568,14956.0
29.1,2.700000047683716,321.0,22.05111694335937,23.131710052490234,-79.78278623628994,40.45906033571109,291.6587378692627,0.0008084450964815,0.018655689433217,0.9903642535209656,0.1372226625680923,-0.0124231985298602,0.195738988195868,3.071566355058875,-0.0023948978632688,0.0284698158502578,-0.0117519991472363,0.3270824627950787,-0.0582887914963066,-9.64051845431328,14956.0
29.3,2.700000047683716,323.0,22.104955673217773,22.20135307312012,-79.78278628573369,40.459060178405686,292.2675311279297,0.0016150610754266,0.0203995499759912,0.9901803731918336,0.1382897347211837,-0.026247703683152,0.195198218276396,3.000735823530864,-0.0487328059971332,0.0351740047335624,0.1156501993536949,0.2476177788153291,-0.1620854391530156,-9.427760496139529,14957.0
29.5,2.700000047683716,325.0,21.928415298461918,26.98036956787109,-79.7827863391011,40.45906031795907,292.60119125366214,0.0036493979860097,0.0214800275862216,0.9899571537971495,0.1396787613630294,-0.0212258874503676,0.1916444214393572,2.9832881998247527,-0.1262654364109039,-0.0082056298851966,-0.0246700998395681,0.2592665104754269,0.0411270125582814,-9.497887907624245,14957.0
29.6,2.799999952316284,323.0,21.99101829528809,23.77580451965332,-79.7827863552982,40.45906038125053,293.23877021789554,0.0047520608641207,0.0207300037145614,0.9896949529647828,0.1416036933660507,-0.0106890513540638,0.1703864886033567,3.017445130024341,0.0266150366514921,0.0148921543732285,0.0809959843754768,0.2212425787188112,-0.1509770633094012,-9.839552997350694,14958.0
29.8,2.900000095367432,324.0,21.978498458862305,24.984474182128903,-79.782786308749,40.459060317989135,293.8399150085449,0.0046774251386523,0.020250329747796,0.989711046218872,0.1415633261203766,-0.0359639371842934,0.1411721198441352,2.984621527262337,-0.0874982997775077,-0.0757873132824897,0.0344365872442722,0.2492141052335501,-0.1076290955208242,-9.671730891466144,14958.0
29.9,2.900000095367432,323.0,21.962221145629886,25.23892974853516,-79.78278633430568,40.45906045911311,294.1792666625977,0.0041770418174564,0.0192326847463846,0.9898223280906676,0.1409416794776916,-0.0300274433325713,0.127640443716966,3.0062154790830697,0.0026438836939632,0.0126774404197931,0.027189765125513,0.223886762727052,-0.0878897542878985,-9.765750026106836,14959.0
30.1,2.900000095367432,322.0,21.929668426513672,25.708086013793945,-79.78278628218631,40.45906045010936,294.4801299285889,0.0031085941009223,0.0191942602396011,0.9899181127548218,0.1403002142906189,-0.0498102926143409,0.1121783003270137,3.0067375457535097,-0.0201211962848901,-0.0358561538159847,-0.0135139496996998,0.2011300754919648,-0.0449575143959373,-9.766881462335585,14959.0
30.2,2.900000095367432,319.0,22.0135555267334,24.22905540466309,-79.78278622262967,40.45906044663109,294.78074523925784,0.0011804152745753,0.0189251061528921,0.9900147914886476,0.1396827697753906,-0.0551144490822644,0.0969968005914968,3.005194436419834,0.0202542934566736,-0.0653375014662742,0.0758989080786705,0.2600209474749863,-0.1291149909328669,-9.823926898241044,14959.0
30.4,2.799999952316284,319.0,21.97974967956543,24.24495887756348,-79.78278614848934,40.459060840141504,295.743178100586,-0.0059410138055682,0.0172606874257326,0.99016535282135,0.1387061178684234,-0.0780219555512369,0.0619872115442773,3.0330532454057413,0.0053421109914779,-0.0108330361545085,0.0324424803256988,0.183814039696008,-0.0423395012458786,-9.791483037471776,14960.0
30.5,2.799999952316284,316.0,21.98726272583008,25.24688148498535,-79.78278610329076,40.45906087260421,296.04675361633304,-0.0055569726973772,0.0159686915576457,0.990198254585266,0.1386416554450988,-0.0770892166487033,0.0538557527534483,3.033990896871505,-0.0389525219798088,-0.0656859278678894,0.0028533125296235,0.2753023166768253,-0.1043673359043896,-9.831952786445616,14961.0
30.61,2.799999952316284,313.0,21.978498458862305,24.904956817626957,-79.78278606354674,40.45906090930737,296.3499343109131,-0.0048014181666076,0.0139172198250889,0.9902200102806092,0.1387362778186798,-0.0662656345177551,0.0428929901904358,3.0268513724644124,-0.0805658847093582,-0.0812875553965568,0.0294536147266626,0.2810116294026375,-0.1337927543185651,-9.770210282206536,14961.0
30.81,2.799999952316284,311.0,21.95721244812012,24.94471549987793,-79.78278590565142,40.459061165924616,296.9802825164795,-0.0032452784944325,0.012491856701672,0.9902063012123108,0.1390143483877182,-0.0615231437169479,0.0214431938428248,3.0230211301501235,-0.0438763871788978,-0.0341653935611248,-0.0315139442682266,0.1989328745752572,-0.0553736347239464,-9.7680152374506,14961.0
31.0,2.799999952316284,310.0,21.97974967956543,24.268814086914062,-79.78278590031071,40.45906137540178,297.3063246917725,-0.0024753357283771,0.0133572807535529,0.9902302622795104,0.1387788504362106,-0.0481813976053779,0.0225064189574858,3.0286374930759123,-0.0528809949755668,-0.0257360357791185,0.0984409376978874,0.2726579682156444,-0.234918759316206,-9.836484378576278,14962.0
31.1,2.799999952316284,309.0,21.962221145629886,24.78567886352539,-79.7827858655961,40.45906141175389,297.6091716003418,-0.0021613410208374,0.0138038378208875,0.99029940366745,0.1382455974817276,-0.0468264225154769,0.0335580982684908,3.0271221609961634,-0.021731499582529,0.023905212059617,0.0319278389215469,0.2319394384883344,-0.1175324515812099,-9.77029565155506,14962.0
31.31,2.700000047683716,309.0,21.96472549438477,24.55507850646973,-79.78278575347069,40.45906172367656,298.23155662536624,-0.0033247438259422,0.0133069595322012,0.9905676245689392,0.1363368183374405,-0.0397859050661298,0.0222051014560474,3.015133601766866,0.0583295971155166,0.0447810143232345,-0.0680771842598915,0.2851184578612447,0.0277658598404377,-9.794685557484629,14963.0
31.4,2.700000047683716,311.0,21.93968391418457,25.10375022888184,-79.78278574177664,40.45906194217036,298.8559615325928,-0.0029634570237249,0.0149766812101006,0.990623652935028,0.1357633173465728,-0.0351783787048714,0.0299532062942635,3.035451020744073,-0.0433502048254013,-0.0112105887383222,0.0445582121610641,0.2803188439831138,-0.1362862263433635,-9.92389323592186,14963.0
31.5,2.700000047683716,311.0,21.98350715637207,24.29266929626465,-79.78278572792661,40.45906198596423,299.1600024414064,-0.0023024026304483,0.0157371684908866,0.9905183911323548,0.1364567726850509,-0.0234931847600868,0.0372592095877653,3.043369218517292,0.0664224028587341,0.034501414746046,0.1267490833997726,0.2842217507958412,-0.1814206464216112,-9.898145606517794,14964.0
31.71,2.700000047683716,312.0,22.01105117797852,23.88712882995605,-79.78278600280036,40.45906221028734,299.77832672119143,-0.0025807786732912,0.0135523229837417,0.9902629852294922,0.1385246068239212,0.0132635206734933,0.0632113210800847,3.0201035458209726,0.0371275432407856,-0.0040528080426156,0.0578837804496288,0.306051763985306,-0.1421343921683728,-9.76509747684002,14964.0
31.8,2.700000047683716,314.0,21.952205657958984,25.000377655029297,-79.78278603123684,40.45906223907424,300.0801417541504,-0.0028638576623052,0.0127301830798387,0.9901317954063416,0.1395307779312133,0.009993202662669,0.055954300856299,3.0163023712844046,0.0435843542218208,0.0295147765427827,-0.0273896865546703,0.2498136458359659,-0.0586986219277605,-9.764816225767136,14965.0
32.01,2.700000047683716,313.0,21.96347427368164,24.97652244567871,-79.78278607516208,40.45906242071889,300.3991801452637,-0.0027362450491636,0.0126235876232385,0.990011751651764,0.1403921544551849,0.0084025212461149,0.0524628249952556,3.010602359754455,0.0131162516772747,-0.0230554454028606,-0.0559360943734645,0.2723441371880472,-0.0486845753341913,-9.75050925850868,14965.0
32.21,2.700000047683716,314.0,21.95345687866211,24.316524505615234,-79.78278619743205,40.459062706643714,301.31303665161136,-0.0001539321383461,0.0130435554310679,0.9898927807807922,0.1412168145179748,0.0133159075801421,0.0424498757838235,2.996582237215926,-0.0145802199840545,0.0463223978877067,0.0167806092649698,0.2142996131256223,-0.068227788163349,-9.720501932501794,14966.0
32.3,2.5999999046325684,313.0,21.97974967956543,23.83146667480469,-79.78278622218977,40.45906274220247,301.61231109619143,0.0014570016646757,0.0148262875154614,0.9898956418037416,0.1410133987665176,0.0108275396733474,0.0424717224052866,2.9875938843980694,-0.0551129132509231,-0.0231238380074501,-0.0491200610995292,0.1901078547164797,-0.0322942040255293,-9.70692820608616,14966.0
32.5,2.5999999046325684,311.0,21.94344139099121,24.435800552368164,-79.78278629160003,40.459062936372064,301.92648574829104,0.0028641121461987,0.0162897929549217,0.9898822903633118,0.1409242004156112,0.0207500867024368,0.0428311105832934,2.978251222066305,-0.0047791814431548,0.0434813313186168,0.0265563949942588,0.2255034447647631,-0.1218543662130832,-9.739224132299425,14966.0
32.6,2.5999999046325684,303.0,21.982254028320312,24.74592018127441,-79.78278629969894,40.45906298300115,302.2247073364258,0.0030094955582171,0.0161120109260082,0.9899320006370544,0.1405917406082153,0.0147184634044856,0.0492982700015488,2.988518921063533,-0.0155868157744407,-0.0391894690692424,-0.0182433724403381,0.2332004453614354,-0.0281193148903548,-9.851964297294616,14967.0
32.8,2.5999999046325684,297.0,21.92340850830078,24.68230628967285,-79.78278633237355,40.45906322426145,302.8404948425293,-0.0002578036510385,0.0113105392083525,0.990134298801422,0.1396642327308654,0.0090426912963723,0.0095816033383623,2.9972097450745245,0.0282627437263727,0.0226111970841884,0.0505027882754802,0.0806860394217073,-0.0753301406325772,-9.836574425697329,14967.0
32.9,2.5999999046325684,289.0,21.942188262939453,25.42182159423828,-79.78278634470145,40.45906347602632,303.4552561950684,-0.0021882853470742,0.0119270700961351,0.9903025627136228,0.1383971124887466,-0.0124277070317701,-0.0070001699952517,3.0108262190049,-0.0094443298876285,-0.0196358170360326,0.0428828783333301,0.1794852911308407,-0.1897749288752675,-9.892004860639572,14968.0
33.11,2.5,286.0,21.925912857055664,24.70616149902344,-79.78278631606787,40.459063611441216,304.0556552124024,-0.0015393625944852,0.0080177951604127,0.9904757738113404,0.1374452859163284,-0.0205148867082455,-0.0149743225170136,2.9844969120460427,-0.089210107922554,-0.1110860407352447,0.0477084852755069,0.1738403891399502,-0.0131116410624235,-9.72915756583214,14969.0
33.2,2.5999999046325684,280.0,21.938432693481445,24.56303024291992,-79.78278625648484,40.45906385624957,304.36838790893563,0.0001429904077667,0.0054171159863471,0.9904757142066956,0.1375811696052551,-0.0226438225133751,-0.02961114342088,2.9782759885615224,-0.0349416993558406,-0.0051617594435811,0.090457409620285,0.1632539138384163,-0.1530072531290352,-9.746232604980468,14969.0
33.4,2.5999999046325684,276.0,21.997278213500977,24.97652244567871,-79.78278622226917,40.45906391747661,304.6660792541504,0.0010638523381203,0.0045930794440209,0.9904327392578124,0.1379162222146988,-0.0247172418143297,-0.0355913207685093,2.9730415500355267,-0.0965584069490432,-0.0358872823417186,-0.0748713687062263,0.1688283568806946,0.083575614625588,-9.704648376703265,14969.0
33.5,2.5999999046325684,270.0,21.93467712402344,24.42784881591797,-79.78278626928147,40.45906415511158,305.26927825927737,-0.0019822048489004,0.0063546672463417,0.9903095364570618,0.1387187838554382,-0.0181224395867575,-0.0171018920170269,2.9577345351718884,0.0780839547514915,0.069275252521038,-0.0213071852922439,0.183258060850203,-0.0791706055775284,-9.756660529375075,14970.0
33.7,2.5999999046325684,268.0,21.950952529907227,23.55315399169922,-79.78278623611847,40.45906418978254,305.5645510864258,-0.0039839781820774,0.0072171762585639,0.9902310371398926,0.1391929537057876,-0.036710373635733,-0.0069602817651181,2.950833466789558,0.025016063824296,-0.0358393229544162,-0.0152129475027322,0.2171977490186691,-0.1061013185698539,-9.782367812991144,14970.0
33.8,2.700000047683716,264.0,21.93968391418457,25.175315856933597,-79.78278617640018,40.45906446546688,305.88753387451175,-0.0050398586317896,0.0082440292462706,0.990104615688324,0.1399985551834106,-0.0500551618494533,-0.0144907314077133,2.9687522063673173,0.0971317887306213,0.0615986436605453,0.089285984635353,0.1875890752114356,-0.2434027951397001,-9.805779479742052,14970.0
34.01,2.700000047683716,268.0,21.922155380249023,24.66640281677246,-79.78278597291276,40.459064800126,306.80725738525393,-0.0083172060549259,0.0114017277956008,0.9899800419807434,0.1405010968446731,-0.0568048351156035,-0.0019693723336411,2.9942279754269547,0.1035589352250099,0.053044818341732,0.074437029659748,0.2356538274139166,-0.2225901609286666,-9.848574081659317,14971.0
34.1,2.700000047683716,274.0,21.945945739746094,24.35628318786621,-79.78278594300619,40.45906484797247,307.1066348266602,-0.0101876882836222,0.01146144233644,0.9900423884391784,0.1399317681789398,-0.0640698394587538,0.0037099588324516,2.995595582745936,0.015830485150218,-0.0563308596611023,-0.008625398389995,0.190044302791357,-0.1470402974635362,-9.841792480945587,14972.0
34.3,2.5999999046325684,278.0,21.91339111328125,25.03218460083008,-79.78278599601344,40.45906502097943,307.4248377990723,-0.0095307119190692,0.0110200541093945,0.9900742769241332,0.1397885382175445,-0.0544715802831336,0.0094583594905234,3.0040380292780133,0.0082761524245142,-0.0025024381466209,0.0964971110224723,0.2676039456389844,-0.2590309225022793,-9.874235172271732,14972.0
34.4,2.5999999046325684,284.0,21.950952529907227,23.67243003845215,-79.78278600009347,40.45906506386402,307.7251574707032,-0.0069806999526917,0.0103406785055995,0.9900840520858764,0.1399211436510086,-0.0420659425454756,0.0127489844154993,3.0017819105561423,-0.0246262494474649,0.0474754981696605,0.0856024548411369,0.2158610389754176,-0.2331967725791037,-9.821887389421462,14972.0
34.61,2.5999999046325684,284.0,21.93968391418457,24.523271560668945,-79.78278595384502,40.45906527038896,308.6423327636719,0.0017241478199139,0.0092810047790408,0.9901235699653624,0.1398797333240509,0.0042098377920151,0.0232572747916258,2.989045661539045,0.0612494237720966,0.0719942525029182,-0.0430682897567749,0.2422765117697418,-0.2277601411007345,-9.787955996990204,14973.0
34.71,2.5999999046325684,286.0,21.90713119506836,24.87314796447754,-79.78278596299872,40.45906540759237,308.95424148559573,0.0003339857212267,0.011215740814805,0.9901745319366456,0.1393860131502151,0.0022944421298255,0.0343676803743651,2.988263549539277,0.067958727478981,0.030531944707036,-0.1184018179774284,0.2254014656692743,0.0331176244653761,-9.764630869030954,14973.0
34.8,2.5999999046325684,288.0,21.9497013092041,23.903032302856445,-79.78278595303337,40.45906542704272,309.25350830078133,-0.0022865827195346,0.0124171078205108,0.9902608394622804,0.1386510282754898,-0.0099874048789657,0.0455827083987415,2.9949858768602766,0.038015104830265,-0.0379611775279045,0.035822432488203,0.2964225144311785,-0.1778376919403672,-9.873521811962126,14974.0
35.0,2.5999999046325684,292.0,21.954710006713867,24.63459587097168,-79.78278605027086,40.459065404303054,309.8705355834961,-0.0042831436730921,0.0121847074478864,0.9901878833770752,0.1391444653272628,-0.0355134697116013,0.0814213978882323,3.0091015902693496,-0.0622039809823036,-0.0595015734434127,-0.0430838130414485,0.2239447049796581,-0.0919289377704262,-9.82916249513626,14974.0
35.11,2.5999999046325684,296.0,21.93968391418457,24.157489776611328,-79.78278605932476,40.45906539749146,310.17210266113284,-0.0041596163064241,0.0122039439156651,0.9900960326194764,0.139799028635025,-0.0315279192084024,0.0807132819248219,3.0204089871625777,0.0110544990748167,-0.0046344045549631,0.0491730384528636,0.2501481613889337,-0.1879751558974384,-9.912875912189484,14975.0
35.3,2.5999999046325684,300.0,21.914644241333008,24.42784881591797,-79.78278611512044,40.45906555696112,310.48128387451175,-0.0048707635141909,0.01314103230834,0.9899981021881104,0.1403831988573074,-0.0299117727825216,0.0766442302660153,3.0282756643784188,0.0167876631021499,0.0129716992378234,0.0502355061471462,0.2562903873436153,-0.1785488047264516,-9.928496164083482,14975.0
35.5,2.5999999046325684,302.0,21.90462684631348,25.382062911987305,-79.78278626041309,40.4590656255376,311.39632293701175,-0.0035107070580124,0.0138791734352707,0.9901046752929688,0.1395989507436752,-0.0311239261781214,0.1050415004473847,3.036958793092962,-0.0621386468410492,-0.0590835884213447,-0.0137305380776524,0.2521111447736621,-0.1900844293087721,-9.86268692135811,14976.0
35.6,2.5999999046325684,301.0,21.914644241333008,24.157489776611328,-79.7827862810718,40.459065612193534,311.70066329956063,-0.0028648357838392,0.0141220577061176,0.9901825785636902,0.1390354484319687,-0.0240835542562672,0.0989561302141146,3.045081276537048,-0.0435623675584793,-0.0365426242351532,0.0711760744452476,0.2704422023892403,-0.1643244842067361,-9.897813484668731,14976.0
35.7,2.5999999046325684,302.0,21.948448181152344,23.767852783203125,-79.78278635010611,40.45906564685053,312.01034423828133,-0.0033333962783217,0.0151188187301158,0.9902099967002868,0.1387249231338501,-0.0150324619623844,0.1138058099396721,3.0272502187151087,0.0118375644087791,0.0576421841979026,-0.0170964952558279,0.2577079899609089,-0.023903472404927,-9.781837470531462,14977.0
35.9,2.700000047683716,301.0,21.955961227416992,24.69025802612305,-79.78278638200456,40.45906575590365,312.6272875976564,-0.0003136907471343,0.0161163564771413,0.9903202056884766,0.1378627270460128,-0.0298540710197642,0.1100522073989389,2.9989724829680404,-0.0601508133113384,-0.0140155730769038,0.0130372820422053,0.3318606612458825,-0.1783677785843611,-9.658606231212618,14977.0
36.1,2.700000047683716,300.0,21.82699966430664,25.5570011138916,-79.78278638676201,40.45906572903946,313.22717544555667,-6.994190334808081e-05,0.0143435345962643,0.9903880953788756,0.1375713944435119,-0.0139934418007102,0.097940691474042,3.0079891888044017,0.0188230946660041,-0.0559329465031623,0.1330695003271103,0.2573692899942398,-0.1631941443309188,-9.736899864077568,14978.0
36.2,2.700000047683716,301.0,21.924659729003903,23.266889572143555,-79.7827864568722,40.459065828783935,313.5468508911133,-0.0011478674132376,0.015657952055335,0.9903711676597596,0.137544959783554,-0.0141537740977656,0.0959934081328931,3.0236824302452003,0.098526194691658,0.0857003778219223,0.0507376454770565,0.1948386541754007,-0.1706802431680262,-9.844158264398576,14978.0
36.3,2.700000047683716,302.0,22.111215591430664,19.37052154541016,-79.78278644771571,40.45906581760735,313.8484980773926,-0.0018312602769583,0.0170490015298128,0.9903785586357116,0.1373181641101837,-0.0297243149136751,0.1004392256292815,2.9963451721048417,0.0202610697597265,-0.0074740997515618,-0.08635114133358,0.2589674071222544,-0.0872680764924734,-9.552154161930083,14978.0
36.5,2.700000047683716,304.0,22.23641967773437,18.805944442749023,-79.78278648978292,40.45906589374797,314.4466540527344,-0.0032015349715948,0.0185187570750713,0.9902493953704834,0.1380327194929123,-0.0372747210196719,0.105572871634259,2.8030809776597185,-0.0076463483273983,-0.0369307734072208,-0.0130586298182606,0.2536061681807041,-0.0812129649147391,-8.71986031651497,14979.0
36.6,2.700000047683716,305.0,22.12749290466309,20.26907157897949,-79.782786483912,40.45906588869376,314.72108337402346,-0.0033612949773669,0.0178418029099702,0.9901905059814452,0.1385397017002105,-0.0333074231221778,0.099500225239858,2.684189153769562,0.01738185249269,-0.0242906399071216,0.0791477337479591,0.2889393209293485,-0.1639625050127506,-8.667866874933242,14979.0
36.8,2.700000047683716,306.0,22.18508720397949,20.507625579833984,-79.78278645166958,40.459065939625575,315.27135345458987,-0.0025165325496345,0.017665883526206,0.9900591969490052,0.1395148634910583,-0.032199881935782,0.0789549597318692,2.448487825070949,-0.0232034604996442,-0.0006112115806899,-0.0506013743579387,0.2439370296522975,-0.0132703655585646,-8.363635659813884,14980.0
37.01,2.5999999046325684,308.0,22.23516845703125,19.116064071655277,-79.78278642041799,40.45906604373079,315.76550552368167,-0.0014955914812162,0.0177212338894605,0.9899392127990724,0.1403718590736389,-0.019087583174674,0.066948446558655,2.221163180558815,0.0172327514737844,0.0309488344937562,-0.0372000746428966,0.2569715879671276,-0.1468626151978969,-8.500573357343674,14980.0
37.1,2.5999999046325684,310.0,22.15002822875977,20.67461204528809,-79.78278641188514,40.45906605234914,315.9820048522949,-0.0014974187361076,0.0176071990281343,0.9899070262908936,0.1406129598617553,-0.021028000727473,0.0618093572151569,2.1096985149246184,-0.0057925614528357,-0.0401136837899684,0.0266027152538299,0.2704440844617784,-0.0857966612186282,-8.664478998184205,14980.0
37.3,2.5,310.0,22.191347122192383,19.028594970703125,-79.78278636550634,40.45906614951713,316.2153308105469,-0.0005901298718526,0.0172862540930509,0.9898401498794556,0.1411292105913162,-0.0248154246005212,0.0556367207063946,2.0571126149133057,0.0011387444101274,-0.0066674966365098,-0.0363311804831028,0.285758874155581,-0.0534803976584225,-8.892392939329149,14981.0
37.4,2.5,311.0,22.153785705566406,20.53943252563477,-79.78278626591542,40.45906628118324,316.6596324157715,0.0008735113078728,0.0153875024989247,0.9895368218421936,0.1434553116559982,-0.0292652983758043,0.0371961344806751,1.9719562791132164,0.0132013540714979,-0.0125902537256479,0.0848584473133087,0.3080352674424648,-0.1710758803971112,-9.1284836268425,14981.0
37.6,2.400000095367432,312.0,22.190093994140625,19.163774490356445,-79.78278618799726,40.4590663164468,317.0388743591309,-0.0037583003286272,0.0181865263730287,0.9893895983695984,0.144095167517662,-0.0442723663194588,0.0301078934275402,1.8079727936893164,0.0743246525526046,0.0297450441867113,-0.0106401462107896,0.2788061510212719,0.0175945642590522,-9.03898848295212,14982.0
37.7,2.299999952316284,314.0,22.190093994140625,19.80786895751953,-79.78278609324602,40.459066495919664,317.2960192871094,-0.0064301001839339,0.0192463304847478,0.9895002245903016,0.1430999934673309,-0.0550517492178332,0.0225806273897562,1.7908531011074968,0.0344271063804626,-0.0369080305099487,-0.0559099502861499,0.3118897885456681,-0.1121198850497603,-8.939154292345046,14982.0
37.9,2.299999952316284,315.0,22.193851470947266,18.55944061279297,-79.78278604149031,40.45906652142905,317.4714381408692,-0.0070489002391695,0.0177263524383306,0.9896682500839232,0.1421020179986953,-0.0656637681778358,0.0241879655502341,1.7207324487338334,0.007027921732515,-0.020937193185091,-0.0839233770966529,0.3180867042392492,-0.1459617145825177,-9.059927946925164,14982.0
38.0,2.299999952316284,319.0,22.18132972717285,19.74425506591797,-79.78278585996235,40.45906673422667,317.90662261962893,-0.0059643434360623,0.0137424618005752,0.989980936050415,0.1404042094945907,-0.0597161522548914,0.0013276371459667,1.6629776853941285,0.0212318301200866,-0.0097977258265018,-0.0780901238322258,0.2835147493332625,-0.171099269259721,-9.111734862327577,14982.0
38.2,2.299999952316284,318.0,22.24518585205078,18.30498313903809,-79.78278572239968,40.459066874671095,318.1521632385254,-0.0060250456444919,0.0139966588467359,0.9900477528572084,0.1399046331644058,-0.0555792942418183,-0.0154333044913649,1.6664347356954958,0.024792019277811,0.039060465991497,-0.0122552188113331,0.283530975356698,-0.1061702426243573,-9.010683866143228,14983.0
38.3,2.200000047683716,317.0,22.21263122558593,18.83775329589844,-79.78278561085472,40.45906694094162,318.4660670471192,-0.0059539461508393,0.0146896680817008,0.990068793296814,0.1396872401237487,-0.0634129304084012,-0.0022417670882099,1.4739821204869643,-0.0283920932561159,0.0234080236405134,0.0364743247628212,0.3661306440085173,-0.2056512888148427,-8.891019428372383,14983.0
38.5,2.200000047683716,317.0,22.243932723999023,19.799917221069336,-79.78278556939605,40.45906702104037,318.68620178222665,-0.0056358282454311,0.0149698387831449,0.9901223182678224,0.1392910480499267,-0.057757431079981,-0.0023441942773238,1.3862250450860676,0.0182755477726459,-0.0047279018908739,0.0298154652118682,0.2554228615388274,-0.1091401348169893,-8.093363319039344,14983.0
38.61,2.200000047683716,315.0,22.29401588439941,17.899442672729492,-79.78278550789845,40.459067041528826,318.8088595581055,-0.0079218493774533,0.0153864193707704,0.9915450811386108,0.1286038011312484,-0.0739124634667094,-0.0048236423767552,1.0768625377850918,0.0927646085619926,-0.0100098401308059,-0.5854126811027527,0.2252455460093916,-0.1732028233632445,-7.1899176299572005,14983.0
38.8,2.0999999046325684,312.0,22.163801193237305,20.475818634033203,-79.78278537057751,40.45906705193678,318.9916979980469,-0.0117395566776394,0.0130092231556773,0.9990164041519164,0.0407339297235012,-0.1121601396941919,-0.0072794610855841,0.7539131877079698,-0.0204040613025426,0.0154308648779988,-1.181604266166687,0.2368253901600837,-0.1929227043315768,-8.244167103767396,14983.0
38.9,2.0999999046325684,314.0,22.124988555908203,20.897262573242188,-79.78278520766051,40.45906699018799,319.1028315734864,0.0108274528756737,-0.0147000905126333,-0.9962711930274964,0.0843241661787033,-0.103309587986754,0.0072745002148043,0.6041307194988977,0.0382623039186,-0.0471880622208118,-1.3236347436904907,0.1917289952561259,-0.2796922417357564,-9.137384843230247,14984.0
39.1,2.0999999046325684,315.0,22.15629005432129,19.8635311126709,-79.78278510843153,40.45906700041343,319.1622874450684,0.0110298171639442,-0.0151536632329225,-0.9877610802650452,0.1548449248075485,-0.0853028839693435,0.0185638075928453,0.5776371620329824,0.1215041801333427,-0.0383055284619331,-1.4208543300628662,0.2003796949982644,-0.2163095569610596,-9.364407668709756,14984.0
39.2,2.0999999046325684,299.0,22.20762252807617,19.624977111816406,-79.78278502256764,40.45906701162974,319.2184397888184,0.0133117027580738,-0.0145762423053383,-0.9734827876091005,0.2279070615768433,-0.0705174896512096,0.0252877504547425,0.539119344573896,0.12703837454319,0.0225696135312318,-1.5584579706192017,0.2852121594920754,-0.0584941886505112,-9.403857078552246,14984.0
39.4,2.0,288.0,22.107460021972656,20.61894989013672,-79.78278451039063,40.45906670184127,319.34962722778323,0.0212731212377548,-0.0106078144162893,-0.8947672843933105,0.4458996951580048,0.0009925536303731,0.047651961347531,0.5115085402480518,0.1101731359958648,-0.0228034295141696,-1.5907635688781738,0.2566432668082416,-0.009014341738075,-9.544291995763777,14984.0
39.5,2.0,294.0,22.104955673217773,21.31870651245117,-79.78278451278271,40.459066664912655,319.4007899475098,0.0233721043914556,-0.0085309538990259,-0.8565852642059326,0.5154052376747131,0.037659322277964,0.038121254709147,0.5117661666277347,0.0829420089721679,-0.0535971224308013,-1.5639822483062744,0.272842813320458,-0.0280166871193796,-9.79737059891224,14984.0
39.7,2.0,298.0,22.11246681213379,20.833646774291992,-79.78278460622687,40.45906658176615,319.4514376831055,0.024480614811182,-0.0070122983306646,-0.8129354119300842,0.5817968845367432,0.0784252956772539,0.0203762239679627,0.5321918221233998,0.0684498250484466,-0.0461358204483985,-1.5328766107559204,0.2269784231856465,0.0676393938157707,-9.911155661344528,14984.0
39.8,2.0,284.0,22.21388435363769,19.00473976135254,-79.78278420011499,40.459066144386696,319.6078211975098,0.0247981883585453,-0.0060934922657907,-0.714629590511322,0.6990368962287903,0.1766663566736105,-0.0140034508475711,0.5926593013827112,0.0604317486286163,0.0174890141934156,-1.3806337118148804,0.2376708244532347,0.2328127018734813,-9.73620579957962,14984.0
40.0,1.8999999761581416,279.0,22.15253257751465,20.8256950378418,-79.78278376920744,40.45906581490311,319.66547653198245,0.0204089283943176,-0.0063015543855726,-0.6350458860397339,0.7721791863441467,0.2615588568721779,-0.0552400596350383,0.5583848742814443,-0.0172419920563697,-0.0675389841198921,-0.9367621541023254,0.323481601215899,0.294445972815156,-9.620705748796462,14984.0
40.1,1.8999999761581416,290.0,22.004791259765625,22.304725646972656,-79.78278383048506,40.45906550826869,319.72326156616214,0.016773609444499,-0.006337153725326,-0.6105886101722717,0.7917449474334717,0.30374644615819,-0.094514451781805,0.5736315696024957,-0.0779881998896598,-0.0251791514456272,-0.4452512562274933,0.2554526640661061,0.2750162233784795,-9.921850218772889,14984.0
40.3,1.8999999761581416,297.0,21.96096992492676,24.01435661315918,-79.78278391951893,40.459065260156,319.65218231201175,0.0021912397351115,-0.0141085302457213,-0.5945019721984863,0.8039673566818237,0.2772150410529731,-0.094994882734264,0.5689631296700256,-0.4257211089134216,-0.2679101526737213,-0.3919075131416321,0.4652514377608896,0.3026455233246088,-10.134673665761948,14984.0
40.4,1.8999999761581416,294.0,21.908382415771484,24.809534072875977,-79.78278383646949,40.4590645825286,319.6621691894532,-0.0662860423326492,-0.0025744987651705,-0.5830845832824707,0.8096987009048462,0.328413304655049,0.0004872833235479,0.6306329666347684,0.1038193479180336,-0.6023489832878113,0.1350545883178711,0.2618322687037289,0.4962080226838589,-10.561969474554065,14984.0
40.52,1.8999999761581416,291.0,22.007295608520508,22.11388397216797,-79.78278362872355,40.45906439040623,319.7311885070801,-0.0834406018257141,0.0212180782109498,-0.584717333316803,0.8066554665565491,0.3004479985640839,0.0989573999736006,0.7226869548379607,0.2286970764398575,-0.4637266993522644,-0.0281427297741174,0.1220629199501127,0.5890160893276334,-10.639442743062974,14984.0
40.7,1.8999999761581416,304.0,22.06989860534668,21.366416931152344,-79.78278324311366,40.45906427458768,319.80736801147464,-0.0888755619525909,0.0412775725126266,-0.5892140865325928,0.8020125031471252,0.2613499025254513,0.2375750287692601,0.8235896423545281,0.2660874724388122,-0.1843922734260559,0.035351600497961,0.0446147213783115,0.4269003908336163,-10.578006048202516,14984.0
40.9,1.8999999761581416,311.0,22.05988121032715,21.565210342407227,-79.78278188701431,40.45906411695592,319.8713977050781,-0.0921204313635826,0.0557114817202091,-0.600395143032074,0.7924240231513977,0.1994876939980084,0.6222280730640295,0.9364383668452648,0.0152314836159348,-0.0604389272630214,0.1114541143178939,0.1260824056249112,0.180514784809202,-10.189051601886751,14984.0
41.0,2.0,313.0,22.07740974426269,21.42207908630371,-79.78278097232406,40.45906405971277,319.84488555908206,-0.0972697287797928,0.0570520646870136,-0.6054820418357849,0.7878293991088867,0.1849273767299215,0.8344449294874039,0.9339748720160086,-0.0229200050234794,-0.1396874785423278,0.1729975491762161,0.1654332990199327,0.1142564941942691,-10.032419897317888,14984.0
41.1,2.0,319.0,21.98600959777832,23.441829681396484,-79.78277803040315,40.45906439397897,319.9910227966309,-0.1071806773543357,0.0567469671368598,-0.6126769185066223,0.7809731960296631,0.1399271379712623,1.2878491871905529,1.049680168690407,-0.0896595492959022,-0.0910538882017135,0.0420814156532287,0.0030313016613945,0.2546488180942833,-10.038006327152251,14984.0
41.3,2.0999999046325684,332.0,22.0035400390625,22.7977352142334,-79.78277444747742,40.459064892997695,320.02250930786136,-0.1231554374098777,0.0542115196585655,-0.615389347076416,0.776652991771698,0.0776949917815597,1.7453972500128514,1.1205985791235145,-0.103637158870697,-0.2265815138816833,0.0410666763782501,0.0854655626323074,0.1152139300759881,-10.009190078973768,14985.0
41.41,2.200000047683716,338.0,21.98726272583008,22.63870048522949,-79.78277279113316,40.459065257223095,319.95347091674813,-0.1333275437355041,0.0559464432299137,-0.6145415306091309,0.7755207419395447,0.0405537341335296,1.9387915271279048,1.1352128863200484,-0.0235492903739214,-0.1313306838274002,-0.0901288911700248,-0.0498559416504576,0.3366266170889139,-10.082811201810838,14984.0
41.6,2.400000095367432,352.0,21.96347427368164,23.115806579589844,-79.78276721797171,40.45906640081178,320.071734161377,-0.1465267837047577,0.063973568379879,-0.6093112826347351,0.7766448259353638,-0.0453240808202475,2.443835549582372,1.3617116317228488,-0.0391596257686615,-0.1355983316898346,-0.1452121287584304,-0.1561585734598338,0.4235420425236225,-10.121226239204407,14985.0
41.8,2.5,355.0,21.92716407775879,24.69820976257324,-79.78276127343692,40.45906795772732,320.0450198364258,-0.1563476622104644,0.0742716863751411,-0.6028327941894531,0.7788658142089844,-0.1022744223247723,2.939073991924213,1.5381912179357926,0.0411936827003955,-0.0451349206268787,-0.1524955630302429,-0.1899735149368644,0.2505880730040372,-10.14371580004692,14985.0
41.9,2.799999952316284,5.0,21.87457847595215,24.06206703186035,-79.78275788073891,40.45906907481467,319.999037475586,-0.1593067198991775,0.0775238946080207,-0.5999600887298584,0.7801662087440491,-0.1528899407256192,3.1848912552384405,1.6427470234412886,0.0857113152742385,-0.0393979586660862,-0.0310771744698286,-0.4017081007361412,0.3743956833332777,-10.253493765592577,14984.0
42.0,3.0,10.0,21.90462684631348,23.282794952392567,-79.78275372718909,40.45907012914412,320.04639312744143,-0.1594960391521454,0.0790190398693084,-0.5980604290962219,0.7814351916313171,-0.1723236571445732,3.467066423835616,1.783829325278061,-0.0709656178951263,-0.0572461448609829,-0.0048951874487102,-0.5237542556226253,0.3684000945836306,-10.288342001438142,14985.0
42.2,3.400000095367432,15.0,21.91965103149414,24.04616355895996,-79.78274470041742,40.45907296603696,320.0531184387208,-0.1564028561115265,0.0766217112541198,-0.5956630706787109,0.7841254472732544,-0.2420346403098524,4.0210235694537175,1.932743952801224,-0.0076960250735282,0.1200386136770248,-0.2642798125743866,-0.561420995593071,0.6046815109625459,-10.018671923875806,14985.0
42.4,3.5999999046325684,19.0,22.1062068939209,19.394376754760746,-79.78273960210707,40.45907435118117,320.0945269775392,-0.1558212637901306,0.0738832354545593,-0.5949566960334778,0.7850398421287537,-0.2607564260853373,4.303216588666346,1.9924622411456487,-0.0747532472014427,0.0279671605676412,-0.0913124158978462,-0.4713268775492907,0.3241565891727805,-10.033724995851518,14985.0
42.51,4.099999904632568,26.0,21.99101829528809,22.41604995727539,-79.78273443770121,40.45907624508539,320.0722987365723,-0.1534632742404937,0.0719977691769599,-0.5942162275314331,0.786239504814148,-0.3078716978371522,4.5479850225818925,1.998127054893596,0.1577796041965484,0.0916757360100746,0.141752228140831,-0.5752939167246223,0.1966641366295516,-9.810778849124908,14985.0
42.7,4.300000190734863,28.0,22.031084060668945,20.94497299194336,-79.78271695140884,40.45908195549156,320.1089083862305,-0.1476539224386215,0.076524369418621,-0.5910971164703369,0.7892696857452393,-0.4406421772641879,5.275483953891964,2.061157744209296,0.1477107852697372,0.0759965255856514,0.0189775712788105,-0.7706954750418663,0.2360676275566221,-9.729500212669372,14985.0
42.8,4.800000190734863,34.0,22.071149826049805,21.326658248901367,-79.78271058483699,40.45908384550528,320.12787887573245,-0.1461861580610275,0.0760509297251701,-0.5903738141059875,0.790129542350769,-0.4566740437191955,5.511557355320661,2.09467947727802,-0.1080581396818161,-0.0322345942258834,-0.0153907937929034,-0.7180739694088698,0.3267955472320318,-9.747227216362951,14985.0
43.0,5.099999904632568,34.0,22.10245132446289,20.55533599853516,-79.78270418674931,40.45908646155005,320.114100189209,-0.1456000506877899,0.076916255056858,-0.5882307887077332,0.7917506694793701,-0.5040282942522095,5.711347674099728,2.1071405656835345,0.0437990128993988,0.023728696629405,-0.0066079702228307,-0.8175635397434236,0.1159350836277008,-9.678260477185251,14985.0
43.1,5.599999904632568,37.0,22.133752822875977,19.442087173461918,-79.78269033583975,40.45909068151946,320.1329142761232,-0.1466296166181564,0.076798178255558,-0.586669921875,0.7927296161651611,-0.4837622997041928,6.143862581793791,2.1686416645477027,0.0006968056550249,0.1567670702934265,-0.0586805790662765,-0.7720122680068017,0.2549267983809113,-9.607688677310945,14985.0
43.3,5.800000190734862,39.0,21.99978256225586,23.03628921508789,-79.78268326670575,40.45909374490503,320.1216914367676,-0.1450439840555191,0.0755777135491371,-0.5850731730461121,0.7943171262741089,-0.554246742957426,6.319900073064791,2.205011823523881,0.0694301351904869,0.1419285833835601,-0.1496128588914871,-1.0545411767810584,0.5630906680226326,-9.592254366874696,14985.0
43.4,6.300000190734862,41.0,22.126239776611328,19.77606201171875,-79.78267582883781,40.459096062418425,320.1223170471192,-0.1395395845174789,0.0757393315434455,-0.585293710231781,0.795124888420105,-0.5387848337445387,6.516389725945624,2.2253364877316604,0.0218504909425973,0.1480949372053146,0.0912896320223808,-1.0895840518176556,0.1547546752542257,-9.82019637465477,14985.0
43.6,6.5,43.0,22.104955673217773,20.05437469482422,-79.78265201045775,40.45910425657307,320.10648986816415,-0.1369149833917617,0.0810950696468353,-0.5843550562858582,0.7957431674003601,-0.6246812745558482,7.111521393719598,2.1675304530309853,-0.043479461222887,-0.1990835666656494,0.0983022674918174,-1.341467484086752,0.0536627942416816,-9.367023128271104,14985.0
43.71,7.0,45.0,22.061134338378903,20.937021255493164,-79.78264363641375,40.459107742854975,320.10118743896487,-0.1407521814107895,0.0826721340417862,-0.5831267237663269,0.7958123683929443,-0.6844164426929031,7.25729100380249,2.2645207207737528,0.1430161297321319,0.0551224015653133,0.0265403408557176,-1.1514292477816344,0.1980054879002272,-9.388897562026976,14985.0
43.9,7.199999809265138,46.0,21.997278213500977,21.891233444213867,-79.78263525082257,40.45911044691477,320.0862605285645,-0.1425569504499435,0.0828612670302391,-0.5835750699043274,0.7951425313949585,-0.6911535326958524,7.406903785408048,2.371460159907244,-0.1065369546413421,0.0027682671789079,0.0161243602633476,-1.4424097220599652,0.3285515026375652,-9.707564967870711,14985.0
44.0,7.699999809265138,46.0,22.138761520385746,19.322811126708984,-79.78261775172938,40.45911689139706,320.08347579956063,-0.128299593925476,0.0704445391893386,-0.5844751000404358,0.7981013059616089,-0.7467867921555449,7.685839959154934,2.496682045952878,0.1935068964958191,0.4863129556179047,0.0079870633780956,-1.566824437826872,0.2176015723496676,-10.074550255537034,14985.0
44.2,8.0,46.0,22.151281356811523,18.91727066040039,-79.78260023082359,40.459123888888406,320.0799967956543,-0.1086186617612838,0.0634607225656509,-0.5844758152961731,0.8016002178192139,-0.889538637917101,8.014343262873997,2.0848677958274395,-0.0061162081547081,-0.0771236345171928,0.0256959181278944,-1.2946200308203697,0.3493207760900259,-9.849113194942476,14985.0
44.3,8.399999618530272,47.0,22.220144271850582,17.652938842773438,-79.7825912004568,40.45912692799485,320.067770690918,-0.1072912514209747,0.0600373223423957,-0.583723247051239,0.8025904893875122,-0.8467943232499302,8.129525406786454,1.9593010755205256,-0.023126496002078,0.1124912872910499,0.1699549853801727,-1.508659260123968,0.0805401879362762,-9.381712503433226,14985.0
44.5,8.600000381469728,47.0,22.114971160888672,20.046422958374023,-79.7825817187493,40.45913068499707,320.05663558959964,-0.1056216582655906,0.0527177043259143,-0.5817810893058777,0.8047333359718323,-0.8795840266210977,8.23564728095528,1.9079102628129072,-0.1968770176172256,0.0682321190834045,0.0450392551720142,-1.4673216381669043,0.5208133985102177,-9.357358265519142,14985.0
44.6,8.899999618530273,53.0,22.17381858825684,19.839675903320312,-79.78256280955095,40.4591375035126,320.0173937988281,-0.0964261516928672,0.0372713319957256,-0.5803799629211426,0.8077573776245117,-0.8441493664952076,8.402314086727316,1.725905288330844,-0.0614678636193275,0.0969370678067207,-0.0335749872028827,-1.5258081203699112,0.4200774941593409,-9.610398277044297,14985.0
44.81,9.100000381469728,54.0,22.07490539550781,20.610998153686523,-79.78255352750735,40.459140700325946,320.0003077697754,-0.0903576761484146,0.0344502553343772,-0.5817416310310364,0.8076047301292419,-0.8233076448663196,8.472496294889545,1.5901106488194847,-0.0121163846924901,0.0128254406154155,-0.0045888875611126,-1.4835969243943692,0.6328984560817479,-9.6439957934618,14985.0
44.91,9.600000381469728,54.0,22.07615852355957,20.51557731628418,-79.78253395635316,40.45914746716569,319.9382655334473,-0.0847772285342216,0.0295230466872453,-0.5819157361984253,0.808279275894165,-0.8501409464601757,8.555941817858903,1.4743634184556842,-0.198749542236328,0.1939525008201599,-0.081084556877613,-1.4030317944288255,0.5466280150786043,-10.216949837207792,14984.0
45.1,9.800000190734863,54.0,22.145021438598643,19.704496383666992,-79.78252458357366,40.45915069119535,319.92894622802737,-0.0860466063022613,0.024660438299179,-0.5812048316001892,0.8088194727897644,-0.84642856116806,8.552186619088907,1.4604550119051027,-0.219202846288681,-0.0707994699478149,-0.0666640624403953,-1.6200922800600532,0.5116103196144104,-10.1469364464283,14984.0
45.2,10.0,59.0,22.09493827819824,18.5037784576416,-79.78251521535908,40.45915391753526,319.9229495239258,-0.0894035845994949,0.0181876290589571,-0.5806315541267395,0.8090385198593141,-0.8292961537778236,8.550078843944345,1.4654005765976883,-0.0724423602223396,0.1036328822374344,-0.0214723944664001,-1.538451700955629,0.7533004470169544,-9.99984973669052,14984.0
45.31,10.300000190734863,59.0,22.266469955444336,16.460172653198242,-79.78249571270091,40.459160508572566,319.8472087097168,-0.0861825495958328,0.0070275422185659,-0.5798306465148926,0.8101356029510498,-0.8162483449475784,8.546346516115332,1.4231184964653631,0.0998285338282585,0.1837247908115387,0.0046199266798794,-1.9137216161191464,0.391857077255845,-9.750197601914406,14984.0
45.41,10.399999618530272,58.0,22.15629005432129,18.97293281555176,-79.78248572136589,40.45916406045188,319.7908351135254,-0.0793355777859687,0.0013341286685317,-0.5803059339523315,0.8105239868164062,-0.8533444162084628,8.555098279910695,1.2916304528436895,0.0085338875651359,0.0928722694516182,0.1930896937847136,-1.8258632540702824,0.3666842291504145,-9.719748226404189,14984.0
45.6,10.5,60.0,22.161296844482425,18.16185188293457,-79.78247645605276,40.459167355120286,319.78462860107425,-0.0685884878039359,-0.0039914795197546,-0.5813489556312561,0.8107485771179199,-0.9155400742914594,8.518348002080781,1.157132555712981,-0.0392859503626823,0.1352759301662445,-0.1438687443733215,-1.810264198333025,0.7890526624023915,-9.87558704853058,14984.0
45.81,10.600000381469728,65.0,22.14877700805664,20.022565841674805,-79.7824573277166,40.45917416253115,319.7307002258301,-0.0442606955766677,-0.0108168488368392,-0.5844215750694275,0.8101701140403748,-0.9808684422002354,8.438063577319394,0.7396854993409236,0.2066133320331572,-0.043971873819828,0.3039466738700867,-1.5847794829308988,0.1827217980846762,-9.967421078681946,14984.0
45.9,10.699999809265137,65.0,22.22890853881836,17.382577896118164,-79.78243870412824,40.459180908089095,319.6970698547364,-0.0348934456706047,-0.0141957243904471,-0.5870693922042847,0.8086597323417664,-1.0932340350865084,8.297483738924113,0.5145330737574448,-0.0431701429188251,0.043917141854763,0.0577296651899814,-1.3678293634951115,0.4016496651247144,-10.102602857351304,14984.0
46.1,10.699999809265137,65.0,22.22264862060547,17.470046997070312,-79.78242987038955,40.459184180951816,319.701258392334,-0.0303023103624582,-0.0159015916287899,-0.5879601240158081,0.8081657290458679,-1.1348145575074258,8.182649248242742,0.4513902724983504,0.138802945613861,-0.0881258696317672,0.274375319480896,-1.4973783731460573,0.3257655967399478,-9.954049665927888,14984.0
46.2,10.699999809265137,70.0,22.1988582611084,18.77413749694824,-79.7824211685608,40.45918743594228,319.7081706237793,-0.0257925000041723,-0.0179702267050743,-0.5884606838226318,0.8079145550727844,-1.1527714978988997,8.06183017176157,0.4014731389967783,0.1708249747753143,0.03234389051795,0.243850439786911,-1.6787708432972432,0.2468543334491551,-9.945676453113558,14984.0
46.41,10.5,71.0,22.277738571166992,16.595352172851562,-79.78239464146195,40.45919725493409,319.671042175293,-0.019497649744153,-0.013010679744184,-0.5904173851013184,0.8067576885223389,-1.1503087620490218,7.773746617109867,0.2286102171386609,0.1408669054508209,-0.1702270358800888,0.2017467767000198,-1.4363907444477082,0.5148785477131606,-10.065110510587694,14984.0
46.6,10.399999618530272,70.0,22.203866958618164,18.04257583618164,-79.78237826843807,40.4592034200949,319.6932246398926,-0.0186448730528354,-0.0115882763639092,-0.5902113318443298,0.8069503307342529,-1.1500082489689805,7.537235717848143,0.3332105278961238,-0.0792442560195922,0.2591015100479126,-0.1204813420772552,-1.4079924260079857,0.5574644405767322,-9.80269565820694,14984.0
46.7,10.199999809265137,69.0,22.251445770263672,16.84185791015625,-79.78236966924092,40.45920650181647,319.6719538879395,-0.0189069882035255,-0.0140351578593254,-0.5895889401435852,0.8073601722717285,-1.100286470684215,7.4532418816303325,0.2416643275575223,0.002761569339782,-0.0952762886881828,0.2959931194782257,-1.2736481148004533,0.2737721551582217,-9.78952480494976,14984.0
46.9,10.0,69.0,22.26521682739257,16.929327011108402,-79.78236173449571,40.45920947195889,319.6795832824708,-0.019977243617177,-0.0140487039461731,-0.5901120901107788,0.8069518804550171,-1.0789077604327253,7.365134291682389,0.2247817568432592,0.0330773219466209,0.0388674922287464,-0.0788723677396774,-0.9698196997493506,0.8876348179578781,-9.8263605093956,14984.0
47.0,9.800000190734863,68.0,22.302780151367188,16.22161865234375,-79.78234592149316,40.45921525858189,319.6738993835449,-0.0221430081874132,-0.0069624790921807,-0.5904746055603027,0.8067223429679871,-1.0502447735939218,7.159672518901436,0.259258479655967,-0.1071449145674705,-0.1305626928806305,0.2228057533502578,-1.0195548004657031,0.5081579773128033,-9.820347232818603,14984.0
47.2,9.699999809265137,66.0,22.285249710083008,17.827877044677734,-79.78233828519815,40.45921810060408,319.678740234375,-0.0256776455789804,-0.0056227259337902,-0.5907155275344849,0.8064517378807068,-1.0285756568012032,7.082208474643383,0.2768611877109799,0.0977696552872657,-0.0974896326661109,0.0104959215968847,-1.0181568042933942,0.4218117052316666,-9.68235060453415,14984.0
47.3,9.5,65.0,22.1888427734375,18.24932098388672,-79.7823303030499,40.45922094765903,319.6747348022461,-0.0295297186821699,-0.0037950598634779,-0.5907793641090393,0.8062837719917297,-1.0131003783007708,7.01747555555879,0.3141365216432378,-0.1064616814255714,0.0599162355065345,0.0597732812166214,-0.932514390796423,0.4393749137967825,-9.826662225723268,14984.0
