time,wind_speed,wind_angle,battery_voltage,battery_current,position_x,position_y,position_z,orientation_x,orientation_y,orientation_z,orientation_w,velocity_x,velocity_y,velocity_z,angular_x,angular_y,angular_z,linear_acceleration_x,linear_acceleration_y,linear_acceleration_z,node_ids
0.0,1.2999999523162842,53.0,25.891157150268555,-0.1113248318433761,-79.78276773393158,40.459078599879774,271.523121776104,0.0050805159844458,0.009495542384684,0.9951111078262328,0.0981733649969101,-0.0275055982867653,0.00536324390506,-0.0097281741585166,-0.0042104045860469,-0.0040548429824411,0.0022070333361625,0.1866971555538475,0.035605669543147,-9.805692940950395,14936.0
0.2,1.2999999523162842,53.0,25.891157150268555,-0.0954212844371795,-79.78276776413894,40.45907848596863,271.5061323065758,0.0050674802623689,0.009541998617351,0.9951096773147584,0.0981836095452308,-0.0239542044388372,-0.0008050903642205,-0.0109959484487414,0.0080549549311399,0.0024073387030512,0.0035869013518095,0.1864104775339365,0.0356578239658847,-9.805898178219795,14936.0
0.3,1.2000000476837158,55.0,25.888652801513672,-0.0954212844371795,-79.78276783422808,40.459078352017215,271.4903946537972,0.0050654583610594,0.0095326993614435,0.9951090812683104,0.0981909558176994,-0.0165276419588544,0.0011925525010473,-0.0119362365444869,-0.0060399351641535,0.0002017356891883,0.0018337568035349,0.186455592457205,0.0364674828923307,-9.806957108974457,14936.0
0.5,1.2000000476837158,52.0,25.8899040222168,-0.1272283792495727,-79.78276779050555,40.45907834400729,271.4879868049622,0.0050626778975129,0.0095425862818956,0.9951069355010986,0.0982113406062126,-0.023029212533279,-0.0005021607870675,-0.0118917526243864,0.005995706655085,0.0054112733341753,0.0034443153999745,0.1860575067065656,0.0349581497954204,-9.806116864085196,14936.0
0.6,1.100000023841858,50.0,25.884897232055664,-0.1431319266557693,-79.78276788603581,40.45907817334467,271.4715787191392,0.0050468654371798,0.0095294546335935,0.995107650756836,0.0982067286968231,-0.0150462156549494,0.0087607205294882,-0.0128469020395115,-0.0048795333132147,-0.003187749069184,0.0021261945366859,0.1852425510250032,0.0376547760190442,-9.806781692504885,14936.0
0.8,1.100000023841858,48.0,25.883644104003903,-0.1192766055464744,-79.78276792324407,40.45907804002853,271.45466005992887,0.0050045191310346,0.0095331063494086,0.9951071739196776,0.0982137694954872,-0.0132162577040812,0.0067178437869489,-0.0132306805306091,0.0088254287838935,0.0027970501687377,0.0029132647905498,0.1873611434362828,0.0357902359915897,-9.804448653459552,14936.0
0.9,1.100000023841858,40.0,25.89366149902344,-0.1113248318433761,-79.78276790855114,40.45907803130147,271.45333606195453,0.0049853059463202,0.0095299910753965,0.9951072931289672,0.0982137620449066,-0.0176126585730695,0.0061757180302438,-0.0132936851711024,-0.0063201966695487,-3.3955875551328056e-05,0.0010583692928776,0.1877505131810904,0.0376031377958133,-9.805774801969529,14936.0
1.1,1.100000023841858,38.0,25.891157150268555,-0.0954212844371795,-79.78276794400398,40.45907790432914,271.4344717879296,0.0049627181142568,0.0095301549881696,0.9951074123382568,0.0982129871845245,-0.0154716316527875,0.00468787901059,-0.0164352147357414,0.0116946753114461,0.006271450780332,0.0021021361462771,0.186238569393754,0.0350647678342647,-9.80578064918518,14936.0
1.2,1.0,34.0,25.8899040222168,-0.0954212844371795,-79.7827679262816,40.45907789707928,271.4328236598969,0.0049395901151001,0.0095292199403047,0.995107650756836,0.0982116684317588,-0.0198634657760687,0.0041472475814608,-0.0164413587377559,-0.0049026571214199,-0.0018673789454624,0.0002711850684136,0.187061236090958,0.0372411882947199,-9.806627910733225,14936.0
1.4,0.8999999761581421,33.0,25.89240837097168,-0.0954212844371795,-79.78276797316569,40.45907777075347,271.41514754486093,0.0048904200084507,0.0095187174156308,0.9951045513153076,0.0982468351721763,-0.016007032479667,0.0033906633454283,-0.0157372823624214,0.0053299530409276,0.0029871424194425,0.003881417447701,0.1871654992550611,0.0342080433899536,-9.805090093016624,14936.0
1.5,0.8999999761581421,29.0,25.89366149902344,-0.0715659633278846,-79.782767952852,40.459077764606135,271.41356808137897,0.0049100243486464,0.009533361531794,0.9951041936874392,0.0982481613755226,-0.0204980346073349,0.002835223412905,-0.0157184312696431,-0.0078665865585207,-0.0023692271206527,0.0027750239241868,0.1871977503038943,0.0378524073399603,-9.806458926200866,14936.0
1.7,0.8999999761581421,29.0,25.888652801513672,-0.1113248318433761,-79.78276800588775,40.45907764193089,271.3935076613426,0.0048705404624342,0.0095384428277611,0.9951013922691344,0.0982780754566192,-0.0171109786737542,0.0024525855538659,-0.018839257458224,0.0058629233390092,0.006268517114222,0.0055845961906015,0.1873079337738454,0.0345753307593986,-9.805130438804628,14936.0
1.8,0.8999999761581421,28.0,25.8899040222168,-0.1033730581402778,-79.7827680427566,40.459077552370246,271.37850642395017,0.0048766951076686,0.0095580099150538,0.9951009750366212,0.098280481994152,-0.0155906856747649,-0.0010869810134847,-0.0171651046880067,-0.0060777133330702,-0.0025423765182495,0.0015968402149155,0.1857189529202878,0.0379320482444018,-9.805716329813004,14936.0
2.0,0.8999999761581421,30.0,25.8899040222168,-0.1192766055464744,-79.78276800154842,40.45907754873981,271.3750225920677,0.0048530790954828,0.0095774410292506,0.9950998425483704,0.0982910841703414,-0.0213283468924266,-0.0027767152633007,-0.0174605649989859,0.0042485333979129,0.0033819123636931,0.0052528688684105,0.1871726438216864,0.0340751585620455,-9.805025188922883,14936.0
2.1,0.8999999761581421,33.0,25.888652801513672,-0.1113248318433761,-79.78276804151417,40.459077440221854,271.36132538509366,0.0048380931839346,0.0095646670088171,0.9951011538505554,0.0982796549797058,-0.0194506668943356,-0.0015637084311899,-0.0133020409034857,-0.0073314649052917,-0.0015660367207601,0.0013350861845538,0.1864413215965032,0.0364038236159831,-9.80601219892502,14936.0
2.3,0.8999999761581421,36.0,25.89240837097168,-0.0954212844371795,-79.7827681093516,40.45907729020308,271.35096824359897,0.0048142550513148,0.0095239272341132,0.995100438594818,0.0982918664813041,-0.0127510516792944,0.008886356790516,-0.0001399075968332,0.0102780507877469,0.0037664140108972,0.0005896278307773,0.1867963389493524,0.0353255833452567,-9.806239070892335,14936.0
2.4,0.8999999761581421,41.0,25.891157150268555,-0.1033730581402778,-79.78276809519994,40.4590772798684,271.3509622831345,0.0048192143440246,0.0095260133966803,0.9950993061065674,0.0983031019568443,-0.0165257605295081,0.0082129014758249,-0.000153445431874,-0.0022078142501413,-0.0015257911290973,0.0034499752800911,0.1855687891133129,0.0346830657077953,-9.806402792930603,14936.0
2.6,0.8999999761581421,44.0,25.89240837097168,-0.1033730581402778,-79.78276812738144,40.45907717114137,271.34023028802875,0.0048474282957613,0.0095392372459173,0.9950979351997375,0.0983141213655471,-0.0160753312009457,0.0052531409213269,0.0097153985878799,0.0086170751601457,0.0013384453486651,-0.0004205161239951,0.1863363640755415,0.0386702774930745,-9.805154412388802,14936.0
2.7,1.0,51.0,25.881139755249023,-0.1033730581402778,-79.78276810891855,40.45907716375461,271.341196240902,0.0048284665681421,0.0095282010734081,0.9950993061065674,0.0983028635382652,-0.0197669872676553,0.004625983911954,0.0096371302979025,-0.0018357262015342,0.0002595322148408,0.0044961408711969,0.1866286883130669,0.0333109274762682,-9.805999919772148,14936.0
2.9,1.0,52.0,25.89491271972656,-0.0954212844371795,-79.78276814839924,40.459077064552005,271.3284350652695,0.0047966060228645,0.0095489984378218,0.9950985312461852,0.0983098745346069,-0.017772570194543,0.0011442139769198,0.0137368910729125,0.006815799511969,-0.0011245876085013,0.0027882014401257,0.1866542333364486,0.0385639129858464,-9.805423384308815,14936.0
3.0,1.0,56.0,25.89491271972656,-0.0954212844371795,-79.78276812536495,40.45907706062152,271.32979387235645,0.0048017841763794,0.0095432950183749,0.9950973987579346,0.0983221381902694,-0.0214850450307292,0.0004545054024493,0.0136882522818244,-0.0010852271225303,-0.0035466714762151,0.0039429180324077,0.1867069313675165,0.0344274053396657,-9.806146684885023,14936.0
3.2,1.0,58.0,25.891157150268555,-0.1033730581402778,-79.7827681799221,40.45907696849244,271.3145784754753,0.0047699050046503,0.0095720821991562,0.9950948357582092,0.0983456969261169,-0.0170734396519611,-0.002676224908008,0.014458326606232,0.0082242805510759,0.001903677242808,0.0023753170389682,0.186601919028908,0.0371623034169897,-9.805551438331603,14936.0
3.3,1.100000023841858,62.0,25.884897232055664,-0.0954212844371795,-79.78276823452158,40.45907685389771,271.2957562823296,0.0047669545747339,0.0095674423500895,0.9950963258743286,0.0983315557241439,-0.0155699693804179,-0.001084101381179,0.0114021630628018,-0.005199599545449,0.0004695022362284,0.0018919544527307,0.1862043449096381,0.0348608621768653,-9.804596003293993,14936.0
3.5,1.2000000476837158,60.0,25.89366149902344,-0.1033730581402778,-79.78276819203042,40.45907685105392,271.2979916353226,0.0047585805878043,0.0095702083781361,0.9950953125953674,0.0983414649963378,-0.021084408644373,-0.0026543605237773,0.0112445853655933,0.0076678185723721,0.00526954093948,0.0027851210907101,0.1870391263067722,0.035833256423939,-9.805480102300644,14936.0
3.6,1.2999999523162842,59.0,25.891157150268555,-0.0874695107340812,-79.78276829949856,40.459076737830095,271.27834040117267,0.0047252844087779,0.0095552438870072,0.9950955510139464,0.098342128098011,-0.0123656973863512,-0.0001063610126372,0.0090858174454909,-0.0044396980665624,-0.0027117365971207,0.0028818242717534,0.1854103112965822,0.0366559893591329,-9.80567364513874,14936.0
3.8,1.2999999523162842,58.0,25.888652801513672,-0.1033730581402778,-79.78276835776786,40.45907662376544,271.25829047155383,0.004717169329524,0.009543745778501,0.9950935840606692,0.0983644723892212,-0.0101711871121263,0.0002176302104169,0.0050121386957115,0.0063319075852632,0.0028774214442819,0.0051629384979605,0.1874186836928128,0.0343147482234053,-9.8057315325737,14936.0
3.9,1.2999999523162842,56.0,25.89366149902344,-0.0954212844371795,-79.7827683448927,40.45907662166452,271.2587841172218,0.0047099832445383,0.0095357978716492,0.9950935840606692,0.098365232348442,-0.0142265300146113,-0.0004049513995726,0.0049337997656942,-0.008506441488862,-0.0022315341047942,-0.0015803806018084,0.1848443556390702,0.0413110353983938,-9.804657983779908,14936.0
4.1,1.2999999523162842,55.0,25.8899040222168,-0.0636141896247863,-79.78276838087312,40.45907652475847,271.23794216108325,0.0047110691666603,0.009556015022099,0.995091199874878,0.0983874723315239,-0.014955374523962,-0.0033885423129674,0.0020734568091489,0.0045173508115112,4.178209928795695e-05,0.0036645694635808,0.1859061917290092,0.0325865716603584,-9.805524541139604,14936.0
4.2,1.2999999523162842,52.0,25.891157150268555,-0.1033730581402778,-79.7827683622495,40.45907652503544,271.2381339092255,0.0047042616643011,0.0095526091754436,0.9950902462005616,0.0983976498246193,-0.0188450503209079,-0.0039473097512324,0.002115114353562,-0.0096502723172307,-0.0039883637800812,-0.0049066264182329,0.1853305698931217,0.0464378740824759,-9.804778436422348,14936.0
4.4,1.2000000476837158,51.0,25.89240837097168,-0.0954212844371795,-79.7827684356042,40.459076392275655,271.2134621460438,0.0046916059218347,0.0095219882205128,0.995089828968048,0.0984058827161789,-0.0151119261211188,0.0013892393096956,-0.0039763676816761,0.0012014072854071,0.0011978357797488,0.0012048264034092,0.1863048439286648,0.0324438470648601,-9.805536235570909,14936.0
4.5,1.2000000476837158,49.0,25.88614845275879,-0.1033730581402778,-79.7827684163388,40.459076388321016,271.21305668544767,0.0046997801400721,0.0095386086031794,0.9950902462005616,0.0983989164233207,-0.019098449429901,0.0008567519993296,-0.0039817415798301,-0.0095160957425832,-0.0009639633353799,-0.0020403768867254,0.1857049561478197,0.0488821701100096,-9.80386919438839,14936.0
4.7,1.2000000476837158,48.0,25.884897232055664,-0.0795177370309829,-79.78276850917482,40.4590762697907,271.1873325128556,0.0046864305622875,0.0095474468544125,0.9950901865959167,0.0983996242284774,-0.014227837029523,0.0012086449925092,-0.0085431069520689,0.0016995463520288,-0.0029605862218886,0.003836264135316,0.1867146241106093,0.032916244987864,-9.805539159178734,14936.0
4.8,1.100000023841858,41.0,25.88614845275879,-0.1033730581402778,-79.78276858890236,40.45907614945846,271.16407925081256,0.0046641901135444,0.0095371827483177,0.995089828968048,0.0984053835272789,-0.011721258006432,0.0044500384272338,-0.0104689276579813,-0.0084689939394593,-0.0014157572295516,-0.0038775869179517,0.1852702887542545,0.0522377409925684,-9.804136996865276,14936.0
5.0,1.100000023841858,40.0,25.891157150268555,-0.0079517737030982,-79.78276855969743,40.45907613741284,271.161959679842,0.004690705332905,0.0095527600497007,0.9950876832008362,0.0984244495630264,-0.017236134158838,0.0031181227178311,-0.0107625637885788,-0.0054148081690073,0.0028090954292565,0.0010258628753945,0.1864976193197071,0.0354133098525926,-9.805184817910195,14936.0
5.11,0.8999999761581421,43.0,25.88239288330078,-0.1033730581402778,-79.78276865017263,40.45907604659588,271.1400000472069,0.0046559958718717,0.0095579894259572,0.9950876235961914,0.0984261110424995,-0.0111982781407946,-0.0001610543080131,-0.0089250018154133,-0.0024450556375086,-0.0023835869506001,-0.0023027276620268,0.1852304180525243,0.0532475368632003,-9.803081574440004,14936.0
5.3,0.8999999761581421,44.0,25.877384185791016,-0.055662415921688,-79.78276871274805,40.45907589900976,271.11711183381084,0.0046478151343762,0.009523494169116,0.995086908340454,0.0984366312623024,-0.0135774415512271,0.0072347552274986,-0.0079276684555262,-0.0041833706200122,-0.0022046868689358,0.0008185884798876,0.1860218752361834,0.0364447015919722,-9.806527338624,14936.0
5.39,0.8999999761581421,48.0,25.88614845275879,-0.0079517737030982,-79.78276869878981,40.45907589013375,271.1163143832684,0.0046353386715054,0.0095357540994882,0.9950867295265198,0.0984379351139068,-0.0165102856364279,0.0066458249832641,-0.0080222375375926,-0.0024990080855786,0.0002071228664135,-0.0043778279796242,0.1841080998256802,0.0517946590902283,-9.80436503827572,14936.0
5.6,0.8999999761581421,51.0,25.88614845275879,-0.0159035474061965,-79.78276876308024,40.45907577457661,271.09299853634843,0.0046231336891651,0.0095357177779078,0.9950866103172302,0.0984396860003471,-0.015991101001431,0.0045607304309907,-0.0072597070421546,-0.003925148397684,-0.0013078316114842,0.0037108461838215,0.1856574475206434,0.0373233805038034,-9.805729778409004,14936.0
5.7,0.8999999761581421,57.0,25.87863540649414,0.0,-79.78276874555796,40.4590757676555,271.09226530981067,0.004614770412445,0.0095465099439024,0.9950854778289796,0.0984509587287902,-0.0188407333708675,0.0039495126083832,-0.0073151288901979,-0.0024369235616177,0.002783651696518,-0.0045824940316379,0.183724613841623,0.0524657732667401,-9.804056305289269,14936.0
5.9,0.8000000119209291,56.0,25.883644104003903,-0.0318070948123931,-79.78276879591913,40.45907560850684,271.06929514002803,0.004592609591782,0.0095342369750142,0.9950863122940063,0.0984446480870246,-0.021114597923406,0.0106556110452499,-0.0072299483145017,-0.0056629963219165,-0.0039954516105353,0.0015129615785554,0.1855933291465044,0.0383968287985771,-9.80558652162552,14936.0
6.0,0.8999999761581421,59.0,25.8798885345459,-0.0636141896247863,-79.78276877272515,40.45907559544458,271.06856870841983,0.0045964587479829,0.0095478883013129,0.995085597038269,0.0984503030776977,-0.0239158882604517,0.0100047976641878,-0.0073067637937312,-0.0026130648329854,-0.0024424437433481,-0.0056415544822812,0.1842361173033714,0.0521100706933066,-9.804415909051896,14936.0
6.2,0.8999999761581421,61.0,25.881139755249023,-0.0318070948123931,-79.7827688325378,40.45907549940218,271.0477687735558,0.0045784004032611,0.0095834163948893,0.9950848817825316,0.0984549447894096,-0.0221979411379435,0.0037205346203628,-0.0038387144554314,-0.0049475654959678,-0.0021859381813555,0.0023614079691469,0.1848558490723371,0.038648674772121,-9.806842503547667,14936.0
6.3,0.8999999761581421,66.0,25.8798885345459,-0.0238553211092948,-79.78276896263846,40.45907534158148,271.0224232394696,0.0045243459753692,0.0095644332468509,0.9950847029685974,0.098461627960205,-0.0123468576001956,0.0144754642110316,-0.0082031916628322,0.003629301674664,0.0002249512181151,-0.0036414708010852,0.1846914326772094,0.0505617965105921,-9.80393936097622,14936.0
6.5,0.8999999761581421,68.0,25.887399673461918,-0.0079517737030982,-79.78276893600588,40.459075311641605,271.02077067089084,0.0045531629584729,0.0095869423821568,0.9950867295265198,0.0984370410442352,-0.0180293444346984,0.0131988795910343,-0.0086358018913741,-0.0084825847297906,-0.0018370971083641,-5.545410749618897e-05,0.1848709604702889,0.0425900635728612,-9.804721133708952,14936.0
6.6,0.8999999761581421,68.0,25.88614845275879,-0.0397588685154914,-79.78276902036332,40.45907522553051,270.9994653780461,0.0045471214689314,0.0096040656790137,0.9950861930847168,0.0984414219856262,-0.0139406095810637,0.0064191753271997,-0.0048943119490422,0.0013717418769374,0.0026152171194553,-0.002075802301988,0.1857127219811082,0.0491310011129826,-9.803787333369256,14935.0
6.8,0.8999999761581421,66.0,25.8798885345459,-0.0795177370309829,-79.78276908543816,40.45907509747094,270.9783379752636,0.0045575434342026,0.0095743117853999,0.995086431503296,0.0984411537647247,-0.0148772789268904,0.007438754034244,-0.0017238782259233,-0.0087399119511246,-0.0033981665037572,-0.0044536981731653,0.184446251615882,0.0455593344988301,-9.804920523762704,14935.0
6.9,0.8999999761581421,65.0,25.8798885345459,-0.0397588685154914,-79.78276907050822,40.4590750883185,270.9781606812477,0.0045482967980206,0.0095587838441133,0.9950860738754272,0.098446823656559,-0.0166768920674261,0.006748049333902,-0.0018857994318194,0.0049894447438418,-0.0005233814008533,-0.0019358418649062,0.1845368103682995,0.0459006748488172,-9.803737632036214,14935.0
7.1,0.8999999761581421,63.0,25.884897232055664,-0.0159035474061965,-79.78276913157858,40.45907490901632,270.95693580997,0.0045482069253921,0.0095297135412693,0.995085597038269,0.09845432639122,-0.0192994665248902,0.0184418533537282,0.0001566932720693,-0.0053658536635339,-0.0017176101682707,-0.0033467193134129,0.1853622910380364,0.0489650772325694,-9.804090803861618,14935.0
7.2,1.0,59.0,25.8798885345459,-0.0397588685154914,-79.7827691140519,40.45907488950103,270.956960680008,0.0045390180312097,0.0095260832458734,0.99508535861969,0.0984572917222976,-0.020965844105974,0.0177986532671614,-1.2913740206733555e-05,0.008965472690761,0.0028731268830597,-0.0006359124672599,0.1852380377054214,0.0422517975792288,-9.805235103964806,14935.0
7.4,1.0,58.0,25.87613296508789,-0.1033730581402778,-79.78276917635819,40.45907479774044,270.9395232368708,0.0045136930420994,0.0095575153827667,0.9950844645500184,0.0984646677970886,-0.0199239433765378,0.0096088530202677,0.0072158356239498,-0.0062955543398857,-0.0041855932213366,-0.0047298120334744,0.187364523857832,0.0520764994528144,-9.805032790303231,14935.0
7.5,1.0,54.0,25.87863540649414,-0.0159035474061965,-79.78276915430438,40.45907478614785,270.94023782205585,0.004537068773061,0.0095582557842135,0.995083212852478,0.098475806415081,-0.0216922815239331,0.0088161555170665,0.0070535778098569,0.0077937631867825,0.0054029384627938,0.001224297680892,0.1870382309518754,0.0364527757745236,-9.806375895738602,14935.0
7.7,1.0,52.0,25.88239288330078,0.0,-79.78276919732662,40.45907466157459,270.9236824084521,0.0045481780543923,0.0095765106379985,0.9950832724571228,0.0984727889299392,-0.024558314809107,0.0087350029114828,0.0133915665425804,-0.0034795873798429,-0.0043594436720013,-0.0071130297146737,0.1859484561346471,0.0524487889325246,-9.804391935467722,14935.0
7.8,1.0,51.0,25.884897232055664,-0.0238553211092948,-79.78276928253175,40.4590745909965,270.90451780152324,0.0045532062649726,0.0095953810960054,0.9950828552246094,0.0984746888279914,-0.0166443491563558,0.0023390602738266,0.0159556732579416,0.0064688022248446,0.0025692568160593,0.0050232303328812,0.1871623198315501,0.0334918371308594,-9.805954896211622,14935.0
8.0,1.0,50.0,25.891157150268555,-0.055662415921688,-79.78276923797772,40.459074581293336,270.9076694120169,0.0045533594675362,0.009611627086997,0.99508136510849,0.098488375544548,-0.0227543971330196,0.0011259692533827,0.0157844505291105,0.002637694356963,-0.0008759502088651,-0.0008168995846062,0.1856311533227563,0.0488873503776267,-9.804745107293131,14935.0
8.1,0.8999999761581421,51.0,25.891157150268555,-0.0874695107340812,-79.7827693371546,40.459074501041606,270.88703805398944,0.0045594908297061,0.0096457060426473,0.9950798153877258,0.0985007360577583,-0.0146439921602964,-0.0015068125214139,0.0152706955709938,0.0068069328553974,0.0016307735349982,0.0016492427093908,0.1868056396767497,0.0320584447472356,-9.805552607774734,14935.0
8.3,0.8999999761581421,52.0,25.887399673461918,-0.0874695107340812,-79.78276940581772,40.45907436329605,270.86550054144857,0.004555937834084,0.0096305441111326,0.995081067085266,0.0984897315502166,-0.0141559257966161,0.0073133091420525,0.0111926336617813,0.0075451228767633,0.0026861641090363,-0.0002107772743329,0.1861520123295486,0.0426489879749715,-9.805268433094025,14935.0
8.4,1.0,54.0,25.8899040222168,-0.0874695107340812,-79.78276938976046,40.45907435442487,270.8666120637656,0.0045660436153411,0.009632715024054,0.9950817823410034,0.0984817147254943,-0.017188712434387,0.006490754240913,0.0109772169605412,-0.0008618798456154,0.0022458180319517,0.0018865189049392,0.1859992903657257,0.0322004133160226,-9.805728608965872,14935.0
8.6,1.0,54.0,25.888652801513672,-0.1033730581402778,-79.78276945182796,40.459074274722255,270.84506391924623,0.0045708431862294,0.0096534620970487,0.9950820207595824,0.0984772816300392,-0.0151856623711399,0.0006308918943958,0.0085932523306234,0.0077538494952023,0.0064732856117188,0.0054319463670253,0.1869549264013768,0.0338445155974477,-9.806343736052511,14935.0
8.7,0.8999999761581421,56.0,25.88614845275879,-0.1033730581402778,-79.7827694334373,40.45907427155639,270.8459085543156,0.0045616328716278,0.0096401050686836,0.9950833320617676,0.0984653681516647,-0.0189197726926309,-0.0001041761190644,0.0084870761312966,-0.0047890269197523,-0.001473166514188,0.0014853508910164,0.1848936549760401,0.0393706003390252,-9.80664077460766,14935.0
8.9,0.8999999761581421,57.0,25.8899040222168,-0.1033730581402778,-79.78276947813241,40.459074181831774,270.8251450378895,0.0045503377914428,0.0096482103690505,0.9950860738754272,0.0984378159046173,-0.0190113325173826,-0.0008810647652466,0.0071218227867506,0.0022649753373116,6.24468011665158e-05,0.002956218784675,0.1869756840169429,0.0317480832198634,-9.805701127052307,14935.0
9.0,0.8999999761581421,57.0,25.88614845275879,-0.1033730581402778,-79.78276945377822,40.45907417956607,270.82584013235567,0.0045636328868567,0.0096563240513205,0.9950854778289796,0.0984429344534874,-0.0227675591464317,-0.0016877664540864,0.007114174749026,-0.006303431931883,0.0001544268452562,-0.0055051343515515,0.1856147080287337,0.0495012440672144,-9.805346785783769,14935.0
9.2,0.8999999761581421,58.0,25.88614845275879,-0.0954212844371795,-79.78276950413938,40.45907409795147,270.80504534584287,0.0045591164380311,0.0096576763316988,0.9950861930847168,0.0984355956315994,-0.0213471023138518,-0.0020115352979135,0.0059637042967687,-0.004880100954324,0.0001122442045016,0.0044829938560724,0.1871649876236916,0.0340150784212164,-9.80739857375622,14935.0
9.3,0.8999999761581421,54.0,25.881139755249023,-0.0954212844371795,-79.78276962325029,40.45907400156072,270.78398713660243,0.0045360880903899,0.0096478518098592,0.995086908340454,0.0984297320246696,-0.010734223590357,0.0043330479304566,0.0059687389357982,-0.0046529555693268,-0.0015358465025201,-0.0060965800657868,0.185310963448137,0.0529180234204977,-9.804576122760771,14935.0
9.5,0.8999999761581421,54.0,25.891157150268555,-0.0874695107340812,-79.78276959523149,40.45907399091982,270.7851436343492,0.0045577851124107,0.0096510760486125,0.9950860738754272,0.098436951637268,-0.0164431119701604,0.0027070658052008,0.005648641608133,-0.0075057568028569,-0.0023978303652256,-0.0001951607700902,0.1862271673232316,0.0419154090899974,-9.806087628006935,14935.0
9.59,0.8999999761581421,53.0,25.8899040222168,-0.0954212844371795,-79.78276966331197,40.45907391934012,270.76218559411166,0.0045419591479003,0.0096577731892466,0.9950846433639526,0.0984514281153678,-0.01356023997752,0.0016703038716598,0.0020406997895062,0.0015045120380818,0.0023467573337256,-0.003563207341358,0.1852371788956225,0.0470120615232735,-9.804389011859897,14935.0
9.8,0.8999999761581421,52.0,25.887399673461918,-0.1033730581402778,-79.78276970677591,40.45907383715012,270.7426620051712,0.0045614037662744,0.0096551571041345,0.9950833916664124,0.0984631404280662,-0.0155701937386756,0.0032315612795963,0.0028822769391769,-0.0093273548409342,-0.0009089308441616,-0.0013473406434059,0.1858066977001726,0.0492050095042213,-9.804393689632416,14935.0
9.9,1.0,48.0,25.891157150268555,-0.0874695107340812,-79.78276968986421,40.459073831757735,270.7429391574562,0.0045585106126964,0.009653435088694,0.9950824975967408,0.0984727516770362,-0.0171453282652249,0.0022880085933935,0.0027325821871694,0.0067559485323727,0.0008137903059832,0.0019146871054545,0.1853919656574726,0.0390264871297404,-9.80506728887558,14935.0
10.1,0.8999999761581421,46.0,25.89240837097168,-0.0874695107340812,-79.78276972882041,40.45907374839006,270.7235258401353,0.0045460648834705,0.0096313562244176,0.9950833916664124,0.0984664633870124,-0.0175957362837395,0.0042026492453748,0.0037291576678098,-0.0052801156416535,-0.0015917030395939,-0.0073209814727306,0.1854493049159646,0.0531817876640707,-9.804847433567048,14935.0
10.2,0.8999999761581421,43.0,25.88614845275879,-0.0874695107340812,-79.78276970947365,40.45907374173628,270.72388819074075,0.0045370529405772,0.0096418298780918,0.9950839281082152,0.098460741341114,-0.0191741578921722,0.0032860327562327,0.00350373985395,0.0082119647413492,0.0028682092670351,0.0038000843487679,0.1860455930046737,0.0346248036855831,-9.805464314818382,14935.0
10.4,0.8999999761581421,43.0,25.88239288330078,-0.1033730581402778,-79.78276978674896,40.45907368475883,270.7027311288268,0.004515937063843,0.0096530672162771,0.995082437992096,0.0984760522842407,-0.0131820975695837,0.001749687969029,0.0003242736146149,0.0013778343563899,-0.0004913301090709,-0.0041651241481304,0.1844570324197411,0.0500157259544357,-9.803352885246277,14935.0
10.5,0.8999999761581421,43.0,25.888652801513672,-0.1033730581402778,-79.7827697702579,40.459073681092704,270.70274261762205,0.0045346082188189,0.0096567729488015,0.995081067085266,0.0984878465533256,-0.0153997807433506,0.0009023784348467,5.333136477279887e-05,0.00767392385751,0.0020016815979033,0.0018870695494115,0.1865561828389764,0.0320780900213867,-9.805202944278715,14935.0
10.7,0.8999999761581421,43.0,25.887399673461918,-0.0954212844371795,-79.782769821535,40.45907362614693,270.6843066420853,0.0045188455842435,0.0096683679148554,0.9950809478759766,0.0984892547130584,-0.0147332642321701,-0.0007768001222211,0.0026788389541296,0.0026836956385523,0.00309246359393,-0.0014475241769105,0.1841368425451219,0.0457402601419016,-9.804547471404076,14935.0
10.8,0.8999999761581421,41.0,25.887399673461918,-0.0954212844371795,-79.78276986373358,40.45907359784526,270.6656013485492,0.0045417821966111,0.0096956007182598,0.9950782656669616,0.098512977361679,-0.0137116231336227,-0.0051425441953198,0.0029729149590752,0.0037257105577737,0.000953548529651,0.00578403333202,0.1866034173779189,0.0314658499974757,-9.805074890255929,14935.0
11.0,0.8999999761581421,41.0,25.888652801513672,-0.0954212844371795,-79.78276982368956,40.459073602510855,270.6661075000166,0.0045660883188247,0.0096819987520575,0.9950783252716064,0.098511703312397,-0.0190549978913939,-0.0069006062975809,0.0024934390279218,0.0057484423741698,0.0019897373858839,0.0002332107105758,0.1850629866868256,0.0414506605127826,-9.803237110376356,14935.0
11.1,1.0,39.0,25.888652801513672,-0.0874695107340812,-79.78276988209123,40.45907354014479,270.64771396857503,0.0045654480345547,0.0096701318398118,0.9950760006904602,0.0985360890626907,-0.0162753426133724,-0.0013615071998772,0.0038939284714775,0.0008198963478207,-0.000626538763754,0.0061671766452491,0.1871501685865224,0.0325153612531721,-9.806519152522087,14935.0
11.3,1.0,39.0,25.8798885345459,-0.0397588685154914,-79.78276994380616,40.459073509005776,270.62925081890825,0.004551697988063,0.0096894958987832,0.9950722455978394,0.0985731482505798,-0.0099206203090846,-0.0048078123731483,0.0046273065005745,0.0073229279369115,0.0025260797701776,0.0026844488456845,0.1847639746963978,0.0498549640690907,-9.804598342180253,14935.0
11.4,1.0,39.0,25.891157150268555,-0.1113248318433761,-79.7827699297383,40.459073511426055,270.6296877433062,0.004561607260257,0.0096749076619744,0.9950721263885498,0.098576083779335,-0.0130427434688276,-0.0056449708035738,0.0044199404799865,0.0001557287760078,-0.0027415275108069,0.0069836042821407,0.1875376745313406,0.032118422104977,-9.806327363848686,14935.0
11.6,1.100000023841858,40.0,25.884897232055664,-0.0954212844371795,-79.78277003213654,40.45907347174544,270.61160703194145,0.0045432951301336,0.0096973739564418,0.9950694441795348,0.0986016020178794,-0.0031390310807694,-0.0028419276186041,0.0050138768492401,0.006488705985248,0.0012181483907625,0.0021355499047786,0.1843921465985476,0.0419694592896848,-9.803865686058998,14935.0
11.71,1.100000023841858,35.0,25.88239288330078,-0.1033730581402778,-79.78277002680865,40.45907347378623,270.61209301096204,0.0045255050063133,0.0096991676837205,0.9950688481330872,0.0986077263951301,-0.0060425054493562,-0.003725806777854,0.0048100508482502,0.0001215801821672,-0.0043997419998049,0.0078814523294568,0.1871560706198216,0.0324493562383577,-9.804987766742707,14935.0
11.9,1.2000000476837158,38.0,25.884897232055664,-0.1192766055464744,-79.78277005756591,40.459073438894656,270.59441870641706,0.0045133787207305,0.009693494066596,0.995065212249756,0.0986454859375953,-0.0094320780032653,-0.0040822588695654,0.0049411281422977,0.0058939675800502,0.0036849200259894,0.0040539181791245,0.1854298629239201,0.0406075879465788,-9.80346573650837,14935.0
12.0,1.2999999523162842,35.0,25.8899040222168,-0.1033730581402778,-79.78277004355829,40.45907344110293,270.59488997054103,0.0045244810171425,0.0096846530213952,0.9950651526451112,0.098646767437458,-0.0122898690340347,-0.0049959113963815,0.0047738575677746,0.0008139199344441,0.0007087053963914,0.0074806287884712,0.1874759315885603,0.0326680877851322,-9.806022723913197,14935.0
12.2,1.2999999523162842,34.0,25.88614845275879,-0.0874695107340812,-79.78277008080995,40.45907338732355,270.5751114506722,0.004514283966273,0.0096740573644638,0.9950650334358216,0.0986487492918968,-0.0138399116618439,-0.0008599647845559,0.00160324010852,0.009565008804202,0.0038636231329292,0.0013124386314302,0.1852273665368557,0.0418335526390001,-9.804756217002868,14935.0
12.3,1.399999976158142,34.0,25.8899040222168,-0.0954212844371795,-79.78277012479961,40.45907336969661,270.5581493545771,0.0045279338955879,0.0096696754917502,0.995064616203308,0.0986528545618057,-0.0119410595675064,-0.0039981294181436,0.0054555583282872,-0.0015695117181167,0.0036090002395212,0.0053378026932477,0.1869480193778872,0.0323049277276732,-9.805638561844829,14935.0
12.5,1.399999976158142,33.0,25.8899040222168,-0.0954212844371795,-79.78277008932831,40.45907337323176,270.5591880847216,0.0045190681703388,0.0096993902698159,0.9950645565986632,0.0986516252160072,-0.0171482290299917,-0.0057847798123121,0.0053046717967906,0.0052793049253523,0.0007547345012426,0.0023423137608915,0.1850655265711248,0.043512347638607,-9.80482872247696,14935.0
12.6,1.2999999523162842,37.0,25.88614845275879,-0.1033730581402778,-79.78277014397857,40.45907334667567,270.54460703027246,0.004536853171885,0.0096816858276724,0.9950653314590454,0.0986440777778625,-0.0143138974955609,-0.0044029348898343,0.012066485979297,0.0003055223787669,0.0005892573972232,0.0025044062640517,0.1872000160999596,0.0328744716569781,-9.806090551614762,14935.0
12.8,1.2999999523162842,38.0,25.88239288330078,-0.1033730581402778,-79.78277019352781,40.45907331872023,270.5290271211863,0.0045009567402303,0.009676493704319,0.9950636029243468,0.0986641347408294,-0.0107810746045307,-0.0033649934931689,0.013330082290042,0.0012867139885202,-0.0007898742333054,-0.0020537874661386,0.1853895719535649,0.0460990964574739,-9.803944038748742,14935.0
12.9,1.2999999523162842,40.0,25.88239288330078,-0.1113248318433761,-79.78277017923983,40.45907331990328,270.53032939326766,0.0045215981081128,0.0096588535234332,0.9950631856918336,0.098669447004795,-0.0132063257000959,-0.0042310013913446,0.0129664283478951,0.0030269152484834,-6.98032381478697e-05,0.0069477991200983,0.1878292678669095,0.0322512452630326,-9.804932802915571,14935.0
13.1,1.2999999523162842,38.0,25.883644104003903,-0.1192766055464744,-79.78277022583238,40.459073310360594,270.5128522385359,0.0045004645362496,0.0096633788198232,0.9950622320175172,0.0986791104078292,-0.0106803992700152,-0.0067015820566722,0.0107201512760795,0.0052214981988072,-0.0007658733520656,-0.0038423251826316,0.1849514145031572,0.0467301343660801,-9.80423815369606,14935.0
13.2,1.2999999523162842,39.0,25.877384185791016,-0.1351801604032516,-79.78277021164496,40.459073314536646,270.51389263761047,0.004508183337748,0.0096309296786785,0.9950618743896484,0.0986858233809471,-0.0128136707984795,-0.007555136482498,0.0105237387370298,0.0046538915485143,0.0029882416129112,0.0024733338505029,0.1867723836377264,0.0321227389946579,-9.80621860563755,14935.0
13.4,1.2000000476837158,40.0,25.888652801513672,-0.1113248318433761,-79.78277025317033,40.45907326959839,270.49572067153457,0.0044852010905742,0.0095998374745249,0.9950615763664246,0.0986933261156082,-0.0142648391302152,-0.0023803532432099,0.0085329390900214,0.0020947312004864,6.711346213705838e-05,-0.003037538845092,0.1842547370307148,0.0490099043631926,-9.803014916181564,14935.0
13.5,1.2000000476837158,44.0,25.883644104003903,-0.1351801604032516,-79.78277023430532,40.45907326945722,270.49654376697544,0.0044997376389801,0.0096221035346388,0.9950609803199768,0.0986962094902992,-0.016480335491932,-0.0031879596327672,0.0082260417812612,0.0036759700160473,0.0016099633648991,0.0058086230419576,0.1871923781745136,0.0333689085580408,-9.805293576121333,14935.0
13.7,1.100000023841858,46.0,25.881139755249023,-0.1033730581402778,-79.78277027093145,40.45907326338422,270.47791175735,0.0045006652362644,0.0096008526161313,0.9950602650642396,0.0987053140997886,-0.0162870226448485,-0.0066052149728843,0.0067814211113249,-0.0005275653093121,-0.0002550112258177,-0.0007872828864492,0.1836493674851954,0.050423564678058,-9.803729445934296,14935.0
13.8,1.100000023841858,52.0,25.87613296508789,-0.1351801604032516,-79.78277036551198,40.45907322105411,270.45817107152936,0.0045026312582194,0.0095786349847912,0.9950610995292664,0.0986985564231872,-0.0071770061687489,-0.0004160856543873,0.0032032958029006,0.0056079551577568,0.0012293227482587,0.0053747822530567,0.1876632617600262,0.0332956173643469,-9.806421504020694,14935.0
14.0,1.0,54.0,25.8798885345459,-0.1113248318433761,-79.78277034245643,40.45907321925916,270.4587730486393,0.0044849338009953,0.0095822699368,0.9950615167617798,0.0986957922577858,-0.0129321309043581,-0.0016370220426154,0.0029230896045818,0.0019365174230188,0.0015330323949456,-0.0042366315610706,0.1846771435439586,0.0512973762396723,-9.804281423091886,14935.0
14.1,1.0,55.0,25.88614845275879,-0.1113248318433761,-79.78277041230797,40.45907321125755,270.4390192348957,0.0044833743013441,0.0095798997208476,0.9950605034828186,0.0987053588032722,-0.0074144609798094,-0.0042743131596369,0.0005108728305908,0.0062003303319215,0.0028661109972745,0.0037911464460194,0.1872746594622731,0.0318610441172495,-9.806624402403832,14935.0
14.3,1.100000023841858,52.0,25.8899040222168,-0.1033730581402778,-79.78277043528054,40.459073188828135,270.4169964213372,0.0044852262362837,0.009552146308124,0.9950628280639648,0.0986847504973411,-0.0124517473675582,-0.0043389793628816,-0.0053797908255038,0.002223856979981,0.0021877037361264,-0.0034903816413134,0.1825325675681233,0.051699906787835,-9.803249389529231,14935.0
14.39,1.100000023841858,57.0,25.86236000061035,0.4293957948684693,-79.78277041915335,40.45907319021837,270.41642013382915,0.0044857156462967,0.0095595298334956,0.9950631856918336,0.0986806824803352,-0.0145987915625189,-0.0048721968310492,-0.0057586760493141,0.0066839791834354,0.0038649372290819,0.0007414760184474,0.1869747886620462,0.0315660932008177,-9.805546175837517,14935.0
14.6,1.100000023841858,57.0,25.86611557006836,0.2067461162805557,-79.78277050238256,40.45907315010404,270.39401847314844,0.0044744806364178,0.0095639703795313,0.9950626492500304,0.0986855030059814,-0.007726325726007,0.0004064309778749,-0.0092744814369554,0.008107072673738,0.0033974347170442,0.0049785817973315,0.1877828373201192,0.0425555467279628,-9.80012346804142,14935.0
14.7,1.100000023841858,61.0,25.864864349365234,0.1908425688743592,-79.78277049174038,40.45907314804768,270.39309454154966,0.004495533183217,0.0095397606492042,0.9950604438781738,0.0987094193696975,-0.0115568378905238,-0.0001239175454224,-0.009171955261673,0.0012519881129264,-0.0002374432806391,0.0010873541468754,0.1874300309456885,0.027739924241323,-9.808300214409831,14935.0
14.9,1.100000023841858,59.0,25.86861991882324,0.198794350028038,-79.78277056131151,40.4590731133107,270.37190041136745,0.0044751288369297,0.0095341643318533,0.9950627088546752,0.0986883342266082,-0.0083771681167143,0.0021858504771448,-0.0111974518257381,0.002117614261806,-0.0002691550180315,0.0002372628514422,0.1857197386398912,0.0436062274267897,-9.804887194633483,14935.0
15.0,1.100000023841858,59.0,25.871124267578125,0.2067461162805557,-79.78277055026071,40.459073109468505,270.3707692046166,0.0045049218460917,0.0095244422554969,0.9950681924819946,0.0986329764127731,-0.0110257781896869,0.001515040670538,-0.0113638330542864,0.002050660084933,0.0053463438525795,0.0044140331447124,0.1818632258288562,0.0258029701025225,-9.80622737646103,14935.0
15.2,1.100000023841858,58.0,25.861106872558597,0.2624085247516632,-79.7827706055402,40.45907309076052,270.3489323575497,0.0045160981826484,0.0095234345644712,0.9950666427612304,0.0986478626728058,-0.009781790483387,0.0013041504581658,-0.0127866064313878,0.0062482422217726,0.0033132284879684,0.0012384217698127,0.1835088881291449,0.0349387968820519,-9.804750369787218,14935.0
15.3,1.100000023841858,58.0,25.85985565185547,0.3180709481239319,-79.7827706681703,40.45907307223556,270.3263990004063,0.0044987103901803,0.0095289731398224,0.995067059993744,0.0986442267894744,-0.0064400404780557,0.0017120747947559,-0.0168988116919256,-0.0055241915397346,-0.0031329304911196,0.0049901315942406,0.1974788730405271,0.0291974089806899,-9.80133150279522,14935.0
15.5,1.100000023841858,56.0,25.844831466674805,0.3657816052436829,-79.78277064905953,40.4590730679398,270.3229561467171,0.0045309071429073,0.0095280827954411,0.9950713515281676,0.0985989198088646,-0.0116132115098028,-5.600828584227712e-05,-0.0175625540585671,0.003919762559235,-0.0011550711933523,0.0048090484924614,0.1897342907264828,0.0421410567965358,-9.803206704854963,14935.0
15.7,1.2000000476837158,56.0,25.81728553771973,0.8428880572319031,-79.782770663762,40.45907305406487,270.3016733844281,0.0046976460143923,0.0092365238815546,0.9950957894325256,0.0983721762895584,-0.0158160540897292,-0.0013749705315413,-0.0162418420985556,-0.0179929807782173,0.0037531985435634,0.0157843120396137,0.169327106103301,0.0224480273388326,-9.8002550303936,14935.0
15.8,1.2000000476837158,57.0,25.85860252380371,0.1749390214681625,-79.78277070929012,40.45907304763384,270.2778699417114,0.0048324018716812,0.0091020474210381,0.9950903058052064,0.0984334722161293,-0.00810303444792,-0.007322758035277,-0.0169439710178321,0.0192724373191595,0.0377472192049026,0.0149936815723776,0.1752206426672637,0.0304234741721302,-9.804860297441484,14935.0
15.9,1.100000023841858,60.0,25.86361122131348,0.1431319266557693,-79.78277069634932,40.45907304923181,270.2761939485073,0.0048036808148026,0.0091789029538631,0.99508935213089,0.0984376817941665,-0.013019761076156,-0.0043442446949371,-0.0168494242787475,0.0062926369719207,-0.019073037430644,0.0072426116093993,0.1706435884349048,0.0507765674823895,-9.79733726978302,14935.0
16.1,1.2000000476837158,62.0,25.823545455932607,0.7077078819274902,-79.78277072265503,40.4590730197149,270.25113424849513,0.0049334503710269,0.0090708173811435,0.9950867891311646,0.098467543721199,-0.0095755503149413,-0.0029807491920202,-0.0191279207130139,0.0255949106067419,0.0402252599596977,0.0293941684067249,0.1525402707327157,-0.0054090262250974,-9.815581752061844,14935.0
16.2,1.2999999523162842,63.0,25.854846954345703,0.198794350028038,-79.78277070814853,40.4590730198346,270.2491259593964,0.0046988748945295,0.0093097183853387,0.9950937628746032,0.0983854159712791,-0.0159077563747546,-0.0025985903889027,-0.0211412883949767,-0.0018930912483483,-0.018951553851366,-0.0200005304068326,0.1927116381190717,0.0247602813597768,-9.803855161070825,14935.0
16.4,1.2999999523162842,64.0,25.82229423522949,0.7951774001121521,-79.78277074014144,40.45907300929945,270.22620809268955,0.0046857339330017,0.0092736110091209,0.9950831532478333,0.0984968617558479,-0.0163565417206485,0.0003956680566578,-0.0166696302830313,-0.0090132988989353,-0.0278468877077102,0.0132498787716031,0.1505579184461385,0.1293765441980213,-9.806958863139153,14935.0
16.5,1.399999976158142,57.0,25.67705535888672,3.4987804889678955,-79.78277072065127,40.45907300603697,270.2244212050438,0.0047942455857992,0.009128994308412,0.9950881600379944,0.098454900085926,-0.0223505422852219,0.0037754605433578,-0.0174445066441671,-0.0201511960476636,-0.0318909846246242,-0.0121686933562159,0.1918181287497282,0.0938179721496999,-9.787499329447746,14935.0
16.7,1.399999976158142,59.0,25.53056526184082,5.772987842559815,-79.78277077262761,40.45907299441002,270.1959102172852,0.0048962235450744,0.0089799826964735,0.99509859085083,0.098357506096363,-0.0139453873159503,-0.0009863729054088,-0.0199917504046452,-0.0093408320099115,-0.0006213913438841,0.0010180426761507,0.1770006995648145,0.0481731221219524,-9.79743082523346,14935.0
16.8,1.399999976158142,57.0,25.44667816162109,7.19635534286499,-79.78277079881752,40.45907299238209,270.1733242888451,0.0050460728816688,0.0087367752566933,0.9951082468032836,0.0982742384076118,-0.0127573588558389,-0.0036364619284182,-0.0190657645370937,0.0237500686198472,0.0258803032338619,0.0202278234064579,0.1650682134926319,0.0180472643743269,-9.80581631720066,14935.0
17.0,1.5,58.0,25.2651309967041,9.462611198425291,-79.78277076721812,40.45907299695431,270.1695418376923,0.0046950606629252,0.0090027907863259,0.9951243996620178,0.0981043130159378,-0.0175409407918232,-0.0037246050399133,-0.0175159178990835,-0.0044912346638739,-0.0086782854050397,0.0200340077280998,0.1345134784653782,-0.1051329648401588,-9.768651414513588,14935.0
17.1,1.399999976158142,58.0,25.187503814697266,11.641397476196287,-79.78277077811137,40.4590729483016,270.1480716485977,0.0054924832656979,0.0079998448491096,0.995136260986328,0.0980293601751327,-0.0196321493978309,0.0079260023828567,-0.0153523883916805,0.0052330759353935,-0.0373725369572639,-0.0321182459592819,0.2592281198501587,-0.0323121979180723,-9.87124841451645,14935.0
17.3,1.5,56.0,24.96714401245117,14.60740852355957,-79.78277076804928,40.45907291640842,270.128245713234,0.0058939750306308,0.0060057849623262,0.995158314704895,0.0979250594973564,-0.0235351041633332,0.0115989081443545,0.0006923087307015,-0.0642380863428115,-0.0854343622922897,0.0345352701842784,0.0956141819804907,0.0578859548829495,-9.781158608794213,14935.0
17.4,1.5,53.0,24.86823081970215,16.674869537353516,-79.78277075088666,40.45907290384052,270.1285819430352,0.0061406544409692,0.0046711564064025,0.9951695203781128,0.0978682413697242,-0.0200016225490746,0.0132001304742369,0.0077527416994441,-0.0259794536978006,-0.0850887596607208,0.0306768454611301,0.0336407584045082,0.0620722963381558,-9.854553444385528,14935.0
17.6,1.600000023841858,51.0,24.63409805297852,20.56328773498535,-79.78277072111928,40.45907285112555,270.1120477337837,0.009494193829596,0.0011861752718687,0.995173454284668,0.0976646170020103,-0.0432814363738302,0.012040681320766,0.0534067577554386,-0.0784633606672287,-0.0429953634738922,-0.0535522997379303,0.1448236910998821,-0.0165003994619473,-10.100121299028396,14935.0
17.7,1.600000023841858,50.0,24.515151977539062,22.424001693725582,-79.78277066630345,40.459072827778265,270.11808967781064,0.0141385644674301,-0.0008028971496969,0.9952986240386964,0.0958137810230255,-0.0504928368609623,0.0225295984669442,0.068957616226782,-0.0191063433885574,-0.030857641249895,0.0377052351832389,0.0956758975144475,0.0056865085847675,-10.078092498779297,14935.0
17.9,1.7000000476837158,46.0,24.245962142944336,27.11554908752441,-79.7827706353895,40.45907267211806,270.1155460495949,0.0195333007723093,6.49957510177046e-05,0.9957606196403505,0.0898848995566368,-0.063182125923563,0.0387972517583425,0.2389649472461691,0.182463765144348,0.0400288626551628,0.0119743822142481,0.2066716827638448,0.0322961294953711,-10.804250024557112,14935.0
18.0,1.7999999523162842,49.0,24.7392692565918,18.1141414642334,-79.78277053530459,40.459072609937714,270.1462426204682,0.0151622984558343,-0.0033119011204689,0.9960473775863647,0.0874571651220321,-0.0783059987231851,0.0606218740666685,0.3699418410111427,0.1613645255565643,-0.0531988367438316,-0.0161292422562837,0.1422527617402375,0.1418843962904065,-10.942197536230088,14935.0
18.2,1.7999999523162842,49.0,24.82315826416016,16.921375274658207,-79.78277015214924,40.45907244594364,270.1786565799713,0.0015302893007174,-0.0013291235081851,0.9962266087532043,0.0867667198181152,-0.0876178011766335,0.0997913309103816,0.2925181421465722,0.1990004628896713,0.0403340458869934,0.0298713538795709,0.1900813777931034,0.1831437843292952,-9.411944947242738,14935.0
18.3,2.0,48.0,24.67917060852051,18.40040397644043,-79.78277012834758,40.45907226193132,270.1602803487778,-0.0027153315022587,0.0039406726136803,0.996121108531952,0.0878633558750152,-0.0632717450224963,0.1084217521137058,0.1598069312891155,0.0817005112767219,0.0511649921536445,0.0551585927605629,0.2269966957345605,0.0037984426505863,-9.055527917146684,14935.0
18.5,1.8999999761581416,53.0,24.59152793884277,20.436058044433597,-79.78277005563464,40.459072032738106,270.178027095318,-0.0025377781130373,0.0104463808238506,0.9958077073097228,0.0908381193876266,-0.0355338665041341,0.1299434823829821,0.0225804657266166,-0.0103369830176234,0.0578958988189697,0.0295222923159599,0.3659563969820738,0.0663734624907374,-9.188580724596976,14935.0
18.6,2.0,49.0,24.45881080627441,22.36833953857422,-79.78277026182607,40.45907173790992,270.1654466409684,-0.0004220551636535,0.0110980132594704,0.9956787228584292,0.0921993777155876,-0.01583148479276,0.1712381657755191,0.0184004789125766,-0.0524396672844886,0.0150650897994637,0.0231320224702358,0.3212132104486227,0.0026943056099116,-9.488283855915071,14935.0
18.8,2.0,50.0,24.28352355957031,25.57290458679199,-79.78277016115125,40.45907140612788,270.1670789141656,0.0053804195486009,0.01042016223073,0.9956755042076112,0.0921570733189582,-0.0182134554430057,0.158106589462886,0.0987693106933108,-0.0331164821982383,0.0381445623934268,0.0172206629067659,0.2690812446735799,0.070378595078364,-10.089633733034132,14935.0
18.9,2.0999999046325684,53.0,24.43752479553223,21.573162078857425,-79.78277017530237,40.459071266455325,270.18062251997003,0.0057984283193945,0.0105259185656905,0.9957329034805298,0.0914964228868484,-0.0210231191379305,0.1631115626587121,0.1720910271144369,-0.0534161478281021,-0.0245338715612888,-0.1874135285615921,0.240869781319052,0.4110959151014686,-10.411887820959093,14935.0
19.1,2.0,53.0,24.51640510559082,21.326658248901367,-79.78277020817859,40.45907100251119,270.1891737003327,0.0087870107963681,0.0088642630726099,0.9958480596542358,0.0901718065142631,-0.0056496453383814,0.1389570514681039,0.2038896314450957,0.0023723656777292,0.0369658432900905,0.0384923070669174,0.0575187588762492,0.0560726236738264,-9.963532680273056,14935.0
19.2,1.8999999761581416,51.0,24.46381950378418,21.27099609375,-79.78277022243577,40.45907087835554,270.20964849185947,0.0088586211204528,0.0113012101501226,0.9958699345588684,0.0896493792533874,-0.003197641134847,0.1389790833931577,0.202868047488265,0.0660327225923538,0.0712205246090889,-0.0240478720515966,0.113683996964246,0.1009840821102261,-9.814441545009611,14935.0
19.4,1.7999999523162842,51.0,24.34863090515137,22.91701316833496,-79.78277044044631,40.459070595197225,270.21475190114984,0.0096292160451412,0.0141750536859035,0.9958377480506896,0.0895181819796562,0.0064503683687484,0.1399580766699081,0.179742758655765,0.0106144975870847,0.0909150764346122,0.045639518648386,0.173309535048902,0.0350860439334064,-9.825995643138889,14935.0
19.5,1.7000000476837158,48.0,24.58777236938477,19.712448120117188,-79.78277046677546,40.45907047906735,270.2338821609021,0.0104952445253729,0.0173570439219474,0.9957769513130188,0.0895379856228828,0.0094867999182884,0.1318619048924951,0.1897676521357179,0.0561905242502689,0.0744595006108284,0.0170992854982614,0.260969000402838,0.0241636141156777,-9.849112025499345,14935.0
19.7,1.600000023841858,49.0,24.36490631103516,23.354360580444336,-79.78277052775276,40.45907025878826,270.235573204279,0.0112595139071345,0.0180859640240669,0.995833158493042,0.088670939207077,-0.0115089615035786,0.1107591252927303,0.1540231779980796,0.0021341734100133,-0.0724725574254989,-0.0565779209136962,0.2852735552564263,0.1882433969154954,-9.771991928815842,14935.0
19.8,1.600000023841858,49.0,24.525169372558597,20.75412940979004,-79.78277064699587,40.45907015815918,270.2318671960831,0.0124520780518651,0.0173328500241041,0.9958674311637878,0.0882764682173729,-0.0025959443147797,0.1023008941695556,0.1700203222762685,-0.025286890566349,-0.0395483970642089,0.0071605122648179,0.2783495017513633,0.0421431672759354,-9.905191501379011,14935.0
20.0,1.5,47.0,24.611560821533203,11.9912748336792,-79.78277065526954,40.45907008079365,270.24919259738925,0.0137317739427089,0.0184430368244648,0.9958359003067015,0.0882163867354393,-0.0026994327742823,0.0853833541911454,0.1701182330921276,0.0041435225866734,0.0286651756614446,-0.0189978964626789,0.2393927746452391,0.1134433292225003,-9.816003921031951,14935.0
20.1,1.600000023841858,47.0,24.85696220397949,18.44016456604004,-79.78277091674224,40.45906989943994,270.2586412746906,0.0127176875248551,0.0194505751132965,0.9956761002540588,0.0899389907717704,0.015458566100177,0.0792242695215503,0.0823708059918,-0.000458105612779,0.0054159676656126,0.0291894916445016,0.2900426174327731,0.155799865052104,-8.842680496573449,14935.0
20.3,1.600000023841858,44.0,24.10072326660156,26.702056884765625,-79.78277106361816,40.45906972184576,270.2371968348026,0.0079424511641263,0.0104567408561706,0.9956856966018676,0.0918570905923843,0.0095910152873136,0.0568983436897298,-0.0359858897161893,-0.0221137143671512,-0.0632266104221344,0.1088550612330436,0.1639493122324347,-0.0735366853885352,-9.76784917652607,14935.0
20.4,1.600000023841858,43.0,23.98929214477539,30.44734191894531,-79.78277109279416,40.45906967226768,270.23869839501384,0.0072829900309443,0.0069849849678575,0.9957217574119568,0.0918502435088157,0.0119003444625915,0.0633308327358886,0.0716866586279296,-0.048584945499897,-0.1554238051176071,0.0803853347897529,0.1572386455535888,-0.0105135130137205,-10.618362361192704,14935.0
20.6,1.600000023841858,41.0,23.81275177001953,30.74155807495117,-79.7827711331357,40.45906961869709,270.2539660055637,0.0049182609654963,0.0056468867696821,0.995656669139862,0.0927999168634414,0.0254645120440373,0.0690209996697899,0.2435785630640829,0.0105053326115012,0.07235898822546,-0.1215711534023284,0.1800181186571717,0.4636616163700819,-11.301772062778475,14935.0
20.7,1.7000000476837158,41.0,24.02059364318848,27.18711471557617,-79.78277121383579,40.459069560287006,270.3259811420441,0.0057895109057426,0.0082599548622965,0.9952834844589232,0.0964832827448844,0.0553756346805708,0.0790972405832374,0.7129067685811664,0.0675817131996154,0.1739382296800613,0.1786885559558868,0.2830589954182506,-0.0516203252691775,-12.150806486606598,14935.0
20.9,1.7999999523162842,43.0,23.77769470214844,31.55263900756836,-79.7827714011542,40.45906930824839,270.4655474443436,0.0118775507435202,0.0152351520955562,0.9951671361923218,0.0962776318192482,0.063036142797594,0.1181384895373378,1.070811677618814,-0.1428970843553543,0.107758417725563,-0.1487672477960586,0.307726680636406,0.2014979567192495,-11.791903220415117,14935.0
21.0,1.8999999761581416,41.0,23.68379211425781,34.20853042602539,-79.78277148158115,40.45906922994459,270.5837699491978,0.0147133991122245,0.0173015724867582,0.99516499042511,0.0955554321408271,0.0699935104436144,0.1349022216657935,1.2948853477074571,-0.1004466563463211,0.0547842867672443,0.0269465949386358,0.3471603395417333,0.1324523897655308,-12.014968650341036,14935.0
21.1,2.0,40.0,23.844053268432607,31.60034942626953,-79.78277158993104,40.45906906640623,270.68845784109834,0.0177681799978017,0.0166220162063837,0.9951719641685486,0.0950830280780792,0.0770889423734112,0.1526165400373849,1.5098753990451648,-0.0216983724385499,0.0628813579678535,0.0471238903701305,0.4212163855880499,0.1211131219938397,-12.167680381536483,14935.0
21.3,2.200000047683716,36.0,23.62995338439941,33.84275054931641,-79.78277174177154,40.45906875583515,270.97530582737926,0.0182261224836111,0.0197260025888681,0.9952683448791504,0.0933796316385269,0.0689747944854863,0.1617614375995539,1.919484472755784,-0.0446721352636814,0.0518671907484531,-0.0215679295361042,0.3323333720862865,0.2103353836387396,-12.155945019721983,14935.0
21.41,2.200000047683716,33.0,23.690052032470703,33.03166961669922,-79.78277176134903,40.45906868321036,271.17979249548915,0.0166799202561378,0.0209637153893709,0.9953630566596984,0.0923836678266525,0.0644306275137402,0.167188678049467,2.1539146880039666,0.0494627505540847,0.0412156991660594,0.0340508334338665,0.4085536188259721,0.1998006927408278,-12.157418518066413,14936.0
21.6,2.400000095367432,32.0,23.6074161529541,33.826847076416016,-79.78277190924366,40.45906823784596,271.53000033092496,0.0143740903586149,0.0209788065403699,0.9954214692115784,0.0921375453472137,0.0502454689709424,0.1747150125388957,2.5146534141212107,0.0409821681678295,0.0130798676982522,-0.0489181950688362,0.3669541877880693,0.2545807893946767,-12.156576519012456,14936.0
21.8,2.5,32.0,24.05690193176269,24.3801383972168,-79.78277189776183,40.45906818568815,271.79332292270664,0.0136742321774363,0.0219128187745809,0.9953565001487732,0.0927275195717811,0.0354173367799961,0.1680106351204638,2.7354096039637223,-0.0936649367213249,0.0178390964865684,0.0253962762653827,0.2333303266391158,0.1906068049371242,-11.987366284132008,14936.0
21.9,2.700000047683716,31.0,24.05189323425293,26.94856262207031,-79.78277224826952,40.45906753026257,272.1523681898117,0.0124678332358598,0.0242168623954057,0.9952486157417296,0.093479074537754,0.0535796900434165,0.1835149474089126,2.8077058459504967,0.0209765564650297,0.0520098730921745,0.1262549310922622,0.3421473388373852,-0.0082124874740839,-10.616037508249285,14937.0
22.0,2.799999952316284,31.0,23.99930763244629,26.95651435852051,-79.78277223999089,40.45906749517294,272.4349080343247,0.0144878858700394,0.024506164714694,0.9951798915863036,0.0938436165452003,0.0385994579423674,0.168463896022942,2.8335619783519483,-0.0833392217755317,0.0101271644234657,0.0526547394692897,0.2692440530844033,0.125520744016394,-10.216042349338531,14937.0
22.2,2.900000095367432,31.0,24.15957069396973,23.767852783203125,-79.78277278115081,40.459066681570256,272.7444007415772,0.0183822344988584,0.0250166077166795,0.9950767755508424,0.0941202193498611,0.0869457790544424,0.1864416342708965,2.708598294062362,0.0912985205650329,-0.0141404923051595,-0.0194801874458789,0.3901021451130509,0.3986586681380868,-10.019898669719694,14937.0
22.3,3.0,31.0,23.941713333129893,28.01409912109375,-79.78277336067885,40.459066113560674,272.905653717041,0.0172030460089445,0.0257355291396379,0.995090663433075,0.09400175511837,0.1174912511357065,0.1988438917587105,2.6392550871496008,0.0902446284890174,0.0762038603425026,0.2078251242637634,0.2957341144233942,-0.0086638468410819,-9.857049036026002,14937.0
22.5,3.0999999046325684,30.0,23.7251091003418,30.980112075805664,-79.78277341743359,40.45906604786985,273.43876195144657,0.0190750304609537,0.0253814086318016,0.995019257068634,0.0944916903972625,0.0783675292961032,0.1838621191817884,2.6959296464276954,-0.1580207496881485,-0.119322158396244,-0.1031965911388397,0.4000295113027096,0.3428281009197235,-10.183448799848556,14938.0
22.7,3.2000000476837163,30.0,24.04813766479492,25.723989486694336,-79.78277487385883,40.459064837689645,273.6987555046082,0.0198746901005506,0.0213844217360019,0.9950656294822692,0.0948268249630928,0.1318236151757071,0.1942202692143201,2.6507660147646366,-0.1209595650434494,-0.0552850365638732,-0.0835364460945129,0.3019307377561927,0.4227746320143342,-10.127845287322998,14938.0
22.8,3.2000000476837163,30.0,24.078187942504893,24.49941635131836,-79.78277636321133,40.45906383471501,273.74405646514896,0.0189888775348663,0.021450038999319,0.9950331449508668,0.0953331962227821,0.2129154432624974,0.2436723740620502,2.519890549789418,0.0825414210557937,-0.0229942444711923,-0.0727123841643333,0.3252430749312044,0.3452311603724957,-9.860878962278369,14938.0
23.0,3.2000000476837163,30.0,24.104480743408203,24.22110366821289,-79.78277652004033,40.45906374377997,273.99659729194644,0.0179485250264406,0.020304312929511,0.9950252175331116,0.0958673059940338,0.1997414490183624,0.2320183861466938,2.499632621279851,0.1223887801170349,0.0834297835826873,0.0645692497491836,0.4334450696781278,0.1565378750301897,-9.696177515387538,14938.0
23.1,3.2000000476837163,33.0,24.118253707885746,24.51531982421875,-79.7827766583592,40.45906406542781,274.7556893844605,0.016591653227806,0.0167793557047843,0.995040237903595,0.0966343805193901,0.1711508814544567,0.207888405737488,2.5208458381788432,0.1098913326859474,-0.0147343436256051,0.055410761386156,0.3459775939956308,-0.0654189958982169,-9.385516117215158,14939.0
23.3,3.2000000476837163,34.0,24.003063201904297,26.11362648010254,-79.78277677167998,40.45906398487817,275.0070993919373,0.0155227007344365,0.0150978527963161,0.9950399398803712,0.0970915555953979,0.1389314666614804,0.1932359729671539,2.495344379251652,-0.0244699716567993,0.0164354462176561,-0.1508394628763198,0.3320138582959771,0.5570297000929714,-9.510128468871116,14940.0
23.4,3.2000000476837163,33.0,24.14204216003418,24.332427978515625,-79.7827769268056,40.45906417683197,275.6505620498657,0.0127217257395386,0.0117591982707381,0.9951198697090148,0.0971410498023033,0.1398797185107246,0.1774078863790404,2.496127491309647,0.0904394462704658,-0.0215202122926712,0.04420992359519,0.3117396612837911,0.1314131385460496,-9.577893020510674,14940.0
23.6,3.0999999046325684,34.0,23.85407066345215,28.43554306030273,-79.78277695597923,40.45906440623721,276.29975390625003,0.0109806908294558,0.0108255296945571,0.995224118232727,0.0963909104466438,0.1234186573135691,0.1606179613338866,2.497007915345008,0.0709896013140678,0.0422416292130947,0.114813432097435,0.2900130524486303,0.0061261643841862,-9.568333992362025,14941.0
23.7,3.0999999046325684,30.0,24.20464515686035,22.84544563293457,-79.78277706003742,40.45906431829197,276.55018735122684,0.0096523649990558,0.0093649737536907,0.9953068494796752,0.0958310291171074,0.1169362236182049,0.1797262542502996,2.5066682411626706,-0.0047940872609615,-0.0782056301832199,-0.0055227875709533,0.3148901045322418,0.0843520243652165,-9.795998842120172,14941.0
23.8,3.0999999046325684,30.0,23.99555206298828,26.495309829711918,-79.78277678435259,40.45906472180025,276.9642255325317,0.0083956252783536,0.0074131432920694,0.9953523874282836,0.0956472530961036,0.0962853221975868,0.1614109218152188,2.557908048954405,-0.0666726976633071,-0.0796109065413475,-0.1022091284394264,0.2989587624929845,0.3526182768121362,-9.69905668437481,14941.0
24.0,3.0999999046325684,29.0,24.10072326660156,23.84737014770508,-79.78277698487813,40.45906451823827,277.4793345947266,0.0106194112449884,0.0051670288667082,0.9953181743621826,0.0959286466240882,0.0908546150210504,0.1775673917479712,2.5925856196245114,-0.1758473813533783,-0.0444980859756469,-0.1131876409053802,0.3125624741613865,0.4723183460533619,-9.970006717443468,14942.0
24.2,3.0999999046325684,29.0,23.865339279174805,27.06783866882324,-79.78277666427333,40.459065010846906,277.9201409835816,0.0125337168574333,0.0074058170430362,0.9952647089958192,0.0961054936051368,0.1158526465726014,0.1554377445649258,2.660358561880316,0.1149995923042297,0.0927114188671112,0.0996036529541015,0.4022685198113322,0.0217404594272375,-9.79660636782646,14942.0
24.3,3.0,30.0,24.17960357666016,23.012434005737305,-79.78277627152322,40.45906550436375,278.67129254531864,0.0114021878689527,0.0094327637925744,0.9952253699302672,0.0964761227369308,0.0986487306106981,0.1666134670432112,2.7862287876544043,0.064521387219429,0.0187170580029487,-0.1356856822967529,0.3736199039965869,0.3302217232435941,-9.91986567378044,14943.0
24.5,3.0,31.0,24.07317924499512,25.83531379699707,-79.78277639309859,40.459065305852775,279.22318339538583,0.0089577641338109,0.0100121404975652,0.9952781796455384,0.0961300283670425,0.0829930164850856,0.1862350189999526,2.706962282325874,0.0503203086555004,0.0835736840963363,-0.0581800453364849,0.3505629074200988,0.3041520767100155,-9.381418388485908,14944.0
24.6,3.0,32.0,24.08194351196289,24.05411529541016,-79.78277590202069,40.459066061739954,279.7393958587647,0.0090767452493309,0.0098119601607322,0.9953463673591614,0.0954308435320854,0.0580919738214782,0.1407583799329231,2.7836070795120644,-0.0973488315939903,-0.0605951100587844,-0.1259306520223617,0.2515812408551574,0.3766021301597357,-9.426504514217378,14944.0
24.8,2.900000095367432,33.0,24.076934814453125,23.89508056640625,-79.78277594701936,40.459065993939646,280.01667761993406,0.0093639651313424,0.0099184233695268,0.9953926205635072,0.0949081405997276,0.0730247348257375,0.1468640801077494,2.755395868758894,-0.0078117572702467,-0.0366094969213008,0.037922728806734,0.2494061131775379,0.1339960912428796,-9.51622068285942,14945.0
24.9,2.900000095367432,34.0,23.941713333129893,26.686153411865234,-79.78277536052398,40.45906659421546,280.7589757461548,0.0088338525965809,0.009749443270266,0.9953908920288086,0.0949947386980056,0.0493280875341759,0.12253405532474,2.8171947953608667,-0.0786410719156265,-0.0644456446170806,-0.0675177425146102,0.3338495916500688,0.3094193399325013,-9.69309310913086,14945.0
25.1,2.900000095367432,34.0,23.9830322265625,26.185192108154297,-79.78277479753619,40.45906707963462,281.51535582733163,0.0095650870352983,0.0079092318192124,0.9953274726867676,0.0957560017704963,0.0483667343745798,0.0931782743913358,2.923373450353069,0.0587053671479225,-0.0226375330239534,0.0371338836848735,0.3021133901551366,-0.0047346184216439,-9.913691014051436,14946.0
25.2,2.799999952316284,35.0,24.218416213989247,22.67845916748047,-79.78277479860151,40.45906704524385,281.80889773559574,0.0098151210695505,0.0080085778608918,0.995281457901001,0.0961993709206581,0.0380766263800259,0.0970293016753111,2.940047413612109,-0.0676655769348144,-0.0018828469328582,-0.1400159746408462,0.3114390047639609,0.4588188061863184,-9.92844470858574,14946.0
25.3,2.799999952316284,36.0,24.06817054748535,23.60086441040039,-79.78277477622005,40.459067283699,282.2388274688721,0.0102965477854013,0.008297249674797,0.9952749013900756,0.0961928218603134,0.0504110060294322,0.1021408908459234,2.989388482546873,-0.043670866638422,-0.0478363931179046,0.0329499393701553,0.2486655633151532,0.1180946796387434,-9.727059000134467,14947.0
25.5,2.700000047683716,34.0,23.991796493530277,26.10567283630371,-79.78277479857445,40.45906718178061,282.83498072814945,0.01060978975147,0.0089460713788867,0.9952149987220764,0.0967188104987144,0.0460384117617451,0.1236362423386304,2.974980484122754,-0.0942624658346176,-0.0130721190944314,-0.0250884909182786,0.2464358920790255,0.2487279092520475,-9.733620745539666,14947.0
25.6,2.5999999046325684,33.0,23.991796493530277,25.588808059692383,-79.78277493157545,40.45906719644941,283.21838545989993,0.0101271392777562,0.0095401676371693,0.9951735734939576,0.0971390008926391,0.0620885565300393,0.1412343504210716,3.0082868911176743,0.0316527001559734,0.0503545850515365,0.0798145532608032,0.2876388270780444,0.2101501730829477,-9.777140986919404,14948.0
25.8,2.5999999046325684,31.0,24.014331817626957,23.767852783203125,-79.7827747497034,40.45906721549397,283.88490939331064,0.0094788968563079,0.0122848404571414,0.9952230453491212,0.0963872224092483,0.0439844124305738,0.1471002577828825,3.0233171418035965,0.1418521106243133,0.0567951202392578,0.1216648519039154,0.3618894392251968,0.0349698396585881,-9.715066945552826,14948.0
26.0,2.5999999046325684,31.0,23.976770401000977,25.37411117553711,-79.78277474660509,40.4590671398257,284.1867597122192,0.0074500553309917,0.0118527337908744,0.9953178763389589,0.0956369936466217,0.0243225630471467,0.169889174977084,3.0039573039230967,-0.0301693230867385,-0.0520981475710868,-0.0819262340664863,0.3665628994256258,0.1804932232014835,-9.605991230607032,14949.0
26.1,2.5,27.0,24.00431632995605,24.714113235473643,-79.7827746779836,40.45906700849345,284.8376719970704,0.0056263944134116,0.0122623462229967,0.9953854084014891,0.0950050354003906,-0.0046510560395829,0.165364358046238,2.9907186727974104,-0.0829665288329124,-0.0680360123515129,-0.0049071446992456,0.2663720103912056,0.0697416414320468,-9.654943535327911,14949.0
26.21,2.5999999046325684,27.0,23.91542053222656,26.93265914916992,-79.78277467325812,40.45906692333941,285.1364533920288,0.0061041112057864,0.0137648396193981,0.9953372478485109,0.0952735468745231,0.0200112527623403,0.1714075471162842,2.978572764505984,0.1604870408773422,0.0509359799325466,0.135004773736,0.3445549664273858,-0.119388567963615,-9.7012289249897,14950.0
26.4,2.5,24.0,23.911664962768555,27.497234344482425,-79.78277427729972,40.459066972993725,285.7843406219484,0.0070293499156832,0.014233979396522,0.9953088164329528,0.095438003540039,-0.0121906450709371,0.1606226548945004,3.0034391614582976,-0.0212707128375768,-0.0322113372385501,-0.117525890469551,0.3240575885027647,0.3058964655920863,-9.781972541213037,14950.0
26.5,2.5999999046325684,23.0,23.980527877807607,25.14350891113281,-79.7827742410131,40.4590669032911,286.0851094741822,0.0074273268692195,0.0135221034288406,0.9953018426895142,0.095584399998188,0.0077100259827726,0.1622630871891309,3.005372008125131,0.1764723360538482,0.0658200159668922,0.1325139850378036,0.3550345290452242,-0.0778025672491639,-9.843834328651427,14951.0
26.7,2.5999999046325684,21.0,24.036869049072266,24.952667236328125,-79.78277441693022,40.45906649122352,286.721387626648,0.0061143273487687,0.0113806426525115,0.9953306913375854,0.0956559777259826,0.0249901982242771,0.1935269838702534,3.013652633475146,0.0637768059968948,-0.0371509715914726,-0.1044498980045318,0.3530440637469292,0.2817951197549701,-9.729128914475444,14951.0
26.9,2.5999999046325684,19.0,23.92543792724609,25.77169990539551,-79.78277434700551,40.459066328628815,287.3633162994385,0.0052534826099872,0.0132061634212732,0.9953584671020508,0.0951818525791168,-0.0186958939903953,0.194078286874223,3.0137598856757544,-0.2257842570543289,-0.0419843941926956,-0.1149089708924293,0.2186967741139233,0.3076015502214432,-9.709428475499154,14952.0
27.0,2.700000047683716,17.0,23.89413642883301,26.19314384460449,-79.78277435095977,40.45906621969807,287.6649062652588,0.007700340822339,0.0153624154627323,0.9953005313873292,0.0952977836132049,0.0192050739978694,0.2040426277553417,3.011996912341392,0.0864021927118301,0.0854524821043014,0.1040399745106697,0.3976759339123965,-0.1152579851914197,-9.833185379505158,14952.0
27.1,2.799999952316284,16.0,23.901647567749023,26.137481689453125,-79.78277429698588,40.45906613273726,287.99622798156736,0.0093561727553606,0.0168635807931423,0.9952263832092284,0.0956694558262825,0.0120405201234947,0.216824646138933,3.0272709784616727,-0.0378974117338657,0.0151666980236768,-0.0318841226398944,0.3126962292194367,0.2422076425328851,-9.829129750728606,14952.0
27.3,2.900000095367432,15.0,23.92293357849121,25.636518478393555,-79.78277442366338,40.45906587018228,288.62912821960447,0.0047611896879971,0.0182993113994598,0.9952078461647034,0.095936894416809,0.0463056245769771,0.2346940139346096,3.044630662227928,0.2501613795757293,0.0526106804609298,0.1546165943145752,0.3687354324012994,-0.1989953849650919,-9.884744957685474,14953.0
27.5,2.900000095367432,14.0,23.87911033630371,25.86712074279785,-79.7827744539937,40.45906566264929,289.2400729675293,0.0049476195126771,0.0212596282362938,0.9951089024543762,0.0963426977396011,0.0033261757309458,0.232846647655153,3.0572667209676583,-0.0037559466436505,0.006970593240112,-0.0661523565649986,0.3727838983386755,0.198041009735316,-9.87988007426262,14954.0
27.6,3.0,11.0,24.018089294433597,23.21122741699219,-79.78277451005891,40.459065551866686,289.5623271484376,0.0057871732860803,0.0215399768203496,0.9950940012931824,0.0963871851563453,0.0259926091751267,0.2307047671739434,3.0647865939640493,0.1072813272476196,0.0749793276190757,0.0797809213399887,0.4023135799169541,-0.0241268040658906,-9.88355563402176,14954.0
27.8,3.0,11.0,23.92293357849121,25.286640167236328,-79.78277456221237,40.45906532079104,290.19127726745614,0.0074211941100656,0.021380865946412,0.9950522184371948,0.0967416167259216,0.0412468741672927,0.2228032967531302,3.040302524902541,0.1248379424214363,0.0269244629889726,0.0393932126462459,0.3410381951183081,-0.1166618559882044,-9.701870364546776,14955.0
27.9,3.0999999046325684,12.0,24.010576248168945,22.424001693725582,-79.78277457894322,40.459065245047626,290.4959380645752,0.0064683556556701,0.0215937364846468,0.9950246214866638,0.0970468074083328,0.0190710846041146,0.211745538068666,3.0405595247890087,-0.0487362369894981,-0.0230235252529382,-0.1008603051304817,0.280052485037595,0.418866572342813,-9.762290813326835,14955.0
28.0,3.0999999046325684,9.0,23.861581802368164,26.686153411865234,-79.78277459354797,40.459065177334274,290.800055267334,0.006173426285386,0.0218914095312356,0.9950348138809204,0.0968935713171958,0.033555618320252,0.2044687365684054,3.0246079138145445,0.0708353742957115,0.0574963241815567,0.0391527786850929,0.2694684765301645,-0.0468576493486762,-9.66841961324215,14955.0
28.2,3.0999999046325684,8.0,24.0218448638916,22.91701316833496,-79.78277458802702,40.45906510222102,291.4170005340576,0.0099677201360464,0.0190543122589588,0.9951316118240356,0.0961804687976837,0.0235236694038182,0.184669751070366,3.010868716701001,-0.0433386266231536,0.0071017402224242,-0.0798654556274414,0.4041372899338603,0.1674039386026561,-9.744905871748925,14956.0
28.4,3.0999999046325684,7.0,23.90290069580078,25.41386985778809,-79.78277462963537,40.45906496990328,291.7333705444336,0.0118107385933399,0.018000554293394,0.9951431155204772,0.0960563123226165,0.0315071757262905,0.1824358071359044,2.990599933769287,-0.075671263039112,-0.0493236035108566,-0.0932484716176986,0.2619392362050712,0.331200108602643,-9.554498310685158,14956.0
28.5,3.0999999046325684,7.0,23.90290069580078,24.28471755981445,-79.78277462933988,40.45906485883297,292.3280150909424,0.008312027901411,0.0195053704082965,0.995097517967224,0.0965996161103248,0.0314003191039062,0.1827369096516966,2.9583554445564486,0.0443892478942871,-0.0660102590918541,0.0314111448824405,0.377523505166173,0.221908174585551,-9.68422171354294,14957.0
28.7,3.0999999046325684,7.0,23.835289001464844,27.12350082397461,-79.78277465908485,40.45906480633056,292.94835925292966,0.0059486799873411,0.0203873682767152,0.994986891746521,0.0977246761322021,0.0191419369364188,0.175843595053501,2.976945111154724,0.0754318758845329,0.0319986268877983,-0.0631720945239067,0.4778135593235493,0.0621919906698167,-9.81903277873993,14957.0
28.8,3.0999999046325684,7.0,23.88411903381348,26.42374420166016,-79.78277469294989,40.45906474207721,293.2621963043213,0.0064343041740357,0.0197237245738506,0.9949726462364196,0.097974769771099,0.011479563973281,0.1799792305383725,2.992644466588424,-0.0652949064970016,-0.0457776375114917,-0.0447671897709369,0.4268165198341013,0.0881789904646575,-9.848478187322618,14958.0
29.0,3.0999999046325684,8.0,23.90290069580078,25.04808807373047,-79.78277469412872,40.45906469247765,293.5620849151612,0.0068433796986937,0.0196322333067655,0.9949551224708556,0.0981428623199462,0.0150000462643444,0.1737724765882006,2.9997032399802026,0.0003656829358078,0.0310335550457239,0.1120179146528244,0.3637464418262243,0.0838061136938631,-9.907625112533571,14958.0
29.1,3.0999999046325684,9.0,23.9830322265625,24.276765823364247,-79.78277463458045,40.45906462398276,294.1712176818848,0.0065857283771038,0.0208433549851179,0.9949148297309875,0.0983197018504142,0.0201634715263457,0.1687300751957177,3.012295733762095,-0.0302811861038208,0.0450475700199604,0.0165205057710409,0.3798600159958005,-0.0256112705077976,-9.842729204893113,14959.0
29.3,3.0999999046325684,11.0,23.90665626525879,25.286640167236328,-79.78277469050933,40.45906450772512,294.77892565917966,0.0111366910859942,0.0215322319418191,0.9949849247932434,0.0970429033041,0.0375264949188827,0.1811903520054339,2.981445036357368,-0.0300751756876707,0.0102414293214678,-0.1179482713341713,0.387629613429308,0.273992321100086,-9.674176197052002,14959.0
29.4,3.0999999046325684,13.0,23.83153343200684,27.27458381652832,-79.78277469906325,40.4590644653816,295.07728457641605,0.0129580339416861,0.0217332690954208,0.9950733184814452,0.0958593785762786,0.0470440071088676,0.1817274652796132,2.977264171692824,-0.1185463368892669,-0.0295027196407318,-0.0312440320849418,0.3636359294503928,0.1257702282629907,-9.72297238111496,14960.0
29.5,3.0999999046325684,13.0,23.907907485961918,25.44567680358887,-79.78277470581223,40.459064425661786,295.3759391326905,0.0136849647387862,0.0223094262182712,0.9951594471931458,0.0947250500321388,0.0654677161290797,0.1792979519464853,2.988532881611252,0.0619306713342666,0.0209063775837421,-0.0622843764722347,0.4814066733419896,0.2676781139150262,-9.890934820175172,14960.0
29.7,3.0999999046325684,12.0,23.71384048461914,28.25265312194824,-79.7827748420858,40.45906432052493,295.9763743896485,0.0135738486424088,0.0246223602443933,0.9953394532203674,0.0922437906265258,0.0716936137421329,0.1737120471714861,2.9779463630594747,0.0183632634580135,0.1262600272893905,0.0308729037642478,0.4548454404249788,0.158826018422842,-9.850468579530718,14960.0
29.9,3.0999999046325684,13.0,23.97051048278809,24.03821182250977,-79.78277489044667,40.45906425612666,296.2798354644776,0.0156626049429178,0.0259007308632135,0.9953586459159852,0.0913510173559188,0.0680143717122682,0.186042736289814,2.9954257032078755,-0.1084954813122749,-0.0006578635657206,-0.0810769647359848,0.4298303209617734,0.1461775773391127,-9.944517534971238,14961.0
30.0,3.0,16.0,24.003063201904297,22.86134910583496,-79.78277487773788,40.45906423336338,296.88107943725583,0.0223841574043035,0.0282141640782356,0.9951924681663512,0.0910763815045356,0.0799334805472451,0.1666079229277418,2.988674032893748,-0.1003891304135322,0.0225508660078048,0.0137084471061825,0.3494065839797258,0.1486128695681691,-9.651836324930194,14961.0
30.2,3.0,17.0,23.964250564575195,24.65049934387207,-79.78277495904814,40.45906414222007,297.1792037506104,0.022955659776926,0.0280258357524871,0.995101809501648,0.0919781625270843,0.0999286179327883,0.1725511209215954,2.9479315900624736,0.0100491438060998,-0.0526632778346538,0.0043372600339353,0.3918915392830968,0.2813335186243057,-9.565572937130929,14962.0
30.3,3.0,17.0,23.83403778076172,25.81941032409668,-79.78277495385183,40.45906415312936,297.7815864105225,0.0182309616357088,0.0208496712148189,0.9951812624931335,0.0940591916441917,0.0654353918682415,0.1433059675012548,2.9709168097594336,0.0364415571093559,-0.0598429068922996,-0.1002705618739128,0.4820702592283487,0.4494066893309355,-9.916024053096772,14962.0
30.4,3.0,16.0,23.964250564575195,23.68833541870117,-79.78277489530777,40.45906416441653,298.08070254516605,0.0161292515695095,0.017795393243432,0.9952133297920228,0.0947299972176551,0.0413549569437727,0.1149236829450668,3.0030665757000268,-0.0440911389887332,-0.0590707063674926,0.0206176564097404,0.310500124655664,0.062521517816931,-10.022020039558411,14963.0
30.6,3.0,17.0,23.82652473449707,24.94471549987793,-79.78277488780407,40.45906417169403,298.6851718444824,0.0117511693388223,0.0212806314229965,0.9951403141021729,0.0954193994402885,0.0208376729991053,0.1100235650260624,2.974176624511605,0.0132811227813363,-0.0227895211428403,-0.0666351467370987,0.4466129262372852,0.3495656647905708,-9.695479942560194,14963.0
30.8,3.0,17.0,23.8365421295166,25.86712074279785,-79.78277482962578,40.45906417350079,298.9828917999268,0.0095670372247695,0.0217589847743511,0.9951820969581604,0.095119796693325,0.006671274756408,0.1175317794062093,2.9735949602093963,0.0396354049444198,0.0493782758712768,0.0132026523351669,0.4069020727649331,0.2344899208657444,-9.75932218194008,14963.0
30.9,3.0,19.0,23.901647567749023,24.82543754577637,-79.78277476690542,40.459064280762185,299.5917327423096,0.0093123437836766,0.021696014329791,0.9952644109725952,0.094293788075447,0.0063004059749463,0.111022910950611,3.0147188166885144,0.0176692362874746,0.005355717614293,-0.0429380387067794,0.5115840436890722,0.0335085108317434,-10.033671201467516,14964.0
31.1,3.0,19.0,23.74013328552246,26.98036956787109,-79.78277461689778,40.45906432414275,300.1981074829102,0.0111619411036372,0.0227690413594245,0.9952622652053832,0.0938613563776016,-0.0105128376238182,0.1083572065455364,3.008048646992996,-0.1802938729524612,-0.0443500876426696,-0.0710072442889213,0.5006674747914076,0.2732590437121689,-9.81810424089432,14965.0
31.2,3.0,17.0,23.844053268432607,24.97652244567871,-79.78277455305691,40.45906434613738,300.49968600463865,0.0126736033707857,0.0238170232623815,0.9951919913291932,0.0941546708345413,0.0025020080336499,0.1093300143993286,3.0175396747004988,-0.0118649210780859,0.0442184694111347,0.0969938710331916,0.4996597071737051,0.0901374331209808,-9.885037318468097,14965.0
31.3,3.0,15.0,23.94296646118164,25.21507453918457,-79.78277458432434,40.45906433086417,300.8058917541504,0.0138293821364641,0.0244958121329546,0.995133340358734,0.0944371148943901,0.0213490437447106,0.1234357324229283,3.009171905284824,0.0519163347780704,-0.0066077229566872,0.0334852412343025,0.5229206253960729,0.018513509016484,-9.77213869392872,14965.0
31.5,3.0999999046325684,12.0,23.85281753540039,24.96061897277832,-79.78277443921223,40.459064374837325,301.40594363403324,0.0102544138208031,0.025510024279356,0.995056927204132,0.0954252406954765,-0.0031975289170268,0.1152234613654296,2.9917510686182944,0.0193919986486434,0.0158057287335395,-0.1041584536433219,0.4522008544206619,0.2260408038832248,-9.73395462155342,14966.0
31.7,3.0999999046325684,10.0,23.844053268432607,25.7876033782959,-79.78277430381354,40.45906447257859,301.7158381958008,0.0073333401232957,0.0253200083971023,0.9950639009475708,0.0956717655062675,-0.0343608974900551,0.0943306962798549,2.981881934294349,0.0089998673647642,-0.0524236522614955,-0.0561071075499057,0.3611845208331943,0.3175500394776464,-9.630667065382005,14966.0
31.8,3.2000000476837163,8.0,23.81150054931641,25.95458984375,-79.78277417676114,40.45906445900157,302.32566142272947,0.0026546295266598,0.02199780754745,0.9950933456420898,0.0964274629950523,-0.0291704554384573,0.0881959952017832,2.9505237059346228,0.0999928787350654,-0.0419927909970283,0.077006883919239,0.5192293877899647,-0.0458050683047622,-9.690237913727762,14967.0
32.0,3.2000000476837163,7.0,23.768930435180664,25.779651641845703,-79.78277404490173,40.45906453861401,302.91607546997074,0.0034218395594507,0.0196755770593881,0.9950257539749146,0.0975955799221992,-0.0299161711440401,0.0692693077256867,2.947168876457811,0.0555472075939178,0.0766038298606872,0.1204210892319679,0.4203241735696793,-0.1322863379772752,-9.765747687220571,14967.0
32.11,3.2000000476837163,8.0,23.78896331787109,26.29651641845703,-79.78277426100951,40.45906449187757,303.22251010131833,0.0041932519525289,0.0193840991705656,0.9950289130210876,0.0975919961929321,-0.0088848232980096,0.1052433754889084,2.9625044272344554,-0.0803055763244628,-0.0922003611922264,-0.0559185929596424,0.3972550805658102,0.027892040926963,-9.81374221801758,14968.0
32.3,3.299999952316284,7.0,23.827777862548828,25.70013236999512,-79.78277430442388,40.459064518239344,303.8243320007324,0.0052123228088021,0.0216885823756456,0.9951648712158204,0.0956525057554245,0.0058225014574282,0.1078152961593354,2.9858390070298,-0.1464034467935562,-0.0309399031102657,-0.0725597664713859,0.3472148648276925,0.2202488444186747,-9.876813794374469,14968.0
32.4,3.299999952316284,5.0,23.75015068054199,28.682048797607425,-79.78277430271906,40.45906452915829,304.12288928222665,0.0057392031885683,0.0239059813320636,0.9952081441879272,0.0946385189890861,0.0414977429073619,0.1204229058440769,2.980170317810863,0.2017057836055756,0.1007722988724708,0.1158447340130806,0.5716771214827896,-0.239844070058316,-9.847010536193848,14969.0
32.6,3.299999952316284,2.0,23.877859115600582,25.03218460083008,-79.78277441543763,40.45906451030698,304.72941851806644,0.006021121982485,0.0221505146473646,0.9953293204307556,0.0937690585851669,0.0338697055373694,0.1405096115848405,3.0039787657451336,-0.0174822900444269,-0.0141204819083213,0.009472626261413,0.3589474857598544,0.1152895967010408,-9.838699303865427,14969.0
32.7,3.299999952316284,1.0,23.632457733154297,28.30831527709961,-79.78277442942081,40.459064515218415,305.02950930786136,0.005718064494431,0.0216650292277336,0.9953628778457642,0.0935451537370681,0.0419247438258651,0.1360082476556875,2.9963066896573243,0.0112900715321302,-0.0391522534191608,-0.0217365063726902,0.5096579708531499,-0.0717880755476653,-9.774726086854937,14970.0
32.9,3.299999952316284,2.0,23.829029083251957,25.175315856933597,-79.78277428425353,40.45906461765104,305.64076876831064,0.004695997107774,0.0196876917034387,0.9954051971435548,0.0935890898108482,0.019790100500978,0.1060177414160975,3.018245780564944,0.0714099109172821,0.0365195982158184,0.1446285992860794,0.4357716036960483,-0.1246252703480422,-9.867128466367722,14970.0
33.1,3.299999952316284,1.0,23.88912773132324,24.03026008605957,-79.78277429484537,40.45906465741057,306.2530848999024,0.0048836776986718,0.0201038587838411,0.9953834414482116,0.0937223061919212,0.0278787790571536,0.096217700447603,3.0345711033539886,0.143700435757637,0.0870891883969307,0.1543967425823211,0.4067059352248907,-0.0544828845094889,-9.906932802200318,14971.0
33.2,3.2000000476837163,0.0,23.71384048461914,26.86109161376953,-79.78277428977627,40.459064676211405,306.5566394348145,0.0047951941378414,0.0211065988987684,0.995350182056427,0.0938592702150344,0.0148203037768917,0.1043919957941566,3.0324376114532217,-0.0752964466810226,0.0187437143176794,-0.096051774919033,0.4680233468860388,0.1944026528857649,-9.802629584670068,14971.0
33.3,3.2000000476837163,359.0,23.88912773132324,24.26086235046387,-79.78277436138609,40.45906467469021,306.8676288146973,0.0039626918733119,0.0207497105002403,0.9953044056892396,0.0944611579179763,0.0152957391340543,0.1184111990248992,3.0262616257426296,-0.0731783434748649,-0.0632793456315994,-0.0402669571340084,0.3405547765642405,0.2633370861969888,-9.779869882464409,14971.0
33.5,3.2000000476837163,359.0,23.78019905090332,26.73386383056641,-79.78277437613629,40.45906469322698,307.47166323852537,0.0042881025001406,0.0179213136434555,0.99521803855896,0.0959249958395958,0.0171961793406638,0.1119268046713062,3.0116721803924325,-0.040649302303791,-0.0532998815178871,-0.0928866788744926,0.3500097973644733,0.2481354401260614,-9.715683242082596,14972.0
33.6,3.2000000476837163,0.0,23.87911033630371,23.441829681396484,-79.78277439746894,40.45906472427475,307.7861621398926,0.0031183925457298,0.0168901160359382,0.995252013206482,0.0958051010966301,0.0275056434235626,0.1006259753921325,3.022925269768533,0.02951530367136,0.0267233662307262,0.0479821749031543,0.351848929412663,-0.0237564788851887,-9.871253092288972,14972.0
33.8,3.2000000476837163,1.0,23.798980712890625,23.72809410095215,-79.78277443773581,40.45906483856243,308.4064013977051,0.0021948833018541,0.0185613874346017,0.995354413986206,0.0944480970501899,0.0382063491886057,0.0817697207712268,3.0286323072986203,0.1451077163219452,0.1182747408747673,0.1024780869483947,0.3942092659324408,-0.1795869778655469,-9.80563797712326,14973.0
34.01,3.0999999046325684,2.0,23.91416931152344,23.489540100097656,-79.7827744938365,40.4590648836306,309.0096347351074,0.004545054398477,0.0201001241803169,0.9954417943954468,0.0931178927421569,0.0451168256033916,0.0999395379982649,2.9984486803981163,0.0236255694180727,0.0126262297853827,0.1266751140356063,0.3805904063209892,-0.1070600518025458,-9.70588623225689,14974.0
34.1,3.0999999046325684,3.0,23.69756317138672,27.29048728942871,-79.78277455001412,40.45906491468053,309.3219935913086,0.0068929828703403,0.0193774215877056,0.9954453110694884,0.0930900648236274,0.0560557981651309,0.1000568819282549,3.002753331958265,-0.0577777214348316,-0.0757560208439827,0.0178480260074138,0.4144451636821032,0.0908677503559738,-9.760700370669364,14974.0
34.3,3.0999999046325684,2.0,23.88286781311035,22.821590423583984,-79.78277459503984,40.459064944190985,309.6230762023926,0.0087046334519982,0.0189716722816228,0.99539452791214,0.0935637503862381,0.0798748978426205,0.0955677686123422,3.0178919108594835,0.0816529691219329,0.0730332434177398,-0.0081604300066828,0.4739880550280214,0.1974331003054976,-9.924297863245007,14974.0
34.4,3.0,3.0,23.688798904418945,26.84518814086914,-79.7827747663464,40.45906496646258,310.24648165893564,0.0079563111066818,0.0182978473603725,0.9952697157859802,0.0950796976685524,0.0957507896897251,0.1015730844570328,3.027124992179876,0.0224569477140903,-0.0407633557915687,-0.0567930042743682,0.4045685586333275,0.2273437645286321,-9.753322353959083,14975.0
34.6,3.0,3.0,23.732622146606445,25.946638107299805,-79.78277483805077,40.45906501911529,310.8680598754883,0.0092855719849467,0.0175259411334991,0.9951331615447998,0.0965230464935302,0.0700492180086769,0.1030415824369236,3.0275917347186647,-0.0471375696361064,-0.0040623359382152,0.0243622325360775,0.3597299163043499,0.1139080823678523,-9.715270428657533,14975.0
34.7,3.0999999046325684,5.0,23.76767921447754,26.95651435852051,-79.78277487358196,40.45906503132141,311.1711413879395,0.0090496856719255,0.0161795988678932,0.9951464533805848,0.0966437757015228,0.0797803158603769,0.1094163969041045,3.0299473228247766,-0.0019376948475837,-0.0873648598790168,0.010772705078125,0.3950904413312673,-0.03582568930462,-9.779878068566322,14976.0
34.8,3.0999999046325684,5.0,23.77393913269043,25.52519416809082,-79.78277495524006,40.45906503479216,311.48739505004886,0.007518499623984,0.0156775247305631,0.9951744675636292,0.0965687781572342,0.0761362295067358,0.1019429269907588,3.0407284139917463,0.0894487723708152,0.0509305745363235,-0.008087414316833,0.3837297764047981,0.2759663228318095,-9.838917989730836,14976.0
35.0,3.0999999046325684,5.0,23.881614685058597,25.000377655029297,-79.7827750302293,40.45906503101008,312.0975596923828,0.006509331986308,0.0163165982812643,0.9952681064605712,0.0955663621425628,0.0674247550188844,0.1151190288360711,3.0570111734269543,0.0808826237916946,0.023038413375616,0.0243102237582206,0.3770120930671692,-0.0258484207838773,-9.871965283155443,14977.0
35.09,3.0999999046325684,5.0,23.8077449798584,25.27868843078613,-79.78277510741948,40.45906505136864,312.41404605102537,0.006777448579669,0.0176318939775228,0.9953023195266724,0.0949562638998031,0.0530757912581051,0.1221568804543392,3.046802657200128,-0.0784116238355636,-0.0065437913872301,-0.0311719439923763,0.4072391282021999,0.1175029779598117,-9.74307978630066,14977.0
35.3,3.0999999046325684,6.0,23.86659049987793,24.29266929626465,-79.78277527195281,40.4590650264819,313.0369555969238,0.0073490450158715,0.0198791958391666,0.9953382015228271,0.0940884351730346,0.0560748951541592,0.1494808904474149,3.010205401067485,-0.1171552091836929,-0.0626235604286193,-0.0393019318580627,0.2532276706025004,0.0706468817777931,-9.53135853946209,14978.0
35.5,3.0999999046325684,7.0,23.70632743835449,26.04205894470215,-79.78277531303063,40.45906500303048,313.3369815368652,0.0077580204233527,0.0209476146847009,0.9953483939170836,0.0937163904309272,0.0712473985963312,0.1533202532726409,2.9858877728706683,0.0880760103464126,0.0442789308726787,-0.0130286226049065,0.4360341071337462,-0.0119781126268208,-9.61556546151638,14978.0
35.6,3.0999999046325684,6.0,23.93044471740723,22.7977352142334,-79.78277551236434,40.459064938861935,313.9588229675293,0.0081873135641217,0.020943496376276,0.9954010844230652,0.0931189954280853,0.0809335433933959,0.1760659800800172,3.014174591175044,0.0782466679811477,0.0356515161693096,0.0326975621283054,0.5412366995215416,-0.0274279730021953,-9.854250558614732,14978.0
35.8,3.0999999046325684,5.0,23.84280204772949,24.23700714111328,-79.78277560341259,40.459064962156624,314.5793063659668,0.0081902146339416,0.0196007471531629,0.9953806400299072,0.0936276465654373,0.0759865962695596,0.1672453707476616,3.0039126824285183,0.174566313624382,-0.0142072606831789,0.1377298235893249,0.5385692362859845,-0.1359533735923469,-9.774293977618216,14979.0
35.9,3.2000000476837163,3.0,23.670019149780277,25.83531379699707,-79.78277563518142,40.45906493234021,314.88037753295896,0.0081549054011702,0.0189922787249088,0.9953597187995912,0.0939780846238136,0.0477599293478978,0.1656832921458659,3.007794226333527,-0.0538483709096908,-0.0619962513446807,0.0100158248096704,0.4336997159197927,0.1765509938634932,-9.785881989598275,14979.0
36.0,3.2000000476837163,2.0,23.74138641357422,25.88302421569824,-79.78277566008003,40.4590648991357,315.1826884765625,0.0089471908286213,0.0195831358432769,0.9953227639198304,0.0941765159368515,0.0585716840478425,0.1639038274032868,3.0250560949871703,0.0669024065136909,0.073761947453022,0.0960132479667663,0.4970073370635511,-0.0645901165343821,-9.935132753849029,14980.0
36.2,3.2000000476837163,1.0,23.802736282348643,23.51339530944824,-79.78277590102351,40.45906483512498,315.8019816894532,0.0078920759260654,0.0213271901011466,0.9952577352523804,0.0945780426263809,0.069617571950344,0.1861802485640461,3.04410731362504,0.1223817989230156,0.0796044245362281,0.19190314412117,0.4680973507091403,-0.0584256346151232,-9.91416931629181,14980.0
36.4,3.2000000476837163,0.0,23.755157470703125,24.403993606567383,-79.78277596569605,40.45906477435096,316.4182689208985,0.0085367625579237,0.0238217376172542,0.9952174425125122,0.0943502485752105,0.059151136765337,0.1892504351973318,3.034188920800969,0.0982623249292373,0.0664510875940322,0.1051478907465934,0.4574872124567628,-0.1212036533374339,-9.789949897527697,14981.0
36.5,3.2000000476837163,2.0,23.83779335021973,24.42784881591797,-79.78277598473112,40.45906473620282,316.72228503417966,0.0082904798910021,0.0239631254225969,0.9952580332756042,0.093907207250595,0.0442868617497714,0.1968669007817293,3.0287933831763176,-0.0430254936218261,-0.1041804924607276,-0.0363509394228458,0.4891678288578987,-0.0010306813940405,-9.706939900517462,14981.0
36.59,3.2000000476837163,2.0,23.67252349853516,26.07386589050293,-79.78277604396983,40.45906470160271,317.0320155639649,0.0085407802835106,0.0240424573421478,0.9952771663665771,0.0936609953641891,0.051794503651517,0.1853948632305154,3.0042182353015887,0.0962499678134918,0.03904540091753,0.1039692610502243,0.4775316869840026,-0.0159065096452832,-9.66548080265522,14982.0
36.8,3.299999952316284,1.0,23.765174865722656,24.22110366821289,-79.78277617784886,40.4590645592066,317.6463153381348,0.0080847423523664,0.0233778208494186,0.9953048229217528,0.0935761407017707,0.0629237356233565,0.1966319829816383,3.011480043081012,0.1161963567137718,0.0435497649013996,0.1365398615598678,0.4406985772401095,-0.1206119242496788,-9.82894497871399,14982.0
37.0,3.299999952316284,1.0,23.690052032470703,26.14543342590332,-79.7827762013596,40.45906452323453,317.94842410278324,0.0075706075876951,0.0235817953944206,0.9952953457832336,0.0936692655086517,0.0458688777905535,0.1909178693892432,3.0138098411762035,-0.0284905470907688,-0.0941761136054992,0.0162755753844976,0.4269132912531495,0.0300077462755143,-9.766237099170686,14982.0
37.1,3.299999952316284,0.0,23.798980712890625,24.73796844482422,-79.78277622168629,40.459064422139534,318.55815386962894,0.0079386299476027,0.0227766651660204,0.99534010887146,0.0933615565299987,0.0179722273651765,0.1902393486373016,3.0027310554262736,-0.172439619898796,-0.1291355192661285,-0.0082401586696505,0.3814620434492825,0.2339533657394349,-9.727782885432244,14983.0
37.3,3.299999952316284,1.0,23.81275177001953,24.57098197937012,-79.78277633733803,40.45906435782928,319.16076922607425,0.008962009102106,0.0216259770095348,0.9954068660736084,0.0928296223282814,0.0393333454573947,0.1769382640420686,3.0076119088027538,-0.0877140462398529,-0.1222764775156974,0.0082122515887022,0.4653947310894728,0.120626862058416,-9.892939245700836,14984.0
37.4,3.2000000476837163,2.0,23.821516036987305,24.41989707946777,-79.78277635532288,40.459064330948976,319.4623820800782,0.009209263138473,0.0205749329179525,0.9954342246055604,0.0927499085664749,0.0531150670614465,0.1666689257149866,3.0123034182793336,0.0345391407608985,0.0232292469590902,0.039327573031187,0.4461100656911731,0.1361269171256572,-9.880556012392043,14984.0
37.5,3.2000000476837163,2.0,23.69505882263184,26.33627510070801,-79.7827763700991,40.4590643052077,319.76376986694333,0.0093252277001738,0.0210192799568176,0.9954367280006408,0.0926121771335601,0.0399147472777486,0.1629805503330294,3.007595147365235,-0.1470396220684051,-0.116022303700447,0.0275155510753393,0.3569726252183318,0.1569255271553993,-9.762605978250503,14984.0
37.69,3.299999952316284,2.0,23.63120460510254,27.33024787902832,-79.78277640068417,40.45906418063982,320.37204623413083,0.0089121107012033,0.0225114673376083,0.9953526258468628,0.0932042747735977,0.0291525725988344,0.1729649473550331,3.005361490619332,-0.0683382228016853,-0.0143754323944449,0.0801493823528289,0.4239859558269381,0.0997337646782398,-9.749668428897856,14985.0
37.9,3.299999952316284,3.0,23.85657501220703,24.08592414855957,-79.78277643583135,40.4590641013269,320.6755511779785,0.0095277018845081,0.0232826881110668,0.9953080415725708,0.0934297814965248,0.0428173815172289,0.1807449061101594,3.0062741411487264,0.0484343208372592,0.077774554491043,0.1010688245296478,0.492147643044591,0.037382901047822,-9.869435777664185,14985.0
38.0,3.299999952316284,4.0,23.795223236083984,24.61074066162109,-79.78277644298929,40.45906403012132,321.2817065734864,0.0091792736202478,0.0218445863574743,0.9953404664993286,0.093467116355896,0.034017765699467,0.1762707024121207,3.0211046287675165,-0.0014245444908738,0.0159115325659513,-0.079444907605648,0.3557924743741751,0.2283768213540316,-9.693856170773506,14986.0
38.2,3.299999952316284,4.0,23.670019149780277,26.43964767456055,-79.78277648111356,40.459063909410645,321.88625216674814,0.0107768252491951,0.0218698848038911,0.9953085780143738,0.0936290696263313,0.0364613468314342,0.1818953886032229,3.025190966837793,0.0069551789201796,0.0351200588047504,-0.1217850148677826,0.4835641497373581,0.2505690512806177,-9.960959905385971,14986.0
38.3,3.299999952316284,3.0,23.80023193359375,24.70616149902344,-79.78277657381675,40.45906380750836,322.19117236328134,0.0111922165378928,0.0229966025799512,0.995265781879425,0.0937653183937072,0.0493207762721109,0.1828672875047244,3.0391180277928305,0.0564893223345279,0.055683858692646,0.0140201384201645,0.4400978123769164,0.0219812093954533,-9.96980323433876,14987.0
38.5,3.299999952316284,3.0,23.65123748779297,26.19314384460449,-79.78277657233154,40.45906376323568,322.4953944702149,0.0105548724532127,0.0245558768510818,0.9952096939086914,0.0940394476056099,0.0250613625947463,0.1955811561718744,3.0310716312836363,-0.0934752374887466,-0.0511323437094688,-0.1265042424201965,0.4578518594428897,0.475532852858305,-9.736632646322253,14987.0
38.6,3.400000095367432,2.0,23.738882064819336,24.61074066162109,-79.78277659048084,40.45906364393135,323.1043651123046,0.0074449670501053,0.0258085038512945,0.9951903223991394,0.0942060425877571,0.0232459396404753,0.2027382890549456,3.018160360483777,0.0563960187137126,-0.0120836719870567,-0.0731668472290039,0.4702012885361911,0.1678050393238663,-9.782935577630996,14988.0
38.8,3.400000095367432,2.0,23.61367607116699,27.17121124267578,-79.78277662998666,40.45906346139461,323.712710144043,0.0073761749081313,0.0275396443903446,0.9951894283294678,0.0937295854091644,0.0009507552167232,0.2109016921219685,2.9825923270315875,-0.0964477062225341,0.0241073109209537,-0.0105526465922594,0.4964489279687405,0.1450981265120208,-9.555532098412517,14988.0
38.89,3.5,3.0,23.78520774841309,24.316524505615234,-79.78277661637205,40.459063414909366,324.0112483520508,0.0096246842294931,0.0279475320130586,0.99522066116333,0.0930715873837471,0.0006431256302212,0.2141446337339806,2.9783773638873736,-0.1304172873497009,-0.0753493010997772,-0.0039672232232987,0.4734964503720403,0.1055026276409626,-9.727937836647037,14989.0
39.0,3.5,2.0,23.722604751586918,25.88302421569824,-79.78277660140083,40.459063370203,324.3091266174317,0.0112523017451167,0.0281860623508691,0.99524188041687,0.092588186264038,0.037586879165224,0.2110515593005652,2.9637848453058497,0.189210832118988,0.088177315890789,0.1238788738846778,0.5629796440154314,-0.0294511644355952,-9.715806033611296,14989.0
39.2,3.5,2.0,23.690052032470703,25.962541580200195,-79.78277658376348,40.459063289897045,324.90288424682615,0.0093162450939416,0.0269218292087316,0.9953194856643676,0.0923444777727127,0.0356887175462015,0.2047174088682731,2.989816261256593,0.1113871708512306,0.1053211241960525,-0.0089257657527923,0.6692995662242175,0.1771066438034177,-9.908651883602143,14989.0
39.3,3.5999999046325684,2.0,23.74514198303223,24.88905143737793,-79.78277662455494,40.45906323323039,325.2068812866211,0.0081956414505839,0.027286285534501,0.995324432849884,0.0922914519906044,0.0157572320290288,0.1982568918598076,2.99308907960944,-0.1386057883501052,-0.0558355636894702,-0.0584846436977386,0.4888813883811236,0.1899561377428472,-9.770381020903589,14990.0
39.5,3.5999999046325684,4.0,23.60491180419922,26.240854263305664,-79.78277661078363,40.45906318906722,325.8009822387696,0.0075902338139712,0.0309787783771753,0.9951447248458862,0.0931115597486496,0.014870812221963,0.1934398024690396,2.933396795807881,-0.0586998090147972,0.0532876029610633,0.0552848242223262,0.5176872212067247,0.0304268865706399,-9.546590536236764,14990.0
39.7,3.5999999046325684,3.0,23.5886344909668,26.805429458618164,-79.78277669223829,40.45906309448429,326.4022967834473,0.0109164658933877,0.0303266234695911,0.9950611591339112,0.0938855335116386,0.0382935942326004,0.1977468611670624,2.928071584730037,0.0610064603388309,0.0849671512842178,0.1016416102647781,0.4803677693009377,0.0381956754438579,-9.64028222680092,14991.0
39.8,3.5999999046325684,3.0,23.69505882263184,26.60663604736328,-79.78277663459265,40.45906308802053,326.7083270568848,0.012211606837809,0.0293731391429901,0.9950486421585084,0.0941609963774681,0.0227805263941421,0.180419538232971,2.9521184494670285,-0.0495973862707614,0.0353073999285697,-0.2338907271623611,0.6375143212080002,0.4062855569645761,-9.807894417643547,14991.0
40.0,3.5999999046325684,3.0,23.670019149780277,26.837236404418945,-79.78277660862732,40.45906309066358,327.0045573730468,0.0120128141716122,0.0281257759779691,0.9951121807098388,0.0938963890075683,0.0268864475064662,0.1697538216739247,2.9643773196013337,-0.0589498616755008,-0.0642914324998855,0.0702600926160812,0.4532605160772801,0.0043022716417908,-9.846048084497452,14992.0
40.1,3.5999999046325684,4.0,23.849061965942383,22.400146484375,-79.78277657649272,40.45906306711661,327.59982943725583,0.0101807145401835,0.028765020892024,0.9951378107070924,0.0936470702290535,0.0183579755075541,0.1585637853669399,2.9397558359452165,-0.0195080358535051,-0.0554002523422241,-0.1883108019828796,0.5772039462625981,0.3584586585313082,-9.717335080504418,14992.0
40.3,3.5999999046325684,5.0,23.616180419921875,25.92278289794922,-79.78277655720011,40.459063035745714,328.1956660766602,0.0086451675742864,0.0279905200004577,0.9951803088188172,0.0935839042067527,0.0215795613501886,0.1454350289363707,2.924335156822325,0.1130351200699806,0.1250032037496566,0.1649689227342605,0.5547663160040975,-0.0334925040788948,-9.726121106743811,14993.0
40.4,3.5999999046325684,6.0,23.728864669799805,25.35820770263672,-79.78277652315867,40.4590630497865,328.4892947692872,0.0080386316403746,0.0271190982311964,0.9952371716499328,0.093290276825428,-0.0027706647275928,0.1498867556026421,2.9396667510347307,-0.1444098651409149,-0.064363807439804,-0.140882208943367,0.5535087260976435,0.3119633172824979,-9.843160729408265,14993.0
40.6,3.700000047683716,5.0,23.85907745361328,22.169546127319336,-79.78277649236945,40.45906300521968,329.08541369628915,0.0086115431040525,0.0259466897696256,0.9952651858329772,0.0932736322283744,0.0058578700293698,0.14523080683791,2.962054147193666,-0.0711373537778854,-0.0778252631425857,-0.0811489447951316,0.5314205766096711,0.1953742774017156,-9.856046823263169,14994.0
40.7,3.700000047683716,5.0,23.646228790283203,25.3900146484375,-79.78277646764582,40.459063012620646,329.38098406982425,0.0095840003341436,0.0250596385449171,0.9952544569969176,0.0935345143079757,0.0244298558769238,0.143492163095701,2.9456234358897344,0.0410070344805717,0.0332291796803474,0.1058113202452659,0.4759693840518594,0.0328534856345504,-9.726492989659311,14994.0
40.8,3.700000047683716,4.0,23.54857063293457,26.908802032470703,-79.7827764752321,40.45906302253369,329.67892337036136,0.0092818709090352,0.0254569444805383,0.9952033162117004,0.0940007418394088,0.0179634688120601,0.1344069055191714,2.9579973789377214,-0.0299110282212495,0.0863194316625595,-0.0816638395190239,0.5847489740699531,0.3349774464592338,-9.866489950418472,14994.0
41.0,3.799999952316284,4.0,23.73011779785156,24.9924259185791,-79.7827764277939,40.459063029722095,330.2752940673828,0.0066440738737583,0.0270885359495878,0.995177447795868,0.0940431281924247,0.0201688064531448,0.1515499168053955,2.978768424740074,0.0850875005125999,0.0996259748935699,0.1427539438009262,0.5562320667877794,0.0170588074147235,-9.823193657398225,14995.0
41.2,3.799999952316284,3.0,23.64748191833496,26.86904335021973,-79.78277646297059,40.459062965237926,330.57000613403324,0.0060681938193738,0.0285118799656629,0.9951728582382202,0.093708798289299,0.0178683213494893,0.1698817526334912,2.952457878946786,0.0514020137488842,0.0210722889751195,-0.1329675465822219,0.5868075228855014,0.1559501384943723,-9.674749224185945,14995.0
41.3,3.799999952316284,2.0,23.85907745361328,23.82351493835449,-79.78277646071098,40.459062880223456,331.1638553161621,0.0079615721479058,0.0290321744978427,0.9952006936073304,0.0931101366877555,0.005997010451648,0.1925789887798162,2.956129364957352,-0.0478018075227737,0.0387013703584671,-0.1512509882450103,0.6657092296332121,0.3152516817301512,-9.824856605529783,14996.0
41.5,3.900000095367432,4.0,23.54481315612793,27.163259506225582,-79.78277644669477,40.45906285598942,331.75087619018564,0.009915392845869,0.0310644190758466,0.9951704740524292,0.0925885140895843,0.0232936073539504,0.1941316357549007,2.9117498948956366,-0.0827081501483917,-0.0363101735711097,0.0292708240449428,0.525774541720748,0.0386164739727974,-9.676056661605836,14996.0
41.6,3.900000095367432,3.0,23.75140190124512,24.077970504760746,-79.78277650540467,40.45906278749131,332.0495021362305,0.0106621934100985,0.0305193476378917,0.9951642751693726,0.0927526205778122,0.0349877433402857,0.2038354453025965,2.945401852456601,-0.0592034012079238,-0.0433872677385807,-0.2300347089767456,0.5647141109034419,0.2815561696328222,-9.950675822496414,14997.0
41.7,3.900000095367432,3.0,23.658750534057607,26.185192108154297,-79.78277649913706,40.45906277743442,332.3450610656738,0.0112419743090868,0.03071716055274,0.9951441287994384,0.0928354263305664,0.044549353224681,0.1905030664099892,2.9484087143007414,0.0687717646360397,0.0115112606436014,0.0676043555140495,0.5064913015812635,-0.050593983605504,-9.857501610517502,14997.0
41.9,3.900000095367432,2.0,23.67377471923828,25.914831161499023,-79.78277647799908,40.45906269396261,332.9351718444824,0.0099001731723546,0.0323516838252544,0.9951238632202148,0.0926496982574462,0.0183993411494423,0.1977906871674544,2.933245698617517,-0.0611763596534729,-0.0475805029273033,0.0918161198496818,0.6192981979250908,0.1108273763023316,-9.666920971870423,14997.0
42.1,4.0,1.0,23.582374572753903,27.17121124267578,-79.78277645856029,40.45906268695241,333.22819781494144,0.0092011531814932,0.0318699814379215,0.9951375126838684,0.0927413403987884,0.0293917720467468,0.196548084265333,2.9195949361504536,0.1014506891369819,0.0379250720143318,0.1788964420557022,0.5932170579582453,-0.1052286124974489,-9.743900735378269,14998.0
42.2,4.0,1.0,23.702571868896484,25.040136337280277,-79.78277653008439,40.4590626402879,333.8246600646973,0.008394674398005,0.0285924673080444,0.9952521324157716,0.0926566570997238,0.0266411375815486,0.1818891055619219,3.01548693750126,0.0403866060078144,0.0318171717226505,0.0251657273620367,0.6588518343865872,0.2176743153668939,-10.214627323150635,14998.0
42.4,3.900000095367432,1.0,23.696311950683597,25.270736694335927,-79.78277657257188,40.45906258454126,334.4223811645508,0.0093368897214531,0.0329419039189815,0.9951515197753906,0.0922015309333801,0.0412462490799299,0.185910676165753,2.9821465322127585,0.0955636501312256,0.1331206858158111,0.0739226415753364,0.6889032337814571,0.0251346036605536,-9.654326069355012,14999.0
42.5,3.900000095367432,2.0,23.46718597412109,28.682048797607425,-79.7827765693165,40.45906258103079,334.71996569824216,0.010636743158102,0.0344282649457454,0.9951059818267822,0.0920092388987541,0.0360134322851991,0.2035998647421865,2.95996940290465,0.0003319403331261,-0.0249912329018116,-0.0341980792582035,0.6375244076550007,0.1483996654674411,-9.628967864513395,14999.0
42.7,3.900000095367432,2.0,23.559837341308597,26.01820373535156,-79.78277661918679,40.459062499274495,335.0146739501953,0.0118110375478863,0.0336342751979827,0.9951168298721312,0.0920424908399582,0.051276260960743,0.2117182655233004,2.97562770774514,0.062600053846836,0.0411802977323532,0.0211379304528236,0.7351922779530287,0.0313849779800511,-10.00849776864052,15000.0
42.8,3.900000095367432,2.0,23.83153343200684,22.88520622253418,-79.78277658919484,40.45906246564272,335.61291003417966,0.012247696518898,0.0324057526886463,0.995069682598114,0.0929309800267219,0.0574603624832355,0.1863213266713823,3.038951419171868,0.1051931753754615,0.0605891868472099,0.0905312597751617,0.6186419210582972,0.1835052884370088,-10.057434285879136,15000.0
43.0,4.0,2.0,23.46217918395996,28.53096389770508,-79.78277655615796,40.45906249331422,336.2177226562501,0.0096621932461857,0.0338039062917232,0.9949489235877992,0.0940244644880294,0.0407249492335281,0.188032651197128,2.9865096632329067,0.0639212727546691,0.0668142661452293,-0.1198849156498909,0.768228315487504,0.2289125359430909,-9.582169089317322,15001.0
43.09,4.0,1.0,23.748897552490234,22.82954216003418,-79.78277661237037,40.45906245709737,336.51360583496086,0.0081452224403619,0.0333468280732631,0.9949678778648376,0.0941309481859207,0.0302490924665144,0.193702702419642,2.9858913586889653,-0.0344446934759616,-0.0671251565217971,-0.0762055814266204,0.5254364995658398,0.2654772584885359,-9.757542874217034,15001.0
43.3,4.0,4.0,23.79397201538086,23.38616752624512,-79.78277660710697,40.45906247232871,336.81286883544925,0.008265946060419,0.0324590057134628,0.9950410723686218,0.0936562046408653,0.0451495966804938,0.1866365654708097,2.982699017589824,0.1111284717917442,0.0328312665224075,-0.0022188597358763,0.7495756244659424,-0.0098229933902621,-9.74186298072338,15001.0
43.4,4.0,4.0,23.50224304199219,29.15915489196777,-79.78277661777469,40.45906243120579,337.4087855834961,0.0099898735061287,0.0345779582858085,0.9950411319732666,0.0927243083715438,0.038580594096626,0.1767991147759758,2.9066515965437403,-0.0568912401795387,-0.0259260516613721,0.0245647765696048,0.5524818453937769,0.1448469429183751,-9.315303336381913,15002.0
43.5,4.0,5.0,23.569854736328125,27.07579040527344,-79.78277662506406,40.459062450570265,337.6994197387696,0.0109063582494854,0.0335630998015403,0.995109796524048,0.0922560319304466,0.0489630660736085,0.1867674785858617,2.9056097161471333,-0.0755405128002166,-0.0383220128715038,-0.155996173620224,0.7143060236424208,0.2752527615241706,-9.722910400629042,15002.0
43.7,4.0,3.0,23.46343040466309,28.713855743408203,-79.78277663942532,40.45906247269157,338.3076198120117,0.0095691392198205,0.0312630757689476,0.9952054619789124,0.0921802818775177,0.065103661596119,0.1651054256517244,2.969970616343637,0.0659183710813522,0.0262741483747959,-0.0305521041154861,0.6598762665688992,-0.047009951043874,-9.934267365932463,15003.0
43.9,4.0,4.0,23.796476364135746,23.091951370239247,-79.78277666903816,40.45906248619881,338.9126918334961,0.0114410202950239,0.0317078568041324,0.9951311945915222,0.0926155596971511,0.0637944297594548,0.1593055461276174,3.026035208126787,-0.0123056657612323,0.0730188712477684,-0.0288723558187484,0.5868798090890051,0.0556428350508213,-9.942985564470291,15003.0
44.0,4.0,5.0,23.58112335205078,26.5748291015625,-79.78277667980848,40.45906251814085,339.2145411987305,0.0119135463610291,0.0328800491988658,0.9950342774391174,0.0931870341300964,0.0643963205790731,0.1587392418587458,3.0001384182713844,-0.0039164228364825,0.0434331744909286,0.0855807289481163,0.5466876566782594,-0.0204922067932784,-9.603690935969354,15004.0
44.1,4.0,5.0,23.5247802734375,28.276508331298828,-79.78277670312703,40.459062482555225,339.5131785888672,0.0122760776430368,0.0331403166055679,0.994998335838318,0.0934312418103218,0.0683186039747715,0.1713660027853787,2.981520185279587,-0.0351115725934505,-0.0990876480937004,-0.0409229062497615,0.6585254135727883,0.0859237011149525,-9.688778448700903,15004.0
44.3,4.0,4.0,23.559837341308597,26.59073257446289,-79.78277672899681,40.459062496425325,340.12024188232425,0.0109239071607589,0.0300540253520011,0.9951356649398804,0.0931796357035636,0.051192718828665,0.1691595030545136,3.047983689985766,-0.1518242806196212,-0.1141354739665985,0.0688299387693405,0.5702001513540745,0.1157689496129751,-10.095139471292496,15005.0
44.5,4.0,5.0,23.835289001464844,22.86930084228516,-79.78277675189828,40.45906255910917,340.73475146484384,0.0106030162423849,0.0304195415228605,0.9951037168502808,0.0934398174285888,0.0529472898252941,0.1545201456136879,3.0622015296815364,-0.0834392458200454,0.0143462568521499,-0.042987011373043,0.5798708978667856,0.2248520283959806,-9.668656425476074,15005.0
44.6,4.0,5.0,23.557334899902344,27.48133087158203,-79.78277672747224,40.45906252314352,341.0348918457032,0.0104195699095726,0.0316839888691902,0.9950417280197144,0.0937001854181289,0.0637305762641687,0.1558203906583876,2.99995993343767,-0.0361524634063243,0.0566621236503124,-0.1215274706482887,0.6006327161192895,0.2712174700945616,-9.427806104421617,15006.0
44.8,4.0,5.0,23.6612548828125,25.27868843078613,-79.78277673289307,40.45906253726483,341.64315295410165,0.0087331123650074,0.0312948785722255,0.9950352907180786,0.0940695330500602,0.0637548427458642,0.1648494917894586,2.9718663172914628,0.0371712408959865,-0.0498907454311847,0.0069183208979666,0.5407742943987249,0.1016736332885921,-9.497822418808935,15006.0
44.9,4.0,5.0,23.628700256347656,26.670249938964844,-79.78277675134663,40.45906256434589,341.939272644043,0.0085989525541663,0.030735433101654,0.9950060844421388,0.0945744514465332,0.0631075109764157,0.1657241836089283,2.9462445755888766,0.081113077700138,-0.0221555326133966,0.0227115154266357,0.7366483077406883,-0.0616786782257258,-9.54158590435982,15006.0
45.1,4.0,4.0,23.60115623474121,26.224950790405277,-79.78277676654412,40.459062587429074,342.23412585449216,0.0097805084660649,0.0299023520201444,0.9949586987495422,0.0952228084206581,0.0604301931018515,0.1589029814847252,2.9419326257463334,0.1045713722705841,0.1101095005869865,0.0972629785537719,0.6183111879229546,0.0088563481438905,-9.669766227006912,15007.0
45.2,4.099999904632568,3.0,23.663759231567383,23.815563201904297,-79.78277687302005,40.45906252329382,342.8456141967774,0.0100769633427262,0.0292726214975118,0.9949773550033568,0.0951929539442062,0.0500877544299666,0.1738239293800818,2.9683849462421183,-0.1310050338506698,-0.1018834039568901,-0.0716601461172103,0.5724108374118805,0.2493247272446752,-9.83366719007492,15007.0
45.4,4.099999904632568,3.0,23.67252349853516,26.11362648010254,-79.78277685492449,40.45906252730671,343.1566798706055,0.0094421543180942,0.0295663177967071,0.9950425028800964,0.0944836065173149,0.0633498459547976,0.1721470897879058,2.9924074174069704,0.0584578737616539,0.0333996228873729,-0.0331626310944557,0.7261784295737743,-0.0161976758600212,-9.897593629360198,15008.0
45.5,4.099999904632568,2.0,23.633708953857425,24.02230834960937,-79.78277688207642,40.45906253757831,343.7546718139648,0.0073351422324776,0.0319431833922863,0.9951934814453124,0.0922810956835746,0.0441397010515794,0.190899256882356,2.980092906880424,0.039795808494091,0.0093466686084866,-0.0215429328382015,0.6131408605724573,0.1401362889446318,-9.744783664941789,15008.0
45.7,4.099999904632568,2.0,23.70883178710937,24.411945343017567,-79.78277687528843,40.4590625382439,344.361162902832,0.0067321248352527,0.033649705350399,0.9953096508979796,0.0904494598507881,0.041171676071496,0.1847863294300612,2.9298652681817003,-0.0203147139400243,0.0761548802256584,0.0432046204805374,0.5275150020048023,0.1054858717136085,-9.334486296772956,15009.0
45.81,4.099999904632568,2.0,23.598651885986328,24.84134101867676,-79.7827769136316,40.45906250391647,344.66830706787107,0.0071253203786909,0.0341987535357475,0.9952993988990784,0.0903269425034523,0.0429569534622494,0.1907188749625553,2.9159214968079925,4.26141414209269e-05,0.0036231882404536,0.1656991392374038,0.6483092314749956,0.0986541311256587,-9.475643929839135,15009.0
46.0,4.099999904632568,1.0,23.450910568237305,28.08566474914551,-79.78277698269757,40.459062523989466,345.25232958984384,0.0072084115818142,0.0305727981030941,0.9954304695129396,0.0901760309934616,0.0634555209560394,0.1860783086140688,2.922666653165427,0.0363155975937843,0.0268713198602199,0.1327912658452987,0.6666259268671274,-0.0450258080475032,-9.934357413053512,15010.0
46.2,4.099999904632568,1.0,23.62494468688965,24.88905143737793,-79.7827769872161,40.45906243404853,345.868830444336,0.0099091567099094,0.0292156878858804,0.9953654408454896,0.0910820960998535,0.0768768377869111,0.1728199985551131,3.0213204714343966,0.0922534987330436,0.1334440410137176,0.189761370420456,0.6264393293112517,-0.0721014863066375,-10.04236718058586,15010.0
46.3,4.199999809265137,1.0,23.755157470703125,23.250986099243164,-79.782777004598,40.45906239317897,346.1686275024414,0.0112034818157553,0.0309222359210252,0.9952681064605712,0.0914320647716522,0.059015650001783,0.1740947329758808,3.0142732557690786,-0.1165177226066589,0.0012555349385365,-0.1851020157337188,0.6067075711861253,0.498966592848301,-9.860749154090882,15011.0
46.41,4.199999809265137,1.0,23.63496208190918,26.06591415405273,-79.78277703297688,40.45906240186603,346.46971392822263,0.0119363907724618,0.032118335366249,0.9952037334442142,0.0916278064250946,0.0723987505726161,0.1838952311932756,2.992156175956745,0.0164045374840497,0.0337634682655334,0.0164896789938211,0.6417421504855156,0.1792822100222111,-9.671978813409806,15011.0
46.6,4.199999809265137,1.0,23.59489631652832,26.23290252685547,-79.78277711049729,40.45906234341193,347.0678737182617,0.0128944534808397,0.0311633422970771,0.9951766133308412,0.0921208038926124,0.0765654463932445,0.2032857029171345,2.995654601225003,-0.0230072904378175,-0.0820183008909225,-0.0562443919479846,0.6653390277922154,0.071320316568017,-9.83985588312149,15012.0
46.8,4.199999809265137,1.0,23.827777862548828,21.97075080871582,-79.78277718953005,40.45906228715858,347.66476702880857,0.0108526330441236,0.0319657959043979,0.9951881170272828,0.0919844061136245,0.0720787362739349,0.1976151320089901,2.9747219497760216,0.0286566130816936,0.0268358197063207,0.050922691822052,0.6444958236068488,0.0454481506068259,-9.671439700126648,15012.0
46.9,4.199999809265137,0.0,23.597400665283203,26.7418155670166,-79.78277721309101,40.4590622819326,347.96078753662107,0.011802147142589,0.0338183417916297,0.9950840473175048,0.0923297405242919,0.0631470714766372,0.2054263351110914,2.932178788974871,-0.0419924408197402,-0.0369211547076702,-0.0331866033375263,0.552726039737463,0.1296435609553009,-9.408101572394374,15012.0
47.0,4.199999809265137,1.0,23.62619781494141,25.040136337280277,-79.7827772334258,40.45906227443717,348.25365710449216,0.0124337198212742,0.0342543199658393,0.9950162768363952,0.0928157866001129,0.0559337459879776,0.2138906634846329,2.9194843838762905,-0.0698005855083465,-0.0699721649289131,0.052823569625616,0.6665283514559269,0.1757362757250666,-9.65998851299286,15013.0
47.2,4.199999809265137,2.0,23.61868476867676,25.89097595214844,-79.7827772625116,40.4590622079616,348.8548610229492,0.0119318552315235,0.0326559320092201,0.9950861930847168,0.0927079766988754,0.0528030460857362,0.2102284438937108,2.95437316374219,-0.0540402829647064,-0.0563590116798877,0.0695349276065826,0.5179694589972497,0.2350791557505727,-9.840212563276287,15013.0
47.3,4.199999809265137,2.0,23.43838882446289,28.403736114501957,-79.78277723863158,40.459062137340034,349.15287280273435,0.0119867641478776,0.0314453989267349,0.995129942893982,0.0926498100161552,0.0668963152773452,0.2049846618360373,2.978478075146821,0.0833609253168106,-0.0301546677947044,0.0450353659689426,0.6767378823459149,-0.0687487842142582,-10.024120359420778,15014.0
47.5,4.199999809265137,0.0,23.67252349853516,25.54109764099121,-79.78277722844487,40.459062132161286,349.7583568115235,0.0137146906927227,0.0300125442445278,0.9950907230377196,0.0933043286204338,0.0461126986008751,0.1964463310395496,3.041819144314172,-0.0431041866540908,-0.0583440400660038,0.0779877230525016,0.6342163453996181,0.0951282052695751,-9.953041605949402,15014.0
47.7,4.199999809265137,2.0,23.53604888916016,26.43169593811035,-79.78277718098069,40.45906203407434,350.0517604370117,0.0123379817232489,0.0309120900928974,0.9950504302978516,0.0936314761638641,0.0526034751354492,0.189900148626921,3.023169355152898,0.1107632517814636,0.0714603066444397,0.1913230121135712,0.573298627473414,-0.029234077418223,-9.955536028146744,15015.0
47.8,4.199999809265137,2.0,23.70507621765137,23.23508262634277,-79.78277724282266,40.45906190576733,350.6544673461914,0.0079222116619348,0.0322612039744854,0.9950965642929076,0.0931633338332176,0.0523139242831398,0.2156371152018108,3.0436750228598,0.0937139168381691,0.093041330575943,0.0293411258608102,0.7317112112045289,0.1108239958807826,-9.97260288119316,15015.0
48.0,4.199999809265137,2.0,23.67377471923828,24.435800552368164,-79.7827772561702,40.459061879985256,351.2633464355468,0.0092691471800208,0.0320492275059223,0.9951915740966796,0.0920905098319053,0.0353500679354174,0.2150860987769723,3.0200032531402217,-0.0062437895685434,-0.0145540256053209,-0.0302620735019445,0.7663647347688676,-0.023629831848666,-9.67172855257988,15016.0
48.09,4.199999809265137,3.0,23.5247802734375,27.43362045288086,-79.78277719252014,40.45906184344205,351.5558879394532,0.0115065732970833,0.0335442423820495,0.9951091408729552,0.0921971946954727,0.0397291922753349,0.1997742496559065,2.96208702435292,-0.01028414350003,0.0700861364603042,-0.0707020983099937,0.6423178088665009,0.0207521931873634,-9.426534919738767,15016.0
