time,wind_speed,wind_angle,battery_voltage,battery_current,position_x,position_y,position_z,orientation_x,orientation_y,orientation_z,orientation_w,velocity_x,velocity_y,velocity_z,angular_x,angular_y,angular_z,linear_acceleration_x,linear_acceleration_y,linear_acceleration_z,node_ids
0.0,1.399999976158142,92.0,24.70045661926269,-0.1192766055464744,-79.78274670785531,40.45906821792583,270.9021666493416,0.0046280794776976,0.0069777201861143,0.19630366563797,0.9805074334144592,-0.0378316216184458,-0.0060663575997581,-0.0057342847947645,0.0034933029673993,0.0014861328527331,-0.0005734177539125,0.0870469512417912,-0.1595645948499441,-9.804278499484065,14935.0
0.1,1.399999976158142,93.0,24.714229583740234,-0.1113248318433761,-79.78274674933928,40.45906819784639,270.901642813921,0.004629751201719,0.0069207660853862,0.196296527981758,0.9805092811584472,-0.0431550778895453,-0.0083706773888339,-0.0057004740401235,0.0049692061729729,0.0039676306769251,0.0056306766346096,0.0935904423706233,-0.1852462786249816,-9.805999335050585,14935.0
0.31,1.5,92.0,24.70045661926269,-0.1033730581402778,-79.78274662635464,40.45906836132247,270.90818341040614,0.0045890533365309,0.0069475071504712,0.1963067799806594,0.9805072546005248,-0.0390389408069999,-0.0089414741029331,-0.0061897942541976,0.0001663616276346,-0.001361810369417,-0.002546653850004,0.0884062918368727,-0.170977373085916,-9.80461822271347,14935.0
0.4,1.5,93.0,24.71548080444336,-0.0874695107340812,-79.78274645661416,40.45906854844538,270.91751761698725,0.004566912073642,0.006981024518609,0.1962865144014358,0.98051118850708,-0.0269390331791926,-0.0064447519777828,-0.0030944855462322,0.0074245403520762,0.0028193423058837,0.0032341673504561,0.0935779439471662,-0.1808570296503603,-9.807727187275889,14935.0
0.6,1.5,94.0,24.71172523498535,-0.0954212844371795,-79.78274648474391,40.45906853316519,270.9172510352135,0.0045569776557385,0.0069836690090596,0.1963093876838684,0.9805065989494324,-0.0331211549250762,-0.0083272318943823,-0.0027533912997613,-0.0001973588950932,-0.0073077022098004,0.003365175332874,0.0902081844303757,-0.182313260436058,-9.808168652057647,14935.0
0.71,1.5,93.0,24.71673393249512,-0.0874695107340812,-79.78274641397525,40.45906866242014,270.92488391661647,0.0045712389983236,0.006958813406527,0.1962657272815704,0.980515480041504,-0.0377269227525298,-0.0097706753266471,-0.0013103206239435,0.0058655575849115,0.0032220701687037,0.0034259045496582,0.0905828630458563,-0.1729687885567546,-9.806648375988008,14935.0
0.9,1.5,94.0,24.714229583740234,-0.0874695107340812,-79.78274645115081,40.459068641195785,270.9248048510552,0.0045586191117763,0.0069760843180119,0.1962826997041702,0.9805119633674622,-0.0430763623768184,-0.0117079313840202,-0.0011108571638697,0.0006600162014365,0.000945825013332,0.0058945063501596,0.0922315129078924,-0.1861318577080965,-9.807322559952736,14935.0
1.01,1.600000023841858,90.0,24.70796775817871,-0.1033730581402778,-79.78274632473861,40.45906880915066,270.92971517109874,0.0045152190141379,0.0070345159620046,0.196254551410675,0.9805174469947816,-0.0337071534640711,-0.0074209146149337,-0.0037448594540059,0.0045859096571803,0.0016256915405392,0.0015643705846741,0.0883717932645231,-0.1661399167589843,-9.80388147354126,14935.0
1.2,1.600000023841858,89.0,24.710472106933597,-0.0874695107340812,-79.78274636087521,40.45906878951244,270.92938519978526,0.0045301113277673,0.0070273117162287,0.1962514370679856,0.9805179834365844,-0.0386550200057725,-0.0096579353383528,-0.00365962854217,0.0060632000677287,0.0010033221915364,0.0049023102037608,0.0939399140048772,-0.1857275775633752,-9.807477511167528,14935.0
1.3,1.5,90.0,24.71297645568848,-0.1033730581402778,-79.78274624637173,40.45906894891447,270.93664805555346,0.004504413343966,0.0070832716301083,0.1962260603904724,0.9805228114128112,-0.0368922375492541,-0.0078492067207601,-0.0014410633669654,0.0032670518849045,0.000426734884968,-0.0034275336656719,0.0863858504220843,-0.1604067583568394,-9.804053966403009,14935.0
1.5,1.399999976158142,92.0,24.71548080444336,-0.0954212844371795,-79.78274610856627,40.4590691057722,270.9436074342728,0.004491489380598,0.0071014715358614,0.196236714720726,0.9805206060409546,-0.0318552282901392,-0.0077266550372992,-1.0709183513352106e-05,-0.0077996300533413,-0.003212226787582,0.0018506112974137,0.0934253681637346,-0.184250424709171,-9.80789149403572,14935.0
1.6,1.399999976158142,90.0,24.71172523498535,-0.0795177370309829,-79.78274614131959,40.45906908655749,270.94363598489764,0.0045002503320574,0.0070780664682388,0.1962057501077652,0.980526864528656,-0.036883706283189,-0.0100793377776259,9.116146063254886e-05,-0.0038116651121526,-0.0011185164330527,-0.0082961861044168,0.0867845757119357,-0.1567124509625136,-9.80418903708458,14935.0
1.8,1.399999976158142,89.0,24.714229583740234,-0.1033730581402778,-79.78274603354858,40.4590692168586,270.9500706043244,0.0044641615822911,0.0070981499738991,0.1961927413940429,0.9805295467376708,-0.0363725742057318,-0.0112207670929137,0.0007956245292915,0.0006748584564775,-0.0012909332290291,0.0028630038723349,0.09248889089562,-0.1791424250230193,-9.807101535201074,14935.0
1.91,1.399999976158142,89.0,24.71548080444336,-0.1033730581402778,-79.7827459025504,40.45906935969326,270.9542359557152,0.0044442885555326,0.0071126921102404,0.1961817741394043,0.9805316925048828,-0.0330421352576709,-0.0104276183904829,-0.0020329336244502,-0.0071442476473748,-0.004724268335849,-0.0058953440748155,0.087522996822372,-0.1584090023115277,-9.804564428329469,14935.0
2.1,1.399999976158142,88.0,24.71297645568848,-0.0874695107340812,-79.78274593256695,40.45906933980223,270.9540599431992,0.0044474066235125,0.0071269543841481,0.1961977928876876,0.9805283546447754,-0.03638425061758,-0.0126023556490628,-0.0020788545132005,0.0042788553982973,0.0018966610077768,0.0047489921562373,0.0895382853783667,-0.1721012627519667,-9.804638687968255,14935.0
2.2,1.399999976158142,87.0,24.71548080444336,-0.0954212844371795,-79.78274580804684,40.45906948213985,270.9618016328812,0.0044274777173995,0.0071254782378673,0.1961690634489059,0.9805342555046082,-0.0327191501877641,-0.010695173991251,0.0028519883418337,-0.0081303007900714,-0.0029388284310698,-0.0031463960185647,0.0874744375236332,-0.1658244412019849,-9.80498250424862,14935.0
2.4,1.399999976158142,86.0,24.71673393249512,-0.0795177370309829,-79.78274569512347,40.45906965426328,270.96824745798114,0.0043751499615609,0.0071437424048781,0.1961390674114228,0.9805403351783752,-0.0265933387478631,-0.0032803713541535,0.0022152593135409,0.0091554699465632,0.0020365021191537,0.0072403163649141,0.0870642736181616,-0.1611603913642466,-9.804205994009973,14935.0
2.5,1.399999976158142,85.0,24.71673393249512,-0.0795177370309829,-79.78274572410702,40.45906964173457,270.968519314766,0.0043759592808783,0.0071439133025705,0.1961669623851776,0.9805347919464112,-0.0326639541868067,-0.0047902214298339,0.0025168787868125,-0.0046538729220628,-0.0025313133373856,-0.0011851813178509,0.0902360500674694,-0.1762317724339664,-9.80630982220173,14935.0
2.7,1.399999976158142,86.0,24.71548080444336,-0.0874695107340812,-79.78274575896815,40.45906962481991,270.9688055958748,0.0043822885490953,0.0071372683160007,0.196148931980133,0.9805383682250975,-0.0375365968167775,-0.006841865444727,0.0026568246059874,-0.0041062720119953,-0.0015513437101617,-0.00855278596282,0.0872995692305266,-0.1566093572415411,-9.80461471438408,14935.0
2.81,1.399999976158142,86.0,24.702960968017567,-0.0874695107340812,-79.78274565915693,40.45906977094603,270.97695760393145,0.0043609710410237,0.0071623185649514,0.1961695104837417,0.9805341362953186,-0.0359308202116622,-0.0059112183289727,0.0050455291304683,-0.000565311696846,0.0018171927658841,0.0022699774708598,0.0910803331900388,-0.1835866743698716,-9.806723220348356,14935.0
3.0,1.399999976158142,86.0,24.71172523498535,-0.0795177370309829,-79.78274557993906,40.45906990360946,270.98545031213763,0.0043398952111601,0.0071965777315199,0.1961473822593689,0.9805384278297424,-0.0375821059229606,-0.0069834826331938,0.0075810448497946,0.0049071568064391,0.0029081355314701,0.0020559867843985,0.0871730683743953,-0.1586639409139752,-9.802957613468172,14935.0
3.1,1.399999976158142,87.0,24.71798515319824,-0.0795177370309829,-79.78274562034436,40.45906988304639,270.98626355791095,0.004366232547909,0.0071709207259118,0.1961416900157928,0.9805396795272828,-0.0424587327584784,-0.008852301555761,0.0077090284850757,0.005193353164941,0.0009137375163845,0.0039768456481397,0.0927817176282405,-0.1852623036503792,-9.806294619441031,14935.0
3.3,1.399999976158142,85.0,24.71172523498535,-0.1033730581402778,-79.78274550514976,40.459070050108096,270.99455861711505,0.0043235095217823,0.0072112898342311,0.196137636899948,0.9805403351783752,-0.0363526276570484,-0.0057110024385679,0.0092818101682931,-0.000231859012274,0.0010731137590482,-0.0015140115283429,0.088171443901956,-0.1665985760092735,-9.805317549705508,14935.0
3.41,1.5,85.0,24.71172523498535,-0.0795177370309829,-79.78274532331152,40.45907021881393,271.0000693049431,0.0043183555826544,0.0072483173571527,0.1961053311824798,0.9805465936660768,-0.0217968183521698,-0.0055527823745463,0.0065788252595363,0.0076743890531361,0.0040789600461721,0.0047357901930809,0.0945456033200025,-0.1838233586959541,-9.807778642773629,14936.0
3.61,1.5,86.0,24.70922088623047,-0.0795177370309829,-79.78274537395059,40.45907018903347,271.00148747825625,0.0043325838632881,0.0072617256082594,0.1961240768432616,0.9805426597595216,-0.0321537353009311,-0.0090880771374318,0.0070047795337908,-0.0023549147881567,-0.0036002043634653,-0.0065238662064075,0.0893827494420111,-0.1760589506663382,-9.806172997355462,14936.0
3.7,1.5,87.0,24.71673393249512,-0.0795177370309829,-79.7827452646698,40.45907035547306,271.0069171037674,0.0043023517355322,0.0072692516259849,0.1961021423339844,0.9805470705032348,-0.0280118276760297,-0.0044958990165765,0.0055044690866961,0.0034133784938603,0.0040827421471476,0.0067000081762671,0.0929306023567915,-0.179490553624928,-9.807609658241272,14936.0
3.9,1.5,87.0,24.71297645568848,-0.0954212844371795,-79.7827451668202,40.45907050618641,271.0125071849823,0.0042804777622222,0.007287286221981,0.1960800290107727,0.980551540851593,-0.028423518475115,-0.0030376697142593,0.0043257532953536,-0.0073832906782627,-0.0023004049435257,-0.0067386985756456,0.090970177128911,-0.1835667938366532,-9.80671444952488,14936.0
4.0,1.5,89.0,24.702960968017567,-0.0874695107340812,-79.78274519502199,40.45907049397224,271.012976392746,0.0042629139497876,0.0073182228952646,0.1960839331150055,0.9805505871772766,-0.0312739521376829,-0.0050878780314601,0.0043700892079548,0.0090645896270871,0.0027967528440058,-8.793790584604723e-06,0.0898767386656254,-0.1716437546722591,-9.805351463556288,14936.0
4.2,1.5,89.0,24.694196701049805,-0.1590354740619659,-79.78274522954547,40.45907047728571,271.0134575214386,0.0042650406248867,0.0072920457459986,0.1960787326097488,0.9805518388748168,-0.03608980138767,-0.0067642960797992,0.0044209601422245,0.003769404022023,3.946940705645829e-05,0.0032142484560608,0.0935907073225826,-0.1859053146466613,-9.806669425964357,14936.0
4.3,1.5,89.0,24.69670104980469,-0.1669872552156448,-79.78274509941586,40.45907064860079,271.0188298072815,0.0042542903684079,0.0073357480578124,0.1961082816123962,0.9805456399917604,-0.0298644707109363,-0.0036330208331706,0.0033942547082939,0.0045432527549564,0.0017873593606054,3.2991876651067294e-05,0.0875263681076467,-0.165024651736021,-9.803134199380873,14936.0
4.5,1.5,88.0,24.69795227050781,-0.1828908026218414,-79.78274499197408,40.45907080874998,271.02411483192446,0.0042481604032218,0.0073607522062957,0.196093276143074,0.9805484414100648,-0.0301164886296822,-0.0026451247365643,0.0029034201880111,-0.0071467719972133,-0.0026048156432807,-0.0049171228893101,0.0934042816422879,-0.1867732424475252,-9.806661239862445,14936.0
4.6,1.5,88.0,24.70170783996582,-0.1749390214681625,-79.78274502465257,40.4590707946598,271.02443753147134,0.0042679458856582,0.0073497793637216,0.196076899766922,0.9805517196655272,-0.0341217050611214,-0.0046546353295997,0.002948703485639,-0.0001083908864529,-0.0004733619571197,-0.0033791773021221,0.0862423195503652,-0.1599747587554157,-9.803633551597596,14936.0
4.8,1.5,87.0,24.70045661926269,-0.1033730581402778,-79.78274494598034,40.459070959119785,271.02928714418414,0.004245753865689,0.0073979808948934,0.1960761547088623,0.9805516004562378,-0.0361044829121722,-0.0018459124199722,0.0025304585880181,-0.002457216149196,-0.0016624161507934,0.0016368012875318,0.0935462776198983,-0.1833473587967455,-9.806708602309229,14936.0
4.9,1.5,89.0,24.70796775817871,-0.0954212844371795,-79.78274481117727,40.459071116381175,271.0333967652321,0.0042476286180317,0.0074204532429575,0.1960596591234207,0.980554699897766,-0.0303438478804931,-0.0021863514302478,0.0023455581875392,-0.0030392087064683,-0.0028941815253347,-0.0071707945317029,0.0866289210040122,-0.1568235297873616,-9.804056890010834,14936.0
5.1,1.5,88.0,24.71798515319824,-0.0874695107340812,-79.78274484252056,40.45907110408972,271.0336632575989,0.0042268335819244,0.0074327955953776,0.1960996240377426,0.980546772480011,-0.0330115233771351,-0.0040359367637618,0.0022015354576016,0.0111298151314258,0.0066973506473004,0.0022915150038897,0.0933455079887062,-0.1793105142004788,-9.80587186574936,14936.0
5.2,1.5,88.0,24.71297645568848,-0.0874695107340812,-79.78274472450067,40.45907126661896,271.0375940647125,0.0042380434460937,0.0074547557160258,0.1960897743701934,0.9805485010147096,-0.0282753014172012,-0.0015652489151332,0.002262574945314,-0.007809791713953,-0.0055510359816253,-0.0087743466719985,0.0869131048209965,-0.1578914689086377,-9.804064491391182,14936.0
5.4,1.5,87.0,24.71297645568848,-0.1033730581402778,-79.78274460086564,40.45907143477727,271.0420842614174,0.0041943467222154,0.0074840001761913,0.1960926204919815,0.9805479049682616,-0.0218423615494174,0.0006292334481833,0.0020574640158959,0.0022359224967658,0.0027724164538085,0.0012652071891352,0.0913966127391904,-0.1742168767377734,-9.805659611821175,14936.0
5.5,1.399999976158142,86.0,24.704212188720703,-0.1113248318433761,-79.78274462534614,40.45907142734571,271.0423318591118,0.0041802893392741,0.0074961674399673,0.1960954368114471,0.9805472493171692,-0.0268413760447392,-0.0008058834478258,0.002356835203346,-0.0102821439504623,-0.0031190277077257,-0.0058441134169697,0.0878236716147512,-0.1616972023062408,-9.804111269116405,14936.0
5.71,1.399999976158142,83.0,24.70170783996582,-0.1431319266557693,-79.7827446550665,40.459071416120274,271.042590066433,0.004174361936748,0.0074762129224836,0.1960780620574951,0.9805509448051452,-0.0299065281149929,-0.0027975434739104,0.002260683333248,0.0037970202974975,0.0010086012771353,0.0023712792899459,0.0876288040168583,-0.1674998329393565,-9.803777393102648,14936.0
5.81,1.399999976158142,80.0,24.70922088623047,-0.1113248318433761,-79.78274451442657,40.4590715534144,271.0469682660103,0.0041537317447364,0.0074836444109678,0.1960789114236832,0.9805508255958556,-0.0286973913800581,-0.0067686397295051,0.0022736950310572,-0.0085083600133657,-0.0044103250838816,0.0003594333538785,0.0881299286708235,-0.17243736801669,-9.804634010195732,14936.0
6.0,1.399999976158142,78.0,24.704212188720703,-0.1113248318433761,-79.782744413719,40.45907169645679,271.0507983412743,0.0041184374131262,0.0075007085688412,0.1960947066545486,0.9805476665496826,-0.0277039823367952,-0.0058032261325156,0.0017543030867568,0.0087749157100915,0.0052860514260828,0.0062858867458999,0.085098786894232,-0.1588824623264372,-9.802851194143296,14936.0
6.11,1.399999976158142,76.0,24.71172523498535,-0.0954212844371795,-79.78274444409256,40.4590716804584,271.05102537536624,0.0041202432475984,0.0074791079387068,0.1961061060428619,0.9805455207824708,-0.0329698026430638,-0.0071122560732155,0.0020700168004317,-0.0014179148711264,-0.0033109383657574,0.0001874418085208,0.0915289425384253,-0.1828398204781115,-9.807166439294816,14936.0
6.3,1.399999976158142,75.0,24.70922088623047,-0.1351801604032516,-79.78274433567152,40.45907180714116,271.0568728294373,0.0041203522123396,0.0075255595147609,0.1961261183023452,0.9805412292480468,-0.0315591900976002,-0.0091350874653086,0.0055079788705218,0.0065720668062567,0.0028387568891048,0.0043409941717982,0.0872360173054039,-0.1571386033482849,-9.803719505667685,14936.0
6.4,1.399999976158142,72.0,24.71172523498535,-0.1272283792495727,-79.78274418630059,40.45907197296345,271.0630197968483,0.0040935352444648,0.0075427410192787,0.1961085349321365,0.9805446863174438,-0.0230746078329466,-0.0035070988457367,0.0105151930512093,0.0050511290319263,0.0018794001080095,0.0060196314007043,0.0930656273569911,-0.1864982405863702,-9.807712569236756,14936.0
6.6,1.2999999523162842,71.0,24.710472106933597,-0.0954212844371795,-79.78274421023085,40.45907196154533,271.0641035881044,0.0040969755500555,0.0075554302893579,0.19610895216465,0.9805445075035096,-0.0279433840110101,-0.0047618556732703,0.0106683590109682,-0.0117708723992109,-0.0033355990890413,-0.00624057976529,0.0884217412769794,-0.1627907047234475,-9.80423698425293,14936.0
6.7,1.399999976158142,67.0,24.70796775817871,-0.1033730581402778,-79.78274407964305,40.4590721200896,271.07131795549395,0.0040811067447066,0.007549381814897,0.1960792988538742,0.9805505871772766,-0.021536273443783,-0.001572069397587,0.0142111962808466,0.0084842685610055,0.0035070471931248,0.0047405529767274,0.0943557149916887,-0.185116872433573,-9.807306772470474,14936.0
6.9,1.399999976158142,65.0,24.70546531677246,-0.1033730581402778,-79.78274398878789,40.45907226239928,271.07564328575137,0.0040670554153621,0.0075913500040769,0.1960937827825546,0.9805473685264589,-0.0227583769319789,0.001333854856379,0.0134640849399296,0.0015521957539021,0.0001832852285588,-0.0038686650805175,0.0884929402638226,-0.171759291999042,-9.806282925009729,14936.0
7.0,1.2999999523162842,64.0,24.71172523498535,-0.0795177370309829,-79.78274401386498,40.459072255520056,271.07702623271945,0.0040663364343345,0.0075916722416877,0.196117490530014,0.9805426597595216,-0.0253188823878424,-0.0002295760125535,0.0135189039657499,0.0084662083536386,0.0010584079427644,0.0058598984032869,0.0940091121476143,-0.1824826652370392,-9.807839453816417,14936.0
7.2,1.2999999523162842,65.0,24.714229583740234,-0.0874695107340812,-79.78274404395586,40.45907224504555,271.0784267034531,0.0040790978819131,0.0075697996653616,0.1961118727922439,0.980543851852417,-0.0304840270427654,-0.0013877709927074,0.0137062999333223,-0.0022705926094204,-0.0018226765096187,0.0044575063511729,0.0910902003664523,-0.1814577031508088,-9.806104000210762,14936.0
7.31,1.2999999523162842,66.0,24.702960968017567,-0.0954212844371795,-79.78274393897712,40.45907237713894,271.0797536816597,0.0040770326741039,0.007630159612745,0.1961005926132202,0.980545699596405,-0.0287665750495515,-0.0020874346271476,0.0091410078706557,0.0080323806032538,0.0072943661361932,0.0031081817578524,0.0915634411107748,-0.17656484445557,-9.805482441186903,14936.0
7.5,1.2999999523162842,65.0,24.71548080444336,-0.0954212844371795,-79.78274381400307,40.45907247588933,271.0813416090012,0.0040929056704044,0.0076540103182196,0.1960950195789337,0.980546534061432,-0.0289312736155402,-0.0091194466367608,0.0067787118935793,-0.009541492909193,-0.005355923436582,-0.0062744333408772,0.0933128275349736,-0.1858341247960925,-9.80705768108368,14936.0
7.6,1.2000000476837158,65.0,24.70796775817871,-0.0874695107340812,-79.78274384200981,40.4590724570874,271.0820474472046,0.0040982360951602,0.0076475013047456,0.196103036403656,0.980544924736023,-0.0316406217426359,-0.0109466121222941,0.0068242933473487,0.0031184700783342,0.0014811597066,0.0005027211154811,0.088631437048316,-0.1660171617753804,-9.804346327185634,14936.0
7.8,1.2000000476837158,66.0,24.702960968017567,-0.0954212844371795,-79.78274366283685,40.45907260353075,271.0859119143486,0.0040658423677086,0.0076769618317484,0.1960929781198501,0.9805468916893004,-0.022806407923256,-0.0098978237327717,0.0087511275937562,-0.0082526197656989,-0.0018075036350637,-0.0017361368518322,0.0941210132371634,-0.1859750609658658,-9.807350041866306,14936.0
7.9,1.2000000476837158,69.0,24.706716537475582,-0.0874695107340812,-79.78274355983734,40.45907273772183,271.08616302871707,0.0040563377551734,0.0076866708695888,0.1960705518722534,0.9805513620376588,-0.023873516833817,-0.0057737482352981,0.0064709867423128,-0.0030377623625099,-0.000945838226471,-0.0047714365646243,0.0871044092718511,-0.1569317215494811,-9.805096524953845,14936.0
8.1,1.2000000476837158,69.0,24.71297645568848,-0.0874695107340812,-79.78274358284456,40.459072724567775,271.0868363823891,0.0040532583370804,0.0076797641813755,0.1960775405168533,0.9805499911308287,-0.0260881383775496,-0.007427061545506,0.006432008629294,0.0059437896125018,0.0010598378721624,0.0045918128453195,0.0932141740433871,-0.1787709441035986,-9.806158379316331,14936.0
8.21,1.100000023841858,71.0,24.71297645568848,-0.0954212844371795,-79.78274348061964,40.45907284599771,271.08553270959857,0.0040604434907436,0.0076861474663019,0.1960254460573196,0.980560302734375,-0.0277465042655998,-0.0058471578547855,0.0019188821671306,-0.0086750593036413,-0.0012039449065923,-0.0088539561256766,0.0874119545426219,-0.1620225450396538,-9.803312539458275,14936.0
8.4,1.100000023841858,72.0,24.71297645568848,-0.0874695107340812,-79.78274336680343,40.45907297509914,271.08563230896,0.0040478301234543,0.0077011990360915,0.196022093296051,0.9805608987808228,-0.0241860021239753,-0.0040610593868154,0.0013809768612357,0.0071933530271053,0.0030184551142156,0.0058209500275552,0.0881586713902652,-0.1646433036401867,-9.8044697034359,14936.0
8.5,1.100000023841858,71.0,24.71673393249512,-0.0795177370309829,-79.78274339263494,40.45907296292523,271.08581732177737,0.0040504741482436,0.0077095534652471,0.1960505545139312,0.9805551767349244,-0.0290215120697959,-0.0050744942665588,0.0016949094650541,-0.0048414911143481,0.0007747496129013,-8.410908048972486e-05,0.0890666800271719,-0.1770898696035147,-9.806953600645066,14936.0
8.7,1.2000000476837158,73.0,24.706716537475582,-0.1113248318433761,-79.78274342280116,40.45907294749635,271.0860219445229,0.0040806815959513,0.0077021662145853,0.1960624903440475,0.9805526733398438,-0.032614351747627,-0.0067431570289641,0.001858935849274,-0.0044594011269509,-0.000990621978417,-0.0058116340078413,0.0860650575533509,-0.1559985790215432,-9.804790130853654,14936.0
8.81,1.2999999523162842,73.0,24.71172523498535,-0.0874695107340812,-79.78274326628437,40.45907310755968,271.0860311236382,0.0040403478778898,0.0077449791133403,0.1960517019033432,0.980554699897766,-0.0245115826850646,-0.0028817337695121,0.0012689412066475,-0.0004756099078804,-0.0031508165411651,0.0017360090278089,0.0927447248529642,-0.1844185138866305,-9.80611920297146,14936.0
9.0,1.2999999523162842,73.0,24.71297645568848,-0.0874695107340812,-79.78274314192467,40.4590732251195,271.0842031087876,0.0040207700803875,0.007787958253175,0.1960548907518386,0.9805538058280944,-0.0233192526794786,-0.0043511815878847,-0.0012251800856293,0.0028041440527886,0.0028150775469839,0.0031442933250218,0.0878686677664518,-0.1600030994787812,-9.804341649413107,14936.0
9.1,1.399999976158142,70.0,24.704212188720703,-0.0636141896247863,-79.78274316739038,40.45907321216298,271.08412097358706,0.0040120389312505,0.0077663245610892,0.1960677206516266,0.9805514216423036,-0.0266175519304864,-0.0058215053063976,-0.001141563113467,0.0054839653894305,0.0031755552627146,0.0033808699809014,0.0942094523739069,-0.186391474083066,-9.807383955717087,14936.0
9.3,1.399999976158142,70.0,24.70045661926269,-0.1828908026218414,-79.78274307847033,40.45907337129018,271.08408544921883,0.0039666737429797,0.0077911503612995,0.1960667222738266,0.9805516004562378,-0.0277916832841112,0.002761364205821,-0.0005904240351452,-0.0008036728249862,-0.0003742602712009,-0.0002075901138596,0.0883270163834095,-0.1720854204520583,-9.80459132552147,14936.0
9.4,1.5,69.0,24.714229583740234,-0.0874695107340812,-79.78274292176295,40.459073482479646,271.08240263128283,0.0039625377394258,0.0078047863207757,0.1960336118936538,0.9805581569671632,-0.0212640030557361,-0.0013899585816994,-0.0033467123030154,0.0087271658703684,0.0055773956701159,0.0062528201378881,0.0933787092100829,-0.183149978723377,-9.806813267469408,14936.0
9.6,1.5,68.0,24.71548080444336,-0.0715659633278846,-79.78274294595744,40.45907347350917,271.0821181383133,0.003949015866965,0.0077956807799637,0.1960568130016327,0.9805536270141602,-0.0259017508943428,-0.00240861640895,-0.0030650837400578,-0.0051754526793956,-0.0033082724548876,-1.0443824976391625e-05,0.0900578378979116,-0.1813726444356143,-9.806892204880716,14936.0
9.7,1.600000023841858,69.0,24.71172523498535,-0.0874695107340812,-79.782742818446,40.45907362419836,271.08180324697497,0.0039189402014017,0.0077971802093088,0.1960302591323852,0.9805590510368348,-0.0208120644074514,0.0022911603966481,-0.0018029844598426,0.0104022193700075,0.0032560338731855,0.0042404443956911,0.0899992652423679,-0.1728893212415278,-9.804878423810006,14936.0
9.9,1.600000023841858,67.0,24.714229583740234,-0.0954212844371795,-79.78274267489327,40.45907374899491,271.0809819545746,0.0038923285901546,0.0078237187117338,0.1960363537073135,0.9805576801300048,-0.0172199971870235,0.0019230344387668,-0.0009563464173564,-0.0091206589713692,-0.0043924902565777,-0.0025186592247337,0.0922517223469913,-0.1866833963245153,-9.806877586841583,14936.0
10.01,1.7000000476837158,65.0,24.714229583740234,-0.0954212844371795,-79.78274269324194,40.45907374463849,271.0809100117684,0.0038787275552749,0.0078443475067615,0.1960376948118209,0.9805573821067808,-0.019536897007314,0.0004674171315696,-0.0009374725932471,-0.0007931245490908,-0.0003101285255979,-0.0015729055739939,0.0871067481581121,-0.1612458520755172,-9.804019467830658,14936.0
10.21,1.7000000476837158,66.0,24.70796775817871,-0.0954212844371795,-79.78274271620859,40.45907373718493,271.08085034751895,0.0038802947383373,0.007842001505196,0.196027398109436,0.9805593490600586,-0.0219366034944478,-0.0009882868815468,-0.0009479247599041,0.0078515009954571,0.0023561713751405,0.0066015045158565,0.0940189336426556,-0.1831927182152867,-9.807445936203004,14936.0
10.3,1.7999999523162842,65.0,24.710472106933597,-0.1033730581402778,-79.78274260129051,40.45907384422732,271.0807043757439,0.0038721316959708,0.0078670512884855,0.1960407793521881,0.9805565476417542,-0.0247893411738808,-0.0009788597141334,-0.0002813874675596,-0.0064472104422748,-0.0021394647192209,-0.0078653590753674,0.0867404292337596,-0.1567828550934791,-9.803728276491166,14936.0
10.5,1.7999999523162842,67.0,24.70796775817871,-0.1113248318433761,-79.78274245336843,40.459073972414096,271.0827351059914,0.0038639083504676,0.0078748678788542,0.1960480958223343,0.9805550575256348,-0.019667004733028,0.0008554047053478,0.0030831473385048,0.0010758939897641,-0.0002448963641654,0.0046322140842676,0.0922100883442908,-0.1746430839411914,-9.804477304816247,14936.0
10.6,1.8999999761581416,68.0,24.70796775817871,-0.0954212844371795,-79.78274247671315,40.45907396520853,271.0830839123726,0.0038886072579771,0.0078832162544131,0.1960290968418121,0.980558693408966,-0.0239525738408159,-0.0002397519654166,0.0033802707414569,-0.0090865874662995,-0.0034253755584359,-0.0092459460720419,0.0872095769271254,-0.1601268959976732,-9.803627704381944,14936.0
10.8,1.8999999761581416,69.0,24.71172523498535,-0.0954212844371795,-79.78274231714425,40.45907410327936,271.0850928273201,0.0038739640731364,0.0078950487077236,0.1959885358810424,0.9805667400360109,-0.0179398593898236,0.0012101551878833,0.0056291399752232,0.0019074406009167,0.0031592759769409,0.0029955804347991,0.0903837744891643,-0.1683256607875228,-9.80388147354126,14936.0
10.9,2.0,70.0,24.71673393249512,-0.0954212844371795,-79.78274219808186,40.45907420906679,271.0846718397141,0.0038844749797135,0.007886853069067,0.195983350276947,0.9805678725242616,-0.0210779986897671,0.0029436180411552,0.0039981940593596,-0.0103516038507223,-0.0044331136159598,-0.0074660424143075,0.0887606331054121,-0.1641159761510789,-9.80455448806286,14936.0
11.1,2.0,73.0,24.71172523498535,-0.0954212844371795,-79.78274222093054,40.4590742042101,271.0851065363884,0.0038840330671519,0.0078915273770689,0.1959607601165771,0.9805723428726196,-0.0228644964738228,0.0013591078732193,0.0040726090151973,0.0066628842614591,0.000301279593259,0.0030859149992465,0.0881954997126013,-0.1668281523138284,-9.804669093489649,14936.0
11.21,2.0999999046325684,74.0,24.704212188720703,-0.0954212844371795,-79.78274205775975,40.45907428377531,271.08554653787616,0.0039266934618353,0.007918581366539,0.1959373503923416,0.9805766344070436,-0.0190425528675796,-0.0051207748673578,0.0033546460416299,-0.0086544975638389,-0.0015011519426479,-0.0076324855908751,0.0867829677276313,-0.1633537733182311,-9.804805918335916,14936.0
11.4,2.0999999046325684,75.0,24.71297645568848,-0.0874695107340812,-79.78274190463469,40.45907436401362,271.0883920040131,0.0039308695122599,0.0079314969480037,0.1959477365016937,0.9805744290351868,-0.0156493977450602,-0.0085350199404582,0.006148912903315,0.003901376388967,-0.0002349483693251,0.0065012630075216,0.0878566809743642,-0.1683837492205202,-9.803897261023524,14936.0
11.5,2.0999999046325684,72.0,24.71548080444336,-0.0795177370309829,-79.78274191844639,40.45907435102382,271.08903144264224,0.003925418946892,0.0079687107354402,0.1959613263607025,0.9805713891983032,-0.0199568400135546,-0.0095321050025059,0.0064055478786554,-0.0087689338251948,-0.0020326427184045,-0.0030152495019137,0.0875025315675884,-0.1619500212930143,-9.803238864541054,14936.0
11.7,2.200000047683716,73.0,24.702960968017567,-0.0954212844371795,-79.78274193602356,40.45907433524068,271.08968226575854,0.0039255558513104,0.0079587930813431,0.1959573328495025,0.9805723428726196,-0.021716206310482,-0.0112112796033268,0.0062512045261668,0.0083041954785585,0.0043302830308675,0.0055615338496863,0.088727422747761,-0.1690694814361631,-9.803377443552018,14936.0
11.8,2.200000047683716,73.0,24.70922088623047,-0.1192766055464744,-79.7827417566894,40.4590744720748,271.0903565731049,0.0039034516084939,0.0079995701089501,0.1959564685821532,0.98057222366333,-0.0141505060409567,-0.0037183179491272,0.0043125604250013,-0.007305113133043,-0.0042269611731171,-0.0088147306814789,0.0890739342290908,-0.159697344917804,-9.80163906633854,14936.0
12.0,2.200000047683716,73.0,24.70546531677246,-0.0954212844371795,-79.78274158151866,40.45907455168939,271.0930479016304,0.0039171432144939,0.0080408304929733,0.1959415972232818,0.9805747866630554,-0.0087657737349175,-0.0073850920734407,0.0061449219520552,0.0065460093319416,-7.896556780906394e-05,0.0055272299796342,0.0886824905499816,-0.1691232758201658,-9.804500693678856,14936.0
12.1,2.299999952316284,71.0,24.706716537475582,-0.0795177370309829,-79.7827415893655,40.45907454135123,271.0936781611443,0.0039203222841024,0.0080404048785567,0.1959194540977478,0.9805792570114136,-0.0130520792754545,-0.008417433061915,0.0064086492408354,-0.0090778116136789,-0.005995811894536,-0.0045734690502285,0.0884289954788982,-0.1635353841818869,-9.80378674864769,14936.0
12.3,2.299999952316284,74.0,24.71172523498535,-0.1033730581402778,-79.78274150199803,40.45907459948864,271.0969610657692,0.0039284052327275,0.0080442689359188,0.1959012001752853,0.9805828332901,-0.0209829689697032,-0.0084691660249193,0.0078456417528062,0.0069672195240855,0.0026645620819181,0.0061863139271736,0.088839862877503,-0.1662386067956686,-9.803367503285408,14936.0
12.4,2.299999952316284,74.0,24.70796775817871,-0.1113248318433761,-79.7827413497611,40.45907470728464,271.1000354137421,0.0039099128916859,0.0080661373212933,0.1959039121866226,0.9805821776390076,-0.0150792469231777,-0.0011064076553,0.0114795993494671,-0.0088005634024739,-0.0029418428894132,-0.0076342932879924,0.0886990911606699,-0.1621459578350186,-9.801977620124818,14936.0
12.6,2.299999952316284,75.0,24.70922088623047,-0.1033730581402778,-79.78274136463017,40.45907470079833,271.10119800233844,0.0039049466140568,0.0081077115610241,0.1959227174520492,0.980578064918518,-0.016526643621766,-0.0027913394467933,0.0113707943653315,0.0046199266798794,0.0025809407234191,0.0002229873498436,0.0902899997681379,-0.1686083736643195,-9.802957613468172,14936.0
12.7,2.400000095367432,74.0,24.71172523498535,-0.1192766055464744,-79.78274121165397,40.4590747471526,271.10572247171405,0.0039127306081354,0.0081089902669191,0.1959103643894196,0.9805805087089542,-0.0159852268915685,-0.0076505214569296,0.0153344180515727,-0.0109918406233191,-0.0028149490244686,-0.0071686864830553,0.0875373955909162,-0.1581110866740346,-9.802916682958603,14936.0
12.9,2.400000095367432,75.0,24.706716537475582,-0.1510837078094482,-79.78274107266525,40.459074811436,271.1066830005646,0.0039023077115416,0.0081368116661906,0.1959521621465683,0.980571985244751,-0.0115385223034821,-0.0047974240626561,0.0117453030378274,-0.0024827229790389,-0.0011037000222131,0.0071212039329111,0.091403282219544,-0.1731365122832358,-9.803956902623176,14936.0
13.0,2.400000095367432,78.0,24.70170783996582,-0.0954212844371795,-79.78274108269886,40.45907480318372,271.10787646436694,0.0039037414826452,0.0081554744392633,0.1959523558616638,0.980571746826172,-0.0149508481163724,-0.0060688475258866,0.0119356656328771,-0.0078841848298907,-0.0007730562938377,-0.0071393670514225,0.0874372528865933,-0.1556038371473551,-9.80343883931637,14936.0
13.2,2.5,79.0,24.70170783996582,-0.1351801604032516,-79.78274109633115,40.459074792025376,271.1090851869584,0.0039105010218918,0.008140655234456,0.1959332972764969,0.980575680732727,-0.0160440259602916,-0.0077547013540879,0.0119151150996006,0.0095247738063335,0.0025768794585019,0.0075318599119782,0.09360824896954,-0.1799891201220453,-9.806476467847824,14936.0
13.3,2.400000095367432,79.0,24.70922088623047,-0.1033730581402778,-79.7827409381633,40.45907486774732,271.1110398616791,0.0038741261232644,0.008176589384675,0.1959150433540344,0.9805791974067688,-0.0122260887613019,-0.0040173033525098,0.0117192942440799,2.269954711664468e-05,-0.0013610490132123,-0.0041110897436738,0.0864775968901813,-0.1578109600581228,-9.80319968819618,14936.0
13.5,2.400000095367432,79.0,24.69795227050781,-0.1351801604032516,-79.78274082252769,40.459074912858426,271.11229895019534,0.0038555411156266,0.0081598302349448,0.1959303021430968,0.9805763959884644,-0.015803459147734,-0.003672609895474,0.0114357470734297,-0.007907697930932,-0.0045202542096376,-0.0049548046663403,0.0941464668978005,-0.1861643828451632,-9.807190997600555,14936.0
13.6,2.400000095367432,81.0,24.706716537475582,-0.0874695107340812,-79.78274083810356,40.45907490340056,271.11344884300235,0.0038621372077614,0.0081585273146629,0.1958953142166137,0.9805833101272584,-0.017473205199168,-0.0052859967697878,0.0112584287868414,0.0047343480400741,0.0042685810476541,0.0038774698041379,0.0874698602501303,-0.1645895092561841,-9.80267987072468,14936.0
13.8,2.400000095367432,82.0,24.69294357299805,-0.0238553211092948,-79.78274072588192,40.459074941603454,271.11162362957003,0.0038535690400749,0.0081705832853913,0.1958801448345185,0.9805862903594972,-0.0199658892187285,-0.0041494002136483,0.0068997377576287,-0.0092512471601367,-0.0035759750753641,-0.0079810190945863,0.093271869616583,-0.1861878813430667,-9.805677153468134,14936.0
13.9,2.299999952316284,81.0,24.69670104980469,-0.0238553211092948,-79.78274059301049,40.45907498761419,271.1133304681778,0.0038657861296087,0.0081859091296792,0.1958592236042022,0.980590283870697,-0.0146844521669964,-0.0024812635679895,0.0100349618426655,0.0061250152066349,0.0038477678317576,0.005671951919794,0.0899323968496173,-0.1702612536214292,-9.804598342180253,14936.0
14.1,2.299999952316284,82.0,24.714229583740234,-0.0795177370309829,-79.78274060879515,40.45907498008654,271.1143697347641,0.0038736658170819,0.0081743896007537,0.1958875507116317,0.9805847406387328,-0.0175779767755974,-0.0037277219899065,0.0102111365944742,0.0035022248048335,0.0004118961514905,0.0050563178956508,0.0928003099467605,-0.1880048487894236,-9.806746024489405,14936.0
14.2,2.200000047683716,82.0,24.702960968017567,-0.0636141896247863,-79.78274047962476,40.45907500003286,271.1155821528435,0.0038792460691183,0.0081699574366211,0.195868045091629,0.9805886149406432,-0.014738940635242,-0.0054154942260169,0.0102815923057269,0.0048334854654967,0.0028610506560653,0.0025448526721447,0.0879232204612344,-0.1717252685129642,-9.804652136564256,14936.0
14.4,2.200000047683716,82.0,24.70170783996582,0.0079517737030982,-79.78274037013436,40.459075026725294,271.11528591775897,0.0038663842715322,0.008182443678379,0.1958857774734497,0.980584979057312,-0.0158693606276591,-0.0015165985402053,0.0069824923580631,-0.0112922051921486,-0.0040879873558878,-0.0059163034893572,0.09308423794806,-0.1867954984121024,-9.805710482597352,14936.0
14.5,2.0999999046325684,83.0,24.70796775817871,0.0,-79.78274038587746,40.459075019788095,271.1160069551468,0.0038739198353141,0.0081948479637503,0.1959094703197479,0.9805801510810852,-0.0171396986980644,-0.0030602263241997,0.0070103936848191,0.0033336400520056,0.0049018273130059,0.0058683063834905,0.0885421391017735,-0.1689901603013277,-9.804532853364943,14936.0
14.7,2.0999999046325684,84.0,24.702960968017567,0.0159035474061965,-79.78274040468709,40.45907501024542,271.1167419996262,0.0038852565921843,0.0081836283206939,0.1958979815244674,0.9805824160575868,-0.0196988393755961,-0.0042557933005534,0.0070912728642267,0.0037963828071951,0.0001878786133602,0.0059016793966293,0.0944297462236136,-0.1861982418783008,-9.806646037101746,14936.0
14.8,2.0,84.0,24.70045661926269,0.0477106422185897,-79.78274029531356,40.45907499786325,271.11565183067324,0.0038954203482717,0.0082338424399495,0.1958860754966736,0.9805843830108644,-0.0213106027217113,-0.0083606467133754,0.0041038777952217,0.0042795240879058,0.0010362307075411,-0.0019218018278479,0.0884955258294939,-0.1668357171490788,-9.802945919036867,14936.0
15.0,2.0,84.0,24.70796775817871,0.0,-79.78274018640678,40.45907499043544,271.11574540996554,0.003873731708154,0.008235989138484,0.1958749890327453,0.9805866479873656,-0.0216572144192972,-0.0090713603790403,0.0033770753465812,-0.008984737098217,-0.0011392559390515,-0.0042481878772377,0.09354591216892,-0.1867768604122102,-9.805240951180457,14936.0
15.1,1.8999999761581416,83.0,24.70922088623047,0.0079517737030982,-79.78274020584381,40.45907497451059,271.11609618330004,0.003884055186063,0.0082312747836112,0.1958636790513993,0.9805889129638672,-0.023075079469496,-0.0107197040587519,0.0033148236158129,0.0058822128921747,-7.403746712952851e-05,0.0009944352786988,0.0880739872623235,-0.1644912212155759,-9.802844177484513,14936.0
15.3,1.8999999761581416,82.0,24.70546531677246,-0.0397588685154914,-79.78274008163916,40.45907497156266,271.118159219265,0.0038795799482613,0.0082318466156721,0.195869654417038,0.9805877804756165,-0.0209205247635788,-0.0100377733365118,0.0059418922000437,-0.0072100032120943,-0.0037977516185492,-0.0064384285360574,0.0942823415715247,-0.1866865757480264,-9.806706848144534,14936.0
15.4,2.0,83.0,24.702960968017567,-0.0238553211092948,-79.78273990035973,40.45907494608869,271.1224872913361,0.0038978091906756,0.0082764467224478,0.1958242952823639,0.980596363544464,-0.0106943190394892,-0.0176919715763374,0.0125481549559651,0.0042130472138524,-4.2510659113759175e-05,-0.0016010949620977,0.0875192235410213,-0.1627328172884881,-9.803298506140711,14936.0
15.6,1.8999999761581416,83.0,24.70922088623047,-0.0079517737030982,-79.78273990417685,40.45907492739412,271.1237429823876,0.0038798481691628,0.0082662422209978,0.1958556771278381,0.980590283870697,-0.0124005824016439,-0.0191156528434883,0.0124986949115199,0.0089347744360566,0.0029598576948046,0.0057969698682427,0.094232366150245,-0.1856209937855601,-9.805958989262582,14936.0
15.71,2.0,83.0,24.706716537475582,-0.0159035474061965,-79.78273979402985,40.45907484656215,271.13499949836734,0.0039201392792165,0.008234679698944,0.1958311945199966,0.9805952310562134,-0.0203428722557332,-0.026804094697545,0.0246473339901601,-0.0039582671597599,-0.001503943814896,-0.0044100433588027,0.0860586530249565,-0.1574663397856056,-9.80392708182335,14936.0
15.9,2.0,84.0,24.699203491210927,-0.0159035474061965,-79.78273965961951,40.45907481594808,271.14366172218325,0.0039050828199833,0.0082370918244123,0.1958616822957992,0.9805892705917358,-0.0161706839711423,-0.0230505150829345,0.0291689873338206,-0.0061551351100206,-0.0024057540576905,0.0028825155459344,0.0938583088014275,-0.1834027794376016,-9.806339643001555,14936.0
16.0,2.0,86.0,24.694196701049805,-0.0159035474061965,-79.78273966503627,40.45907479100229,271.14657013082507,0.0039185807108879,0.0082523431628942,0.1958527266979217,0.9805908203125,-0.0182863561777908,-0.024482234552023,0.0291151549479213,-0.0036777723580598,-0.0019691535271704,-0.0072622201405465,0.0874235027935356,-0.1570971246622503,-9.802281675338746,14936.0
16.2,2.0,86.0,24.699203491210927,0.0079517737030982,-79.78273967393207,40.45907476317943,271.1494788374901,0.003927634563297,0.0082338498905301,0.1958304792642593,0.9805954098701476,-0.0196992955488166,-0.0261879885196127,0.0289685660424885,0.0097661074250936,0.0033495961688458,0.004025537520647,0.0952459901198744,-0.1827796672470868,-9.805881221294404,14936.0
16.3,2.0,88.0,24.69670104980469,-0.0318070948123931,-79.78273950125798,40.459074790930366,271.1654800024033,0.0039168056100606,0.0082726860418915,0.1958484351634979,0.9805914759635924,-0.010515657472646,-0.0155034050090714,0.0416914183672413,-0.0026731125544756,-0.0053922901861369,-0.0064479862339794,0.087322007920593,-0.1558583554811775,-9.803655771017077,14936.0
16.5,2.0999999046325684,87.0,24.706716537475582,-0.0159035474061965,-79.78273932499269,40.4590748060082,271.1855606880188,0.0038700234144926,0.0082920938730239,0.1958573311567306,0.980589747428894,-0.0019943870678439,-0.0094990536067952,0.0586106914833762,-0.0036911650095134,-0.0016959883505478,0.0032178629189729,0.0931283935625106,-0.1806622260063886,-9.805010570883752,14936.0
16.61,2.0999999046325684,88.0,24.70546531677246,0.0079517737030982,-79.78273932224415,40.45907479626048,271.1914157714844,0.0038790500257164,0.008313700556755,0.1958471536636352,0.980591595172882,-0.0046627475243456,-0.0109339396188444,0.0587542221004473,-0.0079181427136063,-0.0011525566224008,-0.0078952144831418,0.0862809751275926,-0.1550701325386762,-9.802838914990426,14936.0
16.8,2.0999999046325684,88.0,24.70170783996582,-0.0318070948123931,-79.78273918131366,40.459074832727474,271.2092065062523,0.0038564885035157,0.0083216950297355,0.1958393603563308,0.9805931448936462,0.0004651122111555,-0.0021411358933831,0.0665744575666554,-0.0026035206392407,0.0010884786024689,0.0033031371422111,0.0922414714470505,-0.1770438227802515,-9.80583853662014,14936.0
16.9,2.0999999046325684,89.0,24.69670104980469,-0.0238553211092948,-79.7827390736767,40.45907481187186,271.2170101847649,0.0038523662369698,0.0083311004564166,0.1958426088094712,0.9805924296379088,-0.0012462792507617,-0.0009237564123246,0.0676821677807341,-0.0084670763462781,-0.0044077658094465,-0.0085213808342814,0.0876740285754203,-0.157041959837079,-9.802437795996669,14936.0
17.1,2.0,89.0,24.70546531677246,-0.0318070948123931,-79.782739072182,40.45907481042473,271.22377417945864,0.0038494877517223,0.0083393454551696,0.1958348900079727,0.9805938601493835,-0.00198899808649,-0.0025415624364987,0.0676204596845373,0.0078619755804538,0.0052130813710391,0.0041054836474359,0.0903719978313893,-0.1736883432604372,-9.803884397149089,14936.0
17.21,2.0,88.0,24.70546531677246,-0.055662415921688,-79.78273898448012,40.45907477885522,271.2365122880936,0.0038389682304114,0.0083231264725327,0.1958367675542831,0.980593740940094,-0.0082574980877861,-0.0006299341611002,0.0656167786247746,-0.0107598295435309,-0.0045528910122811,-0.0077349017374217,0.0881262102071195,-0.1613547016493976,-9.803294997811316,14936.0
17.4,2.0,89.0,24.70045661926269,-0.0874695107340812,-79.78273887563466,40.459074756804775,271.2457192387581,0.0038240230642259,0.0083359312266111,0.1958490163087844,0.9805912375450134,-0.0054299988439608,0.0021858115152338,0.0575525740524704,0.0059816492721438,0.002363103441894,0.0058919205330312,0.0892905918415635,-0.1677169656381011,-9.802764070630074,14936.0
17.5,1.8999999761581416,87.0,24.70796775817871,-0.0874695107340812,-79.78273888215209,40.4590747560447,271.2514971938133,0.0038321155589073,0.0083394721150398,0.1958834528923034,0.9805843234062196,-0.0090342955087724,0.0012048899097362,0.0577912954614711,-0.0095410495996475,-0.0008972928044386,-0.0025526518002152,0.089183140117675,-0.1674995953962207,-9.803510760068894,14936.0
17.7,1.8999999761581416,87.0,24.706716537475582,-0.0874695107340812,-79.78273889125747,40.45907475283053,271.2572825994492,0.0038285818882286,0.0083274850621819,0.1958495378494262,0.9805911779403688,-0.0104841893095462,-0.0004579861765309,0.0577597759788035,-0.0011116820387542,0.0024865632876753,-0.0011288094101473,0.0876122856326401,-0.1622440996952355,-9.803294997811316,14936.0
17.81,1.7999999523162842,87.0,24.70796775817871,-0.0874695107340812,-79.78273877631322,40.459074713647496,271.2647764530182,0.003805642016232,0.0083337174728512,0.1958486288785934,0.980591356754303,-0.0106622750215266,-0.00077780730593,0.0517053911782751,-0.0064653973095119,-0.0020598673727363,-0.0030140599701553,0.0896246871259063,-0.1749204429611564,-9.804774343371392,14936.0
18.01,1.7999999523162842,87.0,24.699203491210927,-0.1113248318433761,-79.78273867516944,40.45907463305921,271.27120481395724,0.0038078054785728,0.0083565823733806,0.1958311349153518,0.9805946946144104,-0.0115379557637958,-0.0070917199795913,0.0451858187095637,0.0084808990359306,0.0040654125623404,0.0051067727617919,0.0940288921818137,-0.1815655660070479,-9.805448527336123,14936.0
18.1,1.7000000476837158,85.0,24.70796775817871,-0.0795177370309829,-79.78273868552849,40.45907462190945,271.2757490720749,0.0037936912849545,0.0083588296547532,0.195826843380928,0.9805956482887268,-0.0149555585980984,-0.0081217000884006,0.0453987570967459,-0.0022159812506288,-0.0005034730420447,0.0008284038631245,0.0911506094131618,-0.1827324509806931,-9.805990564227104,14936.0
18.3,1.7000000476837158,87.0,24.71923637390137,-0.0238553211092948,-79.78273859105657,40.45907457888101,271.27646647357943,0.0037938272580504,0.0083703128620982,0.1958112120628357,0.9805986285209656,-0.0145171146338081,-0.0041869490443498,0.0377624013571366,-0.0109911514446139,-0.0036684544757008,-0.0072915721684694,0.0868260818067938,-0.1562817487120628,-9.802062404751778,14936.0
18.41,1.7000000476837158,88.0,24.71297645568848,-0.0874695107340812,-79.78273850469742,40.45907453878976,271.2816885557175,0.0037814532406628,0.0083753978833556,0.1958554089069366,0.9805898070335388,-0.0125534319473244,0.0014302787104671,0.0318891009668232,0.0006792822387069,-0.00017502233095,0.0082153063267469,0.0921128509752452,-0.1855082156136632,-9.80580169916153,14936.0
18.6,1.600000023841858,88.0,24.706716537475582,-0.0874695107340812,-79.78273851876916,40.45907453511934,271.2849082198143,0.0037960200570523,0.0083780596032738,0.1958670765161514,0.980587363243103,-0.0157592181849683,0.0004224684705767,0.0321687715023301,-0.010781449265778,-0.0026300384197384,-0.0037594486493617,0.0878582615498453,-0.1630348442494869,-9.803885566592216,14936.0
18.7,1.600000023841858,89.0,24.70922088623047,-0.1033730581402778,-79.78273843928196,40.45907445408554,271.2874363508225,0.0037883927579969,0.008386181667447,0.1958316266536712,0.9805943965911864,-0.0159111759519423,-0.0022687011801538,0.0234359966543856,0.0071726022288203,0.0021620797924697,0.002756310859695,0.0930063694808632,-0.1849029008857906,-9.806403962373734,14936.0
18.9,1.600000023841858,88.0,24.702960968017567,-0.1033730581402778,-79.78273834625693,40.45907437597605,271.293116435051,0.0037847808562219,0.0084273563697934,0.1958124339580536,0.9805978536605836,-0.015581481875481,-0.0046818660282091,0.0227614940104648,-0.0020758192986249,-0.0013528184499591,-0.0044446266256272,0.0888529277499765,-0.1754395478032529,-9.804697744846344,14936.0
19.0,1.600000023841858,88.0,24.699203491210927,-0.0874695107340812,-79.78273836045199,40.459074366492416,271.29540841245654,0.0037745242007076,0.008422321639955,0.1958295553922652,0.980594515800476,-0.0163865318697536,-0.0060426844512674,0.02269444607258,0.0078284405171871,0.0046694846823811,0.002184267155826,0.0946332932822406,-0.1803201273456216,-9.806214512586594,14936.0
19.2,1.5,88.0,24.71172523498535,-0.0874695107340812,-79.78273837704913,40.45907435467492,271.29770950937274,0.0037803293671458,0.0084152808412909,0.1958285123109816,0.9805948138237,-0.0197621278626214,-0.0069960046606429,0.0228286594887731,-0.0033926418982446,-0.0036347853019833,0.005338723771274,0.0910557017941028,-0.1829397713206708,-9.80589759349823,14936.0
19.31,1.5,86.0,24.70170783996582,-0.0874695107340812,-79.78273827200822,40.45907427908824,271.30202577972415,0.0037831324152648,0.008433629758656,0.1958240866661072,0.980595588684082,-0.016203764619705,-0.0066462858586359,0.0193371489878086,0.0062283417209982,0.0010424681240692,0.0026958368252962,0.0917133765108883,-0.1757934322580695,-9.804082617759708,14936.0
19.5,1.5,86.0,24.706716537475582,-0.0874695107340812,-79.7827381393017,40.45907420398788,271.3069496002197,0.0037834777031093,0.0084318164736032,0.1958095133304596,0.9805984497070312,-0.0119212311402524,-0.0067465813954943,0.0172392378682719,-0.0122863482683897,-0.0043767215684056,-0.0042343428358435,0.0933099861536175,-0.1859294161386788,-9.807441843152048,14936.0
19.61,1.5,86.0,24.710472106933597,-0.1033730581402778,-79.78273814874916,40.45907419347903,271.30867229366305,0.0037778606638312,0.0084424978122115,0.1957863718271255,0.9806030392646792,-0.0130103381044895,-0.0082405029939874,0.0171542137657166,0.0042772353626787,0.0041775810532271,-0.0006657790509052,0.0875152127165347,-0.164402434900403,-9.803515437841416,14936.0
19.8,1.5,86.0,24.70170783996582,-0.1192766055464744,-79.78273806161718,40.45907409583437,271.3140927996636,0.0037601618096232,0.008442704565823,0.1957948207855225,0.9806013703346252,-0.0167981825495553,-0.0082387124250166,0.0150938408603433,-0.0075568910688161,-0.0034437766298651,-0.0008779323543421,0.0935677752736956,-0.1852452005445957,-9.805790589451789,14936.0
19.9,1.5,89.0,24.70546531677246,-0.0954212844371795,-79.7827379647532,40.45907400190846,271.31876514816287,0.0037692179903388,0.0084455627948045,0.1957735270261764,0.9806056022644044,-0.0173486277459749,-0.0099721158981523,0.0136929144877324,-0.0049687470309436,-0.0024789716117084,-0.0041050999425351,0.0861389243323356,-0.156584744118154,-9.80275237619877,14936.0
20.1,1.5,86.0,24.706716537475582,-0.1192766055464744,-79.7827379785554,40.45907398751877,271.32014594936373,0.0037478213198482,0.0084464102983474,0.1957680135965348,0.980606734752655,-0.0180451347120037,-0.0112853174387376,0.0135499283128707,0.0055583836510777,0.0030580533202737,0.0027375477366149,0.0928319305926561,-0.1790004290454089,-9.80533801496029,14936.0
20.2,1.5,85.0,24.70922088623047,-0.0874695107340812,-79.7827378894407,40.459073896519314,271.32865039968493,0.0037378731649369,0.0084389988332986,0.1957627087831496,0.9806079268455504,-0.0200560311305623,-0.0097936776192664,0.0160570588626024,-0.0076677328906953,-0.0037215910851955,-0.0085831806063652,0.0889382788259536,-0.1583504022471606,-9.802518487572671,14936.0
20.4,1.600000023841858,85.0,24.70796775817871,-0.0954212844371795,-79.78273776905613,40.4590738269584,271.33853732013705,0.0037131004501134,0.0084672188386321,0.1957799643278122,0.9806042909622192,-0.0137834867298967,-0.0071604652980043,0.0178629621524837,0.0027464188169687,0.0009201746433973,0.0087711820378899,0.0897304395027458,-0.1697736506536603,-9.80447204232216,14936.0
20.5,1.600000023841858,86.0,24.70922088623047,-0.0795177370309829,-79.78273778137702,40.45907381574315,271.3403480496407,0.003730479395017,0.0084729483351111,0.1957824528217316,0.9806036949157716,-0.0171155846857298,-0.0079992942067079,0.0180961385027612,-0.0109573183581233,-0.0030884705483913,-0.0035939502995461,0.0882054217066615,-0.1685731807351112,-9.803972105383872,14936.0
20.6,1.600000023841858,85.0,24.710472106933597,-0.1272283792495727,-79.78273779585561,40.45907380235079,271.3421671237946,0.0037463488988578,0.0084678158164024,0.1957560926675796,0.9806089401245116,-0.0183164744446561,-0.0095479856220289,0.0180889572747515,-0.0006582829519174,0.0011599546996876,-0.0001277229748666,0.086453340081498,-0.1611137415468692,-9.803969766497612,14936.0
20.8,1.600000023841858,87.0,24.70922088623047,-0.1351801604032516,-79.78273766513713,40.45907374487145,271.3531480278969,0.0037194741889834,0.0084884418174624,0.195761576294899,0.9806077480316162,-0.0150767072702849,-0.0069566015060493,0.0195405236861324,-0.0072106993757188,-2.4344619305338707e-05,0.0005908735329285,0.0900955341663211,-0.1772153471969068,-9.804788376688958,14936.0
20.9,1.600000023841858,87.0,24.702960968017567,-0.1192766055464744,-79.78273755559455,40.459073683555296,271.3624625053406,0.0037074210122227,0.0085067106410861,0.1957539916038512,0.980609118938446,-0.0147988405088632,-0.006065444862501,0.0201763209021104,-0.0048076543025672,-0.0002727218379732,-0.00682317558676,0.0866035312972963,-0.156640822570771,-9.803027195334437,14936.0
21.1,1.600000023841858,87.0,24.70045661926269,-0.0715659633278846,-79.78273758296324,40.45907366078236,271.36654452943804,0.0036999932490289,0.008493049070239,0.1957470476627349,0.980610728263855,-0.0182360372044537,-0.0083090455210088,0.0202514837094747,-0.0003606973914429,-0.0028363298624753,0.004145523533225,0.0919047631882131,-0.1832721307128668,-9.805395317673684,14936.0
21.3,1.600000023841858,86.0,24.70922088623047,-0.0874695107340812,-79.78273746548513,40.459073586039466,271.3742531385422,0.0037070058751851,0.0085142571479082,0.1957366019487381,0.980612576007843,-0.0186276653982171,-0.0096295949556291,0.0169269713580921,-0.009079597890377,-0.0015799071406945,-0.0112874098122119,0.0870270158909261,-0.1576879309862852,-9.802109767198566,14936.0
21.4,1.7000000476837158,84.0,24.71297645568848,-0.0795177370309829,-79.78273735887045,40.45907349888544,271.3851426687241,0.0037232765462249,0.0085028950124979,0.1957496255636215,0.9806100130081176,-0.018160186837014,-0.0111375168219061,0.014832248793968,0.0051125078462064,0.0001964165858225,0.0045539336279034,0.0925293280463665,-0.1869281388446688,-9.804695405960084,14936.0
21.5,1.7999999523162842,85.0,24.70922088623047,-0.0954212844371795,-79.7827373740258,40.459073482797415,271.3866538848877,0.003721141256392,0.0084996903315186,0.195776954293251,0.980604648590088,-0.0212946035327587,-0.0119127380135331,0.0150801431116935,-0.0119847375899553,-0.0029779204633086,-0.0065079680643975,0.0891511997021734,-0.1653496107459068,-9.8039884775877,14936.0
21.7,1.7999999523162842,84.0,24.70546531677246,-0.0874695107340812,-79.78273724232523,40.45907344265679,271.39909313583377,0.0037127656396478,0.0085142916068434,0.1957480162382125,0.9806102514266968,-0.0139472670232195,-0.0064750436351454,0.0142717996837215,0.004542248789221,0.0045926608145236,0.0057412651367485,0.0942972793802619,-0.1832580243051052,-9.80591221153736,14936.0
21.8,1.7999999523162842,84.0,24.69795227050781,-0.1033730581402778,-79.78273725515312,40.45907343201803,271.400546535492,0.0036988274659961,0.0085145281627774,0.1957651376724243,0.9806069135665894,-0.0171060369060183,-0.007168307415529,0.0144512830339929,-0.0070152911357581,-0.0031533055007457,0.0014340373454615,0.0905509043578058,-0.1786886810883879,-9.80528363585472,14936.0
22.0,1.7999999523162842,84.0,24.710472106933597,-0.0874695107340812,-79.78273712869596,40.45907337275664,271.4148558225632,0.0036901617422699,0.0085429223254323,0.1957486718893051,0.9806100130081176,-0.014071034722531,-0.0086958550751047,0.0168163496612675,0.0093196304515004,0.0018497311975806,0.0024461492430418,0.0911266084201634,-0.177611569147557,-9.805330998301509,14936.0
22.2,1.7999999523162842,83.0,24.70922088623047,-0.0874695107340812,-79.78273714151823,40.45907335967129,271.41656117105487,0.0036939822603017,0.0085417432710528,0.1957444697618484,0.9806108474731444,-0.0166667221962356,-0.0096409992350634,0.0169423273367736,-0.0001414770813426,0.0015499558066949,0.0045484672300517,0.0924276230391115,-0.1844259508140385,-9.80551752448082,14936.0
22.3,1.7999999523162842,84.0,24.706716537475582,-0.0954212844371795,-79.78273702530541,40.45907331857736,271.4300973262787,0.0036775879561901,0.0085588861256837,0.1957581639289856,0.98060804605484,-0.0160907860389695,-0.0062197300511725,0.015725602011507,0.0039974376559257,0.0026574076618999,-0.0005238832673057,0.0883468146901577,-0.1659530251286924,-9.802841253876686,14936.0
22.4,1.8999999761581416,82.0,24.70796775817871,-0.0874695107340812,-79.7827368924102,40.45907327985917,271.4446453895569,0.003667714074254,0.0085654901340603,0.1957602947950363,0.9806075096130372,-0.013968940251983,-0.0042564584291349,0.0183785950945228,0.0071606845594942,0.0045036179944872,0.0048782406374812,0.0951020024344325,-0.1855304350331425,-9.805604063272476,14936.0
22.61,1.8999999761581416,79.0,24.702960968017567,-0.0874695107340812,-79.78273692235754,40.459073260328296,271.4483690109253,0.0036448740866035,0.0085928542539477,0.1957346349954605,0.9806125164031982,-0.0185606814621584,-0.0060682240114708,0.0185425842849037,-0.0049914037808775,-0.0019347659545019,-0.0034948375541716,0.0867326451279223,-0.1572120772674679,-9.8031371229887,14936.0
22.8,1.8999999761581416,78.0,24.704212188720703,-0.0954212844371795,-79.78273676206906,40.459073234523686,271.4635357704163,0.0036293449811637,0.0086120646446943,0.1957331001758575,0.9806126952171326,-0.0116825932012568,-0.0038454119519855,0.0201773650286269,0.00840182043612,0.0048179593868553,0.0042636515572667,0.0939548335410654,-0.1799926284514367,-9.806089966893197,14936.0
22.9,1.7999999523162842,79.0,24.699203491210927,-0.0954212844371795,-79.78273663390287,40.45907318307657,271.48153851890567,0.0036168335936963,0.0086209345608949,0.1957296580076217,0.9806133508682252,-0.01223431553533,-0.0052625124394099,0.0238904307285591,-0.0112277027219533,-0.0048445365391671,-0.0087696984410285,0.0902227111067622,-0.1601974097639322,-9.802388094663618,14936.0
23.1,1.7999999523162842,81.0,24.70045661926269,-0.0715659633278846,-79.78273664334256,40.45907317434979,271.48393450641635,0.0036116370465606,0.0086292652413249,0.1957428306341171,0.9806106686592102,-0.0124517903730449,-0.0066268488229964,0.0237594248941631,0.0069352332502603,0.0005425328854471,0.0005008017178624,0.088920353455469,-0.167651787456125,-9.80271787762642,14936.0
23.2,1.7000000476837158,80.0,24.70170783996582,-0.0795177370309829,-79.78273665486797,40.45907316366165,271.4863343086243,0.0036198329180479,0.0086053367704153,0.1957433074712753,0.9806107878684998,-0.0142302165312489,-0.0075694688057379,0.0237832698294636,0.0043895919807255,0.0001699072890914,0.004827728960663,0.0877870442904532,-0.1691794639080762,-9.803755758404732,14936.0
23.31,1.7000000476837158,78.0,24.70796775817871,-0.0954212844371795,-79.782736523497,40.45907314495204,271.5059954967499,0.0036110116634517,0.0086268177255988,0.195785954594612,0.9806020855903624,-0.010893286672014,-0.0030793529647078,0.0268165334856792,-0.0008896767394617,0.0012014309177175,-0.0028600806836038,0.0867573496140539,-0.1580390562862157,-9.802032583951949,14936.0
23.51,1.7000000476837158,76.0,24.69544792175293,0.2624085247516632,-79.78273641171272,40.45907311122795,271.5240939702988,0.0035934553015977,0.0086278319358825,0.1958187818527221,0.980595588684082,-0.0118166645377931,-0.0007849552963281,0.0260939378820742,-0.004820090252906,-0.0018491098890081,-0.0021284653339535,0.088733142055571,-0.1806824354454875,-9.805739718675614,14936.0
23.6,1.7000000476837158,77.0,24.664146423339844,0.8667433857917786,-79.78273642395595,40.45907310576686,271.5267164554596,0.0036029403563588,0.0086249634623527,0.1957473158836364,0.9806098341941832,-0.014846351766624,-0.0018035872701358,0.0262080195089099,-0.0096819419413805,-0.00709471385926,-0.0301106385886669,0.0811986209638416,-0.1592194812186062,-9.80126893758774,14936.0
23.8,1.7000000476837158,78.0,24.68167495727539,0.2067461162805557,-79.78273628556124,40.45907305538577,271.5454994287491,0.0035903088282793,0.0086602019146084,0.1958295553922652,0.9805931448936462,-0.0110378400565664,-0.0046465272546401,0.0258330087687673,0.0012681235093623,-0.0021394833456724,0.0070737279020249,0.0949845190811902,-0.1937576501816511,-9.804938065409662,14936.0
24.0,1.7000000476837158,78.0,24.68918800354004,0.198794350028038,-79.78273616441912,40.45907300280607,271.5641624774933,0.0035919998772442,0.0086830966174602,0.1958172172307968,0.9805954694747924,-0.0094521692271231,-0.0065102241598476,0.0254205773984432,0.0059672882780432,0.0027078848797827,0.0058473544195294,0.093656552452594,-0.1578503374010324,-9.800471377372745,14936.0
24.1,1.600000023841858,76.0,24.69544792175293,0.2306014448404312,-79.78273617304262,40.459072993165705,271.56673012638095,0.0035874710883945,0.0086715528741478,0.195781484246254,0.9806026816368104,-0.0119833442946458,-0.0072991606718369,0.0254997242503242,0.002881632419303,-0.0018454438541084,-0.0028532005380839,0.0937241426110267,-0.1867749600671232,-9.8052099609375,14936.0
24.2,1.5,75.0,24.68918800354004,0.2226496636867523,-79.7827360659659,40.45907297400521,271.58314810657504,0.0035525432322174,0.0086912689730525,0.1957907229661941,0.9806007742881776,-0.0105949863153068,-0.0006143861680049,0.025474569547672,-0.0056942687369883,0.0008528913022018,-0.0025311068166047,0.0897612470202148,-0.1686179302074015,-9.805865433812142,14936.0
24.41,1.5,73.0,24.67917060852051,0.2862638533115387,-79.78273592064127,40.45907291828219,271.6020128574372,0.0035314899869263,0.0087466975674033,0.195792555809021,0.9806000590324402,-0.0035395270859991,-0.0051053884189277,0.0245240793494041,0.0042434558272361,0.0045559424906969,0.0035191515926271,0.0922839642595499,-0.1849706920422613,-9.80637121796608,14936.0
24.6,1.399999976158142,71.0,24.68543243408203,0.3737333714962005,-79.78273592305408,40.45907291243893,271.6044834699631,0.0035496370401233,0.0087321978062391,0.1958473920822144,0.9805891513824464,-0.0060774540264206,-0.0054435455627349,0.0246682457085367,-0.0052058240398764,-0.0062557817436754,0.0046716607175767,0.0945554796326905,-0.1818746827170252,-9.800993533730509,14936.0
24.71,1.399999976158142,70.0,23.59364318847656,11.90380573272705,-79.78273592672267,40.45907290506372,271.60696099662783,0.0035676008556038,0.0087247770279645,0.1958261728286743,0.9805933833122252,-0.0081412711901381,-0.0062815037374953,0.0248119446721505,-0.0095635866746306,-0.0063210455700755,-0.0077407550998032,0.0657031842833384,-0.1791601311229169,-9.851130484342576,14936.0
24.8,1.399999976158142,69.0,24.620325088500977,0.7713220715522766,-79.78273580436412,40.45907283498644,271.62585113906863,0.0038761342875659,0.0085025085136294,0.1956890076398848,0.9806215167045592,3.556848394907348e-05,-0.0076204792087186,0.0245659666894352,0.0302346069365739,0.0092067504301667,0.0137968221679329,0.1263517338596284,-0.2067283824831247,-9.799425310492516,14936.0
25.0,1.2999999523162842,71.0,24.68668365478516,0.1431319266557693,-79.78273567873546,40.45907278987641,271.64657674694064,0.0038010289426893,0.0085852304473519,0.1957913637161255,0.980600655078888,-0.0037479714711277,-0.0027046815472493,0.0282507365159234,-0.0056375749409198,-0.0031147722620517,0.0097773745656013,0.0998948554694652,-0.1532868413999676,-9.79969428241253,14936.0
25.11,1.2000000476837158,69.0,24.19462776184082,6.552261829376223,-79.78273568110646,40.4590727835157,271.649460062027,0.0037903045304119,0.0085541103035211,0.195760041475296,0.980607271194458,-0.0037482970275744,-0.0052655049501309,0.0289081904465655,0.0022899957839399,-0.0270303394645452,0.0194762758910656,0.0967857904080301,-0.2111664922535419,-9.807566388845444,14936.0
25.3,1.100000023841858,66.0,24.680423736572266,0.1908425688743592,-79.78273559454334,40.45907272453236,271.6673886623383,0.0038113361224532,0.008586554788053,0.1958327740430832,0.9805923700332642,-0.0070237251056844,-0.0043937551367119,0.027173441740499,0.0160617195069789,0.037837415933609,0.0089519685134291,0.1139530237019062,-0.1679587480053305,-9.80467260181904,14936.0
25.5,1.100000023841858,67.0,24.68543243408203,0.3339745104312897,-79.78273546783777,40.45907265727632,271.6825712766648,0.0037214895710349,0.0085929408669471,0.1958244442939758,0.980594277381897,-0.0023374482551811,-0.0015068483462715,0.0265367514850425,-0.0045857881195843,1.3220229448052123e-05,0.008974633179605,0.1180533197242766,-0.204531656652689,-9.81211084485054,14936.0
25.6,1.100000023841858,65.0,24.57650375366211,2.7433619499206543,-79.78273547069294,40.45907264818775,271.68790028953555,0.003760109655559,0.0086451107636094,0.1958575695753097,0.9805870652198792,-0.0040767765197082,-0.0056906495026705,0.0271556173568026,0.0001459547493141,-0.0052463049069046,0.008309006690979,0.0868568984605372,-0.1968116509169341,-9.80614843904972,14936.0
25.7,1.100000023841858,65.0,24.48385238647461,4.516607761383057,-79.78273535362841,40.45907258608148,271.70374201202395,0.0037574155721813,0.0086245685815811,0.1958818882703781,0.9805824160575868,-0.003752065895396,0.0006241871847262,0.025872394286202,-0.007864355109632,-0.0031323337461799,0.0028940537013113,0.1091984059754759,-0.1552852187119424,-9.814590064287186,14936.0
25.91,1.0,64.0,24.386192321777344,6.695393562316895,-79.7827352510168,40.45907246996661,271.7242482748032,0.0038801694754511,0.0085377572104334,0.1958430558443068,0.9805904626846312,-0.0011197621119247,-0.0050962078316346,0.029454334814495,0.0119118383154273,-0.005169145297259,0.0009341809200122,0.0872498587612062,-0.2255312373116612,-9.801756010651587,14936.0
26.0,1.0,68.0,24.3148250579834,7.474667549133301,-79.78273525274443,40.459072464573175,271.72722183132174,0.0039750761352479,0.008520376868546,0.1959421783685684,0.9805704355239868,-0.0088681769227241,-0.0068625018516551,0.0296921112524061,-0.0412830263376236,-0.0203023236244916,-0.0194208268076181,0.0924250009283423,-0.1189324942789972,-9.816082273721696,14936.0
26.2,1.0,70.0,24.18210792541504,10.25778865814209,-79.78273525600859,40.459072456870544,271.7302220907212,0.0041739763692021,0.0083676427602767,0.1958880871534347,0.9805817008018494,-0.013710382201416,-0.0087179537764339,0.0296875742312724,-0.0101488437503576,0.0115973753854632,0.0533116683363914,0.0428491820208728,-0.1343718113936484,-9.754763107895853,14936.0
26.4,0.8999999761581421,70.0,24.02935791015625,13.239703178405762,-79.78273508413744,40.45907226052918,271.77291046047213,0.0050542694516479,0.0078447218984365,0.1958336532115936,0.9805927872657776,0.0014838984640729,0.0009502763253614,0.045957278892969,0.0705158859491348,0.0395167805254459,-0.1120685413479805,0.1281294701434672,-0.1911542505025864,-9.882803682088852,14936.0
26.5,1.0,68.0,23.93044471740723,14.83800983428955,-79.78273508667641,40.4590722595061,271.77748869323733,0.0054342397488653,0.0075976960361003,0.1958066821098328,0.9805980920791626,-0.0063719532313218,-0.0055194734663877,0.045647896989722,-0.0214460305869579,0.0172045081853866,0.0355908386409282,0.094525859830901,-0.1981676567718386,-9.799291409254074,14936.0
26.6,1.0,66.0,23.847810745239247,16.78619384765625,-79.78273508861734,40.459072256816896,271.78220795059207,0.0056730299256742,0.0076256748288869,0.1956254094839096,0.9806326627731324,-0.0039372574201484,0.0042829411652302,0.0461860608062762,0.0160168688744306,-0.0179472491145133,-0.0177575349807739,0.2918570449948311,-0.1973207789473236,-9.842764288187029,14936.0
26.81,1.100000023841858,72.0,23.676279067993164,20.19750595092773,-79.7827349956798,40.459072158291946,271.814556344986,0.0069309961982071,0.0071982680819928,0.1959032714366912,0.9805723428726196,-0.0073739822975548,-0.0072794111104739,0.0837145542785832,-0.0028479979373514,0.077648639678955,-0.0904293730854988,0.039507247027941,0.0361027833726257,-9.912162551879884,14936.0
27.0,1.100000023841858,73.0,23.453413009643555,24.03026008605957,-79.78273487650252,40.45907203337409,271.8360850658417,0.0081590907648205,0.0086483201012015,0.1957631856203079,0.9805791974067688,0.0045675819144362,-0.0093342547136147,0.0887415599313168,-0.0251537095755338,0.0378395207226276,-0.0658048018813133,0.0638254286348819,-0.131461469437927,-9.867727221250538,14936.0
27.1,1.2000000476837158,76.0,23.35825729370117,26.24880599975586,-79.78273485129225,40.45907200971494,271.8662285652161,0.0068507031537592,0.0057172826491296,0.1963637918233871,0.9804905652999878,0.006312143502077,-0.0158108513582066,0.2448846173590304,-0.0056710219942033,-0.0872244909405708,-0.0606975518167018,0.0226952366530895,-0.2087175687029958,-10.738022121191024,14936.0
27.3,1.2000000476837158,77.0,23.67878341674805,18.84570503234864,-79.78273479751901,40.45907184062639,271.93291126155856,0.0019770904909819,-0.0049274619668722,0.1999040842056274,0.9798011779785156,-0.029159529962703,-0.0208744798501982,0.4217551241973225,-0.1879992038011551,0.0058952788822352,-0.0969918295741081,0.0339429772272706,-0.2098947045765817,-11.02640796661377,14936.0
27.4,1.2999999523162842,78.0,23.649986267089844,19.37052154541016,-79.78273461603176,40.45907169443264,271.9802241172791,-0.0012046605115756,-0.0081642055884003,0.2006946951150894,0.9796190857887268,-0.0403974817971351,-0.0170178826350001,0.3862813589750797,-0.1220562160015106,-0.0347915105521678,-0.0007032516878098,-0.030499714098405,-0.121220948304981,-9.916685957908632,14936.0
27.5,1.2999999523162842,78.0,23.56109046936035,21.024490356445312,-79.78273464906056,40.45907167096029,272.0171900835037,-0.0021819418761879,-0.0082262232899665,0.2004481106996536,0.9796674251556396,-0.0504549055801498,-0.0109897428104192,0.3539045966348182,-0.0551299192011356,0.0291295610368251,-0.0251073706895113,-0.0746873534750193,0.0558009154396131,-9.624367275238036,14937.0
27.71,1.399999976158142,80.0,23.54982185363769,21.25509262084961,-79.78273477550404,40.45907130366672,272.0622199621201,0.0020424239337444,-0.0008353796438314,0.1977557986974716,0.9802488088607788,-0.0925195905908512,-0.019957824001087,0.2435330775704774,0.0449833162128925,0.0715170055627822,0.025767121464014,0.0644156273966655,-0.0057499017671216,-9.578480080962182,14937.0
27.8,1.5,80.0,23.596147537231445,20.06232643127441,-79.78273487871049,40.45907126313425,272.08494459056857,0.0029604092705994,0.0001954775070771,0.1968174278736114,0.9804357290267944,-0.100833777613175,-0.006523826227147,0.213436543064566,0.0399940572679042,0.0235670264810323,0.0452505238354206,0.1332612515520304,-0.1734053745679557,-9.56340771317482,14937.0
28.0,1.5,80.0,23.46343040466309,22.7977352142334,-79.78273522549839,40.459070965760695,272.14112697505954,0.001097175409086,0.0003701988898683,0.1945007592439651,0.9809017181396484,-0.1390211105955452,0.0034672949948552,0.1760244331870708,0.0422809012234211,0.0174984652549028,0.0560489632189273,0.0483852618467062,-0.2142060394026339,-9.65506691157818,14937.0
28.2,1.5,80.0,23.415851593017567,23.282794952392567,-79.78273538915748,40.45907091498883,272.1591027822495,0.0013971496373414,0.0022607839200645,0.1934252381324768,0.9811114072799684,-0.1582959735917975,0.0042173048360647,0.1859730219932014,-0.004777108784765,0.0232007205486297,0.0273469407111406,0.0073151180287823,-0.1261346742510795,-9.87414278626442,14937.0
28.31,1.600000023841858,80.0,23.3933162689209,24.07001876831055,-79.78273568780203,40.45907079350307,272.2275107946396,0.0064405985176563,0.0067966431379318,0.1929083913564682,0.9811721444129944,-0.1414319590724034,0.0161473813601455,0.2279821907485858,0.1245297491550445,0.0679045096039772,-0.0153732616454362,0.137022811062634,-0.2540345315448939,-9.975896033048633,14937.0
28.4,1.600000023841858,77.0,23.460926055908203,21.74810218811035,-79.7827356265525,40.45907072200871,272.28112886810305,0.00538688339293,0.008399000391364,0.1932220757007599,0.9811043739318848,-0.1177609983728193,0.0312135236130582,0.2552515177570609,0.050444409251213,-0.082364909350872,-0.0096707409247756,0.0873677989281714,-0.1474369762279093,-10.010648374557496,14937.0
28.61,1.600000023841858,76.0,23.42586898803711,23.815563201904297,-79.78273589823594,40.45907066818047,272.33359752559664,0.004261371679604,0.0091555593535304,0.1938951313495636,0.98097026348114,-0.1114484137024115,0.0116703185531891,0.2614048794884617,0.0558428950607776,0.0514785386621952,0.075858749449253,0.0422168558975681,-0.2642943119443953,-9.841476731300354,14937.0
28.8,1.600000023841858,76.0,23.39957618713379,23.266889572143555,-79.78273626146621,40.45907062874302,272.3946003761292,0.00517223123461,0.0077390968799591,0.1953340321779251,0.9806926250457764,-0.119525352746538,0.027236743426557,0.268190439243331,0.0054945601150393,0.082147903740406,-0.0077877729199826,0.0646993315592408,-0.0237578767351806,-9.888355028629304,14937.0
28.9,1.600000023841858,75.0,23.32695770263672,24.197248458862305,-79.78273621707399,40.45907042241186,272.4342503395081,0.0067202108912169,0.0069134742952883,0.1965779215097427,0.9804408550262452,-0.1139452585369025,0.0087633774566938,0.2945960991822363,-0.0835969597101211,-0.0601306222379207,-0.1309356093406677,-0.042681485703215,0.1035089829191565,-9.956008483171464,14937.0
29.0,1.600000023841858,74.0,24.15456199645996,10.265740394592283,-79.78273632412997,40.45907038413114,272.46502374076846,0.0074238814413547,0.0080861430615186,0.1976591348648072,0.9802094101905824,-0.0872515728440678,-0.0004779874047329,0.2949955280012403,0.1619850397109985,0.0503249578177928,0.0974543467164039,0.0824608703702688,-0.2232384526915848,-9.67920655667782,14937.0
29.2,1.7000000476837158,73.0,23.27186584472656,25.517242431640625,-79.78273660643369,40.45907014293847,272.5234598960877,0.004276055842638,0.0062940181232988,0.1985271573066711,0.9800658226013184,-0.1165326838474954,-0.0121048383294017,0.135486809310247,-0.0316075608134269,-0.0388476960361003,0.0430322848260402,0.1064171961229294,-0.354566313251853,-9.445596258044244,14937.0
29.3,1.7000000476837158,72.0,23.139148712158203,28.11747169494629,-79.7827367301007,40.459070083412975,272.5393249835968,0.0028019961901009,0.0023741098120808,0.1981482952833176,0.9801652431488036,-0.1297971627059664,-0.0129992539469081,0.185781898577228,-0.0611234232783317,-0.1846467405557632,0.000728991231881,0.0651102126622572,-0.1931451177969575,-10.089310966730116,14937.0
29.5,1.7999999523162842,72.0,23.09031867980957,28.7218074798584,-79.78273683668303,40.45907001710864,272.6313607540131,-5.9009173128288246e-05,0.0045955041423439,0.198325902223587,0.9801254272460938,-0.0975810021157198,0.0071157428064245,0.4397363350049552,0.1324470043182373,0.0144136371091008,0.0713724344968795,-0.0604716119170188,-0.1757048286683857,-10.937781718969346,14937.0
29.7,1.7999999523162842,73.0,23.069034576416016,29.21481704711914,-79.78273695493343,40.45906998433033,272.68206690216067,0.0009277581702917,0.0068527986295521,0.1988564878702164,0.9800042510032654,-0.1160954585682207,0.0050871134691698,0.5757634669183641,0.0122816106304526,0.0494342036545276,-0.0032395471353083,0.0253190559055656,-0.0155523876473307,-11.165302727222445,14937.0
29.81,1.8999999761581416,74.0,22.598262786865234,39.91790390014648,-79.78273710643819,40.45906968730085,272.82114408874514,0.0006721303798258,0.0061959577724337,0.1997699588537216,0.9798230528831482,-0.1295520282676084,-0.005300611273486,0.8721113502575145,-0.0601685605943203,0.0195394642651081,-0.0086208842694759,-0.0215547943417914,-0.0764134012861177,-11.552367353439331,14937.0
29.9,1.8999999761581416,75.0,22.535659790039062,38.86032104492188,-79.78273722396689,40.459069479104414,272.9259278621674,0.0022535743191838,0.0043254448100924,0.1997488439083099,0.9798350930213928,-0.1274363666874596,-0.0074070624497977,1.1141471628666153,-0.0218056570738554,0.0629839077591896,-0.0436901599168777,0.0592692736303433,0.018622029684484,-12.216646134853365,14937.0
30.1,2.0999999046325684,74.0,22.70969581604004,35.81478881835937,-79.78273746654203,40.45906938724666,273.2037989940644,-0.0013129119761288,0.0041623897850513,0.1979212164878844,0.9802082777023317,-0.1224743029431385,0.0024203814403661,1.637329758255352,0.0355869010090827,-0.0559048280119896,-0.0036952367518097,-0.0262780723627656,-0.133769639544189,-12.237618927955628,14938.0
30.21,2.0999999046325684,74.0,22.740997314453125,35.11503219604492,-79.78273753371133,40.45906915105561,273.38335417175296,-0.0047507681883871,0.0051229279488325,0.1966644674539566,0.9804459810256958,-0.1403532844914537,-0.0061310626529807,1.86857059839396,-0.0060710930265486,-0.0524279922246933,-0.010490845888853,0.0134433449269272,-0.1370107146352529,-12.262940880060196,14938.0
30.4,2.299999952316284,74.0,22.519384384155277,38.69333267211914,-79.78273767743025,40.45906880098803,273.7851323928833,-0.0010232663480564,0.0047366684302687,0.197249487042427,0.9803414344787598,-0.1573210661171836,-0.0236710402440166,2.3116843312103588,-0.0577500835061073,0.0533399209380149,-0.1316010355949402,0.0822156162187457,-0.1436687381006777,-12.151249705553054,14938.0
30.6,2.400000095367432,74.0,22.75727462768555,34.28009796142578,-79.78273781691911,40.45906875309485,274.0281963195801,-0.0004555271880235,0.0057704127393662,0.1985011845827102,0.9800835847854614,-0.1531402190116274,0.0025465010237848,2.5477501478758144,0.0778825283050537,-0.0283073727041482,-0.0161531623452901,0.1583569620922208,-0.1928859582357108,-12.183256194591523,14939.0
30.7,2.5999999046325684,73.0,22.90251159667969,30.8608341217041,-79.78273795862683,40.45906871254573,274.295513376236,-0.003120141569525,0.0087549220770597,0.1993628740310669,0.979881763458252,-0.1635907725421019,0.0134151635163954,2.792775121992624,0.0359651409089565,-0.05918825045228,0.0229576174169778,0.088621122194454,-0.2146930211037396,-12.204623090028765,14939.0
30.8,2.700000047683716,73.0,22.9638614654541,28.690000534057607,-79.78273810479088,40.459068361531294,274.85655449295047,-0.0083776600658893,0.011732748709619,0.2012089937925338,0.979442298412323,-0.1866579415389573,-0.0108461915959266,3.0837439456537634,0.0591609328985214,0.0777468010783195,0.0257030017673969,0.034803897505626,-0.2445148807391524,-11.294720320701597,14939.0
31.01,2.900000095367432,74.0,22.92880439758301,29.930477142333984,-79.78273813301126,40.45906797954958,275.42588137054446,-0.0058407015167176,0.0103673916310071,0.2017856836318969,0.9793575406074524,-0.1711544481632719,-0.0189990000160128,3.153229957552872,0.0224403720349073,0.0855893641710281,0.0196914542466402,-0.0129249961115419,-0.3154088987410069,-10.40026355624199,14940.0
31.21,3.0,74.0,23.09657859802246,25.85121726989746,-79.78273824555939,40.459067969001005,275.743796333313,-0.0040292139165103,0.0095515744760632,0.2022610008716583,0.9792768359184264,-0.1531569909722709,0.006866084169127,3.1945774209072217,0.0741077065467834,0.0307553857564926,0.0936512351036071,-0.0688890077546239,-0.4101269218325615,-10.20541328072548,14940.0
31.3,3.2000000476837163,77.0,23.07779884338379,27.3620548248291,-79.78273840115841,40.45906770929894,276.35563038253787,-0.0033408922608941,0.01078777667135,0.2012901455163956,0.9794666171073914,-0.1500178755789419,0.0246465420594494,3.1654103119691284,0.0343944691121578,-0.0241939090192318,-0.0851801410317421,0.0370374927716329,0.0152428141236305,-9.740977712273596,14941.0
31.5,3.299999952316284,76.0,23.102840423583984,25.87507247924805,-79.78273848131494,40.45906740919136,276.95307014846804,-0.0031579504720866,0.0157294329255819,0.197960153222084,0.9800788760185242,-0.1712339356052128,0.017373322079684,3.1086210094080773,-0.0437823757529258,0.0660469904541969,-0.0980774387717247,0.0587980337301269,0.0050057465024292,-9.657399950623512,14941.0
31.6,3.5,79.0,23.19674301147461,24.65049934387207,-79.7827385687756,40.45906741098364,277.26337526702883,-0.0030934996902942,0.0165673960000276,0.1966700106859207,0.9803248643875122,-0.1590096564624471,0.0341582094296304,3.0880303191145217,0.0397435612976551,-0.0189710929989814,0.0444476306438446,0.0282812051055952,-0.2251772432215512,-9.625564785003665,14942.0
31.7,3.5,80.0,23.09282302856445,26.65434646606445,-79.7827383743417,40.45906711509021,277.5264987792969,-0.0021747346036136,0.016943372786045,0.1956003308296204,0.9805349707603456,-0.1333297039026663,0.0117736502261931,3.010978279416465,0.1669384092092514,0.1668034195899963,0.1143581643700599,0.09916777247563,-0.4202542262524366,-9.476661345362665,14942.0
31.9,3.5999999046325684,82.0,23.05150604248047,26.9724178314209,-79.78273834295184,40.45906695652529,278.0846924629212,0.0019906249362975,0.0153365563601255,0.1957681626081466,0.9805283546447754,-0.1309048641898799,0.028675939165636,2.9078070690226334,-0.1592400968074798,-0.0343877971172332,-0.1016120687127113,0.0662126823328435,-0.1687182465009391,-9.4547699546814,14943.0
32.01,3.700000047683716,83.0,23.06527900695801,26.63049125671387,-79.78273837361563,40.45906695320806,278.37420700454715,0.003958904184401,0.0147262429818511,0.195934921503067,0.980498433113098,-0.1133846555237649,0.0313406667979574,2.8842991017940705,-0.0385874956846237,-0.0018799954559654,-0.089865393936634,0.0323274258035235,-0.0435403411835432,-9.557885602712632,14943.0
32.2,3.700000047683716,85.0,23.11786460876465,25.23892974853516,-79.78273839607877,40.45906694745818,278.6620445098877,0.0055147837847471,0.0149057060480117,0.1965934783220291,0.9803562760353088,-0.1012839231986334,0.0343210660083732,2.8696215128011207,-0.0500198639929294,0.0587818697094917,-0.1297210752964019,0.1103661314863711,0.0793870439194142,-9.611771203279496,14943.0
32.41,3.700000047683716,86.0,23.026464462280277,27.22687339782715,-79.78273855255091,40.45906764282311,279.5387992706299,0.0051341038197278,0.0173886362463235,0.1995028704404831,0.9797295928001404,-0.0558077936488344,0.091109945581551,2.7461057893028,0.1103650256991386,0.0352617278695106,0.1213345602154731,0.1131206360086798,-0.3550016019120812,-9.521044635772702,14944.0
32.51,3.700000047683716,93.0,23.018951416015625,26.646394729614247,-79.7827385512976,40.45906768543208,279.8135919418335,0.0055526038631796,0.0152730559930205,0.1996648162603378,0.9797294735908508,-0.0685693740134301,0.0871853988146724,2.7445026113726403,-0.0822138711810112,0.0107040610164403,-0.007967778481543,0.1003363111149519,-0.2831480558216572,-9.703012325763703,14944.0
32.6,3.700000047683716,92.0,23.08531188964844,24.82543754577637,-79.78273854404934,40.459067725609735,280.08817098999026,0.0058801416307687,0.0138078490272164,0.199605718255043,0.9797614216804504,-0.0573358853528943,0.0836422791961355,2.742157795884166,-0.079912818968296,-0.023079888895154,0.0216883346438407,0.002039307821542,-0.4117891756072641,-9.70625168323517,14945.0
32.8,3.700000047683716,93.0,23.01394462585449,27.17121124267578,-79.78273841597152,40.45906788364567,280.741056427002,0.0088616088032722,0.0134579455479979,0.1990282088518142,0.979861319065094,-0.038273517360057,0.079651662864896,2.749558636926726,-0.0748680233955383,-0.0808344036340713,-0.003272735280916,0.0156365601439028,-0.2956972769647837,-9.730000734329224,14945.0
33.0,3.5999999046325684,94.0,22.955097198486328,27.958436965942383,-79.78273809124691,40.45906807975997,281.4084329452515,0.0119831319898366,0.0115733947604894,0.198758527636528,0.9799069166183472,-0.025415141976796,0.0909939442926786,2.8009951305150365,-0.1279894113540649,-0.0594737976789474,-0.1560314893722534,0.0866147780511528,-0.0197506382362917,-9.780386776328088,14946.0
33.1,3.5999999046325684,96.0,23.006431579589844,27.68807601928711,-79.78273804641547,40.4590681043456,281.6894559707642,0.011851018294692,0.0093293897807598,0.1983535587787628,0.9800145626068116,-0.0140551126642623,0.0813563881898769,2.817532871540407,-0.0984302535653114,-0.0583328194916248,-0.0940413177013397,0.1701280650123954,-0.0777641492150724,-9.93700386285782,14946.0
33.2,3.5999999046325684,99.0,23.036481857299805,27.012176513671875,-79.78273794828762,40.45906817407828,282.06480978393563,0.0099472859874367,0.0087480610236525,0.1982872784137725,0.9800544381141664,-0.009055713381929,0.0725696389978836,2.853590406549391,-0.1168747246265411,-0.088472880423069,-0.1275169104337692,0.0867555954493582,0.1245964728109538,-9.897033466100694,14947.0
33.4,3.5,101.0,22.99766731262207,26.43169593811035,-79.78273792073027,40.45906839855597,282.7221841659546,0.0059675388038158,0.0117479003965854,0.198599562048912,0.9799922108650208,-0.0109860636118797,0.0545411127159618,2.901418575908861,0.0089852754026651,0.0006419155979529,-0.0303306952118873,0.0224262281879782,-0.029197431821376,-9.930242142677308,14947.0
33.5,3.5,102.0,23.155426025390625,23.664478302001957,-79.78273788013591,40.45906841613461,283.01255129241946,0.0071350056678056,0.0129541866481304,0.1983926892280578,0.9800111055374146,-0.0270709407083076,0.0501314000283636,2.8984834007618536,0.0052046151831746,0.1060249805450439,-0.04373100399971,0.1174980626441538,-0.08396499350667,-9.783370610475536,14948.0
33.71,3.400000095367432,103.0,23.032724380493164,26.63049125671387,-79.78273784540093,40.45906843173525,283.30036352539065,0.0087348483502864,0.0120176458731293,0.197970449924469,0.9800954461097716,-0.0227601627424327,0.0545746865271156,2.8523835749637296,0.0402760431170463,0.136076420545578,0.1157950982451438,0.1397336076479405,-0.4388907643407584,-9.477895107865336,14948.0
33.9,3.400000095367432,104.0,23.091571807861328,23.79170799255371,-79.78273813740608,40.4590686598941,283.95485685729983,0.0139459166675806,0.0080917915329337,0.1972969472408294,0.9802111983299256,-0.0317156638264623,0.0979883496492928,2.8213881257414086,-0.1118515953421592,-0.1196500957012176,-0.0421292893588542,0.1835884102620184,-0.0345308508072048,-9.549009529352189,14948.0
34.0,3.400000095367432,104.0,22.97137451171875,27.147356033325195,-79.78273800434788,40.45906874222742,284.61280630493167,0.0140032498165965,0.0079167196527123,0.197470560669899,0.9801768660545348,-0.0097545727464647,0.0829812678396095,2.8460622649263296,0.095542311668396,0.1206924691796302,0.0800171121954917,0.1844525373727083,-0.1390946440212428,-9.595424727201465,14949.0
34.1,3.400000095367432,104.0,22.98389434814453,26.38398551940918,-79.78273799850966,40.45906873749849,284.8969039764405,0.0152118168771266,0.0099287433549761,0.1980763375759124,0.9800182580947876,-0.0231753223130042,0.0740511645294587,2.8346175372802382,0.0499965585768222,0.0586615428328514,-0.0238289311528205,0.1347658863198012,-0.3879959780350328,-9.650090346336365,14949.0
34.3,3.400000095367432,107.0,22.980138778686523,25.962541580200195,-79.78273805536925,40.45906874010182,285.5201225128174,0.0112833753228187,0.0104735242202878,0.1996826380491256,0.9797396659851074,-0.0485583837920599,0.0448777279231018,2.854044733057936,-0.0277525223791599,-0.0583563707768917,-0.0542180202901363,0.1556564986333251,-0.3264417541399598,-9.76254867553711,14950.0
34.4,3.400000095367432,105.0,23.036481857299805,26.29651641845703,-79.78273790420039,40.45906883731061,285.8623380508423,0.0098934015259146,0.011331039480865,0.2005163729190826,0.9795749187469482,-0.0700214269700281,0.0351818172862557,2.8914136194555766,-0.1383615881204605,-0.060674387961626,-0.0891052559018135,0.1254155032709241,-0.0332853756006807,-9.792374737858774,14950.0
34.61,3.400000095367432,106.0,22.89499855041504,28.03000259399414,-79.78273788450969,40.45906874291664,286.44187162780764,0.0090532656759023,0.0122815929353237,0.2006683498620987,0.979540467262268,-0.0759287880143917,0.0164214764263259,2.9212251972669634,-0.0364160425961017,-0.1251987963914871,0.0475310869514942,0.1352162041515112,-0.3282623212784529,-10.04582171559334,14951.0
34.8,3.400000095367432,105.0,22.973878860473643,26.93265914916992,-79.78273783000209,40.45906859406266,287.074287399292,0.0071109212003648,0.0152029357850551,0.1992968767881393,0.9797954559326172,-0.0986049248921389,-0.0164308639315971,2.9436906844263966,-0.1649788618087768,-0.0458860248327255,-0.0763170644640922,0.2013310187123716,-0.0994260823633521,-9.95038229227066,14952.0
34.91,3.400000095367432,103.0,22.992658615112305,25.93073463439941,-79.78273791127016,40.45906855036432,287.3995666351318,0.0095987766981124,0.0141180111095309,0.1991126239299774,0.979827880859375,-0.1059978217620427,-0.0104380257596335,2.947423770304392,-0.1218084767460823,-0.0190489143133163,-0.1213275119662284,0.0639537384733557,-0.0045469227991998,-9.700900896191598,14952.0
35.0,3.400000095367432,100.0,22.950090408325195,27.05988693237305,-79.78273789459695,40.45906847948726,287.69405172729495,0.0131160635501146,0.0114749399945139,0.1995192766189575,0.9797390103340148,-0.0834795646640431,-0.0154000914605375,2.9409218608384213,-0.0455701239407062,0.0941719189286232,-0.1229063346982002,0.1587885596975684,0.046101677455008,-9.692486168146132,14952.0
35.21,3.400000095367432,97.0,22.910024642944336,27.529041290283203,-79.7827381560993,40.4590682546773,288.3256931152344,0.0107534090057015,0.0048036975786089,0.2001922279596328,0.9796859622001648,-0.0707409034249776,-0.0041031012896877,2.9776751986594068,-0.0327452532947063,-0.1774699687957763,-0.0028466207440942,0.0967065514996647,-0.1588804340735078,-9.913804450035094,14953.0
35.4,3.5,97.0,22.93882179260254,26.95651435852051,-79.78273815625073,40.45906815355493,288.6247901763916,0.0057771145366132,0.0029627995099872,0.2000643759965897,0.9797613024711608,-0.0748974798449556,-0.0386627662670286,3.0069241725677984,-0.1247114464640617,-0.1378065943717956,-0.0378109700977802,0.1184433746896684,0.0330568591039627,-10.040805974006654,14953.0
35.5,3.5,95.0,22.89249610900879,27.61651039123535,-79.78273845635044,40.45906775730323,289.25424383544924,-0.000244480848778,0.0092692105099558,0.1978814601898193,0.98018217086792,-0.0936222621719306,-0.0988190616822638,3.0470431442462846,0.1664187759160995,-0.0281548835337162,0.0999255180358886,0.0544978908402845,-0.4180428458377719,-9.93387677192688,14954.0
35.7,3.5,96.0,22.96010589599609,27.632413864135746,-79.78273848338324,40.45906763486068,289.5592708435059,3.982790076406673e-05,0.013004895299673,0.1968024224042892,0.9803569912910458,-0.14170758621287,-0.1052306464593761,3.050856118455832,-0.1164002567529678,-0.0246579013764858,0.0212016608566045,0.0098194439476355,-0.1201804819609969,-9.837746207714082,14954.0
35.81,3.400000095367432,94.0,22.950090408325195,26.23290252685547,-79.7827393444436,40.45906699091096,290.18595884704587,0.0009542849147692,0.0125198196619749,0.1950581073760986,0.9807114005088806,-0.2239109140050779,-0.0859360844806051,3.076921017488918,-0.2469796687364578,-0.0618428215384483,-0.1311475485563278,0.0852887757215648,0.053528189510107,-9.934641587734223,14955.0
35.9,3.400000095367432,92.0,22.966365814208984,26.185192108154297,-79.78273937083111,40.459066704490425,290.5130538787842,0.0004859140317421,0.0075086341239511,0.1952591687440872,0.9807229042053224,-0.179282197544618,-0.101593740138278,3.1029143196290248,-0.1658853888511657,-0.1000663936138153,-0.0657372698187828,0.0372297793719917,0.1137979628518223,-10.002270483970642,14955.0
36.1,3.299999952316284,86.0,22.9638614654541,26.996273040771484,-79.78273944653694,40.45906644616706,291.13625334167483,0.0021938374266028,0.0068397349677979,0.1943192034959793,0.9809120297431946,-0.0980715625401043,-0.1086446932495151,3.108388633789174,0.1420893222093582,0.0705233365297317,0.1421652883291244,0.077984543563798,-0.1773656389117241,-9.759154366850852,14956.0
36.2,3.299999952316284,86.0,23.00392723083496,25.74784469604492,-79.782739503399,40.459066365640496,291.4607581939697,0.0020237108692526,0.0064029125496745,0.1948270350694656,0.9808146357536316,-0.0917148353220013,-0.0898753271395571,3.095736740276767,0.0577235743403434,0.0460020191967487,0.0562510192394256,0.0791129191406071,-0.295816560164094,-9.764976439476014,14956.0
36.41,3.2000000476837163,82.0,22.973878860473643,24.57098197937012,-79.78273951506478,40.45906609312228,292.0939044799805,0.0021504119504243,0.0006846495671197,0.1967109739780426,0.9804589748382568,-0.0754636433937244,-0.1007024149435939,3.0359078273127795,-0.1002743169665336,0.0020729608368128,-0.1287360489368438,0.0636709799151867,0.0626141596399247,-9.44689433991909,14957.0
36.6,3.2000000476837163,81.0,22.913780212402344,27.163259506225582,-79.7827395261327,40.45906597755359,292.39541052246096,0.0011957441456615,-0.0019460964249446,0.1978375166654586,0.9802321791648864,-0.0559374998982514,-0.1026012733515544,2.9959357615053968,0.0812368690967559,0.0653305426239967,0.0316780172288417,0.1079587048944086,-0.043559490814805,-9.429112957119942,14957.0
36.71,3.2000000476837163,82.0,22.88498306274414,26.67820167541504,-79.78273954459134,40.45906586269693,292.6932468261719,-0.0007053086301311,-0.0004096383636351,0.1998438984155655,0.9798274040222168,-0.048371532657753,-0.1049761369678256,2.962235002356049,0.1178542301058769,-0.0014800847275182,0.071057803928852,0.053945479709655,-0.1962334343791008,-9.598860551118852,14957.0
36.8,3.2000000476837163,80.0,23.01144027709961,25.588808059692383,-79.78273978859137,40.45906581480671,293.31640814208987,-0.0016377045540139,0.0038955989293754,0.2024480104446411,0.9792839884757996,-0.0813786713044055,-0.0837519020522675,2.956090895355891,-0.0655581355094909,-0.0718504711985588,-0.074207454919815,0.1094178318791091,-0.1392585031036287,-9.655338222384453,14958.0
37.0,3.0999999046325684,77.0,22.91878890991211,27.44157218933105,-79.78273977498715,40.45906561553458,293.9451541748047,0.0021186438389122,0.0093673346564173,0.2009124457836151,0.9795622229576112,-0.0932612672986799,-0.0664350869328077,2.9671582772404594,-0.0717579126358032,0.0758976489305496,-0.0725562125444412,-0.0081606573890894,0.0740328764542937,-9.724743502736091,14958.0
37.2,3.0999999046325684,76.0,22.90126037597656,27.56879997253418,-79.78273979060494,40.45906553957378,294.24201391601565,0.0072783543728291,0.0073285424150526,0.2001755088567733,0.9797056913375854,-0.1018894559197021,-0.0498561337119004,2.969789359859476,-0.1250098347663879,0.0390729308128356,-0.0054799714125692,0.0550610553659498,-0.1255941905267536,-9.807730110883712,14959.0
37.3,3.0,71.0,22.893747329711918,28.41168785095215,-79.78273972308527,40.45906529720303,294.8437423553467,0.0056823096238076,-0.001512732822448,0.1979410797357559,0.9801963567733764,-0.0396614554829233,-0.0380579784583132,2.9859104305705286,-0.0901693925261497,-0.2095222026109695,-0.0370970144867897,0.0318841908685863,0.0765041930135339,-9.81298792719841,14959.0
37.4,3.0,74.0,22.75727462768555,30.32011413574219,-79.78274001918345,40.459065368107616,295.1743774261475,0.0003374404623173,-0.0016222888370975,0.1971278637647628,0.9803764224052428,-0.0319941619913392,-0.0282332972375586,3.021845195271008,0.0011555554810911,-0.1285457462072372,-0.0425775311887264,0.0387007332639768,0.0766218636604026,-9.995321652889253,14960.0
37.61,3.0999999046325684,71.0,22.98264312744141,26.61458778381348,-79.78274007433414,40.45906522959488,295.786783203125,-0.005068281199783,0.0019932666327804,0.1954775899648666,0.9806931018829346,-0.065740349194031,-0.078904728322189,3.090390215187123,-0.0374589674174785,-0.0144933992996811,-0.021382313221693,0.0017705620243214,-0.0017061170283704,-10.077427085638048,14960.0
37.71,3.0,70.0,22.94508171081543,27.97434043884277,-79.78274031243328,40.45906502002808,296.0977191772461,-0.0052153170108795,0.0028357373084872,0.1943718791007996,0.9809100031852722,-0.0885363977589434,-0.0819496862221927,3.0836012314617847,-0.1297546029090881,-0.118441566824913,-0.0312274284660816,-0.0637965077580884,-0.1336475606448948,-9.944491807222368,14961.0
37.91,3.0999999046325684,66.0,22.96010589599609,24.04616355895996,-79.78274054537556,40.45906485369061,296.7213821258545,-0.0048999772407114,0.0033780965022742,0.1942030489444732,0.9809433817863464,-0.090504592808618,-0.0684945057501817,3.10251180590312,-0.0694800540804863,-0.06475680321455,-0.0337496697902679,-0.0421245018672198,0.0777656475640833,-9.906125886440275,14961.0
38.1,3.0999999046325684,66.0,22.952592849731445,25.040136337280277,-79.7827405888779,40.45906480174322,297.03113363647464,-0.0047347475774586,0.0037767775356769,0.1951361745595932,0.9807575345039368,-0.0783453638632136,-0.0662056681010732,3.0854410179180385,0.0516313575208187,0.1171298325061798,0.0071154958568513,-0.0553817934170365,-0.0045421171188354,-9.66532585144043,14962.0
38.21,3.0999999046325684,63.0,22.9350643157959,26.86904335021973,-79.78274063820017,40.45906475360353,297.33841513061526,-0.004071322735399,0.002047877991572,0.196529671549797,0.98048734664917,-0.0814029542590905,-0.0547203131118829,3.0586255917605194,0.0305913668125867,0.0172969158738851,0.0708760395646095,0.0092022292222827,-0.3578369533270598,-9.61023806333542,14962.0
38.3,3.0999999046325684,60.0,22.837404251098643,27.680124282836918,-79.78274107656787,40.45906465726645,297.9593067016602,-0.0039827548898756,-0.0015325214480981,0.1984438747167588,0.9801030158996582,-0.0909073704019793,-0.0328252876631605,3.005051948616112,-0.1344936639070511,-0.0616770535707473,-0.1753244400024414,-0.154938935637474,0.093587537035346,-9.561014447808269,14962.0
38.51,3.0999999046325684,58.0,22.79608726501465,27.886871337890625,-79.78274126300532,40.45906451170635,298.5836105194092,-0.0018201721832156,0.0006109772366471,0.198653057217598,0.980068027973175,-0.095217900737125,-0.034307288886556,3.0158123420697773,-0.1318273395299911,0.016071293503046,-0.1939368993043899,-0.1350269644986838,0.1292153346352279,-9.695268858075144,14963.0
38.6,3.2000000476837163,56.0,22.841161727905277,27.60855865478516,-79.78274134964829,40.459064463992725,298.8855018463135,-0.0023077516816556,0.0014821598306298,0.1988210380077362,0.9800320267677308,-0.0987093057555435,-0.0349256470667259,3.026953480714889,0.0161931980401277,-0.0380350314080715,-0.0681311413645744,-0.0240322390571236,0.0225383622525259,-9.93700620174408,14963.0
38.8,3.2000000476837163,54.0,22.910024642944336,26.73386383056641,-79.7827416339563,40.45906452714261,299.5268936004639,-0.0084861069917678,0.0062113590538501,0.19742052257061,0.980262577533722,-0.1054212697370146,-0.0292140164514037,3.067203309624358,0.0823960080742836,-0.0928198397159576,0.1231610774993896,-0.0838173056300729,-0.2977787395566702,-9.8839637696743,14964.0
39.0,3.2000000476837163,53.0,22.7785587310791,29.00012016296387,-79.78274196967428,40.45906457851808,300.15919302368167,-0.0138398548588156,0.0045199654996395,0.1969910860061644,0.9802971482276917,-0.1314477465051657,-0.0440771322727777,3.0626230131180487,-0.1725689470767974,-0.0562817268073558,-0.1264367848634719,-0.2019596126675606,-0.1625330983288586,-9.745554912686348,14965.0
39.11,3.299999952316284,49.0,22.84491729736328,26.66229820251465,-79.78274204938063,40.45906457800237,300.4663123931885,-0.0132742999121546,0.002816226799041,0.1967823654413223,0.9803533554077148,-0.115943626624164,-0.0476020780675441,3.0817372909384093,-0.134929358959198,-0.0392020083963871,-0.1101486235857009,-0.1834535771235824,0.0786218992061913,-9.916620469093322,14965.0
39.2,3.299999952316284,49.0,22.86495018005371,26.54302215576172,-79.78274220843424,40.45906449215026,300.7922344055176,-0.0116329248994588,0.0001635408989386,0.1967141330242157,0.9803919196128844,-0.1026607103630051,-0.0463996824028535,3.1068602029296843,-0.2237418293952942,-0.0026650226209312,-0.2221157848834991,-0.1633910858631134,0.1478293335344642,-9.957950928211211,14965.0
39.4,3.400000095367432,49.0,22.90126037597656,26.360130310058597,-79.78274246079431,40.4590644311598,301.42322920227053,-0.0114131662994623,-0.0010795029811561,0.1972115039825439,0.9802939295768738,-0.0654581649263743,-0.028708320869689,3.1137189382600554,-0.0680082142353057,-0.1008555367588996,0.0338578782975673,-0.1470643624104559,-0.1128954816609621,-9.863089209794998,14966.0
39.6,3.400000095367432,49.0,22.787322998046875,28.30831527709961,-79.78274254208935,40.459064445732665,301.7342395629883,-0.0118476236239075,-6.362795102177188e-05,0.1978269219398498,0.9801654815673828,-0.0800902931097559,-0.0240938683419752,3.1059039878461574,-0.0778849646449089,-0.039973858743906,-0.0106779942288994,-0.1504941837955266,-0.0231475187838077,-9.723322044610976,14966.0
39.7,3.400000095367432,50.0,22.84616851806641,26.7497673034668,-79.78274263322395,40.45906446457659,302.04372404479983,-0.0110428808256983,0.0008558526751585,0.1985189467668533,0.9800345301628112,-0.0881569910175099,-0.0162964976260478,3.086772049772712,-0.073555551469326,-0.1069878786802292,0.0364902652800083,-0.1738706667535007,-0.1546499918214977,-9.652613419890404,14967.0
39.9,3.400000095367432,50.0,22.98138999938965,24.63459587097168,-79.78274290865203,40.45906436711915,302.97965048217776,-0.0092134326696395,0.0038414760492742,0.1987965703010559,0.979990005493164,-0.0892230639936683,0.0113620497684762,3.0334592882374896,-0.0853715911507606,-0.0572988130152225,-0.0993341580033302,-0.0631684300024062,-0.1270612021163106,-9.729452265501024,14967.0
40.0,3.5,53.0,22.821128845214844,28.713855743408203,-79.78274299277527,40.45906439438753,303.2804660644532,-0.0101678622886538,0.0043370150960981,0.198639690876007,0.9800102710723876,-0.099002353256588,0.0070398960298133,2.9862175620692093,-0.0303860660642385,-0.0801079720258712,0.0743803232908248,-0.1551305415853858,-0.2969459133222699,-9.390583314299583,14968.0
40.1,3.5,53.0,22.719711303710927,29.23072052001953,-79.78274308300395,40.45906442082687,303.5780544128418,-0.0088579533621668,0.0051829554140567,0.197741225361824,0.9802005290985109,-0.1160275934335468,0.0061016711959319,2.976372912832184,-0.1737816631793975,-0.0844990909099578,0.0236168708652257,-0.2459896216169,0.0011359495483338,-9.62893687427044,14968.0
40.31,3.5999999046325684,55.0,22.97763442993164,25.71603775024414,-79.78274324083237,40.459064424619406,304.1991977539064,-0.0089783677831292,0.0056259608827531,0.1959402412176132,0.9805586338043212,-0.1215730041575151,0.0123380341483923,3.0464089663288028,-0.0092450091615319,-0.0435092821717262,0.146618366241455,-0.2219474788382649,-0.493226235061884,-9.9649418592453,14969.0
40.5,3.5999999046325684,57.0,22.76228141784668,28.554821014404297,-79.78274336916212,40.4590645218973,304.5046825256348,-0.0097871497273445,0.0056819170713424,0.1973093152046204,0.9802759885787964,-0.1017438572985149,0.0125261224922204,3.0359040178983165,0.1108930706977844,0.0497933775186538,-0.0220204088836908,-0.1276695866324007,-0.3120176232978702,-9.86093158721924,14969.0
40.61,3.700000047683716,60.0,22.89750289916992,27.33024787902832,-79.78274358492375,40.45906456456531,305.1184024658204,-0.0124124689027667,0.0142168849706649,0.2017511874437332,0.9792550206184388,-0.14919318683372,0.0084585871165542,3.0961203693629664,0.069442443549633,-0.0459416918456554,-0.1247306764125824,-0.0684228202141821,-0.3113726388663053,-10.036284906864166,14970.0
40.8,3.799999952316284,62.0,22.82238006591797,26.43169593811035,-79.78274383651944,40.45906453007069,305.72414587402346,-0.0129554299637675,0.0158670637756586,0.2051116228103637,0.9785242676734924,-0.179193875672744,0.0005262120413856,3.0868766962828382,0.1711517423391342,0.0487294979393482,0.1933719962835312,-0.2101111977361142,-0.2015276861563325,-9.8853366959095,14970.0
40.9,3.799999952316284,62.0,22.90501594543457,26.46350288391113,-79.78274389222905,40.45906458244615,306.0212650146485,-0.0116906845942139,0.0145133305341005,0.204765185713768,0.9786337614059448,-0.1854956768407005,0.0097053908939625,3.066719713147575,-0.1415166705846786,0.0089746406301856,-0.1009290143847465,-0.0898819189332425,-0.1349329248256981,-9.813882551193238,14971.0
41.1,3.900000095367432,63.0,22.73348426818848,29.37385368347168,-79.78274399151445,40.45906461365092,306.32784078979495,-0.0100130829960107,0.0139130027964711,0.2038097083568573,0.9788605570793152,-0.1721702785016843,0.0146093297063375,3.0634544134199446,-0.0701311454176902,0.0376648120582103,-0.0154533181339502,-0.1918806391395628,-0.1249609187990427,-9.78564517736435,14971.0
41.2,4.0,64.0,22.83615303039551,25.81941032409668,-79.78274408537659,40.459064646212376,306.6342983093262,-0.0089312484487891,0.0150010325014591,0.202302560210228,0.9791674613952636,-0.1433260165295035,0.0259051915787041,3.059264544617173,0.1066786274313926,-0.0006918329745531,0.0610862448811531,-0.0242486225813627,-0.5253673196956515,-9.778021577596665,14971.0
41.41,4.0,65.0,22.862445831298828,26.81338119506836,-79.78274445571353,40.45906473993888,307.55029486083987,-0.0102384928613901,0.0155356042087078,0.1979033350944519,0.9800450205802916,-0.1592622277374675,0.0193098518351558,3.07330811373972,0.0526721738278865,-0.0283923987299203,0.0795871764421463,-0.1976840737648308,-0.2374703563190997,-9.840618360042573,14972.0
41.5,4.0,65.0,22.81987571716309,27.012176513671875,-79.78274453981392,40.45906477106085,307.8586864318848,-0.0105837462469935,0.0155389374122023,0.1965841501951217,0.9803066849708556,-0.1503762988520516,0.0141878610326953,3.0916820120376767,0.0312780141830444,0.0995613038539886,0.0391024351119995,-0.0543995251413434,-0.4001710139214993,-10.020371124744416,14972.0
41.6,4.0,64.0,22.973878860473643,23.441829681396484,-79.782744618334,40.45906480161668,308.16924475097665,-0.0098485127091407,0.0153325451537966,0.1961904466152191,0.9803965091705322,-0.1538540063855177,0.0118519550851202,3.1104821411885046,0.0122308805584907,0.0521521419286727,-0.0573956407606601,-0.1130821266118437,-0.1511770198121667,-9.97094110250473,14973.0
41.81,4.0,63.0,22.81111145019531,26.821332931518555,-79.78274469644788,40.459064926587146,308.77770422363284,-0.007677333895117,0.0149824321269989,0.19614277780056,0.9804308414459229,-0.1147107777471096,0.0182871524598302,3.041086766874716,-0.0456164367496967,0.0130582861602306,-0.1896669566631317,-0.0928694532718509,0.0340266655012965,-9.549410648345948,14973.0
41.9,3.900000095367432,63.0,22.777305603027344,28.25265312194824,-79.78274476168502,40.45906493088948,309.0852145996094,-0.0083320401608943,0.0146778579801321,0.1952602565288544,0.9806062579154968,-0.1172240917678135,0.0132022282049338,3.0280156680152435,-0.1229672208428382,-0.0335900634527206,-0.0471714548766613,-0.236860181093216,0.015233367215842,-9.616381732821464,14974.0
42.1,3.900000095367432,65.0,22.86995887756348,25.453628540039062,-79.78274478508754,40.4590649904575,309.6955432739258,-0.0076874941587448,0.0102635202929377,0.1935763210058212,0.9810014367103576,-0.073125307169433,-0.0068788716008468,3.08740755717563,-0.0055125160142779,0.0461753010749816,-0.0589725822210311,-0.1070798227004706,-0.1321132055763155,-10.148545600175858,14974.0
42.3,3.900000095367432,65.0,22.78481864929199,26.86904335021973,-79.78274485651043,40.459065065560544,310.3161830749512,-0.010004362091422,0.0062174126505851,0.1937423199415207,0.9809818267822266,-0.0521370979222775,-0.0106069719607171,3.0899144047723346,-0.0118548460304737,0.0107906498014926,-0.1462591290473938,-0.0954708429705351,-0.2370828686468303,-9.92292259812355,14975.0
42.4,3.799999952316284,64.0,22.893747329711918,25.42182159423828,-79.7827448955946,40.45906504972279,310.6247768249512,-0.0105160055682063,0.0058769234456121,0.1943461000919342,0.980859100818634,-0.0539183769325058,-0.0332511916676566,3.0688884782093693,0.0829712897539138,0.0469334349036216,-0.0426529161632061,-0.1378960744477808,-0.1270695343986153,-9.680359627604483,14975.0
42.5,3.900000095367432,64.0,22.767290115356445,27.81530570983887,-79.78274491483731,40.45906506587296,310.93024633789065,-0.0106840878725051,0.0078138653188943,0.1950783133506775,0.9806984066963196,-0.0740964738757372,-0.0341653818170165,3.039276171023311,-0.076731152832508,-0.0528690889477729,-0.0313263311982154,-0.2828317762725055,0.0297860454395413,-9.524455901384352,14975.0
42.7,3.900000095367432,63.0,22.6859073638916,28.80927658081055,-79.7827448949885,40.459065137211375,311.54448126220706,-0.0085843205451965,0.0083470698446035,0.1965475678443908,0.9804211854934692,-0.0745719453016448,-0.0263732738614496,3.018459801766207,-0.0697360262274742,0.0063493447378277,-0.1449187397956848,-0.041764715379104,-0.040068465527147,-9.637006616592409,14976.0
42.9,3.900000095367432,63.0,22.75602149963379,27.751691818237305,-79.78274483991311,40.45906528395304,312.1662540283204,-0.0070645115338265,0.0097670024260878,0.1972906738519668,0.9802709817886353,-0.0474586485511596,-0.0148931833243752,3.051875587355796,0.1567786633968353,0.0889400467276573,0.0128965070471167,-0.1691220150142908,-0.1121418943349272,-9.812028983831404,14977.0
43.01,3.900000095367432,63.0,22.754770278930664,26.89289855957031,-79.78274485248663,40.45906530207649,312.4714450683594,-0.0065148249268531,0.0103254336863756,0.1972760111093521,0.9802719950675964,-0.0706195816424652,-0.0067426567675807,3.052561739133462,-0.0138381337746977,-0.0091002807021141,-0.18173810839653,-0.1218427540082484,-0.1127223127149045,-9.77710941195488,14977.0
43.1,3.900000095367432,63.0,22.66963005065918,29.683971405029297,-79.78274486807412,40.45906531428891,312.77669332885745,-0.0079358043149113,0.0100231952965259,0.1975070238113404,0.9802181720733644,-0.0786121969872289,-0.0131070781960316,3.0519958808371355,-0.0188150014728307,0.0017971268389374,-0.11677236109972,-0.0523114022053778,-0.1411523431632667,-9.828193026781085,14977.0
43.31,4.0,63.0,22.64709281921387,29.397708892822266,-79.7827451695078,40.45906521072478,313.38435934448245,-0.0092997252941131,0.0094372769817709,0.1982032507658004,0.980071485042572,-0.0975013168779169,-0.0478490023109695,3.0618913158993064,0.1648701131343841,0.1176799014210701,-0.001551566645503,-0.0233985105156898,-0.2285800120979547,-9.806398699879647,14978.0
43.4,4.0,65.0,22.7785587310791,27.22687339782715,-79.78274538121853,40.45906509756389,313.68763540649417,-0.0092159686610102,0.0097580878064036,0.1984126567840576,0.9800267219543456,-0.1387961603164359,-0.0562652049556213,3.066002231255252,-0.0286283381283283,0.0266483072191476,-0.2037439346313476,-0.1848105879686773,-0.0576930698566138,-9.864001375436782,14978.0
43.6,4.0,66.0,22.72221565246582,27.7039794921875,-79.78274552731091,40.45906502641376,314.3033199157715,-0.0098241921514272,0.009727437980473,0.1986842304468155,0.9799661040306092,-0.1432018334413732,-0.0596478827063956,3.090523559639128,0.0062110046856105,0.0197483170777559,-0.1510193347930908,-0.2441724531725049,-0.3269994323328137,-9.945469461679457,14979.0
43.81,4.0,66.0,22.81612014770508,26.65434646606445,-79.78274546719697,40.45906502707022,314.60917852783206,-0.0095554180443286,0.0115661425516009,0.199228823184967,0.979838252067566,-0.1197114205217533,-0.0662072612706782,3.0889737759753406,0.0803098082542419,0.0778527334332466,0.0864906832575798,-0.1642526913620531,-0.3073557478934526,-9.916228705644608,14979.0
43.9,4.099999904632568,65.0,22.747257232666016,27.60855865478516,-79.78274560173934,40.45906500723246,315.2274303283692,-0.0096750045195221,0.0125727616250514,0.1992429196834564,0.9798217415809632,-0.1425161095304789,-0.0483408334800258,3.074271405720172,-0.0675101578235626,-0.1258412301540374,0.0687855556607246,-0.1987388931959867,-0.4407302252948284,-9.739030004739762,14980.0
44.1,4.099999904632568,64.0,22.734737396240234,27.9345817565918,-79.78274565214655,40.45906498109129,315.5345592346192,-0.0090634888038039,0.0122030079364776,0.1984680294990539,0.979989528656006,-0.130040305028548,-0.0568765266594046,3.05842734062361,0.0462608449161052,0.096074029803276,-0.0439117774367332,-0.1659442177601158,-0.351523166410625,-9.675508777499198,14980.0
44.21,4.099999904632568,65.0,22.565710067749023,30.44734191894531,-79.78274570382706,40.45906495392074,315.83939169311526,-0.0087227011099457,0.0120956441387534,0.197544515132904,0.9801805019378662,-0.1377152004349337,-0.0523025837243402,3.0324142259004527,0.0146772637963294,0.0323562249541282,0.1031843721866607,-0.149413919840008,-0.5285181283950806,-9.871159536838531,14980.0
44.3,4.099999904632568,66.0,22.821128845214844,26.12952995300293,-79.78274582213791,40.4590649510301,316.4538822021485,-0.0080481199547648,0.0146913127973675,0.1957555711269378,0.980509638786316,-0.1437762221912708,-0.0457303000866359,3.0723010030667743,-0.0560302697122097,-0.0386993549764156,0.0188277717679739,-0.2126310005038977,-0.2012856479734182,-9.98820325255394,14981.0
44.5,4.099999904632568,69.0,22.91503143310547,22.17749786376953,-79.78274603231917,40.459064951601896,317.07303427124026,-0.0070514613762497,0.0124152610078454,0.1955437660217285,0.9805911183357242,-0.149877254220469,-0.0318660781675074,3.080443180588398,-0.0110425259917974,0.0299028921872377,-0.182089626789093,-0.0385786497965455,-0.1120125520974397,-9.755454248785972,14982.0
44.6,4.099999904632568,70.0,23.10409164428711,20.491722106933597,-79.78274609089061,40.45906492524642,317.3798274841309,-0.0068089836277067,0.0141881294548511,0.195935606956482,0.980490505695343,-0.144195855367583,-0.0313313866464798,3.034904233711648,0.003978959750384,-0.0815007537603378,0.0421175435185432,-0.1067305612005293,-0.2646721334382892,-9.37641784965992,14982.0
44.8,4.099999904632568,71.0,23.06653022766113,20.300878524780277,-79.78274616279417,40.4590647981796,317.9653606262208,-0.0098553299903869,0.0198138821870088,0.19517183303833,0.9805194139480592,-0.1301419396743526,-0.0514587854807194,2.7649249310348045,0.1906039118766784,-0.0439113564789295,0.0701842755079269,-0.0250526467105373,-0.4346955332905054,-8.37272866487503,14982.0
45.0,4.099999904632568,71.0,23.069034576416016,20.91316604614257,-79.78274619508579,40.45906484718885,318.25645254516604,-0.0122474804520607,0.0212494023144245,0.1956350803375244,0.9803699851036072,-0.163997452954578,-0.0536893452373008,2.642251636145275,-0.0153324054554104,-0.1144149675965309,0.0525515340268611,-0.1404805985838174,-0.2587892863154411,-8.251389584541322,14983.0
45.1,4.099999904632568,69.0,23.052757263183597,20.706418991088867,-79.78274625925411,40.45906476915452,318.75370977783206,-0.0140349622815847,0.0217174012213945,0.195690169930458,0.9803248047828674,-0.1449934294346771,-0.0746970114794798,2.329362538325165,0.0170131735503673,-0.0196567196398973,0.0937983989715576,-0.193073434587568,-0.5221175468713045,-8.309997396469116,14983.0
45.2,4.099999904632568,68.0,23.05150604248047,20.626901626586918,-79.78274631579923,40.45906480150865,318.99448965454104,-0.0141792874783277,0.0206052158027887,0.1962806433439254,0.9802287220954896,-0.1383058958609469,-0.0749679471395092,2.2122103612737627,-0.022911699488759,0.031014896929264,-0.0105937058106064,-0.1717547238618135,-0.2291310756281018,-8.34223543524742,14983.0
45.41,4.199999809265137,68.0,23.0177001953125,22.304725646972656,-79.78274637382398,40.45906480959158,319.4236240234375,-0.0151681266725063,0.0197277478873729,0.1983940303325653,0.979806423187256,-0.1057537625167167,-0.0738237909753014,1.9683651357916647,-0.0063412329182028,0.1289803683757782,-0.0244910940527915,-0.1984261037036776,-0.4498947125673294,-8.555031985044481,14984.0
45.6,4.199999809265137,68.0,22.946332931518555,23.63267135620117,-79.78274638692804,40.45906477660849,319.6158199157715,-0.014452657662332,0.0184766724705696,0.1991087198257446,0.9796966910362244,-0.1067884782223964,-0.0699955816710072,1.8689300398874744,-0.0185363925993442,-0.0571292452514171,-0.0655248686671257,-0.2026218463853001,-0.4368484050035477,-8.735912677645683,14984.0
45.71,4.300000190734863,70.0,23.09031867980957,21.08015251159668,-79.78274639954442,40.45906473771357,319.79818914794924,-0.0136537281796336,0.0198497176170349,0.1996561139822006,0.9795697927474976,-0.1186061660484044,-0.0749035081414322,1.7755653606649011,-0.0539062097668647,0.0218855682760477,-0.1676233112812042,-0.227329786028713,-0.0521694062277674,-8.789112984538079,14984.0
45.9,4.300000190734863,69.0,23.020204544067383,21.81966781616211,-79.78274639455086,40.45906486073865,320.38918493652346,-0.0153223741799592,0.0297699682414531,0.2016787827014923,0.9788792729377748,-0.1144306808742106,-0.072469586681548,1.627564048645922,-0.0338337644934654,-0.0199586562812328,0.0163388885557651,-0.2885953219234943,-0.6820812141895295,-8.992360446453096,14985.0
46.0,4.400000095367432,69.0,22.84366607666016,24.793630599975582,-79.78274640688616,40.459064815594935,320.547525390625,-0.0166185796260833,0.030034203082323,0.2014879286289215,0.9788894057273864,-0.1279956556601255,-0.0793445233567902,1.5426365798376642,-0.2113624066114425,-0.1204235926270484,0.0134175727143883,-0.33369175337255,-0.3994651819020511,-8.95521191596985,14985.0
46.2,4.400000095367432,69.0,22.926300048828125,23.69628715515137,-79.78274638932645,40.45906477143968,320.70003317260745,-0.0179726388305425,0.0270322784781456,0.2010305672883987,0.9790470004081726,-0.1083210920813237,-0.0841536818673011,1.5080624540825749,-0.1814629882574081,-0.101311057806015,-0.1430375874042511,-0.3182020405679941,-0.2604563274979592,-9.328404607772828,14985.0
46.3,4.400000095367432,68.0,22.867454528808597,24.658451080322266,-79.7827462836485,40.45906481973221,321.0569057312012,-0.017294717952609,0.0209495015442371,0.1989132612943649,0.9796406030654908,-0.0674464604330675,-0.083424575204685,1.538117183441674,-0.1204090043902397,-0.0227632950991392,-0.076135441660881,-0.2154519896954298,-0.4123004049807787,-9.662955974936487,14986.0
46.5,4.400000095367432,70.0,23.04274177551269,20.841598510742188,-79.78274605675081,40.459064902186434,321.4353771057129,-0.0175910480320453,0.0243320427834987,0.1966615319252014,0.9800117015838624,-0.0440112321876179,-0.0895846276414523,1.572176760969512,-0.0234863497316837,0.0068752886727452,0.0895553305745124,-0.3030117782950401,-0.4662527734413744,-9.719568132162095,14986.0
46.61,4.400000095367432,71.0,23.049001693725582,18.957029342651367,-79.78274599122274,40.45906487648274,321.58923529052737,-0.0176909118890762,0.0273264683783054,0.1961956471204757,0.9800243377685548,-0.0539625814142947,-0.0807247921923439,1.4963005115394057,-0.1330711096525192,-0.1115211993455886,-0.1859627217054367,-0.2145861997827888,-0.1878934045135975,-9.077495906352995,14986.0
46.7,4.5,71.0,23.73512458801269,10.57585906982422,-79.78274576721816,40.45906491061505,321.80985067749026,-0.0173021741211414,0.0236436780542135,0.1958857029676437,0.9801889657974244,-0.0536194374786141,-0.0891763666359846,1.4073132728119755,-0.1342028975486755,0.0656560733914375,0.1085094437003135,-0.3143792406097054,-0.5619957768917084,-8.135953268408775,14986.0
46.9,4.5,68.0,23.1103515625,20.17365074157715,-79.7827456232842,40.459064699434045,321.99272344970706,-0.0050413068383932,0.0114310150966048,0.1413247883319854,0.9898845553398132,0.0336683669276328,-0.0985928699209864,0.9185741326828928,0.0434761419892311,0.1991733461618423,0.8759571313858032,-0.2602766352519393,-0.2838983449526131,-7.721383924484253,14986.0
47.01,4.5,78.0,23.18297004699707,18.225465774536133,-79.78274557043784,40.45906471791996,322.0782489624024,0.0010959364008158,0.0131351314485073,0.1279436945915222,0.9916938543319702,0.0421142696693623,-0.1015247595939535,0.7662201949520544,0.1226413398981094,0.1136974617838859,1.209864616394043,-0.2880901224911213,-0.1370268858410418,-8.150147384405138,14987.0
47.2,4.400000095367432,74.0,23.02521324157715,21.135814666748047,-79.78274547473933,40.45906463957978,322.147794708252,0.0019366982160136,0.014009048230946,0.0643516778945922,0.9978270530700684,0.0345836852608735,-0.1186147415376638,0.6300283372688171,-0.0128923878073692,-0.0166492071002721,1.194957613945007,-0.1753801802918315,-0.0567506814189255,-8.373987570405006,14987.0
47.4,4.400000095367432,71.0,23.041488647460927,21.06424903869629,-79.78274519550091,40.45906368251198,322.08314703369143,-0.0065981848165392,0.0093146273866295,-0.1600074470043182,0.9870498776435852,0.1219278751643864,-0.2351170621671385,0.353677138787633,-0.1181247904896736,-0.0679535195231437,1.4076770544052124,-0.6283325846493244,-0.1507808709517121,-9.046930171251296,14987.0
47.5,4.400000095367432,87.0,23.11786460876465,19.418231964111328,-79.78274507807409,40.45906343484268,322.11585806274417,-0.0081606470048427,0.008472598157823,-0.2382815927267074,0.9711248874664308,0.1651719608597293,-0.2480873681870525,0.2922172156820784,-0.1093023866415023,0.0185866355895996,1.4785917997360232,-0.5182124473527074,0.179688262604177,-9.143206331133843,14987.0
