time,wind_speed,wind_angle,battery_voltage,battery_current,position_x,position_y,position_z,orientation_x,orientation_y,orientation_z,orientation_w,velocity_x,velocity_y,velocity_z,angular_x,angular_y,angular_z,linear_acceleration_x,linear_acceleration_y,linear_acceleration_z,node_ids
0.0,0.3000000119209289,322.0,25.52806282043457,-0.1113248318433761,-79.78277459084529,40.45909485551418,270.37065230274203,0.0112082585692405,0.0019398350268602,0.2731709182262421,0.9618982672691344,-0.0569378636285558,-0.019374924788108,0.0184250724533176,0.0085092727094888,0.0028196922503411,0.0062843598425388,0.1864174759201704,-0.0495160768087953,-9.80392825126648,14935.0
0.2,0.3000000119209289,326.0,25.533069610595703,-0.1351801604032516,-79.78277463944437,40.45909481015615,270.37245582008364,0.011227904818952,0.0019105023238807,0.2731661796569824,0.9618995189666748,-0.0655872459351993,-0.0220889416431982,0.0189543634040283,-0.0078008845448493,-0.0027035868261009,0.0062489686533808,0.1934491730108857,-0.0655370959499851,-9.807210878133777,14935.0
0.3,0.3000000119209289,326.0,25.52931404113769,-0.1351801604032516,-79.78277463981823,40.45909475865885,270.3775693025589,0.0111760618165135,0.0019662021659314,0.2731684744358063,0.9618993401527404,-0.0571859702705923,-0.0235282352692089,0.013568590597355,0.0092426119372248,0.0024736498016864,0.005189299583435,0.1863414986617863,-0.0516872987290844,-9.802700335979464,14935.0
0.5,0.3000000119209289,329.0,25.52555847167969,-0.1351801604032516,-79.78277468613278,40.459094710080215,270.37887547874453,0.0111954445019364,0.0019338590791448,0.2731587290763855,0.9619019627571106,-0.0657743457249164,-0.0263141533714491,0.01409094894547,-0.0085151242092251,0.0014125091256573,0.0052488325163722,0.1928696773946285,-0.0665444432990625,-9.807596209645274,14935.0
0.6,0.3000000119209289,331.0,25.52806282043457,-0.1192766055464744,-79.78277473009176,40.45909462242403,270.3862947072983,0.0111749488860368,0.0019704776350408,0.2732031047344208,0.9618895053863524,-0.0653715461498934,-0.0285603910637075,0.0139160295909537,0.0095655620098114,0.0040657450444996,0.0003521018661558,0.1865796082466841,-0.0509571413788944,-9.802602687478066,14935.0
0.79,0.3000000119209289,334.0,25.53056526184082,-0.1272283792495727,-79.78277477825941,40.45909456943182,270.38763235473635,0.011140588670969,0.0019868796225637,0.2732597291469574,0.9618737697601318,-0.0732034327088001,-0.0310876829097182,0.0143511896720075,-0.0089978603646159,-0.0017228630604222,0.0032012255396693,0.1925322016887367,-0.0656080208485946,-9.807344779372215,14935.0
0.89,0.3000000119209289,335.0,25.52931404113769,-0.1351801604032516,-79.78277483030608,40.45909452113983,270.39244459533694,0.0110813472419977,0.0019899276085197,0.2732023894786835,0.9618907570838928,-0.0673030123972433,-0.0257805514088915,0.0104141513131836,0.0093525797128677,0.0023578046821057,0.0049904291518032,0.1877611295320093,-0.0529929317347705,-9.802761147022249,14935.0
1.09,0.3000000119209289,338.0,25.52931404113769,-0.1431319266557693,-79.78277484355456,40.459094484065496,270.3972153511048,0.0110346237197518,0.0020550780463963,0.2732372581958771,0.9618812799453736,-0.0595006641951434,-0.0240891303633157,0.0089035944825735,-0.0076713534072041,-0.0020633025560528,0.0056063751690089,0.1928087932616472,-0.0651897165225818,-9.807719001173972,14935.0
1.19,0.3000000119209289,339.0,25.52555847167969,-0.1510837078094482,-79.78277494046395,40.45909438202632,270.3988711681366,0.0110293459147214,0.0020680802408605,0.2732489109039306,0.9618780016899108,-0.0723815881213968,-0.0298161086302922,0.0091201754592532,0.0099370097741484,0.0061001651920378,0.0025975757744163,0.1875257791019976,-0.052975947400555,-9.803554614186288,14935.0
1.39,0.3000000119209289,340.0,25.53056526184082,-0.1351801604032516,-79.78277492789148,40.4590943872115,270.4049553718567,0.0109776994213461,0.0020933600608259,0.2732285261154175,0.9618843197822572,-0.0577451981037292,-0.0238024038841024,0.0104869902175038,-0.0044890474528074,-0.0026318491436541,0.0051460559479892,0.1937689608894288,-0.0638370591122657,-9.808744602799417,14935.0
1.5,0.3000000119209289,343.0,25.523054122924805,-0.1192766055464744,-79.78277500488632,40.459094319958695,270.41112349891665,0.0109479343518614,0.0021506273187696,0.2732360363006592,0.9618823528289796,-0.0559022312361318,-0.0208399169946798,0.01097354844391,0.0097269415855407,0.004515831824392,0.0034396660048514,0.1862992159835994,-0.0555227569956332,-9.803820662498474,14935.0
1.69,0.3000000119209289,344.0,25.52054977416992,-0.198794350028038,-79.7827750514946,40.459094274447686,270.41218112373355,0.0109684877097606,0.0021196876186877,0.2732229828834533,0.9618858695030212,-0.0636664358692035,-0.0231543380214467,0.0113733653292431,-0.0035836065653711,4.26723636337556e-06,0.0026324891950935,0.1945796225219965,-0.063617304302752,-9.807364659905437,14935.0
1.79,0.3000000119209289,345.0,25.51804542541504,-0.198794350028038,-79.78277511387135,40.45909421698662,270.41819356346133,0.0109289707615971,0.0021574737038463,0.2732362449169159,0.961882472038269,-0.058296038622567,-0.0202727653750953,0.0116217048441676,0.0094369733706116,0.0024026648607105,0.0039030658081173,0.1877174398675561,-0.0590266552940011,-9.802973985671995,14935.0
1.99,0.3000000119209289,344.0,25.51178550720215,-0.2306014448404312,-79.7827751629996,40.4590941708036,270.4193199720383,0.0109435999765992,0.0021384416613727,0.2732321619987488,0.961883544921875,-0.065641411275162,-0.0227557073306935,0.0120322649606696,-0.0004482733784243,0.0003454197430983,0.0075007234700024,0.1938511508144438,-0.060767188668251,-9.806991607546806,14935.0
2.09,0.3000000119209289,345.0,25.51428985595703,-0.198794350028038,-79.78277529060195,40.45909415931486,270.4281767454148,0.0108700608834624,0.0022040312178432,0.2732263803482056,0.9618858695030212,-0.064139454010914,-0.011281846863296,0.014818994798306,0.0058974446728825,-7.137162901926786e-05,-0.0003692418977152,0.1872158035822212,-0.0620032626483589,-9.803235940933224,14935.0
2.29,0.3000000119209289,348.0,25.513036727905277,-0.1908425688743592,-79.78277534833576,40.459094120004345,270.4296561326981,0.0108647579327225,0.0022276614326983,0.2732773721218109,0.9618713855743408,-0.0703208815904416,-0.0134620971669529,0.0153203181387885,-0.0013492967700585,0.0014004269614815,0.0072634266689419,0.1924497011303901,-0.058281482476741,-9.808151695132256,14935.0
2.4,0.4000000059604645,349.0,25.52180099487305,-0.2226496636867523,-79.78277540335074,40.45909409114015,270.4397818889618,0.0108452634885907,0.00224394723773,0.2732639610767364,0.9618753790855408,-0.0626339681464163,-0.0123554781667573,0.0175184096496007,0.005229402333498,0.0028686430305242,-0.0048780273646116,0.1898423180356621,-0.0642233727732673,-9.804606528282166,14935.0
2.6,0.4000000059604645,350.0,25.52054977416992,-0.2226496636867523,-79.7827754441018,40.45909406183742,270.44533620738986,0.0108133219182491,0.0022883764468133,0.2733093202114105,0.9618627429008484,-0.0542138712393867,-0.0119657016414748,0.0161600674270481,0.0038002885412424,0.0002883660199586,0.00483751995489,0.1915388876572251,-0.0544091045251116,-9.80763070821762,14935.0
2.7,0.4000000059604645,349.0,25.51428985595703,-0.2385532110929489,-79.78277554543416,40.45909398379878,270.4485403146744,0.0107991639524698,0.0022951688151806,0.2733376622200012,0.9618548154830932,-0.0676091864624183,-0.0170263593129098,0.0165966370808501,0.0037296707741916,-0.0033553249668329,-0.0013152112951502,0.1897380365990102,-0.0661996037559583,-9.805982378125194,14935.0
2.89,0.4000000059604645,346.0,25.50802993774414,-0.2146978974342346,-79.78277560580109,40.4590939717757,270.455744966507,0.0107710929587483,0.002294325036928,0.2733010053634644,0.9618655443191528,-0.0577911715687724,-0.0115436890852101,0.0183100358544968,0.0046602939255535,0.0034789196215569,0.0055101895704865,0.1911448035947978,-0.0517250452470034,-9.80705124914646,14935.0
3.0,0.4000000059604645,345.0,25.509281158447266,-0.2146978974342346,-79.78277569190607,40.459093918838505,270.46313939952853,0.0107415420934557,0.0023513284977525,0.2733472585678101,0.9618526101112366,-0.0529169788881207,-0.0098468861733394,0.0163818716025432,0.0045708641409873,-0.0001496404584031,-0.0077807018533349,0.1924031426757574,-0.0660435744607821,-9.80521229982376,14935.0
3.19,0.5,345.0,25.51428985595703,-0.2146978974342346,-79.78277574107226,40.45909388366085,270.4647701826096,0.0107529954984784,0.0023219019640237,0.2733426094055176,0.9618538618087769,-0.0584715450204621,-0.0122333145711134,0.016703497361506,0.0076126786880195,0.0019238205859437,0.0075235157273709,0.1907329037971794,-0.0473073367774486,-9.806650130152704,14935.0
3.3,0.5,345.0,25.51554107666016,-0.2146978974342346,-79.78277580909611,40.45909381733987,270.47482155227664,0.0107150478288531,0.0023835632018744,0.2733566462993622,0.9618501663208008,-0.0532764125701373,-0.0127968156938401,0.0188424914472939,-0.0017623271560296,0.0008881529211066,-0.0039839036762714,0.1926974038034677,-0.0674720035633072,-9.806208080649377,14935.0
3.51,0.5,343.0,25.51804542541504,-0.1749390214681625,-79.78277585664462,40.45909377978217,270.4766942110062,0.0107127241790294,0.0023651262745261,0.273332953453064,0.9618569612503052,-0.0586093515240359,-0.0151643304874326,0.0192175776354878,0.007708678022027,0.0075007923878729,0.0048737213946878,0.1904252123460173,-0.0475383246364072,-9.807042478322984,14935.0
3.59,0.6000000238418579,342.0,25.509281158447266,-0.2146978974342346,-79.78277596346315,40.45909370271561,270.4868633594513,0.0106887947767972,0.0024322483222931,0.2733450829982757,0.9618536233901978,-0.0594316743577868,-0.0142974857311028,0.0204055845964674,0.0016763333696871,-0.0008574710227549,-0.0047436510212719,0.193025871142745,-0.0661455261474475,-9.8071734559536,14935.0
3.8,0.6000000238418579,341.0,25.513036727905277,-0.2067461162805557,-79.78277601328217,40.4590936637065,270.4888907518387,0.0106740556657314,0.0024491597432643,0.2733949422836304,0.9618395566940308,-0.0640635015212741,-0.0165047784807815,0.0207241834685673,0.0064608203247189,0.0037608803249895,0.0029556252993643,0.1903501669876276,-0.0485353754041716,-9.806472374796869,14935.0
3.9,0.6000000238418579,340.0,25.513036727905277,-0.198794350028038,-79.78277610656271,40.45909359790565,270.4994367208481,0.0106543879956007,0.0024720123037695,0.2733361423015594,0.9618564248085022,-0.0601962368873289,-0.0147917509564149,0.0216521777159838,0.0029360956978052,-0.0003724830166902,-0.0033710415009409,0.1917870654165744,-0.0667763539217412,-9.806397530436517,14935.0
4.09,0.699999988079071,341.0,25.51554107666016,-0.2067461162805557,-79.78277612665923,40.45909357681654,270.5097874250412,0.0106184631586074,0.002539376495406,0.2733831107616425,0.9618433117866516,-0.0444398451121263,-0.0116310536020911,0.0251630360132026,0.0028892406262457,0.0005563093000091,0.0061430470086634,0.19195959482342,-0.0577550092292949,-9.80855105996132,14935.0
4.2,0.699999988079071,341.0,25.513036727905277,-0.2226496636867523,-79.78277620852889,40.45909350838445,270.51479099655154,0.0106337564066052,0.0025594974867999,0.2733937501907349,0.9618400335311892,-0.0560751932995784,-0.0162675771639618,0.0255366335405654,0.0087224170565605,0.0048223319463431,0.0006925801862962,0.1874576224945485,-0.0625412887148559,-9.804572614431384,14935.0
4.39,0.699999988079071,341.0,25.509281158447266,-0.2146978974342346,-79.7827762535764,40.45909347330503,270.5226929035187,0.010622564703226,0.0025762333534657,0.2733650207519531,0.9618483781814576,-0.0480599763767581,-0.0138862240679424,0.0246820125005174,-0.006661582738161,-0.0030654177535325,0.0075443182140588,0.1928359462693333,-0.0647925078542903,-9.8078043705225,14935.0
4.49,0.699999988079071,343.0,25.51178550720215,-0.2146978974342346,-79.78277635678924,40.45909339569795,270.53400157356265,0.010597676038742,0.0025804105680435,0.2733770906925201,0.9618451595306396,-0.0469331034062836,-0.0131627171885518,0.024511115670017,0.0084252804517745,0.0044829193502664,0.00368840736337,0.1865447076782584,-0.050784054659307,-9.803258745074274,14935.0
4.7,0.8000000119209291,343.0,25.51053237915039,-0.2067461162805557,-79.78277639856908,40.459093360402726,270.536435708046,0.0106056649237871,0.0025750189088284,0.2733592987060547,0.961850106716156,-0.0544842437870795,-0.0150560990549162,0.0249309143955251,-0.0084587465971708,-0.0015702957753092,-0.0003799338010139,0.1912861600331962,-0.0669263532757759,-9.80562686741352,14935.0
4.8,0.8000000119209291,343.0,25.52555847167969,-0.1590354740619659,-79.78277649047085,40.459093306498815,270.5477284040452,0.0105798356235027,0.0026175528764724,0.2733507454395294,0.9618527293205258,-0.0472334577378738,-0.0104797173754681,0.0245465487337292,-0.0021409634500741,0.0028867835644632,0.0042748055420815,0.1883994993008673,-0.0377954289643094,-9.803069295287132,14935.0
5.0,0.8000000119209291,342.0,25.51804542541504,-0.198794350028038,-79.7827765334601,40.45909327322775,270.55015681648257,0.0106022851541638,0.0026180513668805,0.2733321189880371,0.961857795715332,-0.0541543812166163,-0.0127423675357105,0.0247175858885249,-0.0070920484140515,-0.0036406596191227,-0.0081227682530879,0.1869490609131753,-0.0560683661699295,-9.80296989262104,14935.0
5.1,0.8000000119209291,341.0,25.51428985595703,-0.2067461162805557,-79.78277660704529,40.4590931799014,270.56432877445224,0.0105919474735856,0.0026627837214618,0.2733704745769501,0.961846888065338,-0.050752240581528,-0.0157797409454316,0.0279430192045446,-0.0090988464653491,-0.0013111147563904,-0.0005497129168361,0.1893088326975703,-0.0435366638330742,-9.805826842188836,14935.0
5.3,0.8000000119209291,341.0,25.519296646118164,-0.1192766055464744,-79.78277664691585,40.459093143094655,270.56708739662173,0.0105836810544133,0.0026717132423073,0.2734063863754272,0.9618366956710817,-0.0556543563069725,-0.0182129818909808,0.0279966108004678,0.0041366228833794,0.0003507842484395,-0.0071829622611403,0.1878858214057982,-0.0416065619001165,-9.803233602046966,14935.0
5.4,0.8000000119209291,341.0,25.53432273864746,-0.0874695107340812,-79.78277669666882,40.459093078364646,270.57872842216494,0.0105816163122653,0.0026987819001078,0.2733538150787353,0.9618515968322754,-0.0481846644959046,-0.0165844915601107,0.0270969690935551,-0.0082180248573422,-0.0059295925311744,-0.004210976883769,0.1932075550965964,-0.0566795920673757,-9.807623106837276,14935.0
5.6,0.8000000119209291,339.0,25.52054977416992,-0.1033730581402778,-79.78277678430433,40.45909301917035,270.588353260994,0.0105519657954573,0.0027258840855211,0.2733747661113739,0.9618459343910216,-0.0452272329428194,-0.0122257011625548,0.0260003601253544,0.0093463668599724,0.0054279193282127,0.0018625827506184,0.1876311568915844,-0.0400673143565654,-9.804882516860964,14935.0
5.69,0.8000000119209291,338.0,25.52680969238281,-0.1192766055464744,-79.78277686651023,40.45909294982361,270.59356485271456,0.0105548575520515,0.0027773487381637,0.2734276652336121,0.961830735206604,-0.0570370578106413,-0.0165300191947017,0.0265995821602123,-0.0035162908025085,2.6313486159779128e-05,-0.0066910288296639,0.1939149768278003,-0.066371635235846,-9.807146558761596,14935.0
5.89,0.8000000119209291,337.0,25.523054122924805,-0.0397588685154914,-79.78277692932231,40.45909289865293,270.6032035198212,0.0105242291465401,0.0027826849836856,0.2734063565731049,0.961837112903595,-0.0473836855967986,-0.0122312247859364,0.0255367899192346,0.0055735381320118,0.0062546450644731,0.0071266135200858,0.1923165307939053,-0.053569695604965,-9.808256360292436,14935.0
5.99,0.8000000119209291,338.0,25.533069610595703,-0.1113248318433761,-79.78277701232862,40.45909281816394,270.6181017007828,0.0104960324242711,0.0028476777952164,0.2734197378158569,0.961833357810974,-0.0392167204371815,-0.0116036365815472,0.0281206634018232,0.0082301869988441,0.0032036558259278,0.0016219792887568,0.1885039451904595,-0.0652111228136345,-9.80570931315422,14935.0
6.2,0.8000000119209291,336.0,25.52054977416992,-0.0636141896247863,-79.7827770468827,40.45909278796158,270.62091217899325,0.0105141140520572,0.0028266094159334,0.2734166085720062,0.9618341326713562,-0.0453805426890235,-0.0134570051293163,0.0286228162656165,-0.0068579101935029,-0.0028546892572194,0.004590353462845,0.1941914953105152,-0.0658802955318242,-9.807572820782662,14935.0
6.3,0.8000000119209291,337.0,25.52054977416992,-0.0874695107340812,-79.78277716172424,40.45909272426379,270.6364736404419,0.0104881022125482,0.0028609950095415,0.2734439074993133,0.9618265628814696,-0.0415329217385049,-0.0072509646773644,0.0302555527428392,0.0058932611718773,0.0044936705380678,0.0060508837923407,0.1874904217198491,-0.0496748013049364,-9.802641279101373,14935.0
6.49,0.699999988079071,336.0,25.51428985595703,-0.0715659633278846,-79.78277720134075,40.459092696051776,270.63949881458285,0.0104876412078738,0.0028526319656521,0.2734320163726806,0.9618300199508668,-0.0485604795164114,-0.0092125418128869,0.0307056969475545,-0.008401671424508,-0.0009630837594158,-0.0011118203401565,0.1911386822909117,-0.0663184073008597,-9.80607008635998,14935.0
6.6,0.699999988079071,335.0,25.516794204711918,-0.0238553211092948,-79.7827773052563,40.45909259625146,270.6531543579102,0.0104730846360325,0.0028663235716521,0.2734299004077911,0.9618306756019592,-0.0463732084158332,-0.0113611103919683,0.0291927198500816,-0.0034247040748596,0.0005078235408291,0.0059540239162743,0.1875406164117157,-0.0386598027544096,-9.804242831468583,14935.0
6.8,0.699999988079071,335.0,25.49175262451172,-0.1033730581402778,-79.78277734402356,40.45909256498791,270.6560534086228,0.0104585234075784,0.0028975482564419,0.2734537422657013,0.9618239402770996,-0.0520651544931854,-0.0134711986111833,0.0293028572476862,-0.0060676522552967,-0.0010009908583015,-0.0063167088665068,0.1873835273087024,-0.0550798578187823,-9.803386799097062,14935.0
6.9,0.699999988079071,336.0,25.52054977416992,-0.0477106422185897,-79.78277746774509,40.459092456705584,270.6696657981873,0.0104621881619095,0.0029174762312322,0.2734014689922333,0.961838722229004,-0.0521863462349664,-0.0128321498387793,0.0282130230652374,-0.0075552342459559,0.0009652472799643,0.0014805701794102,0.1896309411898255,-0.0443716964777559,-9.806171827912332,14935.0
7.09,0.699999988079071,336.0,25.51554107666016,-0.0477106422185897,-79.78277750764127,40.45909238397076,270.68317817115786,0.0104410992935299,0.0029781360644847,0.2734076380729675,0.9618370532989502,-0.0387955079920248,-0.0132069099188307,0.0298729911717333,0.0073334435001015,-0.0021854294463992,-0.0046021961607038,0.1883040800504386,-0.0395044102147221,-9.803219568729402,14935.0
7.19,0.699999988079071,337.0,25.516794204711918,-0.0318070948123931,-79.78277757474667,40.459092319370654,270.68917237186434,0.0104535333812236,0.0029800364281982,0.2734363377094269,0.9618287682533264,-0.0497540271196471,-0.0173444170748789,0.0306256992144934,-0.0070946514606475,-0.0018249747809022,-0.0067450297065079,0.1921534482948482,-0.0595582311507314,-9.808097900748251,14935.0
7.39,0.699999988079071,337.0,25.51554107666016,-0.055662415921688,-79.78277766103541,40.45909226671957,270.7033777084351,0.0104403393343091,0.0029752934351563,0.2734094560146332,0.961836576461792,-0.0408626828444521,-0.0103578228753898,0.0315978966286056,0.0090400148183107,0.0042253090068697,0.0003172809374518,0.1876567567326128,-0.0408545277407392,-9.805128099918369,14935.0
7.49,0.699999988079071,335.0,25.52054977416992,-0.0477106422185897,-79.78277777789657,40.45909216096327,270.720602973938,0.0104488395154476,0.0030109568033367,0.2734054327011108,0.9618374109268188,-0.0404748593666153,-0.0096397767776758,0.032666780586205,0.000908238638658,-0.0029982319101691,-0.0048039900138974,0.19289589850232,-0.0654758874792605,-9.807397989034651,14935.0
7.7,0.699999988079071,336.0,25.519296646118164,-0.055662415921688,-79.78277781361822,40.45909213201534,270.7238668050766,0.0104590505361557,0.0030114494729787,0.2733633816242218,0.961849331855774,-0.0445119190311886,-0.011935423951799,0.0329624799741104,0.0080928327515721,0.0021012851502746,0.0065610436722636,0.1894765198789537,-0.0496290742512792,-9.806298712491987,14935.0
7.79,0.699999988079071,337.0,25.519296646118164,-0.0397588685154914,-79.78277791619195,40.45909200152744,270.74248300457003,0.0104350987821817,0.0030766867566853,0.2733655869960785,0.9618487358093262,-0.0427100641793473,-0.0152972481433129,0.0334189809692771,0.0061571630649268,0.001901451847516,-0.001564604579471,0.1915026166476309,-0.0674482538178563,-9.80508833885193,14935.0
8.0,0.699999988079071,338.0,25.52680969238281,-0.0238553211092948,-79.78277795128852,40.4590919669429,270.74581967258456,0.0104330480098724,0.0030531748197972,0.2733523845672607,0.9618525505065918,-0.0476922692193162,-0.0173498493564269,0.0339647446883137,0.0008737549651414,0.0045706429518759,0.0053689521737396,0.1927666202187538,-0.0615354168741032,-9.808572109937668,14935.0
8.1,0.699999988079071,340.0,25.523054122924805,-0.0397588685154914,-79.78277805591769,40.45909185011146,270.7621594514847,0.01043844781816,0.00310570304282,0.2733483612537384,0.9618535041809082,-0.0416738520297364,-0.0164072189019535,0.0307209222282324,0.0126155316829681,0.0013211664045229,0.0043644197285175,0.1866343345306813,-0.0569007401587441,-9.80388615131378,14935.0
8.29,0.699999988079071,341.0,25.52054977416992,-0.0159035474061965,-79.78277808872514,40.45909181644964,270.7652215805054,0.0104339374229311,0.0031192046590149,0.2733827233314514,0.961843729019165,-0.0477053062195456,-0.0182521594949702,0.0312917578882802,-0.0117791723459959,-0.0045853084884583,0.0034418567083776,0.1914469950087368,-0.0661854882119223,-9.80673023700714,14935.0
8.39,0.699999988079071,341.0,25.516794204711918,-0.0318070948123931,-79.78277821771253,40.459091720292896,270.7876243438721,0.0104107456281781,0.0031261250842362,0.2733286023139953,0.9618593454360962,-0.0447475977555189,-0.0131113936544304,0.0359233301265068,0.0026417784392833,7.050920976325871e-05,0.0042098788544535,0.1860927544534206,-0.040588018046692,-9.803127182722092,14935.0
8.59,0.699999988079071,343.0,25.52555847167969,-0.0318070948123931,-79.7827782926512,40.45909167109753,270.8048519935608,0.0103697413578629,0.0031891139224171,0.2733395993709564,0.9618564248085022,-0.0345531408070931,-0.0055427220806424,0.0380722194886883,-0.0103977425023913,-0.0022610721644014,-0.0074400277808308,0.1881772502884268,-0.0605439986195415,-9.804719964265823,14935.0
8.7,0.699999988079071,341.0,25.52680969238281,-0.0318070948123931,-79.78277835782444,40.45909162319254,270.8124819841385,0.0103835659101605,0.0031619975343346,0.2733920812606811,0.9618414640426636,-0.0434538457150613,-0.0095909810925919,0.0387820654405518,-0.0068773757666349,-0.0004696951364167,0.0010059864725917,0.1876490457169712,-0.0408902277331799,-9.804769080877303,14935.0
8.89,0.699999988079071,344.0,25.523054122924805,-0.0715659633278846,-79.78277843759189,40.45909156191182,270.8329146947861,0.0103769926354289,0.0031997126061469,0.2733855545520782,0.9618433117866516,-0.0349482820845431,-0.0048680032333361,0.0432416770388714,0.0050270757637918,0.0017609109636396,-0.0017929538153111,0.1874008496850729,-0.0404172656452283,-9.802723140120507,14935.0
9.0,0.699999988079071,345.0,25.52054977416992,-0.055662415921688,-79.78277850333187,40.4590914732194,270.8582023229599,0.0103769591078162,0.0032562098931521,0.2733888924121857,0.9618421792984008,-0.0258640940852154,-0.0075377274727513,0.0475961331280495,-0.0060157910920679,-0.0006488189683295,-0.0061496021226048,0.19408407099545,-0.0594678368512541,-9.80829261302948,14935.0
9.19,0.699999988079071,350.0,25.52180099487305,-0.1272283792495727,-79.78277852475938,40.45909145279214,270.8629602041245,0.0103646330535411,0.0032419627532362,0.2733626663684845,0.961849808692932,-0.0288662971703441,-0.0099323534801265,0.0477682198923974,0.0096135046333074,0.0037517859600484,0.004515937063843,0.1896014127507806,-0.0423291452787816,-9.805345031619073,14935.0
9.29,0.699999988079071,350.0,25.52806282043457,-0.1192766055464744,-79.78277863004877,40.459091331628976,270.8897366371155,0.010364856570959,0.0032566161826252,0.2733970582485199,0.9618399739265442,-0.0308625734364687,-0.0135011037842257,0.0508196086766741,0.0062776459380984,0.0041265147738158,-0.0054035396315157,0.1926066075079143,-0.0674829670926556,-9.80638232767582,14935.0
9.49,0.699999988079071,351.0,25.531818389892567,-0.1033730581402778,-79.78277865392351,40.459091303880726,270.8948181715012,0.0103870145976543,0.0032480952795594,0.2733664214611053,0.9618484973907472,-0.0355121256220417,-0.0154914638275455,0.0513934350838924,-0.0026721442118287,-0.0010066865943372,0.0076223169453442,0.1932172760926187,-0.062145094173029,-9.80777981221676,14935.0
9.6,0.6000000238418579,352.0,25.52680969238281,-0.1113248318433761,-79.78277878511116,40.4590912182876,270.92091785335543,0.0103461733087897,0.0032851353753358,0.2733755707740784,0.961846113204956,-0.0355547125687921,-0.0105454533206079,0.0526966015196079,0.0089541310444474,0.0043157674372196,0.0045349798165261,0.1878347861766816,-0.0532792077586054,-9.803796104192736,14935.0
9.79,0.6000000238418579,351.0,25.52680969238281,-0.1192766055464744,-79.78277881481465,40.45909119203318,270.92618153953555,0.0103468541055917,0.0032931761816143,0.2734330892562866,0.9618297815322876,-0.0413728484102751,-0.0121262142829487,0.053146535178223,-0.0112210419028997,-0.0015381124103441,-0.0017378415213897,0.1916880464740096,-0.0668272612430155,-9.805622774362565,14935.0
9.89,0.6000000238418579,352.0,25.52680969238281,-0.1113248318433761,-79.7827789210074,40.45909111708794,270.9537035074234,0.0103372978046536,0.0033030989579856,0.2734027802944183,0.96183842420578,-0.0358100067411632,-0.0078043362411756,0.0541349005776728,-0.0054479376412928,0.0023612657096236,0.0070430021733045,0.187704502902925,-0.0377710510999895,-9.803171036839483,14935.0
10.1,0.699999988079071,354.0,25.531818389892567,-0.1192766055464744,-79.78277899623946,40.459091037149136,270.97491048240664,0.0103003457188606,0.0033624025527387,0.2734399437904358,0.961828112602234,-0.0302447064734857,-0.0075018371441157,0.0513297221569966,-0.0035460430663079,-0.0020865574479103,-0.0108668906614184,0.1870635018870234,-0.0530175402900204,-9.802388094663618,14935.0
10.2,0.699999988079071,353.0,25.52555847167969,-0.1192766055464744,-79.78277905034194,40.45909098976751,270.9852162446976,0.0102993855252861,0.0033734173048287,0.2734577059745789,0.9618229866027832,-0.0389467180543561,-0.0114191876898077,0.0522189322660554,-0.010392284952104,0.0010879043256863,-0.0010214116191491,0.1907462427578866,-0.0467453188542276,-9.806028571128843,14935.0
10.39,0.699999988079071,352.0,25.52806282043457,-0.1113248318433761,-79.78277914036637,40.4590909017498,271.0071581449509,0.0103077627718448,0.0033998605795204,0.2734368145465851,0.9618287682533264,-0.0351012736826111,-0.0111716352151828,0.0493491615869444,0.0048472173511981,0.0004024186055175,-0.0016950047574937,0.1883228094130754,-0.0389416842302307,-9.803648169636729,14936.0
10.49,0.699999988079071,354.0,25.52555847167969,-0.1192766055464744,-79.78277926356894,40.4590908015437,271.03318665885934,0.0102872466668486,0.0034173023886978,0.2734586894512176,0.961822748184204,-0.038565887069485,-0.0093332491548855,0.046390562322245,-0.00721628498286,-0.0023364007938653,-0.0054140910506248,0.1938203432969749,-0.0600030900584533,-9.807903773188592,14936.0
10.69,0.699999988079071,353.0,25.52430534362793,-0.0954212844371795,-79.78277929645229,40.45909077386147,271.0378202047348,0.0103015350177884,0.0034147016704082,0.2734497785568237,0.9618251323699952,-0.0413671652383668,-0.0117153405259257,0.0465740341031641,0.011310925707221,0.0031281686387956,0.0014501486439257,0.1883807882107794,-0.0409587041102349,-9.804951514005662,14936.0
10.8,0.699999988079071,353.0,25.52680969238281,-0.1113248318433761,-79.78277938970679,40.45909066024527,271.06335650348666,0.0102747306227684,0.0034462951589375,0.2734786570072174,0.9618170857429504,-0.0405025811848106,-0.0148322035285656,0.0411476323757385,-7.419074245262891e-05,-0.0029027315322309,-0.0039211912080645,0.1934044418111444,-0.0667346376925707,-9.807528966665268,14936.0
10.99,0.699999988079071,352.0,25.52680969238281,-0.1192766055464744,-79.7827794217553,40.45909062740631,271.0674651708603,0.0102773774415254,0.0034222907852381,0.2734639346599579,0.9618212580680848,-0.0437425965114978,-0.0169811761796666,0.0415079502522933,0.0028698660898953,0.0037720010150223,0.0053011076524853,0.1905422297492623,-0.0522115153167396,-9.807585684657097,14936.0
11.09,0.699999988079071,351.0,25.52931404113769,-0.1033730581402778,-79.7827794335913,40.459090613172286,271.09285186195376,0.0102117536589503,0.0035167562309652,0.2734793126583099,0.9618173241615297,-0.0240941793316969,-0.0093404803328203,0.035753945661746,0.0067294789478182,-0.0011642968747764,-0.0026065267156809,0.1895760139077902,-0.0664374620933085,-9.805661365985872,14936.0
11.3,0.699999988079071,350.0,25.52180099487305,-0.1192766055464744,-79.782779452463,40.45909059349165,271.09643970394137,0.0102235414087772,0.003529384965077,0.2735233008861542,0.9618046283721924,-0.0280784046521377,-0.0110303488244935,0.036356806169856,-0.0029794769361615,0.0003071841783821,0.005378761794418,0.1932641086354852,-0.0612633157800883,-9.808089129924772,14936.0
11.39,0.699999988079071,349.0,25.52430534362793,-0.1113248318433761,-79.78277949255913,40.45909053700536,271.1184919919968,0.01020791195333,0.0035320571623742,0.2735078632831573,0.96180921792984,-0.0216069120178653,-0.0107828531380733,0.0253736413269561,0.0080012129619717,0.0037613774184137,0.00623947288841,0.186135987304151,-0.0566649968689307,-9.804141674637798,14936.0
11.59,0.699999988079071,346.0,25.52931404113769,-0.1192766055464744,-79.78277955879523,40.4590904727461,271.14095328712466,0.0101786628365516,0.0035370921250432,0.2735417187213897,0.9617998003959656,-0.0242940237143347,-0.0088358222055973,0.0214973297868734,-0.0084360232576727,-6.854424282209948e-05,0.001952760037966,0.1930214309133589,-0.0679227325273677,-9.806290526390075,14936.0
11.71,0.699999988079071,347.0,25.52931404113769,-0.1351801604032516,-79.78277959909444,40.45909043035589,271.145215376854,0.0101616214960813,0.0035589730832725,0.2735462486743927,0.9617986679077148,-0.0309626323246089,-0.0128399084731534,0.0218150096242395,0.0060262982733547,0.0051799472421407,0.0047863037325441,0.1870852096751332,-0.0433301977347582,-9.801687013506893,14936.0
11.89,0.6000000238418579,346.0,25.535573959350582,-0.0477106422185897,-79.78277964371892,40.45909037611219,271.1684596385956,0.0101504111662507,0.0035882752854377,0.273548275232315,0.9617980718612672,-0.0281988443856583,-0.0113971898229718,0.0177083685656174,-0.0097093917429447,-0.0025852255057543,-0.0051939198747277,0.1883303194306791,-0.0631003738939762,-9.805164937376976,14936.0
12.0,0.6000000238418579,345.0,25.52180099487305,-0.1192766055464744,-79.78277969098355,40.45909033022707,271.194510802269,0.0101104071363806,0.0035992653574794,0.2735730409622192,0.9617913961410522,-0.0217130970891363,-0.0070748163860681,0.0137508494092072,-0.0013424995122477,0.0015078249853104,0.0061432756483554,0.1875374369882047,-0.0386395247932523,-9.80574264228344,14936.0
12.19,0.6000000238418579,343.0,25.52555847167969,-0.1192766055464744,-79.78277970943502,40.45909031259422,271.19587157630923,0.0101039446890354,0.0036087152548134,0.2735604643821716,0.9617949724197388,-0.026154865928824,-0.0090263991602475,0.0138733257447076,-0.0059864269569516,-0.0074787531048059,-0.0092842578887939,0.1864851757138967,-0.0525192067679017,-9.802803246974944,14936.0
12.31,0.6000000238418579,343.0,25.52806282043457,-0.1272283792495727,-79.78277971410604,40.45909029692487,271.2219629135132,0.0100594842806458,0.0036221167538315,0.2736086547374725,0.9617816805839542,-0.0144284918250675,-0.0061798138385529,0.0099479571081356,-0.0119266295805573,-0.0027129075024276,-0.002064190339297,0.189616615511477,-0.0447838612273335,-9.805740888118743,14936.0
12.5,0.6000000238418579,343.0,25.52806282043457,-0.1192766055464744,-79.78277972526602,40.45909028373056,271.22294674778,0.0100572360679507,0.0036167968064546,0.2735911309719085,0.9617867469787598,-0.0177693525747947,-0.0082605093114394,0.0100246275299475,0.0039749965071678,-0.0029837053734809,-0.0027113899122923,0.1875058437511325,-0.0421247302740812,-9.803316047787666,14936.0
12.61,0.6000000238418579,343.0,25.52680969238281,-0.1192766055464744,-79.78277978552282,40.45909022646219,271.25041745567324,0.010039635002613,0.0036082165315747,0.2736047208309173,0.9617831110954284,-0.0238703271277655,-0.0078989700260185,0.0094292133482522,-0.0104046138003468,-0.0061361249536275,-0.0055105513893067,0.1921802175790072,-0.0555391383357346,-9.8078043705225,14936.0
12.79,0.6000000238418579,343.0,25.52680969238281,-0.1192766055464744,-79.7827798033573,40.45909020889482,271.2513497915268,0.0100321136415004,0.0036229335237294,0.2736242711544037,0.9617775678634644,-0.0262246257229052,-0.0098841559346796,0.0095093032555823,0.0074719907715916,0.0040658870711922,-0.0005572513327933,0.188061475418508,-0.0395136515563353,-9.804393104910847,14936.0
12.9,0.6000000238418579,345.0,25.52430534362793,-0.1192766055464744,-79.78277984393688,40.459090138876576,271.2777411785126,0.0100454883649945,0.0036158813163638,0.2735878527164459,0.961787760257721,-0.0290461475192768,-0.0132625596386566,0.0060628266602331,-0.0081016449257731,-0.0025364118628203,-0.0056179943494498,0.1949742730334401,-0.0616121752839535,-9.809154492616656,14936.0
13.09,0.5,347.0,25.53056526184082,-0.0954212844371795,-79.78277985405455,40.45909011202527,271.3043664541245,0.0100206034258008,0.003631122643128,0.2736077010631561,0.9617823362350464,-0.0214875279048603,-0.0108551696718811,0.0026735980953247,0.0084636500105261,0.0014160902937874,0.0025879468303173,0.1887546080164612,-0.0392714626248926,-9.805294160842896,14936.0
13.19,0.5,347.0,25.52430534362793,-0.1113248318433761,-79.78277988952166,40.45909006928829,271.3049378242493,0.0100112408399581,0.0036404663696885,0.2736347615718841,0.9617747068405152,-0.0299865410206625,-0.0140796577937808,0.003236917980102,-0.0027669332921504,-0.0052789021283388,-0.0068683321587741,0.1929219186119735,-0.0652029458479955,-9.807172871232034,14936.0
13.39,0.5,350.0,25.52680969238281,-0.1192766055464744,-79.78277990625179,40.459090059357536,271.33439467811587,0.0099979601800441,0.0036242827773094,0.27363321185112,0.9617753624916076,-0.0249028362169444,-0.0087933123035448,0.0045302692452793,0.008419401012361,0.0047498126514256,0.0036663690116256,0.1897613523714244,-0.045746386013925,-9.806030325293538,14936.0
13.5,0.5,350.0,25.516794204711918,-0.1113248318433761,-79.78277989609424,40.45909004920402,271.3668947067261,0.0099779674783349,0.0036560359876602,0.2736523449420929,0.9617700576782228,-0.0168798516955903,-0.0055157276323501,0.0105759799433147,0.0045189019292593,-0.0024001039564609,-0.0025976800825446,0.1930814379639924,-0.066052569122985,-9.806569438576696,14936.0
13.69,0.5,352.0,25.523054122924805,-0.1510837078094482,-79.7827799109328,40.45909003543108,271.367974981308,0.0099983625113964,0.0036346709821373,0.2736450433731079,0.9617719054222108,-0.0200123654727504,-0.0069524044992925,0.0110634225140035,0.0048421211540699,0.0003301435208413,0.0046329437755048,0.1933299263566733,-0.056137372450903,-9.808093807697295,14936.0
13.79,0.5,352.0,25.52680969238281,-0.1192766055464744,-79.78277993548781,40.459090015997376,271.401812538147,0.0099863624200224,0.0036668158136308,0.2736862003803253,0.9617602229118348,-0.0215241613099335,-0.0038351010819641,0.0160599145666591,0.0058373850770294,0.0035166167654097,-0.0013880296610295,0.1893241085484624,-0.0641727806534618,-9.805150319337846,14936.0
13.99,0.5,353.0,25.52054977416992,-0.1272283792495727,-79.78277995636104,40.45909000102636,271.4034437980652,0.0100112371146678,0.0036359739024192,0.2736776769161224,0.961762547492981,-0.0254485468342983,-0.0051408257854253,0.0166871473420112,-0.0016543082892894,0.0019973593298345,0.0089503731578588,0.1943630745448172,-0.0620072552002966,-9.808098485469818,14936.0
14.09,0.5,353.0,25.52555847167969,-0.1351801604032516,-79.7827799578733,40.45908997718847,271.4382753219605,0.0099952882155776,0.0036564217880368,0.2737171351909637,0.961751401424408,-0.0226794036434951,-0.0067449754265965,0.0206343761772757,0.0087758935987949,0.0039194729179143,0.0034457053989171,0.1882687957584858,-0.056111882245168,-9.803269854784013,14936.0
14.29,0.5,353.0,25.51804542541504,-0.1272283792495727,-79.78277997772496,40.45908996007092,271.44035862350466,0.0099904676899313,0.0036618136800825,0.2737657427787781,0.96173757314682,-0.0273632064436574,-0.0079904539983428,0.0212152493725495,-0.0061941444873809,-0.000822692294605,0.0049167382530868,0.1937363992072641,-0.0672421714430674,-9.8070910102129,14936.0
14.4,0.5,353.0,25.52054977416992,-0.1431319266557693,-79.78277999694872,40.45908995966728,271.478650554657,0.0099814133718609,0.0036375450436025,0.2737401127815246,0.9617450833320618,-0.0257328352936117,-0.0035733144814466,0.0274925529041628,0.0060692853294312,0.0028918839525431,0.0074046626687049,0.1862924551405012,-0.046141063934192,-9.801794602274896,14936.0
14.59,0.5,352.0,25.52430534362793,-0.1272283792495727,-79.78277997836075,40.459089969500326,271.5116870250702,0.0099432943388819,0.0036753816530108,0.2737576365470886,0.9617403149604796,-0.0207186088183053,0.0006989978273461,0.0303442875685052,-0.0098001472651958,-0.0042796805500984,-0.0033531843218952,0.189730873759836,-0.065506466589868,-9.804616468548776,14936.0
14.7,0.4000000059604645,354.0,25.52180099487305,-0.1113248318433761,-79.7827800225608,40.45908994569464,271.5178000774384,0.0099441427737474,0.0036860606633126,0.2737799286842346,0.9617339372634888,-0.0269330647837921,-0.0024473766009142,0.0309802085609905,-0.0038928734138607,-0.0012592702405527,0.0047395806759595,0.1881040139123797,-0.0387884277943521,-9.804051627516747,14936.0
14.89,0.4000000059604645,355.0,25.523054122924805,-0.1272283792495727,-79.78278001712783,40.45908996460823,271.5512754764557,0.0099257612600922,0.0037057376466691,0.2737587988376617,0.9617400765419006,-0.0224412110079768,0.0038837051608653,0.0329677059291439,-0.005227651912719,-0.0004013110592495,-0.0061904676258564,0.1860294217988848,-0.0551800005231052,-9.803046491146088,14936.0
14.99,0.4000000059604645,354.0,25.52555847167969,-0.1113248318433761,-79.78278006814695,40.45908994452717,271.55797527694705,0.009930164553225,0.0036902532447129,0.2737534940242767,0.9617416262626648,-0.0291257072765708,0.0010111949372102,0.0339657786598448,-0.0074664209969341,-0.0018503708997741,0.0027774472255259,0.1889357255212962,-0.0433198646083474,-9.805930922627448,14936.0
15.19,0.4000000059604645,352.0,25.52555847167969,-0.1192766055464744,-79.78278005308559,40.45908995510205,271.58900640869143,0.0099327946081757,0.003721774322912,0.2737385034561157,0.9617457389831544,-0.0238382203180737,0.0035608777908502,0.0310142447485387,0.0013001988409087,-0.0001159931343863,-0.0040457430295646,0.1873758345656096,-0.0419381355727091,-9.800962543487548,14936.0
15.29,0.4000000059604645,353.0,25.523054122924805,-0.1033730581402778,-79.78278000702089,40.45908993473866,271.6235732879639,0.0099366176873445,0.0037584833335131,0.2737602591514587,0.9617393016815186,-0.0182953444794439,-0.0025427800666149,0.0300784143962912,-0.0103781223297119,-0.0018953699618577,-0.0035989941097795,0.1932887400314212,-0.056895660390146,-9.807642402648929,14936.0
15.5,0.4000000059604645,353.0,25.50051689147949,0.2226496636867523,-79.78278002366899,40.45908992252503,271.6265840377808,0.0099538546055555,0.0037405714392662,0.2737094163894653,0.9617537260055542,-0.019901101228542,-0.004614744643398,0.0301523741599945,0.0098923752084374,0.0025005908682942,-0.0011007306165993,0.1855638189800084,-0.05409412689507,-9.804351004958152,14936.0
15.6,0.4000000059604645,352.0,25.50051689147949,0.1908425688743592,-79.78278003118095,40.459089892310864,271.659634098053,0.0099275615066289,0.003749243915081,0.2737630009651184,0.9617387056350708,-0.0251366534911626,-0.0051067454482105,0.0301127943953903,-0.0024671962019056,0.0008665947825647,-0.01064870133996,0.1877273801341653,-0.0646976915979758,-9.804670847654345,14936.0
15.79,0.4000000059604645,350.0,25.50802993774414,0.1828908026218414,-79.78278005230275,40.45908987606717,271.6626550998688,0.0099056391045451,0.0037262816913425,0.2737804353237152,0.9617339968681335,-0.0272888998435555,-0.0065434035817187,0.0304561677003442,0.0102250566706061,0.0086343009024858,0.0015351560432463,0.1914959106221795,-0.0536952006071806,-9.806262459754944,14936.0
15.89,0.4000000059604645,351.0,25.505525588989247,0.198794350028038,-79.78278001315586,40.459089863725794,271.69547079467776,0.0099227149039506,0.0037322503048926,0.2737545967102051,0.9617411494255066,-0.0215377695088676,-0.0070724358592366,0.029867029734553,0.0087602883577346,0.0018750027520582,0.0003688698634505,0.196546205598861,-0.0720735156023874,-9.806721466183664,14936.0
16.09,0.5,352.0,25.5042724609375,0.198794350028038,-79.7827800324448,40.45908984192708,271.7245893325806,0.0098932767286896,0.0037103274371474,0.2737937271595001,0.9617304801940918,-0.0281144869475018,-0.0025325465268181,0.0279425607493647,0.0005044008721597,0.0020594797097146,0.0002688079257495,0.1948333551362157,-0.0635646976344287,-9.810840829610823,14936.0
16.2,0.5,352.0,25.50051689147949,0.2465049922466278,-79.78278009029054,40.45908980570111,271.7302327003479,0.0099297109991312,0.003710109507665,0.2738419473171234,0.9617162942886353,-0.0352008340088543,-0.005840515545316,0.0285950425484149,0.0065804058685898,0.0037312644999474,0.0010132354218512,0.1874291355907916,-0.0634480913635343,-9.807765778899192,14936.0
16.39,0.5,350.0,25.49550819396973,0.3101191818714142,-79.78278000693271,40.45908981034845,271.7568862285614,0.0099146729335188,0.0037382752634584,0.2738114595413208,0.9617250561714172,-0.0223644558314088,-0.0046189883962991,0.025212635622569,-0.0058256709016859,-0.0012807713355869,0.0055504771880805,0.1919335564412176,-0.0632304927147924,-9.809098944067957,14936.0
16.49,0.5,351.0,24.13202476501465,26.50326156616211,-79.78277997936337,40.45908978243272,271.78599594497683,0.0098418230190873,0.0037774504162371,0.2737868428230285,0.9617326855659484,-0.0204832917034357,-0.0052307461988001,0.0256597394902249,0.0127716083079576,0.0034041707403957,0.0025113383308053,0.1844865425862372,-0.0478643708629533,-9.805202944278715,14936.0
16.69,0.5,350.0,25.48924827575684,0.3816851377487183,-79.78277999891212,40.45908976836939,271.7884602394104,0.0096812359988689,0.0038871478755027,0.2737093865871429,0.9617559313774108,-0.0255018622670972,-0.0056372060418208,0.0248490662316108,-0.0151367001235485,0.0127565348520874,-0.0011635159607976,0.1457648735493421,-0.1158231459930539,-9.809017667770387,14936.0
16.79,0.6000000238418579,350.0,25.48924827575684,0.0238553211092948,-79.78277995490569,40.45908974377787,271.81900261306765,0.00963154155761,0.0039191311225295,0.2737956345081329,0.961731731891632,-0.0234921806765916,-0.0042627783868356,0.0247667584349024,-0.0156548842787742,-0.0043089524842798,0.014021155424416,0.1979519493319094,-0.0137882552761584,-9.797182903289798,14936.0
16.99,0.6000000238418579,350.0,25.39910125732422,1.574451208114624,-79.78277997449487,40.45908972856638,271.82156394386294,0.0096057672053575,0.0039487280882894,0.2737907469272613,0.9617332220077516,-0.0221643066303135,-0.0082131360698969,0.0254414305643229,0.01824951171875,0.0168560799211263,0.0117400782182812,0.1914838324673474,-0.041822634791024,-9.80488660991192,14936.0
17.1,0.6000000238418579,349.0,25.48799705505371,0.3816851377487183,-79.78277994536444,40.459089713661925,271.85075472259524,0.0096111483871936,0.0039793835021555,0.2738117575645447,0.9617270827293396,-0.0243767647507086,-0.006385527828393,0.0258766374340601,-0.0075378259643912,0.0271984338760376,-0.0377381704747676,0.2404969665035605,-0.1262061838712543,-9.804859127998352,14936.0
17.29,0.699999988079071,349.0,25.50302124023437,0.1669872552156448,-79.78277996501387,40.45908969877197,271.8533389415741,0.0096079688519239,0.0039814733900129,0.2738314867019653,0.961721420288086,-0.026036169989127,-0.0058891106256972,0.026095915992716,0.0182980801910162,-0.004626918118447,0.0105625912547111,0.1646725397184491,-0.0339262624131515,-9.79885754585266,14936.0
17.4,0.699999988079071,348.0,25.4016056060791,1.8766186237335205,-79.7827799276656,40.45908969735651,271.8836295452118,0.0096410885453224,0.0039434661157429,0.2738583087921142,0.9617136716842652,-0.0219448782110562,-0.0034165215176771,0.0265707060532112,0.0141321141272783,0.0107620703056454,0.0007464181398972,0.1868185035511851,-0.0622626597527414,-9.806736084222797,14936.0
17.59,0.699999988079071,344.0,25.20002555847168,4.92214822769165,-79.78277988058245,40.459089683742455,271.9095473136902,0.0096269343048334,0.0039833686314523,0.2739337086677551,0.9616921544075012,-0.023718037234003,-0.0028048982973708,0.0269209976151598,-0.0116460537537932,-0.0176519956439733,-0.0161276888102293,0.1632373771816492,-0.0666581944841891,-9.802469955682756,14936.0
17.69,0.8000000119209291,344.0,25.14242935180664,6.091058731079103,-79.78277992520606,40.4590896529534,271.91501592063906,0.0095489099621772,0.0039961342699825,0.2740018367767334,0.9616735577583312,-0.0257134501797934,-0.0061550509754152,0.0275932482950019,0.0342473611235618,0.0084903733804821,0.011110071092844,0.211609455384314,-0.0587113944394514,-9.810394102334977,14936.0
17.89,0.8000000119209291,342.0,24.985923767089844,8.579963684082031,-79.78277987764417,40.45908963720623,271.9399885978699,0.0095049068331718,0.0041333548724651,0.2739129364490509,0.9616986513137816,-0.0305933588381325,-0.0043533643429341,0.0274362499962142,-0.0113785983994603,0.0458187572658062,0.0281159318983554,0.2012002603523433,-0.0360191727569326,-9.828442118167878,14936.0
17.99,0.8000000119209291,341.0,24.88450813293457,10.265740394592283,-79.78277981437252,40.45908962347461,271.97022746467604,0.0093430113047361,0.0044477321207523,0.2738558650016785,0.9617151618003844,-0.0207132002470698,-0.002457989071536,0.0318035309695491,-0.0068495864979922,-0.0570663325488567,0.0993935763835907,0.2809356886893511,-0.228624761570245,-9.850963253974916,14936.0
18.19,0.8999999761581421,342.0,24.68668365478516,13.42259407043457,-79.78277983294889,40.45908961189812,271.97347877883914,0.0090183122083544,0.0047775981947779,0.2737167775630951,0.9617562294006348,-0.0210355087628935,-0.0060048029324445,0.0321702105688685,0.0014688485534861,-0.0122894886881113,0.032346948981285,0.1170908588916063,-0.0470659335656091,-9.762294321656228,14936.0
18.3,0.8999999761581421,341.0,24.57399940490723,15.37873077392578,-79.78277972890649,40.45908961574676,272.006857618332,0.0088249249383807,0.005899513605982,0.2733044028282165,0.9618690013885498,-0.0089102297508752,-0.0096932849627893,0.03724192563603,0.008481022901833,0.0898514240980148,-0.0526266247034072,0.238594099804759,-0.0147997048124671,-9.853613212108613,14937.0
18.5,0.8999999761581421,341.0,24.33110237121582,18.766185760498047,-79.78277973213025,40.45908960176823,272.0111222114563,0.0097083803266286,0.0071382233873009,0.2730053961277008,0.9619370102882384,-0.0061477406465386,-0.013088717513703,0.0435181868809524,0.0901758670806884,-0.0005135990795679,-0.0021056483965367,0.1535962139256298,-0.1360138557292521,-9.871400442123411,14937.0
18.6,0.8999999761581421,341.0,24.245962142944336,20.730274200439453,-79.7827796737362,40.45908961454171,272.0412194576264,0.0117726745083928,0.0096910689026117,0.2720978260040283,0.9621487855911256,-0.0146521423369563,-0.0136146465835023,0.0650042364087146,-0.0509606264531612,0.0134701523929834,0.0608540400862693,0.1513128488045186,-0.0718196413759142,-9.91461721301079,14937.0
18.8,1.0,340.0,23.96049499511719,24.809534072875977,-79.78277967562549,40.45908959456211,272.0478005256653,0.0122635001316666,0.0055019413121044,0.2726682424545288,0.9620142579078674,-0.0206070554179904,-0.0154787451441941,0.0764808268131728,-0.1438300907611847,-0.080764889717102,-0.1143650189042091,0.1967166702076792,0.092416476784274,-9.98177248477936,14937.0
18.9,1.0,345.0,23.85031318664551,27.028079986572266,-79.78277951440266,40.459089534575526,272.0949084606171,0.0118389371782541,-0.0159878246486186,0.2778697609901428,0.9604128003120422,-0.0223671780113185,-0.0283330227375271,0.2432140140104336,-0.080619566142559,-0.1759955734014511,-0.0990626364946365,0.1956471231020987,-0.2704840282537043,-10.359425432682038,14937.0
19.09,1.100000023841858,346.0,24.24095344543457,20.451963424682614,-79.78277950020092,40.45908950443598,272.1329064216614,0.0078079146333038,-0.015766691416502,0.2800450623035431,0.95982563495636,-0.0001223556619457,-0.027011776792334,0.317744962029435,0.2588671445846557,-0.0049508302472531,0.0147856436669826,0.199648592043668,0.4445026295632124,-10.706310331821443,14937.0
19.19,1.100000023841858,345.0,24.15456199645996,21.398223876953125,-79.78277953528169,40.45908943683212,272.1998247947693,0.0014325524680316,-0.0027738821227103,0.2801500260829925,0.9599511623382568,-0.0436853670757687,-0.0141423860986271,0.3183946859015362,-0.0307542663067579,-0.0026383702643215,0.0033281904179602,0.2979298718087375,0.2006891223415732,-10.123946363925937,14937.0
19.4,1.2000000476837158,342.0,24.13327789306641,21.6685848236084,-79.78277959602458,40.45908946130878,272.2350725975037,0.0002427487488603,2.047207090072333e-05,0.2791255414485931,0.9602546095848083,-0.0298965170142008,-0.0065245761887048,0.2487354226722256,-0.1008763909339904,-0.0581188201904296,-0.0001999497762881,0.1217784803174436,0.0283164117392152,-9.576673291325571,14937.0
19.5,1.2000000476837158,342.0,24.1144962310791,21.485692977905277,-79.78277962926491,40.4590894464639,272.279484495163,0.000482098897919,-0.0021042579319328,0.276934802532196,0.960886299610138,-0.0103991446523524,0.0110928279505975,0.1999057038462959,-0.0257039759308099,0.0101684723049402,0.0180708840489387,0.0642229296639561,0.0052788297459483,-9.594668682217598,14937.0
19.7,1.2999999523162842,342.0,24.060659408569336,22.686410903930664,-79.7827796787997,40.45908940282784,272.3050350990296,0.0010302962036803,-0.0053972769528627,0.2762748599052429,0.961063027381897,-0.0225666206932255,0.029506615606418,0.1578958309868028,0.0057129622437059,0.0267540458589792,0.0175499748438596,0.0499679569434374,0.1080705328937619,-9.606343232989312,14937.0
19.79,1.2999999523162842,342.0,23.971763610839844,24.03026008605957,-79.7827795763061,40.45908936480637,272.36248825454715,0.0034804267343133,-0.002955547068268,0.2757007479667664,0.9612327218055724,-0.0058940772728379,0.0197893767833216,0.1521910024810646,0.1121559590101242,0.0808579921722412,0.0601609498262405,0.0473648953065276,0.0235145412012934,-9.667753615379333,14937.0
20.0,1.2999999523162842,344.0,23.96925926208496,23.40207099914551,-79.78277961107591,40.45908938001195,272.37726686859133,0.005257858429104,-0.000726114376448,0.2755150198936462,0.961282193660736,-0.020414788611238,0.0299088624577853,0.1462382807847352,-0.0170686189085245,0.1467410624027252,-0.012229811400175,0.0903973875381052,0.2308654876984656,-9.709985130429269,14937.0
20.1,1.2999999523162842,345.0,23.89288330078125,24.849292755126957,-79.78277962295725,40.45908944194753,272.43805192375186,0.0061229462735354,-0.0052430517971515,0.275377094745636,0.9613025784492492,-0.0038201868570414,0.047821228175716,0.1908516288713509,0.0560503825545311,0.0733432099223136,0.0868862718343734,0.2061218983121217,-0.1691393008455634,-9.875182421207429,14937.0
20.29,1.399999976158142,349.0,23.93044471740723,24.55507850646973,-79.78277967227383,40.45908947354173,272.4580685939789,0.0062925275415182,-0.0072069810703396,0.2755959331989288,0.9612259864807128,-0.0164513584024116,0.0532257166303758,0.2037246067847731,-0.0072596371173858,-0.0223829690366983,-0.0067806583829224,0.1125876074843108,-0.0335756989941,-9.896735258102416,14937.0
20.39,1.399999976158142,350.0,23.80524063110352,26.42374420166016,-79.78277962531455,40.45908963762115,272.5114519443512,0.0066571105271577,-0.0066593596711754,0.2751018702983856,0.9613690376281738,-0.0051178011176195,0.0616106670341932,0.2240712079119564,0.0477850995957851,0.0150594050064682,0.0935911163687706,0.007661878473591,0.3506157516315579,-9.845421262979508,14937.0
20.59,1.2999999523162842,356.0,23.90290069580078,25.135557174682607,-79.78277967888155,40.459089674152544,272.5361480560303,0.0073686479590833,-0.0051788976415991,0.2748259603977203,0.9614518284797668,-0.023683855758078,0.0575376092658479,0.2658311446349834,-0.0480835735797882,-0.0296327173709869,-0.0623882934451103,0.10414894239977,-0.0579035604838281,-10.1771723985672,14937.0
20.7,1.2999999523162842,356.0,24.063161849975582,21.71629524230957,-79.78277948591204,40.45908973226741,272.5795113887787,0.007687201257795,-0.0029839703347533,0.274183452129364,0.96164208650589,-0.0030534877802468,0.0492588076727869,0.2875767243610301,-0.0612699910998344,0.0570357143878936,-0.0987064465880394,0.0343589312466792,0.3680993649736047,-10.061776428222656,14937.0
20.89,1.2999999523162842,2.0,23.62494468688965,30.45529365539551,-79.78277937584413,40.45908978295554,272.6394531574249,0.0054680285975337,0.0014189900830388,0.2732687890529633,0.9619211554527284,0.0165608966180894,0.0466181398695453,0.0874610291686662,0.0160837695002555,0.0034673123154789,-0.0213049128651618,0.0037613767851144,0.015479439063929,-8.474809355735779,14937.0
21.0,1.2999999523162842,4.0,23.755157470703125,26.75771903991699,-79.78277938672971,40.459089826828325,272.6423480358124,0.00504802307114,0.0012967461952939,0.2721457481384277,0.9622420072555542,0.0144996103671043,0.041061010426658,0.0033192982004089,-0.0753903463482856,0.0235128607600927,-0.014414956793189,0.0353395732655189,-0.0336722968239337,-9.07311283349991,14937.0
21.19,1.2000000476837158,7.0,23.420860290527344,32.13311767578125,-79.78277928761868,40.459089849214784,272.6926915493012,0.0083689605817198,-0.0036176913417875,0.27029949426651,0.9627332091331482,0.0253474575794878,0.0376432949868049,0.1530060403891899,0.1316275000572204,0.0823877677321434,0.1692049205303192,0.1037422411423176,0.1150351331848651,-10.403725107908253,14937.0
21.3,1.2000000476837158,10.0,23.22804450988769,36.3316535949707,-79.78277930196411,40.45908988326953,272.7146088924408,0.0092923715710639,-0.0039641275070607,0.2700656354427337,0.9627889394760132,0.0161656678182922,0.0405807768075191,0.2881359320422393,0.1277479231357574,0.0483286529779434,0.0543346293270587,0.1685715727508068,0.0489731993805617,-11.016199897527695,14937.0
21.49,1.2999999523162842,13.0,23.280630111694336,34.97190093994141,-79.78277918118594,40.45909009581862,272.8116426315308,0.0090077631175518,-0.0042108804918825,0.2709109485149383,0.9625531435012816,0.022525327723325,0.0504191759796448,0.7040044644999374,0.0219416804611682,0.0170764420181512,0.1100280508399009,0.1557092332094908,0.0766737165860831,-11.999486392736436,14937.0
21.59,1.2999999523162842,14.0,23.39581871032715,32.79311752319336,-79.78277917699806,40.459090141900745,272.99664686584475,0.0054179620929062,-0.0017831433797255,0.2718075215816498,0.9623347520828248,0.0179441705024273,0.0505040550030096,1.0762409797945949,0.0419420227408409,0.0231262482702732,-0.0223987642675638,0.1512028206512332,0.1080805919319391,-11.853676714897151,14937.0
21.79,1.399999976158142,15.0,23.08781433105469,36.29984664916992,-79.78277919724569,40.45909017055183,273.11505411529544,0.0058185714296996,-0.0012598127359524,0.2722993791103363,0.9621942043304444,0.0076901263934009,0.0462769367827543,1.2969250867638868,-0.0139021007344126,0.0502651706337928,-0.0379462875425815,0.0585293678753078,0.0092994574550539,-11.965055648088455,14938.0
21.89,1.399999976158142,13.0,22.91878890991211,39.64754486083984,-79.78277918592514,40.45909018189536,273.26086090469363,0.0056936205364763,-0.0015274536563083,0.2732200622558594,0.9619334936141968,0.0089759923431523,0.0485076075199414,1.5080654086048642,0.0156790204346179,0.026634968817234,-0.0175301898270845,0.0405900828447192,0.0978282027784735,-12.027060692310336,14938.0
22.09,1.5,17.0,22.912527084350582,39.5521240234375,-79.7827792303922,40.45909020859692,273.609238609314,0.004703891929239,-0.0031405857298523,0.2763630151748657,0.9610368013381958,0.0002211770427769,0.050909604991685,1.9822862743272764,-0.0414833948016166,0.0068150265142321,-0.073344312608242,0.1017611496616155,0.0466259579965844,-12.266287826299669,14938.0
22.19,1.5,18.0,23.00392723083496,37.802734375,-79.78277926777615,40.459090227979104,273.81940315628054,0.0047067427076399,-0.0029599778354167,0.2776493430137634,0.9606664180755616,0.009713872801186,0.0558237044721987,2.221731443169116,0.0682752206921577,0.0109344804659485,0.0848298221826553,0.1409765429701656,0.1552532965689897,-12.237518355846404,14938.0
22.4,1.7999999523162842,12.0,23.21302032470703,33.92226791381836,-79.78277934623162,40.459090263017735,274.3052525367737,0.0039042744319885,0.0039096274413168,0.278704971075058,0.9603608846664428,-0.0054624175418545,0.0671700965941748,2.666857226327606,0.1282227784395218,-0.0092835407704114,0.0312333554029464,0.1817138294689356,0.0921276700124144,-12.10372002840042,14939.0
22.5,1.8999999761581416,10.0,23.22428894042969,34.749252319335945,-79.78277936727612,40.45909030986101,274.88782070541384,0.0032602581195533,0.00435153208673,0.2775653302669525,0.9606914520263672,-0.0185496701967058,0.0768810395611853,2.9996848398002145,-0.088003471493721,-0.0665874779224395,-0.0106685431674122,0.1324968103319406,0.0182392106484621,-11.775139253139493,14939.0
22.69,2.0,14.0,23.55107307434082,27.735788345336918,-79.7827793843457,40.45909035029363,275.1943459358216,0.0035833260044455,0.0027666152454912,0.2759828567504883,0.961151957511902,-0.0026793220819601,0.0801210629740641,3.118693074613225,-0.0184068512171506,-0.0117211667820811,0.0247820988297462,0.1319079957157373,0.032425521982368,-10.99128958940506,14940.0
22.8,2.0999999046325684,18.0,23.68253898620605,26.28856468200684,-79.78277939675301,40.45909039647344,275.5093974914551,0.0034584833774715,0.0020543760620057,0.2743781805038452,0.9616135358810424,0.0078746940331365,0.0825384046032366,3.1735351494158883,-0.0426538735628128,-0.0583630427718162,-0.0139946900308132,0.1635796585679054,-0.1664128538221121,-10.492298730611802,14940.0
22.99,2.400000095367432,32.0,23.63120460510254,26.39988899230957,-79.78277927941788,40.45909051993719,276.1667427864075,0.0023635935503989,0.0037094706203788,0.271615207195282,0.9623959064483644,0.0202155079321861,0.0785254405114746,3.185579624166472,0.1322451084852218,0.0034630496520549,0.1688723266124725,0.1979734561219812,0.1145724448375404,-9.913683997392654,14941.0
23.1,2.400000095367432,37.0,23.474699020385746,29.94638061523437,-79.78277902721102,40.45909069102144,276.8425297584534,0.0029984328430145,0.0082962410524487,0.2704352140426636,0.9626978039741516,0.0162091569660211,0.0847908959174809,3.180618308889456,0.1041492745280265,0.0190892592072486,-0.038328506052494,0.091264072805643,0.1035758147668093,-9.790665012001991,14941.0
23.29,2.5999999046325684,47.0,23.513511657714844,28.85698699951172,-79.78277901745051,40.45909075782981,277.1612391319275,0.0044492157176136,0.0099792378023266,0.2705485820770264,0.962644338607788,-0.0027688124242959,0.0941663337559611,3.190468956702857,-0.0748117715120315,-0.0505849421024322,-0.0678375661373138,0.1462712972424924,-0.0431498111318796,-9.826442370414734,14942.0
23.39,2.700000047683716,53.0,23.4033317565918,29.71577835083008,-79.78277883162491,40.45909089654208,277.5036086883545,0.0064154337160289,0.0101258978247642,0.2707207500934601,0.9625833630561828,-0.0027913808162267,0.1058486224733803,3.183865772647527,-0.2202217876911164,-0.048765130341053,-0.164998322725296,0.1172099776379764,-0.2591704151406884,-9.78222923398018,14942.0
23.59,2.799999952316284,63.0,23.537302017211918,27.74374008178711,-79.78277852033747,40.45909124232411,278.14808462524417,0.0074163540266454,0.0051621058955788,0.2709120512008667,0.9625617265701294,0.0562360936056437,0.1213784904646001,3.1611509003582974,0.0167036466300487,0.0019748744089156,0.0746673867106437,0.142561321137473,-0.1169474193826317,-9.689959586262702,14943.0
23.69,2.799999952316284,68.0,23.533544540405277,27.74374008178711,-79.78277847141864,40.45909132871056,278.46315382385256,0.0082881739363074,0.0020825783722102,0.2711234390735626,0.9625066518783568,0.0763083765769192,0.1119665216782666,3.1355232096856214,0.0733739659190177,0.0289555564522743,0.1047049686312675,0.1974605091288686,-0.1688230943866074,-9.607620849609376,14943.0
23.89,2.900000095367432,77.0,23.48471450805664,27.40181350708008,-79.7827779801052,40.459091222872686,279.08993814849856,0.0105408998206257,-0.0025500007905066,0.27203369140625,0.962226629257202,0.0831885299372496,0.073168812497431,3.089872455495009,0.0974802523851394,0.0220549702644348,0.0750253349542617,0.1338493078574538,0.0931682642642408,-9.794941665530205,14944.0
24.0,2.900000095367432,80.0,23.55483055114746,27.24277687072754,-79.78277755440452,40.459091407867824,279.6246356811524,0.0108033390715718,-0.0002395862393314,0.2724182307720184,0.9621183276176452,0.0859957930398944,0.0654264778571298,3.0057801095079686,-0.0534613206982612,-0.0319779403507709,-0.0640620365738868,0.1286173289269209,0.1157493797130882,-9.89287609577179,14944.0
24.2,3.0,86.0,23.453413009643555,29.365901947021484,-79.78277749783827,40.45909143566278,279.9242620315552,0.0092041632160544,-7.113549509085715e-05,0.2723051011562347,0.9621670246124268,0.0601550186163114,0.0614161114103226,2.986933887450401,-0.1174430325627327,-0.1169859543442726,-0.1229002773761749,0.1650973033905029,-0.2344146927818656,-9.653554236888883,14944.0
24.29,3.0,84.0,23.56484603881836,26.28856468200684,-79.78277745261681,40.45909145288929,280.2221193161011,0.0069507784210145,-0.0021869533229619,0.2722561657428741,0.9621973037719728,0.0376491226904703,0.0501350151218503,2.9721975270958847,-0.2390985488891601,-0.1781606376171112,-0.077161431312561,0.0924047640804201,-0.2049600565619767,-9.68033214569092,14945.0
24.5,2.900000095367432,80.0,23.46718597412109,28.57072448730469,-79.78277674514355,40.45909167323655,280.9045677032471,0.0073917764239013,-0.0036585654597729,0.2727809250354767,0.9620408415794371,0.0760174929169264,0.0097035637289462,2.923861785780264,-0.0246116258203983,-0.0387604311108589,-0.00409583048895,0.1378358938079327,-0.2734670218639076,-9.426326174139977,14945.0
24.59,2.900000095367432,78.0,23.36076164245605,30.45529365539551,-79.7827766429068,40.45909189727625,281.6349153366089,0.0110396780073642,-0.0052196173928678,0.2734031677246094,0.9618220329284668,0.0434648077650705,0.0374069199278891,2.9309904852500765,-0.0898162350058555,-0.0564504414796829,0.0172683950513601,-0.003749812831229,-0.1551204185932874,-9.447073849439624,14946.0
24.8,3.0,76.0,23.453413009643555,29.26252746582031,-79.78277663459987,40.45909189104275,281.9280824508667,0.0121495304629206,-0.0045645413920283,0.2733700275421142,0.961821436882019,0.0457463356825178,0.0388378799094992,2.9244934136969305,0.0562432669103145,0.0781981125473976,-0.0096472213044762,0.0437107920879498,-0.1583428556844592,-9.666054999232294,14946.0
24.9,3.0,73.0,23.51100730895996,27.74374008178711,-79.78277653242357,40.45909207541148,282.3334932174683,0.0118372673168778,-0.0030904083978384,0.2731350958347321,0.9618979692459106,0.0506897160793295,0.052278291255782,2.9303265235485365,0.1608743369579315,0.0543943010270595,0.0510834231972694,0.0596361087542027,-0.0966874292772263,-9.553887861371043,14947.0
25.1,3.0,68.0,23.69756317138672,24.197248458862305,-79.78277657888498,40.45909229046513,283.01896856689456,0.0098939277231693,0.0005865088896825,0.2720334529876709,0.962236762046814,0.0145130500336085,0.0529186724957709,2.9812526699428648,0.0594948567450046,0.0621114075183868,0.0903968214988708,0.0205059477500617,0.1100095883756876,-9.889277719259262,14948.0
25.19,2.900000095367432,66.0,23.36451911926269,29.64421272277832,-79.78277658758613,40.45909227389616,283.3174018707276,0.0089518371969461,0.0007327297353185,0.2716589272022247,0.9623517394065856,-0.0076219845662881,0.036784296299519,2.9748217420076646,0.0322547405958175,0.0410131253302097,-0.0256459396332502,0.0037531450018286,0.1115982768684625,-9.713207530975344,14948.0
25.39,2.900000095367432,63.0,23.44464874267578,28.4912052154541,-79.78277626856976,40.45909240116936,283.9879073944092,0.0074617085047066,0.0026706708595156,0.2712276875972748,0.9624826312065125,-0.0304915824501962,0.0324964390463229,2.9676173666961247,-0.1616543680429458,-0.0978592857718467,-0.1166977360844612,0.0487890760414302,-0.0597616137564182,-9.610756711363791,14948.0
25.5,2.900000095367432,62.0,23.22554016113281,32.02179336547852,-79.78277627646138,40.45909237287146,284.2840394821167,0.0066717904992401,0.002860794076696,0.2715241611003876,0.9624043107032776,-0.0382472523592054,0.0201359047905675,2.9597012110919194,-0.1102055758237838,-0.0206904988735914,-0.0922994017601013,0.0160531879635527,-0.0713219793699681,-9.677223765850067,14949.0
25.69,2.900000095367432,63.0,23.397071838378903,28.77746963500977,-79.78277605736767,40.45909235356389,284.9433231201172,0.0081538427621126,0.0026263312902301,0.2713949084281921,0.9624300003051758,-0.0201440342239213,0.0085499682837976,3.0450794947495265,0.1100898757576942,0.0066993529908359,0.051961999386549,0.1162097839917987,-0.0798522812873125,-10.120050948858262,14949.0
25.79,2.900000095367432,62.0,23.433380126953125,28.745662689208984,-79.7827760032578,40.45909231861757,285.5918350067139,0.0082230884581804,0.0056723393499851,0.2699241936206817,0.9628297686576844,-0.0363475605703612,0.0197942852791667,3.0723742503861264,0.0152911208570003,0.0424985103309154,0.0518734157085418,0.0938834335561841,0.136266144812107,-9.961240571737289,14950.0
25.99,2.900000095367432,61.0,23.53229331970215,26.550973892211918,-79.78277600343277,40.45909227145494,285.89966009521487,0.0081783980131149,0.0054497052915394,0.2698409259319305,0.96285480260849,-0.0473115546307515,0.0060160126316647,3.0804270851707765,0.0441439412534236,0.0235223826020956,-0.0244595520198345,0.1000013296119868,0.1005275607481599,-9.855928709506989,14950.0
26.09,2.900000095367432,63.0,23.48847198486328,26.41579246520996,-79.78277596495927,40.45909223198044,286.2387542572022,0.0072637712582945,0.0054224217310547,0.2706198990345001,0.9626436829566956,-0.0601223699567648,0.0106045263315495,3.0659357065390127,-0.0264785904437303,-0.0006374973454512,-0.0539159402251243,0.0219107367424294,0.096792405070737,-9.702076771259309,14951.0
26.29,2.900000095367432,65.0,23.506000518798828,26.638442993164062,-79.78277597963006,40.45909210537821,286.8489570465088,0.0043895826674997,0.0047097918577492,0.2731475234031677,0.9619507193565368,-0.0668036594113178,-0.0222333265262213,3.0242219099652523,-0.0114436978474259,0.015051188878715,-0.0528149642050266,-0.0083000118413474,0.1808253450505436,-9.487557631731033,14951.0
26.39,2.900000095367432,66.0,23.44464874267578,27.544944763183597,-79.78277583837799,40.45909204121182,287.18516920471194,0.0034509624820202,0.004925753455609,0.2741788029670715,0.9616599082946776,-0.0527082033451313,-0.0305878570332307,3.003713258768621,0.153804212808609,-0.0205487050116062,0.0431984923779964,0.06898985395208,0.1281030114926397,-9.535163322687149,14952.0
26.59,2.900000095367432,67.0,23.43588447570801,28.65819358825684,-79.78277570860351,40.45909185700357,287.82408712768563,0.0031808482017368,0.0041763680055737,0.2740212380886078,0.9617093801498412,-0.05892090013766,-0.0479452914325007,2.996809961379015,0.0564687885344028,-0.002701322780922,0.0188303608447313,0.0455949933780357,0.1038313198182732,-9.68339374780655,14952.0
26.7,2.799999952316284,69.0,23.55858612060547,26.185192108154297,-79.78277570018768,40.45909169128432,288.42071340942385,0.0019075563177466,0.0050604315474629,0.2742553353309631,0.9616417288780212,-0.0727240413730965,-0.063313331236161,2.9643147914109536,-0.0092246560379862,-0.0553608126938343,-0.0502929873764514,0.0186006645066663,-0.0080383044015616,-9.676490525007248,14953.0
26.89,2.900000095367432,72.0,23.3933162689209,28.037954330444336,-79.78277553684472,40.45909156858011,288.75033758544924,0.0009475937695242,0.0054722842760384,0.274441123008728,0.9615879654884338,-0.0870218022204644,-0.0609078323687625,2.9790869680193173,-0.0581619776785373,-0.0946226418018341,-0.1004432588815689,0.080558917298913,-0.1109746073652059,-9.80843294620514,14953.0
26.99,2.900000095367432,72.0,23.363265991210927,29.413612365722656,-79.78277553940194,40.459091478633255,289.04925917053225,-0.0004668534384109,0.0060645630583167,0.2747491896152496,0.9614967703819276,-0.0980014699363723,-0.0652986150773089,3.002269220579688,-0.1505379229784011,-0.0600455366075038,-0.1006307378411293,0.009470177879557,-0.2203601790592074,-9.95673704624176,14954.0
27.19,2.900000095367432,70.0,23.31819152832031,29.683971405029297,-79.78277540792129,40.45909128180129,289.68216513061526,-0.0023247175849974,0.0069052278995513,0.2755766808986664,0.9612515568733216,-0.08386092387471,-0.0587462719611269,3.0405524593826434,0.1174330338835716,0.0004952842136844,0.0274195056408643,0.0730642120912671,-0.1659657610952854,-9.984390867948534,14954.0
27.29,2.900000095367432,72.0,23.45842170715332,26.471454620361328,-79.78277528430972,40.45909115762578,290.31628607177737,-0.0053206551820039,0.0063619981519877,0.2773733735084533,0.9607264399528505,-0.0881021068095109,-0.0577805249419829,3.0836988578492983,-0.0483509637415409,-0.0287298783659935,-0.088729403913021,0.0968006459902972,0.0498939622566103,-10.077193197011947,14955.0
27.49,2.900000095367432,76.0,23.380794525146484,27.632413864135746,-79.78277529523007,40.45909110971596,290.62517546081546,-0.0020023772958666,0.0081064496189355,0.2782244682312012,0.9604797959327698,-0.0964097169468069,-0.0574742790969657,3.0999412822618964,-0.200685366988182,0.0489491112530231,-0.1031123474240303,-0.0201804040186107,-0.109279819317162,-9.984186215400696,14955.0
27.6,2.900000095367432,77.0,23.48346328735352,26.312419891357425,-79.78277526556592,40.45909107953078,290.95149992370614,0.002197622321546,0.00923852622509,0.2787168323993683,0.9603264331817628,-0.0743445434853633,-0.0315755261820809,3.1093210226116272,0.0540207773447036,0.0464094765484333,0.0511061400175094,0.157270037792623,-0.0717818263359367,-10.090703773498538,14955.0
27.79,2.900000095367432,79.0,23.47970771789551,26.24880599975586,-79.78277527682148,40.45909102179328,291.57409284973147,0.0024154458660632,0.0086959404870867,0.2781805992126465,0.9604863524436952,-0.0570875082769488,0.0122010876329591,3.1015736790592525,0.0876997113227844,-0.0386501774191856,0.0031479222234338,0.1839443046972156,0.0901477753836661,-9.72337817788124,14956.0
27.9,2.900000095367432,78.0,23.344486236572266,28.65819358825684,-79.78277519149583,40.45909091448947,291.90111158752444,0.0013760336441919,0.0085543422028422,0.277441680431366,0.9607033729553224,-0.077454169201137,0.0109477782050805,3.0779957413445653,-0.1986925452947616,-0.0744095370173454,-0.1159159243106842,0.0757845606515184,-0.105510192476213,-9.663455327153208,14956.0
28.11,2.799999952316284,79.0,23.44089317321777,26.82928466796875,-79.78277500608941,40.45909080909711,292.54076002502444,0.0009673882159404,0.0055325515568256,0.2756522595882416,0.9612410664558412,-0.0489468811803841,0.0008142798696112,3.082690871832213,-0.1650514453649521,-0.055729903280735,-0.0425255335867404,0.1060372458770871,-0.09136389574036,-9.871621466875077,14957.0
28.21,2.799999952316284,77.0,23.46718597412109,26.21699905395508,-79.78277496432219,40.459090787741225,293.1588516082764,0.0025491169653832,0.0042967894114553,0.2744806706905365,0.96157968044281,-0.021162311834015,-0.0054712165930857,3.086810623132493,-0.1450924724340438,0.0217768047004938,-0.0488496720790863,0.1771699764579534,-0.2151382500305772,-9.949347335100176,14958.0
28.39,2.799999952316284,74.0,23.49723625183105,25.73194122314453,-79.78277469038989,40.45909075130431,293.4826164093018,0.0046598496846854,0.0049556219018995,0.2746401727199554,0.9615230560302734,0.0018533345446579,-0.0052080771622448,3.0543805460539515,-0.0086704865097999,-0.0276821218430996,-0.0056770299561321,0.0672167223505675,-0.3287716503068805,-9.619073206186297,14958.0
28.49,2.799999952316284,76.0,23.477203369140625,26.58278083801269,-79.78277464809003,40.45909073829089,293.7865371551514,0.0057938760146498,0.00581692205742,0.2752376496791839,0.9613411426544192,-0.0026814096227365,0.0006515592041511,3.0249786197942536,-0.059642806649208,0.0102927042171359,-0.0769792273640632,0.0588153424020856,-0.3098229805380106,-9.55730263531208,14958.0
28.69,2.700000047683716,72.0,23.45466613769531,26.51916694641113,-79.7827743780494,40.459090721536725,294.41877745056155,0.0052755484357476,0.0038248321507126,0.2753598392009735,0.9613192081451416,0.0182903123856804,-0.0065735925664577,2.9905826675667284,-0.0438393801450729,-0.0747658610343933,0.0263916235417127,0.0112120006105396,-0.4130000608786941,-9.528204551339153,14959.0
28.8,2.700000047683716,71.0,23.407087326049805,26.65434646606445,-79.7827741206375,40.45909075089583,295.04858587646487,0.001481037819758,-0.0011730034602805,0.2732698619365692,0.9619356393814088,0.0438229617764768,-0.0238612628872524,2.9992580852886075,-0.0072076958604156,-0.0618172734975814,0.010842609219253,-0.008456343775615,-0.1802662598714232,-9.62846324980259,14960.0
28.99,2.700000047683716,69.0,23.36076164245605,28.80927658081055,-79.78277404593847,40.459090727164224,295.3479080047608,-0.0007993012550286,-0.0011657454306259,0.2719228267669678,0.9623180031776428,0.0575901004328059,-0.0539354264737869,2.9845767741814693,0.1346430331468582,0.0202159751206636,0.0943322032690048,-0.0082965914485976,-0.1368404053431004,-9.714053038358688,14960.0
29.09,2.700000047683716,67.0,23.328208923339844,29.326141357421875,-79.78277395654544,40.459090720129325,295.67478750610354,-0.0025699215475469,0.0003273550828453,0.2710606455802917,0.9625588059425354,0.0481607095271856,-0.0521282194642787,2.9959762917703987,0.0582548007369041,0.008419532328844,-0.0076858638785779,-0.0195684129581786,-0.3103435289114714,-9.728055365681648,14960.0
29.29,2.700000047683716,62.0,23.234304428100582,30.049753189086918,-79.78277383666185,40.459090690098186,296.27333448791506,-0.0065071075223386,0.0019823354668915,0.2707646191120148,0.962621569633484,0.0202058445725095,-0.0595886672280758,2.997699380864129,0.1474451124668121,0.0564090423285961,0.0589536875486373,-0.0168410865683108,-0.0512943704053759,-9.87537654876709,14961.0
29.4,2.700000047683716,60.0,23.27937889099121,29.33409309387207,-79.78277365459897,40.45909064289693,296.5947551574708,-0.0064208377152681,0.00022732821526,0.2713404893875122,0.9624620079994202,0.0192153848615358,-0.0621754603759157,3.0291583018233017,0.0873894616961479,0.0404931604862213,0.086061805486679,0.012763896184042,0.118112385738641,-9.965217847824098,14961.0
29.59,2.700000047683716,52.0,23.315689086914062,28.06180953979492,-79.78277344834898,40.459090609078345,297.21496199035647,-0.0044335452839732,-0.0002100451383739,0.2733774483203888,0.9618965983390808,0.0265710002039339,-0.0270493048094437,3.0379229676820585,-0.1566279530525207,-0.0355127267539501,-0.1264281719923019,0.0180361843574792,-0.1179933674912899,-9.81694883108139,14962.0
29.69,2.700000047683716,48.0,23.31694030761719,28.578676223754893,-79.7827734074581,40.45909063790443,297.5183048095704,-0.0035472698509693,0.0004358507867436,0.2743346095085144,0.961627721786499,0.0341868850229442,-0.0150305409285051,3.034008751444225,-0.12250567227602,-0.0435230955481529,-0.0322770550847053,0.0793023597914725,-0.1631014476902783,-9.8105215716362,14962.0
29.89,2.799999952316284,44.0,23.18797874450684,30.55866622924805,-79.78277318638905,40.459090681886174,298.1402225341797,0.0028776682447642,-0.0035690567456185,0.2751744985580444,0.96138334274292,0.0445367925947316,0.0237213417972112,3.0288340795936057,-0.1705449372529983,0.0249107051640748,-0.0552660822868347,0.0704945481056347,-0.1006626679748296,-9.821244195699691,14963.0
29.99,2.799999952316284,43.0,23.44214630126953,26.48735809326172,-79.78277315408685,40.45909072568328,298.44350431823733,0.0055238916538655,-0.0061043482273817,0.2755030393600464,0.9612650275230408,0.0745117468738047,0.0369102966958822,3.03864265946958,0.0099486177787184,-0.0105789853259921,0.0189433824270963,0.1148759427387267,-0.1272827933169901,-9.954401668310163,14963.0
30.19,2.799999952316284,46.0,23.280630111694336,29.827104568481445,-79.7827729471243,40.45909077897849,299.0593337860108,0.0059472229331731,-0.0063303378410637,0.2756113409996033,0.9612299799919128,0.0733973019452538,0.0468465260580749,3.028327966236387,0.0195526052266359,0.0474523529410362,-0.0198029950261116,-0.0080994900316,0.1801365978643298,-9.778700439333916,14964.0
30.3,2.900000095367432,45.0,23.341981887817383,26.92470741271973,-79.78277294164234,40.45909079897526,299.36208341979983,0.0041493233293294,-0.0052729984745383,0.2753186821937561,0.9613296389579772,0.0531079893301006,0.0370658099945644,3.024605919903348,0.0513103492558002,-0.0878497287631034,-0.009852441959083,0.0340298814699053,0.0052982917235931,-9.804890702962876,14964.0
30.49,2.900000095367432,44.0,23.30316734313965,29.02397537231445,-79.78277282407916,40.45909082521144,299.9838142242432,0.0001574559137225,0.0009322011610493,0.2742084860801697,0.9616698026657104,0.0172022573145906,0.0215848282853093,3.0087201588049544,0.035425204783678,-0.0055875089019536,-0.0219913404434919,-0.0653393824025988,-0.2145009217970073,-9.62784929215908,14964.0
30.6,2.900000095367432,44.0,23.32445335388184,28.05385780334473,-79.78277276912881,40.45909084690923,300.5979251708985,-0.0005974298692308,0.0048197819851338,0.2743667662143707,0.9616129398345948,-0.0118841316522651,0.0211992952436024,2.9909284498903315,0.0639234483242034,0.0254235658794641,0.0059554427862167,0.0192028546286746,-0.1568677128106355,-9.610086035728456,14965.0
30.79,2.900000095367432,42.0,23.32445335388184,27.15530776977539,-79.78277277677024,40.459090861427214,300.89736936950686,-0.0003458883729763,0.0045121521688997,0.2746902406215668,0.9615221619606018,-0.0234449124383059,0.0222449028622156,3.0041895070104863,0.0063740946352481,-0.0134560940787196,0.1500607430934906,0.0113418898824602,0.1398527903482318,-9.902798820734024,14965.0
30.89,2.900000095367432,40.0,23.25058174133301,29.461322784423828,-79.78277261529233,40.45909086291192,301.20552824401864,0.0002881086547859,0.0019819675944745,0.2752299606800079,0.9613763689994812,-0.016672024228478,0.0247976048927936,3.0286034461861124,-0.1060949116945266,0.0220379289239645,-0.0847549960017204,-0.0502183730900287,-0.128684188183397,-9.9573790705204,14966.0
31.1,3.0,44.0,23.22554016113281,29.827104568481445,-79.78277250827773,40.45909084532094,301.8188114013672,-0.0006617001490667,-0.001666713389568,0.2766530215740204,0.960968255996704,0.0106800078799577,0.0241514107197192,3.0239264396073096,0.0829965695738792,0.003187297610566,-0.0461631901562213,-0.0376801063399761,-0.1620281181670725,-9.91637956380844,14966.0
31.21,3.0,46.0,23.314435958862305,27.902774810791016,-79.782772524867,40.45909085790064,302.121370300293,-0.0011174158426001,-0.0005521549610421,0.2772727310657501,0.9607904553413392,-0.0037332356111595,0.013687705742921,3.028206903753264,-0.0041130790486931,-0.0347530394792556,0.050081942230463,-0.0086669349018484,0.0333313950151205,-9.855786037445071,14967.0
31.4,3.0,54.0,23.274370193481445,28.91264915466309,-79.78277248805679,40.45909081340468,302.7352924194336,-0.0033085164614021,0.0031852514948695,0.2780231237411499,0.9605634808540344,-0.0187330120948245,0.0191975796650577,3.0283036689524483,0.1663728505373001,0.0014211675152182,0.0241784863173961,0.0206569840712472,-0.1944006429053843,-9.877326010465625,14967.0
31.5,3.0,54.0,23.33071327209473,26.76567077636719,-79.78277246258652,40.459090829685394,303.3454456176758,-0.0060634007677435,0.0051579414866864,0.2777504026889801,0.96062034368515,-0.0612530725511573,0.0278625605385842,3.0154136658285764,-0.1309559792280197,-0.0385688729584217,-0.0357274301350116,0.0037443947349675,-0.1254976383782923,-9.819505233764652,14968.0
31.69,3.0,57.0,23.34573745727539,27.902774810791016,-79.78277250996005,40.45909086080777,303.64649771118167,-0.0059836306609213,0.0051335520111024,0.2773863673210144,0.9607261419296264,-0.058710297548467,0.0276592371416865,3.0115674817825253,-0.072852648794651,-0.0660286024212837,0.0164261031895875,-0.0246856288611888,-0.193276661876589,-9.812161130905151,14968.0
31.8,3.0,58.0,23.27061462402344,28.29241180419922,-79.7827725600377,40.45909089578792,303.9472637023926,-0.0050158388912677,0.0051738377660512,0.2774576842784881,0.960710883140564,-0.0511586289188992,0.0322228890363988,2.9979828014988064,0.0621578469872474,0.0564391426742076,-0.0340013317763805,0.016257390549872,-0.2012627341970801,-9.699883480668069,14968.0
31.99,3.0,58.0,23.30692481994629,27.40181350708008,-79.78277255880442,40.45909092223343,304.55211447143563,-0.0020531949121505,0.0065615647472441,0.2777794003486633,0.96062034368515,-0.0577305823582892,0.0513684750052484,2.9721008203533748,-0.1048358976840972,0.0193347427994012,-0.0806324183940887,-0.0641273916419595,-0.1912153539061546,-9.672039039731024,14969.0
32.1,3.0,62.0,23.23931312561035,28.30036354064941,-79.78277245308075,40.4590909069731,304.8624362792969,-0.0004412967537064,0.008113544434309,0.2770706415176392,0.9608152508735656,-0.0497977939799987,0.0564951453990589,2.979397396356068,-0.0051021566614508,0.0503172613680362,0.0135697815567255,-0.1001134773809462,-0.0441002029459923,-9.695861181020735,14969.0
32.3,3.0999999046325684,63.0,23.276874542236328,27.234825134277344,-79.7827725219767,40.459090985301046,305.4586925354004,-0.0015923421597108,0.0080739296972751,0.2747326493263245,0.9614854454994202,-0.0504815996768295,0.063808061045961,2.9789881025620764,-0.0225051660090684,-0.0909292250871658,0.1634268462657928,0.0110029797814786,0.0095470779016613,-9.78885939180851,14970.0
32.4,3.0999999046325684,64.0,23.22929763793945,29.03192710876465,-79.78277237530169,40.4590910026258,306.06093023681643,-0.0044102272950112,0.0056066922843456,0.273831844329834,0.9617511630058287,-0.0290455364618628,0.0223064352514315,2.991336327689277,-0.0635835379362106,-0.0491795912384986,0.0088468259200453,-0.1836788045614958,-0.1426220499537885,-9.861446142196655,14971.0
32.59,3.0,61.0,23.16669464111328,29.83505630493164,-79.78277227438466,40.45909091216258,306.3618945922852,-0.0042566615156829,0.0049421074800193,0.2739163339138031,0.9617314338684082,-0.022614774790942,0.0054203516249691,2.9932841072266827,-0.006613674107939,0.0051935310475528,0.0197408869862556,-0.0368716876627877,-0.2141462881676852,-9.913328486680983,14971.0
32.69,3.0,63.0,23.1641902923584,29.175058364868164,-79.78277227499812,40.45909093767735,306.6619319763184,-0.0041319360025227,0.0046727750450372,0.2742755115032196,0.9616310000419616,-0.013788689673756,0.0091866578975554,3.0084085062669104,0.1208778470754623,-0.0013691450003534,0.0744736790657043,-0.0282924244506284,0.1008290395326912,-9.946057691574095,14971.0
32.89,3.0,63.0,23.18797874450684,29.143251419067383,-79.7827721692857,40.45909087424256,307.2675647583008,-0.0061262384988367,0.0058798347599804,0.2759705781936645,0.96112859249115,-0.0261394196859621,0.0031814458235479,3.0386306415735422,-0.0376905538141727,0.0028100293129682,-0.0417069271206855,-0.0711908601270988,-0.1818935399875045,-9.90584755897522,14972.0
33.0,3.0999999046325684,63.0,23.27311897277832,27.5369930267334,-79.78277204400095,40.45909085100639,307.87182806396487,-0.0045074135996401,0.0053937821649014,0.2781223952770233,0.9605199694633484,-0.0333938299621149,0.0017426310468914,3.0080233667228846,-0.0369000323116779,0.0016018152236938,-0.0751053318381309,-0.0904065329488366,-0.0333013823535293,-9.786362046003342,14972.0
33.2,3.0999999046325684,64.0,23.246826171875,27.74374008178711,-79.78277204505646,40.45909087446479,308.17214773559573,-0.0042101135477423,0.005200121551752,0.2786445915699005,0.9603710770606996,-0.0271339767046038,0.0052804900985421,3.0000429879701382,-0.0363868363201618,0.0232563782483339,-0.0598272383213043,-0.074725533965975,-0.205069344677031,-9.7500765645504,14973.0
33.3,3.0999999046325684,63.0,23.142906188964844,28.713855743408203,-79.78277204685473,40.45909089671814,308.4713725891113,-0.0039777597412467,0.0059616770595312,0.2789936065673828,0.9602662920951844,-0.0202971682731145,0.0045374155708063,2.9819836052939177,0.0879803523421287,-0.044709138572216,0.1970299333333969,0.0240378395933657,0.0142278836667537,-9.65620945751667,14973.0
33.5,3.0999999046325684,64.0,23.230548858642567,28.78542137145996,-79.78277188626645,40.45909089868647,309.07065008544924,-0.0049311118200421,0.006428129505366,0.2788829505443573,0.9602909684181212,-0.0171752394790976,0.0083617002098347,2.9809069256444656,0.0891886129975318,0.0073606828227639,0.0070139984600245,-0.0364166509453207,-0.2500243648700416,-9.803409603238109,14974.0
33.6,3.0999999046325684,65.0,23.26310157775879,27.22687339782715,-79.78277173466464,40.45909082740843,309.37185476684573,-0.0050614192150533,0.0070358775556087,0.2783832550048828,0.9604309797286988,-0.0190280106514507,-0.0012106428575454,2.9716688426488616,0.0315406396985054,-0.0236837845295667,0.089678555727005,-0.0208529708627611,-0.1032119078189134,-9.737917279601096,14974.0
33.79,3.0999999046325684,64.0,23.23305320739746,28.037954330444336,-79.78277170070683,40.4590908711744,309.9667529907227,-0.0031894110143184,0.009657984599471,0.2773154079914093,0.9607251286506652,-0.0209534540683622,-0.002688155285006,2.9784330621343766,0.1106802821159362,0.0702942386269569,-0.0341643393039703,-0.0420648968126624,-0.2767611787095666,-9.87174776673317,14974.0
33.89,3.0999999046325684,65.0,23.29941177368164,26.73386383056641,-79.78277154532927,40.459090849730494,310.2702503051758,-0.0019201772520318,0.0100808450952172,0.2766593992710113,0.9609133005142212,-0.0198624741265117,0.0122363509059292,2.9858286469286366,0.0458375290036201,-0.0111933518201112,0.0943029373884201,0.011765794744715,-0.1428283835761249,-9.844275208711624,14975.0
34.09,3.2000000476837163,66.0,23.18672752380371,27.902774810791016,-79.78277138828274,40.459090892632254,310.86963079833987,-0.0018450212664902,0.0085892332717776,0.2760637998580933,0.9610992074012756,-0.0256635812212149,0.0177987301375584,2.975357762796429,-0.009571012109518,0.0112923458218574,-0.0461015328764915,-0.0981584060098976,-0.2099362015351652,-9.735890634655954,14975.0
34.2,3.2000000476837163,67.0,23.1103515625,30.049753189086918,-79.78277136324883,40.4590909178856,311.16774176025393,-0.0018577304435893,0.0068464572541415,0.2762684524059296,0.9610544443130492,-0.0140989157566383,0.0144346094223769,2.9867507963843027,0.0187742728739976,-0.0388246811926364,0.0622826218605041,-0.019279174497351,-0.2408895704895258,-9.88146583914757,14976.0
34.4,3.2000000476837163,70.0,23.275623321533203,27.05193519592285,-79.78277120645599,40.45909094614755,311.7669238891602,-0.0045958776026964,0.0064758374355733,0.2770867645740509,0.9608121514320374,0.0021860749625843,0.0088935952443158,2.9882310109951566,0.0508457608520984,0.0087626278400421,-0.0661160051822662,-0.1399952796846628,-0.1798391755856573,-9.797233189344407,14976.0
34.5,3.2000000476837163,70.0,23.241817474365234,28.11747169494629,-79.78277118048044,40.45909097811319,312.0658473815918,-0.0050686784088611,0.0065686074085533,0.2774675190448761,0.9606992602348328,-0.0035239887506458,0.0029932603440099,2.98850313114546,0.0452191568911075,-0.0272328276187181,0.025541977956891,-0.0105767908506095,-0.3974759225919843,-9.81135187625885,14977.0
34.69,3.2000000476837163,72.0,23.03522872924805,31.89456558227539,-79.78277103835698,40.45909096537567,312.66388891601565,-0.0039185234345495,0.0070178727619349,0.2777685523033142,0.9606144428253174,-0.0162506407752832,0.0072162102208371,2.9728717377927825,0.0173267181962728,0.0200435668230056,-0.0224172044545412,-0.0262552910624072,-0.1997339796647429,-9.785566824674609,14977.0
34.8,3.2000000476837163,72.0,23.17671012878418,28.58662796020508,-79.78277082728559,40.459090943627416,313.263158782959,-0.0010240514529868,0.007676204200834,0.2776072919368744,0.9606634378433228,-0.0057893366240424,0.0193119389362007,2.9956376504062843,0.0620510652661323,0.0746126621961593,-0.0208585169166326,0.0038355998788028,-0.2377312334999442,-9.85431955575943,14978.0
34.99,3.2000000476837163,74.0,23.147912979125977,29.04783058166504,-79.78277080888402,40.45909097360219,313.56346701049813,-1.3970216969028115e-05,0.0081129046157002,0.277628630399704,0.960654318332672,-0.0225870468404133,0.0254485946745966,3.0120669890949108,-0.0630037188529968,-0.0816806405782699,0.0503050237894058,0.0785807676985859,-0.1018059174064546,-9.99030941963196,14978.0
35.11,3.2000000476837163,72.0,23.11160469055176,29.413612365722656,-79.7827706684935,40.45909094145941,313.8663196411133,-0.0003819370467681,0.0076699098572134,0.2777588367462158,0.9606202244758606,-0.0168782704444762,0.0331054487484366,3.0186365515335494,-0.0435110926628112,0.0185697823762893,-0.1081803292036056,-0.0361574228620156,-0.3825097914040089,-9.88474378824234,14978.0
35.3,3.299999952316284,74.0,23.11160469055176,29.548791885375977,-79.7827706272182,40.459090988522746,314.4704227294922,-0.0021785602439194,0.0075317034497857,0.2782110869884491,0.9604880213737488,-0.0249541352731474,0.0175211815159942,3.020258711788813,-0.0669659450650215,-0.0878232717514038,-0.0278838295489549,0.026985845840536,-0.2808107044547796,-9.810514554977418,14979.0
35.41,3.299999952316284,75.0,23.13414001464844,29.310237884521484,-79.78277050447733,40.45909096460701,314.7685527648926,-0.003301105229184,0.0080398898571729,0.2786230146884918,0.9603613018989564,-0.0342569106113916,0.0184558797203399,2.9902088643432765,-0.1197462975978851,0.0053404867649078,-0.0184222906827926,-0.0339798124018125,-0.1938775181025266,-9.683396671414377,14979.0
35.59,3.299999952316284,77.0,23.11786460876465,30.47914886474609,-79.78277040316817,40.45909095760916,315.3709239807129,-0.0028546445537358,0.0095246667042374,0.2782917022705078,0.9604451656341552,-0.0429285727825288,0.0177483464446841,3.0015333966525786,-0.07953792065382,0.0818057656288147,-0.1107784062623977,-0.0364403207483701,-0.244126991070807,-9.801013414263728,14980.0
35.7,3.299999952316284,76.0,23.1103515625,29.668067932128903,-79.78277040151676,40.45909100693176,315.9688472595215,-0.0028669175226241,0.0115039059892296,0.2779261767864227,0.960529327392578,-0.0575984181825973,0.0294527948310651,2.991408239745898,0.0094687445089221,-0.007550723850727,-0.0699329897761344,0.0132911620032973,-0.2293630639091134,-9.689996423721317,14980.0
35.9,3.400000095367432,77.0,23.294403076171875,26.29651641845703,-79.78277031371121,40.45909094978845,316.271760925293,-0.0025430051609873,0.0114322621375322,0.2779737114906311,0.9605173468589784,-0.0566496695689402,0.0253101181393849,3.0092467615151666,0.0724430680274963,0.0708433613181114,-0.0178635343909263,-0.0805509504675865,-0.1642433175444603,-9.872234255075456,14981.0
36.0,3.400000095367432,78.0,23.13163757324219,28.47530174255371,-79.78277031869774,40.45909097127046,316.57297705078133,-0.0015900138532742,0.0118907177820801,0.2782528400421142,0.9604330062866212,-0.0691366432377948,0.0267410403262799,3.007046721638804,-0.0989926606416702,-0.1087040901184082,0.0766159072518348,0.0715946834580972,-0.2669195655919612,-9.814558489322662,14981.0
36.2,3.400000095367432,79.0,23.105342864990234,29.43746757507324,-79.78277021780742,40.459090958341854,317.1748905029297,-0.0017492079641669,0.0129423728212714,0.2781806290149689,0.9604400992393494,-0.0505118358510906,0.0307221747514303,2.986948829454549,0.130040556192398,-0.014908886514604,0.1349843740463256,0.0278364284243434,-0.192161762304604,-9.706629998087884,14982.0
36.29,3.400000095367432,77.0,23.433380126953125,24.14953804016113,-79.78277021414482,40.45909097922269,317.4733753051758,-0.0022568062413483,0.0123851979151368,0.2781380712985992,0.9604586362838744,-0.0731829881481586,0.0268797157980101,2.981736933479652,-0.1333367079496383,-0.0318458192050457,-0.0602128729224205,0.065910500055179,-0.1610732678510248,-9.717173697352411,14982.0
36.49,3.400000095367432,77.0,23.443397521972656,24.11773109436035,-79.78277008975394,40.45909100208903,318.0666484680176,-0.0038768912199884,0.010676147416234,0.2780152559280395,0.9605095386505128,-0.057263582790865,0.0227938646541045,2.889578683133436,-0.206479325890541,-0.1271732300519943,0.0022052454296499,0.0268573624128475,-0.1285907971858978,-9.231409240365029,14983.0
36.59,3.400000095367432,77.0,23.527284622192383,22.209304809570312,-79.78276989482488,40.45909099768645,318.65073583984383,-0.0039166742935776,0.0121521679684519,0.2771213352680206,0.9607501029968262,-0.0243514871989708,0.0092676837114578,2.7394107808879324,0.1559222936630249,0.0489943884313106,0.0637097135186195,-0.0144442055211402,-0.3131160593032837,-8.985349050164222,14983.0
36.79,3.400000095367432,76.0,23.557334899902344,22.48761749267578,-79.78276986999336,40.45909102217384,318.91784857177737,-0.0030652708373963,0.0121258394792675,0.2770957946777344,0.9607609510421752,-0.0235240455081127,0.007577310111039,2.5980121743698392,0.0773675516247749,0.0243907012045383,0.0324697121977806,-0.0462010755529627,-0.4208633599430323,-8.470940253138544,14983.0
36.9,3.400000095367432,76.0,23.52102470397949,21.978702545166016,-79.78276976860269,40.45909100557481,319.1792430725098,-0.0017336355522274,0.0123693719506263,0.2771114408969879,0.9607565999031068,-0.03011334978409,0.0049094469633277,2.476547358270748,-0.0847398117184639,0.0028966311365365,-0.0196122713387012,-0.0507986087445169,-0.1204433234408498,-8.400764894485475,14984.0
37.09,3.299999952316284,74.0,23.4221134185791,24.03821182250977,-79.78276960593855,40.45909097851147,319.6560153808594,-0.0014703714987263,0.0118892267346382,0.2778274416923523,0.9605563282966614,-0.0241035066428947,0.0011335846944606,2.219939598774592,-0.1531551480293274,0.0055584507063031,-0.0366704277694225,-0.131446495084092,-0.1157410657033324,-8.33729804635048,14984.0
37.2,3.299999952316284,73.0,23.434633255004893,23.70423889160156,-79.78276949679685,40.4590909935163,320.07431982421883,-0.0025443683844059,0.0103603405877947,0.27858966588974,0.9603509902954102,-0.0017210863638046,-0.0225114067566415,1.9842502647421336,-0.0025759218260645,0.008862399496138,-0.0771483853459358,0.0045620638900436,-0.1734977788478136,-8.513774031400681,14985.0
37.39,3.2000000476837163,73.0,23.49222755432129,22.94086837768555,-79.78276931155555,40.45909090498169,320.2845821228028,-0.0031586196273565,0.0094448188319802,0.2790779173374176,0.9602168798446656,0.0198135509970672,-0.0330105459739265,1.914346712468168,0.1730525195598602,0.0586010217666626,0.0618162639439106,0.0290126506704837,-0.048084504827857,-8.790215184688567,14985.0
37.49,3.0999999046325684,71.0,23.50474739074707,22.28087043762207,-79.78276924622314,40.45909090327208,320.47181890869143,-0.0037565485108643,0.0083486577495932,0.2794312238693237,0.9601221084594728,-0.0001146490387574,-0.0374761308118498,1.83244636238288,-0.0971923097968101,-0.0486043654382228,-0.0906028822064399,0.0273593138996511,-0.217400994580239,-8.956204773187636,14985.0
37.69,3.0999999046325684,70.0,23.41835594177246,23.40207099914551,-79.78276895933259,40.459090813105696,320.8603305664064,-0.0062650074250996,0.0071461559273302,0.2792310118675232,0.960176944732666,0.030533787527607,-0.0506219661066248,1.718406063263396,0.1712245345115661,0.1270085424184799,0.0293963141739368,-0.00744264671579,-0.0177720820717513,-8.974341081976894,14985.0
37.79,3.0999999046325684,69.0,23.41209602355957,24.69025802612305,-79.7827688900846,40.45909080774553,321.028898223877,-0.0074988575652241,0.0069825486280024,0.2790479063987732,0.960222601890564,0.0104462751530859,-0.0508370210214796,1.6563793250088796,-0.0773681923747062,-0.0183366108685731,-0.0616701394319534,-0.0774552700482308,-0.3016273768991232,-9.145258703827858,14986.0
37.99,3.0,70.0,23.410844802856445,25.21507453918457,-79.78276869630378,40.45909076389851,321.39806173706063,-0.0067651043646037,0.0066617992706596,0.2790712118148804,0.9602234959602356,0.0134245405821192,-0.0526273946906703,1.6064729523332602,-0.0419139564037323,0.0810437723994255,0.1052318140864372,-0.1946930585056543,0.0463949610013514,-9.196521828174587,14986.0
38.1,3.0,68.0,23.589887619018555,21.398223876953125,-79.78276849425609,40.45909073655283,321.60792730712893,-0.0065410248935222,0.0068620601668953,0.2794814109802246,0.9601042866706848,0.0398482227783401,-0.0423655534452206,1.5998116903334585,0.0321386903524398,0.0646166279911995,0.1037732437252998,-0.1105748314037919,-0.3436032224446535,-9.145402545332908,14986.0
38.3,3.0,67.0,23.487218856811523,23.89508056640625,-79.78276833300865,40.4590907586006,321.91356466674813,-0.0067108459770679,0.0097253648564219,0.2796769142150879,0.960021436214447,0.0223595654266444,-0.0345024168669121,1.4591074140747058,-0.0785670727491378,0.0452589429914951,-0.0317294672131538,-0.205522741433233,0.0569022339396178,-9.049470201730731,14986.0
38.39,2.900000095367432,68.0,24.3536376953125,4.238295555114746,-79.78276802524573,40.45909068791784,322.1205501403809,-0.0074197612702846,0.0100348573178052,0.2798539102077484,0.9599615335464478,0.0461235604729544,-0.037236013341522,1.4464413210394012,0.0899159386754036,0.086297832429409,0.0047415648587048,-0.1419262678362429,-0.234372136015445,-9.021650903820992,14987.0
38.59,2.900000095367432,67.0,23.70883178710937,19.35461807250977,-79.78276770755754,40.45909061204614,322.3969058837892,-0.0042754053138196,0.0080601377412676,0.266045480966568,0.9639173746109008,0.083108858551878,-0.0423404318776205,1.0598721034408929,-0.0533269867300987,0.0235144030302763,0.7129086852073669,-0.0927198010962456,0.2341736595891417,-7.341867468953133,14987.0
38.7,2.900000095367432,67.0,23.67502593994141,19.17967796325684,-79.78276756782054,40.45909063864034,322.49096868896487,-0.0002674504939932,0.0084931617602705,0.2253778725862503,0.9742343425750732,0.1092324174143352,-0.0449318828745999,0.8346814840517532,0.0695078745484352,0.1169021353125572,0.9633315205574036,-0.0573394960351288,0.2212058326229453,-7.55355714082718,14987.0
38.89,2.799999952316284,64.0,23.453413009643555,23.82351493835449,-79.78276717062312,40.45909040799195,322.5852489318848,0.0041232015937566,0.0054799318313598,0.1091985628008842,0.9939963817596436,0.1202748033120086,-0.0490242415058943,0.5360038429070308,-0.1151102930307388,-0.0043396232649683,1.235159397125244,-0.0400049136020243,-0.0676657291268929,-8.40981638431549,14987.0
38.99,2.799999952316284,62.0,23.517269134521484,22.85339736938477,-79.78276671520209,40.45909010904568,322.634309753418,0.0043260906822979,0.0009374739602208,-0.0335746854543685,0.9994263648986816,0.1550014283465158,-0.075895042141119,0.4183684004536834,-0.0094359125941991,-0.0175046101212501,1.5458310842514038,-0.2354776800423861,-0.1582478567026555,-8.916681688427927,14987.0
39.2,2.799999952316284,80.0,23.48346328735352,22.94086837768555,-79.7827665263488,40.45909003329152,322.6737384643555,0.0041252155788242,-0.000454328226624,-0.1097354218363762,0.993952214717865,0.1731160987143292,-0.0867630140447022,0.3741112491788881,0.0497392192482948,0.048557624220848,1.5655572414398191,-0.2246917781420052,-0.0488264799490571,-9.336365007162094,14987.0
39.3,2.700000047683716,88.0,23.533544540405277,21.85942649841309,-79.78276633935911,40.45908992822068,322.7096423950196,0.0047817640006542,-0.0018257951596751,-0.1869669705629348,0.9823529124259948,0.1834167781951856,-0.0914606542438136,0.3468283481541499,-0.0528328865766525,0.0223122984170913,1.6833829879760742,-0.2161785793304443,-0.0919197466783225,-9.494468455910685,14987.0
39.5,2.700000047683716,79.0,23.37578582763672,25.15146064758301,-79.78276598426622,40.45908945135172,322.73436544799813,0.0046998369507491,-0.0048970691859722,-0.3330841958522797,0.9428727626800536,0.2117804347803268,-0.0884720102580029,0.3026808233306631,-0.0627194195985794,-0.0411258414387702,1.24168062210083,-0.138243453875184,-0.1044465017225593,-9.50414852142334,14987.0
39.59,2.700000047683716,74.0,23.46343040466309,23.64062309265137,-79.78276595297666,40.45908934217835,322.7369136657715,0.0045487079769372,-0.0070753106847405,-0.392521321773529,0.9197044968605042,0.1972144724313719,-0.0841584289185479,0.3274974293526889,-0.1209625229239463,0.0196278616786003,0.9938725829124452,-0.1547011184133589,0.0246346758585423,-9.61174489080906,14987.0
39.79,2.5999999046325684,87.0,23.19924736022949,27.00422477722168,-79.78276576844091,40.45908896189392,322.8021983947754,0.0035610368940979,-0.0120252920314669,-0.4566479623317719,0.8895591497421265,0.2107445925009044,-0.0884543529603723,0.3243152760962005,-0.0679823160171508,-0.0108368275687098,0.4448144137859345,-0.0435700158029794,0.0185699711926281,-9.818370873928073,14987.0
39.9,2.5999999046325684,88.0,23.410844802856445,24.539175033569336,-79.78276604016102,40.4590892262138,322.8548145141602,-0.0291669182479381,-0.0188048370182514,-0.4818822741508484,0.8755485415458679,0.1090225073541385,-0.0082672075837618,0.4309208846827201,-0.1711288690567016,-0.4733001589775085,-0.0025697064120322,0.2079037093743682,0.0424578022956848,-10.110919936895373,14987.0
40.09,2.700000047683716,78.0,23.23806190490723,27.544944763183597,-79.7827665628076,40.45908882981986,322.7153415527344,-0.0532314740121364,-0.0108879674226045,-0.4796610474586487,0.8757701516151428,0.0335844488817047,-0.0052477809080528,0.3683960425763154,-0.1113348603248596,-0.5706201791763306,-0.0639004781842231,-0.0328077928419224,0.2240146522969008,-10.016380984783174,14987.0
40.19,2.700000047683716,73.0,23.276874542236328,26.39193725585937,-79.78276652104883,40.45908885860461,322.7544154968262,-0.0752244964241981,0.0002682172344066,-0.4757502973079682,0.8763577938079834,0.0033165477643353,0.0646732775681075,0.422041123015429,0.0512420088052749,-0.4405543506145477,-0.0486922562122345,-0.1918962256237864,0.3854776553437114,-10.123429470062256,14987.0
40.39,2.799999952316284,56.0,23.367021560668945,25.318449020385746,-79.78276611414256,40.45908884525947,322.7260150756836,-0.1041499897837638,0.020224455744028,-0.462415337562561,0.8802930116653442,-0.0608141643527865,0.3076849406345706,0.5334459907850408,0.0350755676627159,-0.3010214269161224,-0.0571484975516796,-0.1557070039585232,0.5443576143309474,-10.383162789344787,14987.0
40.5,2.799999952316284,46.0,23.152921676635746,28.34012222290039,-79.78276570570155,40.45908917367381,322.7743778076172,-0.1122895926237106,0.0280809346586465,-0.4558546543121338,0.8824959397315979,-0.073802605011309,0.4802375055679352,0.6056820200126065,0.1944316029548645,-0.0989508405327797,-0.0922366678714752,-0.186115174870938,0.3271548586338759,-10.2397995865345,14987.0
40.69,3.0,42.0,23.35951042175293,24.70616149902344,-79.78276424968351,40.45908985585998,322.77125738525393,-0.1235096082091331,0.0391021706163883,-0.4471349120140076,0.88503497838974,-0.092626132110414,0.8759983187822691,0.7444475622675845,0.0125192943960428,-0.1338392943143844,-0.0718844607472419,-0.2617718231119215,0.1805283430404961,-10.178958138227465,14987.0
40.8,3.0999999046325684,41.0,23.177963256835927,28.594579696655277,-79.78276189243806,40.45909090777987,322.7571773376465,-0.1314626485109329,0.0457666330039501,-0.4444558620452881,0.884919285774231,-0.0755814341362818,1.3086880745275309,0.8158545901929397,-0.0557847283780574,-0.1743468940258026,-0.1885696947574615,-0.0981345511972904,0.1005232118815183,-10.011829512119292,14987.0
41.0,3.299999952316284,33.0,23.14666175842285,28.4912052154541,-79.78276044152605,40.45909184260314,322.802465423584,-0.1368933320045471,0.0483069494366645,-0.4437162578105927,0.8843317627906799,-0.0884800416869823,1.5415064613034282,0.9325719810583684,-0.1729868799448013,-0.1319534629583358,-0.1156266555190086,-0.2295955090038478,0.1288342606276273,-10.350966850519178,14987.0
41.1,3.5,31.0,23.25559043884277,26.670249938964844,-79.78275853673053,40.45909240874155,322.755346282959,-0.1432968378067016,0.0496368296444416,-0.4457389116287232,0.882223904132843,-0.0447617252360523,1.7684939987428656,1.0204252576390025,-0.098521314561367,-0.164837509393692,-0.1175783053040504,-0.4197459570318461,0.1835729151405394,-10.429752234220503,14987.0
41.29,3.799999952316284,33.0,23.151670455932607,28.149280548095703,-79.78275437231362,40.459094957984384,322.85044287109383,-0.1605663746595382,0.0536708049476146,-0.4470154047012329,0.8783594369888306,-0.0680266574420147,2.263831436448106,1.2469946585992115,0.0424821451306343,-0.1076617091894149,-0.0091179525479674,-0.5125802996009589,0.2710224471800029,-10.118859286308288,14987.0
41.4,4.0,34.0,23.31944465637207,24.865196228027344,-79.78274885214499,40.45909727542529,322.8326892700196,-0.1685205698013305,0.055907592177391,-0.4522563219070434,0.8740363121032715,-0.0853934916368614,2.7530311466574657,1.4511483526996096,-0.0480838678777217,-0.0607831478118896,0.1125146001577377,-0.5200945564359427,0.4099455119669438,-10.232998105287551,14987.0
41.59,4.300000190734863,34.0,23.311931610107425,25.461580276489247,-79.7827453498334,40.459097851060015,322.7588977661133,-0.1701769530773162,0.0553009696304798,-0.4580799639225006,0.8707149028778076,-0.0096856592278398,3.001260898160174,1.4645981409243114,-0.1429715752601623,0.0245490036904811,-0.0192961730062961,-0.7068078466504812,0.3431795916706324,-9.710897296071051,14987.0
41.69,4.5,35.0,23.231800079345703,26.5748291015625,-79.78274207532019,40.459099698889545,322.7903575744629,-0.1720337718725204,0.0508068203926086,-0.4579538404941559,0.8706901669502258,-0.0875298950571575,3.2604304257561774,1.52415149223409,-0.1445420682430267,-0.0100950449705123,0.0897205621004104,-0.6667071300745011,0.4679428745806217,-9.65838929951191,14987.0
41.89,5.0,37.0,23.177963256835927,27.78349876403809,-79.78273396244523,40.459102076556704,322.72802160644534,-0.1679839342832565,0.045359943062067,-0.4652323722839356,0.8679186105728149,0.0312605123274013,3.758644058692224,1.5757705342742807,0.0127405878156423,-0.0323829613626003,0.1171092242002487,-0.696616442129016,0.4128462060168386,-9.859541119337084,14987.0
42.0,5.199999809265137,38.0,22.97763442993164,31.60034942626953,-79.78272992085637,40.459104262764136,322.7468242492676,-0.1669089943170547,0.0468228906393051,-0.4647156894207001,0.8683250546455383,-0.0689078462379466,4.01477236196423,1.622739106984484,0.1151474341750145,-0.0211593806743621,-0.1342671513557434,-0.7706747905164958,0.3043678572401404,-9.89742990732193,14987.0
42.2,5.699999809265138,42.0,23.18297004699707,27.966388702392567,-79.78272029399835,40.45910748761611,322.6955470886232,-0.1676896512508392,0.0506172999739646,-0.469664216041565,0.8652939796447754,-0.0633807620025281,4.463188150446976,1.7894605019795689,0.0504367053508758,-0.1039178222417831,-0.1237557008862495,-0.9412983705103398,0.2178235290013253,-10.197547606229785,14987.0
42.3,6.0,42.0,23.246826171875,26.75771903991699,-79.78271551110136,40.45911001144884,322.7138156738281,-0.1681782603263855,0.0534145087003707,-0.4687919914722442,0.8655039668083191,-0.0853398500815532,4.6896081128557165,1.8908935088387904,0.0246620196849107,-0.0528160408139228,-0.0585127137601375,-1.064324153289199,0.4124850308150053,-10.132872723340988,14987.0
42.49,6.4000000953674325,43.0,23.135393142700195,28.61843490600586,-79.78270388100299,40.45911307391435,322.65240286254885,-0.1661973148584365,0.0599476434290409,-0.4780634641647339,0.860372006893158,-0.0291961194415667,5.1181915467532,1.9990136710974304,0.1095496192574501,-0.0094087542966008,-0.1354822963476181,-1.2128636768460277,0.2233021507970989,-9.700140173435212,14987.0
42.6,6.699999809265138,44.0,23.29189872741699,25.71603775024414,-79.78269640912347,40.45911301167926,322.57614324951174,-0.1645720303058624,0.0625940859317779,-0.4900748133659363,0.8537123203277588,0.2085643242807084,5.333905675454772,2.045284810366633,-0.0180822107940912,0.0338593572378158,0.0744705125689506,-1.16223088234663,0.4847048318758607,-9.870305843353274,14987.0
42.79,7.199999809265138,46.0,23.10158729553223,28.61843490600586,-79.78268436475426,40.459118443359706,322.5928172912598,-0.1611153483390808,0.062231708317995,-0.4905970096588135,0.8540980815887451,0.0092760237141499,5.765435718513117,2.140494106904427,-0.0781183391809463,-0.027749978005886,-0.1484330594539642,-1.3172548949718477,0.204069342892617,-9.824733814001084,14987.0
42.9,7.400000095367432,45.0,23.16669464111328,27.11554908752441,-79.78267545448529,40.4591183657172,322.530435546875,-0.159371018409729,0.0637294054031372,-0.5029826760292053,0.8470819592475891,0.2752714413790286,5.980681124500805,2.202126336973995,-0.004563926719129,0.0275276731699705,0.0906315445899963,-1.1324507937580348,0.3108302365243435,-10.038648351430894,14987.0
43.09,7.900000095367432,46.0,23.1929874420166,26.89289855957031,-79.78265998507622,40.45912209537424,322.4826907958985,-0.1566568464040756,0.0597013421356678,-0.5129749774932861,0.8418735265731812,0.246185870358551,6.3890915886535975,2.2712121378564785,-0.1418479084968567,0.0003463720495346,0.0343965142965316,-1.3748211716115477,0.2988794779032469,-9.625639629364017,14987.0
43.19,8.100000381469728,47.0,23.22053337097168,26.40784072875977,-79.78264535585718,40.459127800258095,322.483560546875,-0.1617329865694046,0.0628828927874565,-0.5125693082809448,0.8409286141395569,0.0765173113718095,6.765705789675544,2.317935718370145,-0.0688281208276748,-0.2088854759931565,0.1503207981586456,-1.5653861689567568,0.3039020899683237,-9.375603332519534,14987.0
43.39,8.600000381469728,49.0,23.067781448364247,29.326141357421875,-79.78263596165195,40.45912904115968,322.4350375976564,-0.1643444448709488,0.0662053078413009,-0.5193051099777222,0.8360204100608826,0.2390133221658902,6.933242303777738,2.395918830204652,0.028808694332838,-0.1487441807985305,0.1263182908296585,-1.4899389606714248,0.4460707797110081,-9.54428088605404,14987.0
43.5,8.800000190734863,49.0,23.29315185546875,25.42977333068848,-79.78262809065237,40.45913198048513,322.4276866760254,-0.1665214896202087,0.0666335299611091,-0.5184598565101624,0.8360801935195923,0.1011274041285354,7.096576642620512,2.51251933049443,-0.0219426080584526,-0.0404560975730419,0.0417942740023136,-1.4968401369452478,0.3570549613237381,-9.687731212377548,14987.0
43.69,9.199999809265137,49.0,23.11160469055176,29.44541931152344,-79.78260969621803,40.45913677146034,322.382974609375,-0.1675453633069992,0.0729169324040412,-0.5248465538024902,0.8313530683517456,0.1283330784182957,7.468732551324599,2.6947771377540937,0.085287369787693,-0.0879286229610443,0.0647467747330665,-1.6399141949415208,0.58527968198061,-9.693272033929825,14987.0
43.81,9.399999618530272,49.0,23.12412452697754,28.03000259399414,-79.78260112602328,40.459139851996696,322.37483786010745,-0.1681563258171081,0.0750766620039939,-0.5250154137611389,0.8309307098388672,0.1168357674586547,7.628018293148112,2.8136957990993707,0.0869424119591713,-0.0281057190150022,0.1770070344209671,-1.8080424025654795,0.6354808057844639,-9.82640728712082,14987.0
44.0,9.800000190734863,48.0,23.036481857299805,29.54084014892578,-79.78258213245067,40.45914587102328,322.33095739746096,-0.1699458807706833,0.0764961242675781,-0.5280213356018066,0.8285290598869324,0.1025653011525325,7.975368648768279,3.0117868192607826,-0.0186779238283634,-0.1232411861419677,0.1232980713248252,-1.7271309712529184,0.7064075316488743,-9.895664048194886,14987.0
44.09,10.0,48.0,22.90752029418945,32.04565048217773,-79.78256263171251,40.459152416920425,322.27492712402346,-0.1759690940380096,0.0813784673810005,-0.5289545655250549,0.8262078762054443,0.1021021616332487,8.296527127352826,3.2362027173898404,0.1083293408155441,-0.1196405589580536,0.2385879009962082,-1.832497943490744,0.5094624911248684,-9.820493413209917,14987.0
44.29,10.399999618530272,48.0,23.02145576477051,29.683971405029297,-79.78255298055706,40.45915580793663,322.27135656738284,-0.1785726845264434,0.0820722579956054,-0.5288820862770081,0.8256268501281738,0.092578929304314,8.446462200036121,3.4123656721303552,0.0330061614513397,-0.2072208523750304,0.0275866538286209,-2.0362834954261784,0.3966803723573685,-9.995679502487183,14987.0
44.39,10.600000381469728,48.0,23.11536026000977,28.90469741821289,-79.78254251298057,40.45915921449334,322.22051809692385,-0.1805237829685211,0.0811397284269332,-0.530556321144104,0.8242194056510925,0.1262167738915536,8.602292203366082,3.5257777145277585,0.0208757910877466,-0.1507361233234405,0.3271354436874389,-1.7008553382754328,0.6939317661523821,-9.985629308223723,14987.0
44.59,11.0,47.0,22.980138778686523,30.049753189086918,-79.7825213338412,40.459166450687775,322.1653079833985,-0.1724252551794052,0.0745334476232528,-0.5335689783096313,0.8246322870254517,0.1119621298028556,8.917526709500455,3.6828781486880464,0.0198649037629365,0.3572150468826294,-0.0792606547474861,-2.3063628780841827,0.3712911407276988,-9.934015935659408,14987.0
44.7,11.100000381469728,49.0,23.19799613952637,26.312419891357425,-79.78251089448617,40.45917006970608,322.1671771850586,-0.1587374806404113,0.0671515390276908,-0.53537517786026,0.8268414139747621,0.080350605087414,9.10478726507381,3.604773181648389,0.0827497988939285,0.3221803307533264,0.0407032929360866,-2.162142473459244,0.6196506388485432,-10.125673631429672,14987.0
44.89,11.5,49.0,23.23931312561035,25.898927688598643,-79.78248873560106,40.45917764428371,322.1220226135254,-0.1410826742649078,0.0582643635571003,-0.5366626381874084,0.8298761248588562,0.0553960188135366,9.525944601511387,3.130436631130181,0.0234068185091018,0.1125136315822601,0.216400146484375,-2.0015345160663127,0.329912990257144,-9.747382167577744,14987.0
44.99,11.699999809265137,49.0,23.23806190490723,26.28856468200684,-79.78246626457086,40.45918527536376,322.1040897216797,-0.1410145312547683,0.0604248009622097,-0.5337440371513367,0.8316136002540588,0.1238275238396982,9.759808958189517,3.0077869032695266,-0.0729050710797309,0.0423719622194767,-0.3879380226135254,-2.247705803364515,0.7048964649438858,-9.49172084927559,14987.0
45.19,12.0,54.0,23.27937889099121,25.461580276489247,-79.78245525752592,40.45918906577441,322.10362814331063,-0.1403760612010955,0.0570051930844783,-0.5322951674461365,0.8328906297683716,0.1375741793999532,9.807187734442053,3.0749845261764084,-0.0674280375242233,0.1026959046721458,0.0981773063540458,-2.0574391601979736,0.3860589782148599,-9.640638322234157,14987.0
45.3,12.100000381469728,53.0,23.27061462402344,25.708086013793945,-79.78244418011846,40.45919289010028,322.104166015625,-0.1401012241840362,0.0517616420984268,-0.531633198261261,0.8337017297744751,0.1813374003549514,9.892797687691212,3.0430960823864384,-0.0407872572541236,-0.0542896538972854,-0.0466918982565403,-2.426249071508646,0.4008917197957635,-9.447304229736329,14987.0
45.49,12.399999618530272,54.0,23.142906188964844,27.19506645202637,-79.78242092516126,40.45920085308366,322.07253836059573,-0.1367031782865524,0.0510886386036872,-0.5322947502136229,0.8338853120803833,0.2063981729551208,10.055140099871194,2.9774644620079567,0.0289437975734472,0.0834498256444931,0.0966345146298408,-2.126541700959206,0.6162169345468284,-9.476098258495332,14987.0
45.59,12.5,54.0,23.30316734313965,25.03218460083008,-79.7823974744303,40.45920891067571,322.0483836975098,-0.1210989356040954,0.0405979342758655,-0.5358906388282776,0.8345707058906555,0.1360137832525865,10.201655441060383,2.8273656843113497,-0.0801841840147972,0.1819216459989548,0.157554879784584,-2.3501162771880626,0.470790797509253,-9.65674096941948,14987.0
45.79,12.699999809265137,56.0,23.447153091430664,21.95484733581543,-79.78238610187806,40.45921285470526,322.04908560180667,-0.1126899793744087,0.0335320383310318,-0.5376591086387634,0.8349246978759766,0.1117422229091221,10.26822107297764,2.6147828264256106,0.0325383879244327,0.202563464641571,-0.0173697788268327,-2.2012334489822387,0.7685660652816296,-9.643118126392364,14987.0
45.89,12.800000190734863,59.0,23.235557556152344,25.5649528503418,-79.78237396570479,40.45921700227744,322.0303249206543,-0.1047128587961196,0.0294841416180133,-0.5393713712692261,0.8350117206573486,0.089789329906195,10.350565941084232,2.4010542557359136,0.120097130537033,0.162751704454422,-0.0316736325621604,-2.3951749210059643,0.5561481592431665,-9.502308987379074,14987.0
46.09,12.899999618530272,59.0,23.394567489624023,23.592912673950195,-79.78235056365868,40.45922506879275,322.0189914550781,-0.0949452295899391,0.0291925463825464,-0.5408028364181519,0.8352637290954591,0.0132020534311353,10.38198650562046,2.107515821895202,0.1391371488571167,0.0260248500853776,0.0837154686450958,-1.977569264173508,0.5016852557659149,-9.634340286254885,14987.0
46.2,13.0,59.0,23.230548858642567,26.535070419311523,-79.78233921022057,40.45922901492642,322.01974676513674,-0.0941567793488502,0.0296427048742771,-0.5409108400344849,0.835267186164856,-0.0127640892928151,10.368345723793691,2.003445085510004,-0.1463582664728164,-0.1199179291725158,-0.0649928748607635,-2.1544606938958166,0.2576264943927526,-9.377967946529386,14987.0
46.39,13.0,64.0,23.54230880737305,20.777984619140625,-79.78231596796866,40.45923713401928,322.02525137329104,-0.0935517027974128,0.0254105273634195,-0.5395319461822511,0.836365818977356,0.0059113621807684,10.336741886721988,2.002374939698539,-0.011250820942223,0.0868854522705078,-0.0906354635953903,-2.2112950453162195,0.5691376391798258,-9.471936795115472,14987.0
46.5,13.0,64.0,23.33321762084961,24.66640281677246,-79.78230470236565,40.45924105695597,322.02415274047854,-0.0910784751176834,0.0264260936528444,-0.5389988422393799,0.8369507789611816,0.0187946823977518,10.302365337350176,1.8982880497070247,0.0481017008423805,0.0167983751744031,-0.210857480764389,-2.057489300072193,0.4346622407063842,-9.306529004573823,14987.0
46.69,13.0,64.0,23.415851593017567,22.304725646972656,-79.78228176265678,40.45924900049544,322.0129604187012,-0.0892937332391738,0.0298564992845058,-0.5395635962486267,0.8366639018058777,0.0233947819020421,10.251187275662373,1.8334242391301223,0.0612411201000213,0.0737633258104324,-0.0047783642075955,-2.2719327181577684,0.1057597224041819,-9.489905288815498,14987.0
46.8,13.0,64.0,23.50224304199219,21.239187240600582,-79.78227061790011,40.45925289654216,322.00718115234383,-0.0863648504018783,0.0324224270880222,-0.5408644676208496,0.8360356092453003,0.0055250327453899,10.21858546861668,1.8286507452554048,0.0814834609627723,0.0120868207886815,0.1346937268972396,-2.4552698260545736,0.3608542627841234,-9.372823566198347,14987.0
46.99,13.0,65.0,23.38329887390137,23.12375831604004,-79.78224816503958,40.45926095188409,321.97930715942385,-0.0816785395145416,0.0365176536142826,-0.5432054996490479,0.8348191976547241,-0.0893999840596892,10.14111680243704,1.7340681266840954,0.0770599991083145,0.0323771573603153,-0.0391480587422847,-2.126032408475876,0.2767429975233972,-9.303019505739211,14986.0
47.09,12.899999618530272,65.0,23.59239196777344,19.58521842956543,-79.78223694827881,40.45926497587927,321.96119497680667,-0.0763589292764663,0.032975036650896,-0.5437473058700562,0.8351173400878906,-0.1186849715373106,10.096359254662763,1.6819160210684196,0.0172092448920011,0.2328663617372513,0.1969460397958755,-2.195585184842348,0.4584149463102222,-9.264584587812424,14986.0
47.29,12.899999618530272,66.0,23.43964195251465,22.424001693725582,-79.78221516769625,40.459272594970045,321.93433187866214,-0.0576208308339119,0.0239410828799009,-0.5432367324829102,0.8372578620910645,-0.0745546956043376,10.000707197324813,1.3142740755493416,0.0962228700518608,0.3201799988746643,0.0872880145907402,-2.2239978289604188,0.4046246188133955,-9.503637474775315,14986.0
47.4,12.899999618530272,66.0,23.52853775024414,20.45991516113281,-79.7821935266244,40.45928035963247,321.8985614624024,-0.0367231704294681,0.0171507578343153,-0.5427227020263672,0.8389334082603455,-0.0590096692670098,9.860958437498724,0.9008661621941394,0.159013032913208,0.1270565390586853,0.1905889958143234,-2.0369996331632136,0.7775161059200764,-9.713205776810646,14986.0
