time,wind_speed,wind_angle,battery_voltage,battery_current,position_x,position_y,position_z,orientation_x,orientation_y,orientation_z,orientation_w,velocity_x,velocity_y,velocity_z,angular_x,angular_y,angular_z,linear_acceleration_x,linear_acceleration_y,linear_acceleration_z,node_ids
0.0,0.4000000059604645,278.0,24.50138092041016,-0.0795177370309829,-79.78276905007489,40.459090622424256,270.3175906225145,-0.01273606531322,0.0008498472743667,-0.9993411898612976,0.033974427729845,-0.0412252932312699,-0.0040196622539474,0.0165357079992336,0.0120544424280524,0.004295673687011,0.0047966395504772,-0.0356536212796345,0.182178208027035,-9.806517398357393,14935.0
0.1,0.4000000059604645,279.0,24.50638771057129,-0.0715659633278846,-79.78276893688408,40.4590906375971,270.32073747581245,-0.0127721577882766,0.0008351393043994,-0.9993396401405334,0.0340066961944103,-0.0541325810237339,-0.0065411159514649,0.01726963993827,-0.0008866898715496,-0.0019085820531472,-0.005212050396949,-0.0403019749978557,0.2012355629168451,-9.803790256977084,14935.0
0.3,0.4000000059604645,278.0,24.50638771057129,-0.0874695107340812,-79.78276908620623,40.45909050644897,270.34000896131994,-0.0127172917127609,0.0008541967836208,-0.9993404746055604,0.0340046994388103,-0.0409107538997231,-0.0052463904873907,0.0152423652421262,0.0047226990573108,-0.0022151488810777,0.0074957399629056,-0.0365327318804338,0.1752108851261437,-9.80610692381859,14935.0
0.41,0.4000000059604645,277.0,24.505136489868164,-0.0636141896247863,-79.78276915694539,40.45909037702225,270.3609878740311,-0.0126583147794008,0.0008557651890441,-0.9993404150009156,0.0340279377996921,-0.0368963151758676,-0.0045881996152076,0.0140574440683047,0.009129449725151,0.0047471085563302,-0.0016573463799431,-0.0385074096964672,0.1897808491811156,-9.80484100162983,14935.0
0.6,0.4000000059604645,277.0,24.50764083862305,-0.0954212844371795,-79.78276910942569,40.45909038413765,270.36230877256395,-0.0126792211085557,0.000843925285153,-0.9993400573730468,0.0340311750769615,-0.0433046545882667,-0.005817052874477,0.014323371971952,-0.0050855339504778,-0.0005214298726059,0.0026039341464638,-0.0387283750623464,0.1787111563235521,-9.804450407624245,14935.0
0.7,0.4000000059604645,275.0,24.50638771057129,-0.0795177370309829,-79.78276916987272,40.45909026978018,270.3816152832508,-0.012666342779994,0.0008581595029681,-0.9993407130241394,0.0340156182646751,-0.0411228985398226,-0.0076867440855616,0.0110677270430522,0.0090973256155848,0.0037886872887611,0.0023052734322845,-0.0369689067592844,0.1783164327219128,-9.804895965456964,14935.0
0.9,0.4000000059604645,276.0,24.50638771057129,-0.0715659633278846,-79.78276911730745,40.45909027993638,270.38263653433324,-0.0126902274787426,0.0008485867874696,-0.9993404150009156,0.0340157188475132,-0.0485719634256377,-0.0087917910082778,0.0115528451549106,-0.010169893503189,-0.0020694890990853,0.0023976862430572,-0.0404533173842355,0.1880676149949431,-9.80440304517746,14935.0
1.0,0.4000000059604645,273.0,24.50638771057129,-0.055662415921688,-79.7827692364363,40.45909013541037,270.4037631175518,-0.0126664470881223,0.0008466251892969,-0.9993415474891664,0.0339922569692134,-0.0395943502269988,-0.0069993161458637,0.0107107109360166,0.0047098598442971,0.000272099248832,0.006420362740755,-0.0378741813660599,0.1750375699996948,-9.805567225813864,14935.0
1.2,0.4000000059604645,271.0,24.51264953613281,-0.0636141896247863,-79.78276918617736,40.45909014492084,270.40474492526056,-0.0126729859039187,0.0008406198467127,-0.9993416666984558,0.0339849740266799,-0.0467807694310688,-0.0082360174578882,0.0111314362136381,-0.0106163062155246,-0.0026727430522441,-0.0050767436623573,-0.040397206954658,0.2016193778067827,-9.803402586579324,14935.0
1.3,0.4000000059604645,269.0,24.50889205932617,-0.0795177370309829,-79.78276924429136,40.4590900369026,270.4252389839888,-0.0126452632248401,0.0008355040336027,-0.9993429780006408,0.0339573100209236,-0.0457814027919798,-0.0098870144702607,0.0111859893678595,-0.0042672520503401,-0.0006484629120677,0.0024527662899345,-0.0380666484078392,0.1818465064466,-9.80502168059349,14935.0
1.5,0.4000000059604645,269.0,24.50889205932617,-0.0715659633278846,-79.7827693246129,40.45908990881834,270.44386698520185,-0.0126200914382934,0.0008482572156935,-0.9993443489074708,0.0339251980185508,-0.0415958718886163,-0.0085732097984044,0.0085031215012208,0.0071975854225456,0.0046831252984702,0.0082897320389747,-0.0404570175753906,0.2035017609782517,-9.803304938077927,14935.0
1.6,0.4000000059604645,269.0,24.51014518737793,-0.0636141896247863,-79.78276927199983,40.45908991980331,270.44462736165525,-0.0126462634652853,0.0008427979773841,-0.9993440508842468,0.0339248403906822,-0.0488053122570983,-0.0097184825758674,0.0089868498863734,-0.00870325230062,-0.0039760661311447,-0.003512555733323,-0.0410239645186811,0.1961344885267317,-9.804138751029967,14935.0
1.8,0.4000000059604645,265.0,24.50889205932617,-0.0715659633278846,-79.78276937523582,40.45908980115867,270.4631009868384,-0.0126039013266563,0.0008438443765044,-0.9993460178375244,0.0338823944330215,-0.0432087808371469,-0.010916816397044,0.0066447436256278,0.0007055837777443,-0.0020545506849884,0.0059417099691927,-0.0395221985410899,0.1924622360989451,-9.803865101337433,14935.0
1.91,0.4000000059604645,265.0,24.5001277923584,-0.0715659633278846,-79.78276952723957,40.459089619179615,270.4827799222469,-0.0125242490321397,0.0008638536091893,-0.9993470907211304,0.0338803902268409,-0.0330748254123774,-0.0029696322325777,0.0068902627851932,-0.0080242715775966,-0.0019232510821893,-0.008814301341772,-0.0420343085657805,0.2056389913894236,-9.802642448544503,14935.0
2.1,0.4000000059604645,266.0,24.50764083862305,-0.0715659633278846,-79.7827694859488,40.459089624572,270.4833964726925,-0.0125435227528214,0.0008605267503298,-0.9993467926979064,0.033881552517414,-0.0370536394876358,-0.0043822698793138,0.0071292029446982,0.0121573619544506,0.005919633898884,0.0029659257270395,-0.0358702606195584,0.1796433852240443,-9.805985301733015,14935.0
2.2,0.4000000059604645,266.0,24.50764083862305,-0.0715659633278846,-79.7827695834295,40.45908949553176,270.50326618766786,-0.0125066051259636,0.0008525294251739,-0.9993469715118408,0.033889640122652,-0.0342679670264482,-0.0046725234845613,0.0076539398119633,0.0057670180685818,0.001278709154576,-0.0001903443335322,-0.0405964599642902,0.1986271200142801,-9.803804875016212,14935.0
2.4,0.4000000059604645,264.0,24.50889205932617,-0.055662415921688,-79.7827695398057,40.45908950250976,270.50395913636686,-0.0125405099242925,0.0008598500862717,-0.9993467926979064,0.0338830314576625,-0.0395949076200426,-0.0059033178285356,0.0079214970094183,0.0047475877217948,0.0015817468520253,0.0049663353711366,-0.0366963694081641,0.1751183894835412,-9.804860297441484,14935.0
2.5,0.4000000059604645,265.0,24.50638771057129,-0.0715659633278846,-79.78276962666256,40.45908936426447,270.52563712215425,-0.0125033827498555,0.0008708109962753,-0.9993473291397096,0.0338804423809051,-0.0369687868332633,-0.0053043830720438,0.0107844402409791,0.0110514909029006,0.0004946935805492,0.0039898925460875,-0.0406678919261321,0.2037211594730616,-9.803103793859483,14935.0
2.7,0.4000000059604645,268.0,24.51014518737793,-0.0636141896247863,-79.78276957913585,40.459089371968176,270.5266358277798,-0.0125220250338315,0.0008654480334371,-0.999347686767578,0.033864039927721,-0.0435759233268694,-0.0063847566252919,0.011144219967469,-0.0072021610103547,-0.0039135497063398,0.0027564733754843,-0.0401562103070318,0.1826820370182395,-9.804379071593283,14935.0
2.8,0.4000000059604645,270.0,24.50263214111328,-0.0715659633278846,-79.78276965943628,40.459089209787294,270.54636404132845,-0.0124775459989905,0.0008784760721027,-0.9993483424186708,0.0338600203394889,-0.0406366314833261,-0.0028902898744817,0.0103938178121864,0.0119298147037625,0.0037433814723044,0.0055505246855318,-0.0369756196369417,0.1763916389644146,-9.806115694642068,14935.0
3.0,0.4000000059604645,271.0,24.505136489868164,-0.0795177370309829,-79.78276980344863,40.45908903834878,270.56516516423227,-0.012395953759551,0.0008949809125624,-0.99934983253479,0.0338461510837078,-0.0325467784122177,0.0004542629362111,0.0090965939265363,0.0046238000504672,0.0033407364971935,0.0006153139984235,-0.0412771078431978,0.1938232303597033,-9.803437669873238,14935.0
3.1,0.4000000059604645,274.0,24.51139640808105,-0.0715659633278846,-79.78276976142284,40.45908904063971,270.5660073778629,-0.0124166868627071,0.0008776658214628,-0.9993494153022766,0.033851109445095,-0.0377928138179626,-0.000816845627627,0.0094679303196103,0.004950575530529,0.0047766431234776,0.0019390358356758,-0.0381039289757609,0.1757656397111714,-9.806365955471993,14935.0
3.3,0.4000000059604645,275.0,24.51139640808105,-0.0795177370309829,-79.7827698476852,40.45908889475352,270.58528915262224,-0.012366808950901,0.0008990627829916,-0.9993500709533693,0.0338482037186622,-0.0379438710040815,0.0015606906861226,0.0114811480297176,-0.0114960353821516,-0.0020308389794081,-0.0072450502775609,-0.0404927769536152,0.2030833744257688,-9.803591451644898,14935.0
3.4,0.4000000059604645,277.0,24.50388526916504,-0.0715659633278846,-79.78276993174383,40.459088757013866,270.606667192936,-0.0123635614290833,0.0008842351962812,-0.9993506669998168,0.033832523971796,-0.033981940964,0.0003280452828333,0.0159240872136335,-0.0034964594524353,-0.0023957616649568,0.0034995430614799,-0.0387333589000627,0.1815017765387893,-9.805621604919434,14935.0
3.61,0.4000000059604645,276.0,24.50138092041016,-0.0636141896247863,-79.78276988863301,40.45908875956621,270.6081866345406,-0.0123639702796936,0.0008658139267936,-0.9993511438369752,0.0338192395865917,-0.0393639655787502,-0.0010081584266811,0.016265992842148,-0.0052201398648321,-0.0015089982189238,-0.0047689522616565,-0.0408364973030984,0.2055719676800072,-9.802731910943985,14935.0
3.7,0.4000000059604645,275.0,24.50138092041016,-0.0715659633278846,-79.78276996826025,40.45908862101175,270.62702241754533,-0.0123455738648772,0.0008769279811531,-0.9993514418601992,0.0338187627494335,-0.037959566047344,-0.0012446135330464,0.0163689309376204,-0.0104254400357604,-0.0030592191033065,0.001519012148492,-0.0403304299246519,0.1871431702002883,-9.805479517579078,14935.0
3.91,0.4000000059604645,277.0,24.50638771057129,-0.0715659633278846,-79.78277007647715,40.45908844882014,270.64741552090646,-0.0122950291261076,0.0008880618261173,-0.9993526339530944,0.0337996110320091,-0.0311530230446375,0.0050138638488815,0.0194086915310587,0.0114477854222059,0.0012960793683305,0.0069344039075076,-0.0405665752105414,0.2027787344902754,-9.804190791249276,14935.0
4.0,0.4000000059604645,276.0,24.51264953613281,-0.0636141896247863,-79.78277003518501,40.45908844693635,270.6492930970192,-0.0123078804463148,0.000876817095559,-0.9993525147438048,0.0337982140481472,-0.0376620124376533,0.0038732298918362,0.0198993794171306,-0.0150798261165618,-0.00199124077335,-0.0056324345059692,-0.0412283749552443,0.1960673734545708,-9.803969766497612,14935.0
4.2,0.4000000059604645,277.0,24.520160675048828,-0.0238553211092948,-79.78276998806305,40.45908844656653,270.651196005106,-0.0122986836358904,0.0008694107527844,-0.9993533492088318,0.0337784886360168,-0.0415379254685209,0.0022941855524165,0.0201214395320269,0.0063980384729802,-0.0001029338527587,-0.0003759987594094,-0.0407743797730654,0.1947986555658281,-9.80414869129658,14935.0
4.3,0.4000000059604645,277.0,24.50638771057129,-0.0874695107340812,-79.78277004754877,40.45908832493932,270.668266715765,-0.0122693488374352,0.0008630056399852,-0.9993542432785034,0.0337616354227066,-0.0448169571639356,0.0003420037989993,0.0196141874041699,-0.0092332372441887,-0.0027600526809692,-0.0040474976412951,-0.0401571422070264,0.2028082994744181,-9.803161681294444,14935.0
4.5,0.4000000059604645,278.0,24.50764083862305,-0.0715659633278846,-79.78277019680907,40.4590881644745,270.68657478904726,-0.0122103672474622,0.0009166141389869,-0.999354898929596,0.0337631776928901,-0.0331348518907076,0.0062314920063361,0.0239530137363997,0.0135742258280515,0.0060207811184227,0.002296628197655,-0.0376686517358757,0.1865815816819668,-9.804252771735191,14935.0
4.6,0.4000000059604645,278.0,24.50889205932617,-0.0795177370309829,-79.78277010349836,40.45908815990767,270.69125217413904,-0.0122125502675771,0.0009271837770938,-0.9993541240692142,0.0337840765714645,-0.0441515066462862,0.0040051570981802,0.0246468990763118,-0.0056521580554544,-0.0018294707406312,-0.0030508735217154,-0.0406871329201385,0.2049970219284296,-9.802254778146745,14935.0
4.8,0.4000000059604645,278.0,24.50638771057129,-0.0874695107340812,-79.78277026829734,40.45908803626249,270.7067953965664,-0.0121749304234981,0.0009400249109603,-0.9993547797203064,0.033777117729187,-0.0326085274544869,0.002364603000179,0.0245569901560716,0.0090663908049464,0.0043816650286316,0.0047362437471747,-0.0368451764783822,0.179953506924212,-9.805669552087783,14935.0
4.91,0.4000000059604645,277.0,24.49762344360352,-0.0795177370309829,-79.78277034160286,40.459087876733534,270.7241815350056,-0.012155725620687,0.0009573302813805,-0.9993550777435304,0.0337759256362915,-0.0359546064878396,0.0075380300696363,0.0251443529387092,0.0014337579486891,-0.0013286800822243,-0.0054882625117898,-0.0415237370040267,0.2009141487814486,-9.803455211520196,14935.0
5.1,0.4000000059604645,278.0,24.50889205932617,-0.0715659633278846,-79.78277029526093,40.45908787272467,270.72661826229097,-0.0121801365166902,0.0009705281117931,-0.999354898929596,0.0337710119783878,-0.0400454031947984,0.006356616183456,0.025472132565878,0.0080316672101616,0.0060608172789216,0.0059749642387032,-0.0363430308457464,0.1750988744013011,-9.806973481178284,14935.0
5.2,0.4000000059604645,279.0,24.50889205932617,-0.055662415921688,-79.78277038195897,40.45908775613558,270.742881210804,-0.0121506145223975,0.0009544649510644,-0.9993560910224916,0.033747412264347,-0.0391442754295256,0.0034665461843234,0.0253175355365159,0.0071102110669016,0.0021297654602676,0.0010388185037299,-0.0393370245303958,0.1906583152525127,-9.804726396203044,14935.0
5.4,0.4000000059604645,282.0,24.5001277923584,-0.0477106422185897,-79.78277033142038,40.45908775602662,270.7453312895298,-0.0121706835925579,0.00095990835689,-0.9993560314178468,0.0337439514696598,-0.0444739839151054,0.0023354765066782,0.0256934787249414,0.0009812203934416,3.95128081436269e-05,0.0043571810238063,-0.0391837041405961,0.1766168298572302,-9.805199435949326,14935.0
5.5,0.4000000059604645,283.0,24.50263214111328,-0.055662415921688,-79.78277049916797,40.459087616445046,270.7584458909035,-0.0121152279898524,0.0009538133745081,-0.9993575811386108,0.0337157920002937,-0.0319990213740693,0.0033863570531688,0.0212619355600838,0.0099937263876199,0.0031265576835721,0.0027527946513146,-0.0371002566930838,0.1804447278566658,-9.805794682502746,14935.0
5.71,0.4000000059604645,283.0,24.50388526916504,-0.055662415921688,-79.78277045688777,40.45908761594721,270.7605126819611,-0.012109974399209,0.0009767255978658,-0.9993577003479004,0.0337145067751407,-0.038180681576458,0.0025534926172012,0.0217600895357198,-0.011529485695064,0.0015031446237117,-0.0002167348720831,-0.0401608972158283,0.187126889359206,-9.80428376197815,14935.0
5.81,0.4000000059604645,280.0,24.5001277923584,0.0079517737030982,-79.78277060707006,40.459087501917146,270.7729365549088,-0.0120432395488023,0.0009502999600954,-0.9993594288825988,0.0336870700120925,-0.0318157830721119,-2.211372123937208e-05,0.0186473857616734,0.0059499191120266,-0.0006895557162351,0.0082243317738175,-0.0366301451227627,0.1759949967451393,-9.805775386691094,14935.0
6.0,0.4000000059604645,280.0,24.50263214111328,-0.0159035474061965,-79.78277076230353,40.4590873993871,270.7833465061188,-0.0119979698210954,0.0009481763700023,-0.9993600845336914,0.0336845964193344,-0.029273547251871,-0.0032473325880063,0.016972597938732,-0.0115079171955585,-0.00461005885154,-0.0057040536776185,-0.0414510716451332,0.2005479669012129,-9.803697870969774,14935.0
6.11,0.4000000059604645,281.0,24.491363525390625,-0.0159035474061965,-79.78277068478447,40.45908741150251,270.78665259695055,-0.0120123689994215,0.0009597891476005,-0.9993596076965332,0.0336931049823761,-0.0374531862872788,-0.0056852640061816,0.0176295744201892,-0.004721978213638,0.0004007113457191,0.0062470389530062,-0.0396760488348081,0.1793711425177753,-9.80514213323593,14935.0
6.3,0.4000000059604645,281.0,24.495121002197266,-0.0159035474061965,-79.78277089116933,40.45908729526956,270.7968595943451,-0.0119476374238729,0.0009640505886636,-0.9993609189987184,0.0336767472326755,-0.0249412214921219,-0.005075200432261,0.0161997785295571,-0.0014794270973652,-0.0007795911515131,-0.0045489454641938,-0.0417209389200434,0.2051696792431176,-9.804648043513296,14935.0
6.4,0.4000000059604645,282.0,24.49386787414551,0.0,-79.78277101600571,40.45908718901864,270.8080089411736,-0.01192507147789,0.000965914747212,-0.9993616938591005,0.033663585782051,-0.0247029049512878,-0.004697479047524,0.0156657917793529,-0.0095843216404318,-0.0036390570458024,-0.003106553805992,-0.0407473592413589,0.1921895731240511,-9.804741598963735,14935.0
6.61,0.4000000059604645,281.0,24.49637222290039,-0.0397588685154914,-79.78277098530927,40.45908719544671,270.809523375988,-0.0119310244917869,0.0009474692633375,-0.9993616938591005,0.0336614325642585,-0.0280041394067016,-0.006077317422063,0.0158718463033683,0.0070171630941331,0.0034554195590317,-0.0022584532853215,-0.0405930338613688,0.1957214741036296,-9.803814815282824,14935.0
6.7,0.4000000059604645,278.0,24.49637222290039,-0.0079517737030982,-79.7827711225867,40.45908704859836,270.8242688498497,-0.01191680226475,0.0009873458184301,-0.9993627071380616,0.0336332134902477,-0.0262892139272312,0.001555202327651,0.0216905201441295,-0.0087831914424896,-0.0009960408788174,-0.0048885028809309,-0.0377149886358529,0.1746125505119562,-9.805502906441689,14935.0
6.91,0.4000000059604645,277.0,24.49637222290039,-0.0079517737030982,-79.78277108937728,40.45908704933025,270.8263819537163,-0.011933215893805,0.0009735954226925,-0.9993628263473512,0.0336242467164993,-0.0289893603624262,0.0003574942962321,0.0218816667264256,0.0131513886153697,0.0032268662471324,0.0034030992537736,-0.0370778042986057,0.1839419292658568,-9.805024604201318,14935.0
7.02,0.4000000059604645,275.0,24.49762344360352,0.0,-79.78277118766327,40.45908695992608,270.8408112845421,-0.0119184656068682,0.0009968174854293,-0.9993643164634703,0.033586423844099,-0.0339079005912311,-0.0038737298789102,0.0262302967420093,-0.0011286985827609,-0.0027401552069932,-0.0064243990927934,-0.0420741061773151,0.2039140262268484,-9.803316632509231,14935.0
7.21,0.4000000059604645,273.0,24.50388526916504,0.0238553211092948,-79.78277114514698,40.4590869660286,270.84336546278,-0.0119471997022628,0.001005993806757,-0.9993639588356018,0.0335843376815319,-0.0372131463394883,-0.0050015794446503,0.0265055940122741,0.0115873161703348,0.0045096506364643,0.0056929672136902,-0.0357574321981519,0.1760050649195909,-9.806458341479305,14935.0
7.3,0.4000000059604645,273.0,24.498876571655277,0.0079517737030982,-79.78277122040467,40.4590868356773,270.85690012788774,-0.0119164818897843,0.0010356724960729,-0.99936443567276,0.0335814319550991,-0.0407113281572956,-2.0909074805463848e-05,0.0286591213621864,0.0085921669378876,0.0027228537946939,-0.000496496038977,-0.0398531692195683,0.1938990066200495,-9.80453460752964,14935.0
7.5,0.4000000059604645,273.0,24.505136489868164,0.0079517737030982,-79.7827714190216,40.45908672967168,270.86480358457567,-0.0118812033906579,0.0010585617274045,-0.999364972114563,0.0335775576531887,-0.0276470438851555,-0.0003294910721657,0.0261197902689359,-0.0005020669195801,0.0011719595640897,0.0043271542526781,-0.038639058843255,0.1761381438933313,-9.806245502829553,14935.0
7.6,0.4000000059604645,273.0,24.498876571655277,-0.0079517737030982,-79.78277134246247,40.45908673583163,270.8699428162575,-0.0118988445028662,0.001058712019585,-0.9993656277656556,0.0335503667593002,-0.0353534350342367,-0.0024548364477913,0.0266858091666593,0.0105488747358322,0.0029993772041052,0.0043654912151396,-0.0378580878186039,0.1833945019729435,-9.805235688686372,14935.0
7.81,0.4000000059604645,273.0,24.50388526916504,-0.0079517737030982,-79.7827715284739,40.4590866267863,270.87772181844707,-0.0118582835420966,0.0010596733773127,-0.9993658065795898,0.0335599482059478,-0.0274261730392279,-0.0016593411676444,0.02531603891708,-0.0050541535019874,-0.0034560423810034,0.0037452150136232,-0.0394251941470429,0.183251903001219,-9.805343277454378,14935.0
7.9,0.4000000059604645,273.0,24.49386787414551,0.0,-79.78277170984595,40.45908650534079,270.8879481277466,-0.0117801250889897,0.0010936168255284,-0.999367892742157,0.0335264205932617,-0.0166570112072882,0.001904160895917,0.0240995109582652,0.0092598674818873,0.0033524429891258,0.004736253991723,-0.0361890869052149,0.1769626561179757,-9.80674251616001,14935.0
8.1,0.5,274.0,24.487607955932607,-0.0795177370309829,-79.78277168625122,40.45908650509092,270.8903365454674,-0.011784135363996,0.0011089981999248,-0.9993681907653807,0.0335126817226409,-0.0221657089062218,0.0012109769420859,0.0245502917246444,-0.0127781070768833,-0.0027500402648001,-0.0025242581032216,-0.0406763795251026,0.1952938050962984,-9.80359729886055,14935.0
8.21,0.5,275.0,24.488859176635746,-0.0715659633278846,-79.78277180994219,40.45908639559228,270.8986931166649,-0.0117675978690385,0.0011468656593933,-0.999369502067566,0.033479306846857,-0.0223901012715975,0.0023648463395575,0.0219514343438565,0.0003191063879057,-0.0015169295947998,0.0049737179651856,-0.0372155473404564,0.1764796578325331,-9.805342108011246,14935.0
8.4,0.5,277.0,24.487607955932607,-0.1351801604032516,-79.78277194111996,40.45908630206894,270.906838508606,-0.0117363827303051,0.0011580146383494,-0.9993714690208436,0.0334309004247188,-0.0204391056708958,0.0006702194198746,0.0191710671092425,0.0104684121906757,0.001818494638428,0.0023438653443008,-0.0402317307516932,0.2041612172685564,-9.804100744128226,14935.0
8.5,0.5,280.0,24.48134803771973,-0.1749390214681625,-79.78277191319927,40.45908630308075,270.9087277970314,-0.0117487823590636,0.0011509761679917,-0.9993717670440674,0.0334188640117645,-0.025619479820349,9.695017562802802e-05,0.0196641408042164,-0.0086386986076831,-0.0024635577574372,0.0011949313338845,-0.039506666874513,0.1826910453848541,-9.804929879307748,14935.0
8.7,0.5,281.0,24.487607955932607,-0.1590354740619659,-79.78277188069819,40.459086305032976,270.9106436095238,-0.0117308367043733,0.0011374321766197,-0.9993726015090942,0.0333992466330528,-0.0293881131864051,-0.0007894823078888,0.0200013502357647,-0.0002711686247494,-0.0007313342066481,-0.0049648634158074,-0.040819755080156,0.2034262222610414,-9.804159216284752,14935.0
8.8,0.5,285.0,24.487607955932607,-0.1828908026218414,-79.78277209096912,40.45908621098321,270.9152261338234,-0.0116827571764588,0.001136063830927,-0.9993743300437928,0.0333658829331398,-0.019212360502046,-0.0019518932386994,0.0139694378809893,-0.0097941607236862,-0.0035656648688018,-0.0035851520951837,-0.0412477118801325,0.195160104855895,-9.804635179638865,14935.0
9.0,0.5,286.0,24.48510360717773,-0.1590354740619659,-79.78277228723614,40.45908611141478,270.9192483148575,-0.0116422735154628,0.0011419905349612,-0.999375343322754,0.0333480387926101,-0.0100371971445605,-0.0016390242794773,0.0093624618631096,0.0078122527338564,0.0027567124925553,-0.0004231626226101,-0.0410415015975013,0.1947719228267669,-9.803741725087166,14935.0
9.1,0.5,287.0,24.487607955932607,-0.1669872552156448,-79.78277225383701,40.4590861173599,270.921121152401,-0.0116331530734896,0.0011470934841781,-0.9993765950202942,0.0333145670592784,-0.018488340690791,-0.0031242808242595,0.0100907850531645,-0.005958360619843,-0.0032108661253005,-0.0034978883340954,-0.0404807810252532,0.2047032907046377,-9.803938776254654,14935.0
9.3,0.5,287.0,24.492616653442383,-0.1828908026218414,-79.78277242666391,40.459086010153385,270.92539265966417,-0.0115884337574243,0.0011758166365325,-0.9993779063224792,0.0332893133163452,-0.012028952615556,0.0001554655665162,0.0075837816538419,0.0105888834223151,0.0022903280332684,0.0047088647261261,-0.0361205511423759,0.1820933137647808,-9.805402919054034,14935.0
9.4,0.5,290.0,24.49637222290039,-0.1431319266557693,-79.78277256670727,40.459085920869455,270.92829874372484,-0.011563585139811,0.0011903449194505,-0.9993796944618224,0.0332435332238674,-0.0136746706130497,-0.0004779694528395,0.0023317793939975,0.0011524045839905,-0.001158652594313,-0.0033365511335432,-0.0411287210416048,0.203055307790637,-9.803797858357427,14935.0
9.6,0.5,291.0,24.48510360717773,-0.1431319266557693,-79.78277254867673,40.45908592252457,270.9285139164925,-0.0115677127614617,0.0011868471046909,-0.999379813671112,0.033239334821701,-0.0164027900154482,-0.0012599509345449,0.0026669918584593,0.0078622382134199,0.0031241734977811,0.0048948214389383,-0.0360591302532702,0.1758246417716145,-9.806971727013588,14935.0
9.71,0.5,289.0,24.48510360717773,-0.1749390214681625,-79.78277274844895,40.45908579385001,270.9330104908944,-0.0115221021696925,0.0011956951348111,-0.9993807673454284,0.0332258827984333,-0.0076756832126074,0.0055585888365628,0.0021975668154837,0.0057874638587236,0.0017137420363724,-0.00342085538432,-0.0394966078363359,0.1924464486166835,-9.804114777445792,14935.0
9.9,0.5,289.0,24.48009490966797,-0.1828908026218414,-79.78277273624121,40.45908578969958,270.93322697496416,-0.0115438625216484,0.0012055240804329,-0.999380588531494,0.0332231484353542,-0.011622217312107,0.0049091108317338,0.0025318771611213,-0.0016387819778174,0.0002423790137981,0.0062853218987584,-0.0387082843948155,0.1768782369419932,-9.805402919054034,14935.0
10.01,0.5,290.0,24.487607955932607,-0.1749390214681625,-79.78277285988996,40.45908574290047,270.93477341747285,-0.0115123689174652,0.0012039801804348,-0.9993824958801272,0.0331777185201644,-0.0168845857070126,-0.0052697566246234,-0.0013992175638243,0.0081552909687161,0.0007558513316325,0.007193183992058,-0.0370901177125051,0.1801549800485372,-9.80556196331978,14935.0
10.2,0.5,290.0,24.491363525390625,-0.1590354740619659,-79.78277283745756,40.45908574902956,270.9346183857918,-0.0115310056135058,0.0012106281938031,-0.999382257461548,0.0331788882613182,-0.0218056023155622,-0.005789887126388,-0.0008967994946536,-0.0114924311637878,-0.004352668300271,0.0010675430530682,-0.0412052053632214,0.188597080372274,-9.804396028518678,14935.0
10.3,0.5,289.0,24.487607955932607,-0.1590354740619659,-79.78277300570129,40.459085665783725,270.9368139228821,-0.0115181235596537,0.0012133279815316,-0.9993833899497986,0.0331483110785484,-0.0173108655767172,-0.0057303680491611,-0.0023407437201722,0.0061226342804729,-6.422816659323871e-05,0.0033184692729264,-0.036892646276392,0.1760749026015401,-9.806112186312676,14935.0
10.5,0.5,289.0,24.492616653442383,-0.1510837078094482,-79.78277320584455,40.459085559477394,270.93880543327333,-0.0114504788070917,0.0012276914203539,-0.9993839859962464,0.0331518426537513,-0.0087127064196372,-0.0008682626654978,-0.0043508391902947,-0.009345686994493,0.0003057304420508,-0.004457754548639,-0.0404047854943201,0.2022388903051614,-9.803264592289926,14935.0
10.6,0.5,288.0,24.48134803771973,-0.1669872552156448,-79.78277318017679,40.45908556380079,270.9379247746468,-0.0114760901778936,0.0012418474070727,-0.9993835687637328,0.0331561863422393,-0.0146696375962086,-0.0022612579450735,-0.0038413992542767,-0.0046845995821058,-0.0010668894974514,0.0014834541361778,-0.0401063947705552,0.1816007772088051,-9.805728024244306,14935.0
10.8,0.5,287.0,24.48385238647461,-0.1828908026218414,-79.78277334682534,40.459085474665926,270.9396212420464,-0.0114427283406257,0.0012519623851403,-0.9993844628334044,0.0331402383744716,-0.0130367395426002,-0.0015397759586112,-0.0052463508299689,-0.0043984986841678,0.0022095625754445,-0.0038417931646108,-0.0410039652138948,0.2042165282741189,-9.804271482825277,14935.0
10.9,0.4000000059604645,286.0,24.48134803771973,-0.1510837078094482,-79.78277353254515,40.45908538424016,270.9427829704285,-0.011407746002078,0.001264069462195,-0.9993850588798524,0.0331336520612239,-0.0090870421789198,-0.0012020180767031,-0.0025391576832867,-0.0103316372260451,-0.0036088454071432,-0.0004573523765429,-0.0401317981816828,0.1940010222606361,-9.80418435931206,14935.0
11.1,0.4000000059604645,284.0,24.488859176635746,-0.1510837078094482,-79.78277352108861,40.45908538630041,270.9425112328529,-0.011396462097764,0.001281525590457,-0.9993855357170104,0.0331231579184532,-0.0111827175089907,-0.0020103468281131,-0.0023791432333522,0.0041602253913879,-0.0007912811706773,-0.0017323298379778,-0.039970040442422,0.1952681138925254,-9.80466850876808,14935.0
11.21,0.4000000059604645,285.0,24.49762344360352,-0.1272283792495727,-79.78277369561191,40.459085301506,270.94401428318025,-0.0113675715401768,0.0012742386898025,-0.999385952949524,0.0331200845539569,-0.0099817054760127,-0.0021042980280882,-0.0034041568660798,-0.0071547250263392,-0.0023594212252646,-0.0033153127878904,-0.0404980988334864,0.2031971210427582,-9.804061567783355,14935.0
11.4,0.4000000059604645,287.0,24.48385238647461,-0.1590354740619659,-79.78277368324322,40.45908530438026,270.9436549267769,-0.0113668804988265,0.001290327985771,-0.9993869662284852,0.0330894701182842,-0.0114747204319596,-0.0028767884330545,-0.0032922621826123,0.0122429290786385,0.0016974245663732,0.0015987305669113,-0.0378455574181862,0.1836264719814062,-9.805061441659928,14935.0
11.5,0.4000000059604645,286.0,24.49386787414551,-0.1510837078094482,-79.78277383927288,40.45908522077547,270.9466743192673,-0.0113445734605193,0.0013068632688373,-0.999387502670288,0.0330814756453037,-0.0133154867821651,-0.0020440475773633,-0.0012985586973974,0.0004159410018473,0.002487399149686,-0.0063686650246381,-0.0403472498059272,0.2022145329974592,-9.804364453554154,14935.0
11.7,0.4000000059604645,286.0,24.495121002197266,-0.1828908026218414,-79.7827738221594,40.459085223701,270.94652757263185,-0.0113539528101682,0.0012948514195159,-0.9993877410888672,0.0330713279545307,-0.0156003186094655,-0.0026181849130026,-0.0010517139727985,0.00663609104231,-0.0002667877706699,0.0040981951169669,-0.0362977560376748,0.1752733406983316,-9.806734914779664,14935.0
11.8,0.4000000059604645,283.0,24.50263214111328,-0.1272283792495727,-79.78277397889882,40.45908509268793,270.951900990963,-0.0113231893628835,0.0013312416849657,-0.9993895292282104,0.0330257415771484,-0.0148022282248335,0.0050122851116097,0.0037905088928803,0.0085995830595493,0.0017966339364647,-0.0005299088079482,-0.0397429583407938,0.1914236244186759,-9.805486534237865,14935.0
12.01,0.4000000059604645,283.0,24.4901123046875,-0.1669872552156448,-79.78277420994371,40.45908501040982,270.95402309513094,-0.0112860137596726,0.0013209366006776,-0.9993907809257508,0.0330011472105979,-0.0039186284436158,0.0030624868318376,0.0028896005711217,-0.0021957226563245,-0.0014332034625113,0.0038723554462194,-0.0379107264638878,0.1780693147704005,-9.807143635153777,14935.0
12.1,0.4000000059604645,282.0,24.48635482788086,-0.1669872552156448,-79.78277419316333,40.45908500666466,270.95462492322923,-0.0112950466573238,0.0013423792552202,-0.9993916153907776,0.0329707823693752,-0.0090011035159875,0.0020337748940147,0.0034661860730102,0.0079723363742232,0.0021468484774231,0.0039405096322298,-0.0411254685278982,0.2052348208799958,-9.803960410952568,14935.0
12.31,0.4000000059604645,283.0,24.488859176635746,-0.1828908026218414,-79.7827743541711,40.45908492522311,270.9569813332558,-0.01127271912992,0.0013378261355683,-0.9993923902511596,0.0329559743404388,-0.0101620808679106,0.00175293777018,0.0031720524949354,-0.0079402578994631,-0.0055040381848812,-0.0006344059947878,-0.0406163450656458,0.1894840298965573,-9.80484100162983,14935.0
12.41,0.4000000059604645,283.0,24.495121002197266,-0.1590354740619659,-79.78277450939403,40.45908481334007,270.9613321146965,-0.0112569145858287,0.0013546657282859,-0.9993926882743835,0.032951533794403,-0.0092440515364994,0.0074732185389659,0.0060591800667256,0.0042958883568644,-1.040181700773246e-06,0.0060841394588351,-0.0379714621324092,0.1748850124888122,-9.80660861492157,14935.0
12.6,0.4000000059604645,282.0,24.478843688964844,-0.1908425688743592,-79.78277449562272,40.45908480750064,270.9619295320511,-0.0112579436972737,0.0013638288946822,-0.9993935227394104,0.0329262651503086,-0.0133910661199702,0.0070745858916747,0.0064880088111652,-0.0086324587464332,-0.0014745893422514,-0.0052982973866164,-0.0421400426700711,0.2029243118874728,-9.803621272444726,14935.0
12.7,0.4000000059604645,282.0,24.488859176635746,-0.1510837078094482,-79.78277463133449,40.45908470606365,270.9664070925713,-0.0112584410235285,0.0013902487698942,-0.999393880367279,0.0329122804105281,-0.0158844012822119,0.0081647866172425,0.00837401558524,-0.0071261879056692,-0.0031468197703361,-0.0006283592083491,-0.0400000256951898,0.1832229227386415,-9.804983088970182,14935.0
12.91,0.4000000059604645,282.0,24.47383499145508,-0.198794350028038,-79.78277482511876,40.45908462398026,270.9686426243782,-0.0112183159217238,0.0013871997362002,-0.9993953108787536,0.0328835323452949,-0.0090143182987141,0.005108022948349,0.005995898093174,0.0071457051672041,0.002924668835476,0.0049246456474065,-0.0412299600988626,0.20230267977342,-9.804457424283028,14935.0
13.01,0.4000000059604645,280.0,24.478843688964844,-0.1908425688743592,-79.7827748115393,40.45908462015397,270.9692355117798,-0.0112206134945154,0.0013886786764487,-0.9993960857391356,0.0328608453273773,-0.0133886386390434,0.004900065861672,0.0064175155526929,-0.0100559061393141,-0.0044448007829487,-0.0035869996063411,-0.0417501247487962,0.1984565640427172,-9.803113734126091,14935.0
13.2,0.4000000059604645,282.0,24.488859176635746,-0.1590354740619659,-79.78277479461063,40.45908461690014,270.9698534331322,-0.0112211452797055,0.0013844218337908,-0.9993962049484252,0.0328559279441833,-0.0147486528988928,0.004181052649824,0.0066024710275079,0.0100046461448073,0.0052006025798618,0.0017660236917436,-0.0390055376524105,0.1880458706617356,-9.805225748419762,14935.0
13.3,0.4000000059604645,281.0,24.4901123046875,-0.1908425688743592,-79.78277497698336,40.45908451922356,270.97409549570085,-0.0111862756311893,0.0013951691798865,-0.9993976950645448,0.0328218787908554,-0.0121407054187916,0.0057022033111391,0.0085558582966396,-0.0040662223473191,-0.0025338425766676,-0.002676501404494,-0.0402119872625917,0.2043869380652904,-9.804504786729812,14935.0
13.5,0.4000000059604645,282.0,24.491363525390625,-0.1749390214681625,-79.78277517254766,40.45908441037025,270.9756903371811,-0.011162013746798,0.0013978970237076,-0.9993975758552552,0.0328323766589164,-0.0044914387437942,0.010680397431962,0.0058445769396039,0.0080031808465719,0.0033006577286869,0.0077823279425501,-0.0366367734898813,0.176994651351124,-9.806277077794077,14935.0
13.61,0.4000000059604645,281.0,24.47633934020996,-0.2226496636867523,-79.7827751519325,40.45908439253688,270.97688594675066,-0.0111801633611321,0.0013751357328146,-0.9993982315063475,0.0328074321150779,-0.0103652714013402,0.0099869234637481,0.006450860683842,0.0036280255299061,-0.0002836736675817,-0.0008244842174462,-0.0397643829043954,0.1950824647955596,-9.804381995201114,14935.0
13.8,0.4000000059604645,282.0,24.487607955932607,-0.1908425688743592,-79.78277532740587,40.45908431987365,270.9784856758118,-0.0111884046345949,0.001373948296532,-0.9993977546691896,0.0328194573521614,-0.0087042342924111,0.0068599533044438,0.0048720825876074,0.0035143978893756,-0.0014333020662888,0.0047249030321836,-0.0386845346493646,0.1761591025069356,-9.805269602537155,14935.0
13.91,0.4000000059604645,282.0,24.48635482788086,-0.1828908026218414,-79.78277547250744,40.45908420101148,270.9806191644669,-0.011172192171216,0.0013960638316348,-0.9993992447853088,0.0327791087329387,-0.0111775381876737,0.0117988119896974,0.0038571327785619,0.0119923623278737,0.0037007906939834,0.0041184430010616,-0.0368932721111923,0.181369757372886,-9.805488873124125,14935.0
14.1,0.4000000059604645,282.0,24.48385238647461,-0.1669872552156448,-79.78277545569614,40.45908419121449,270.98100409126283,-0.0111971320584416,0.0013930589193478,-0.9993990063667296,0.0327785797417163,-0.0153662256175665,0.0117479501838592,0.0044978883185407,-0.0099944146350026,0.0015912491362541,0.0017899379599839,-0.0396457712212577,0.185635027103126,-9.80624199450016,14935.0
14.2,0.4000000059604645,282.0,24.491363525390625,-0.1431319266557693,-79.78277565325617,40.4590841108356,270.98492512321474,-0.0111738312989473,0.0014076574007049,-0.9993999600410458,0.0327555313706398,-0.0067648724094624,0.0072511988305226,0.0068560470236503,0.0053732590749859,0.0029630383942276,0.0075015546754002,-0.0374186901189386,0.1758828398399055,-9.806446062326431,14935.0
14.4,0.4000000059604645,282.0,24.4901123046875,-0.1272283792495727,-79.7827756423288,40.45908410489281,270.9856111726761,-0.0111620649695396,0.0014088557800278,-0.9994003772735596,0.0327484495937824,-0.0108231193529116,0.0071617233453742,0.0073617392203184,-0.0087948031723499,-0.0012317188084125,-0.002534860977903,-0.0400996978813782,0.2011435058154166,-9.804567351937292,14935.0
14.5,0.4000000059604645,282.0,24.491363525390625,-0.1590354740619659,-79.78277577477637,40.45908400652488,270.9915941081047,-0.0111683001741766,0.0014179918216541,-0.999401032924652,0.0327247083187103,-0.0142716227540049,0.0081622554902267,0.0116125475736718,-0.0028950648847967,-0.0017583628650754,0.0032361878547817,-0.0389998777303844,0.178761076927185,-9.805692356228828,14935.0
14.7,0.4000000059604645,282.0,24.48385238647461,-0.1590354740619659,-79.78277575574376,40.45908400027223,270.99273112630846,-0.0111697735264897,0.0014021394308656,-0.9994009137153624,0.0327281020581722,-0.0171505083088047,0.0078097303284263,0.0119240675787822,-0.0046184235252439,-0.0011028571752831,-0.005520780570805,-0.0409638980822637,0.2057958246767521,-9.80403642475605,14935.0
14.8,0.4000000059604645,281.0,24.45630645751953,0.556624174118042,-79.78277595899868,40.45908389952647,270.99699196434017,-0.0111661814153194,0.0014171686489135,-0.9994025230407716,0.0326796360313892,-0.0115946838739356,0.0084021182469342,0.0121228455527002,-0.0086064683273434,-0.0002619874721858,-0.0006460811127908,-0.0411348332092166,0.1914159134030342,-9.804409477114678,14935.0
15.0,0.4000000059604645,282.0,24.48134803771973,0.2226496636867523,-79.78277611583226,40.4590838047609,271.00038638925554,-0.0111258318647742,0.0014098703395575,-0.9994027614593506,0.0326859466731548,-0.0112955140843436,0.0093637665211547,0.0118974023826775,0.005309413652867,0.002877046354115,3.0150340535328723e-05,-0.0420404070289805,0.1953464117646216,-9.80249509871006,14936.0
15.1,0.4000000059604645,282.0,24.4901123046875,0.2226496636867523,-79.78277608054772,40.45908378978236,271.0027786216736,-0.0111507149413228,0.0014054486528038,-0.9994041323661804,0.0326377339661121,-0.0173608798941301,0.0089484305176229,0.0127289355113887,-0.0077200843952596,-0.000117766263429,-0.0014182080049067,-0.0412534494604915,0.2018119704723358,-9.79984046280384,14936.0
15.3,0.4000000059604645,282.0,24.491363525390625,0.2067461162805557,-79.78277628860647,40.459083682472894,271.00469705677034,-0.0110975326970219,0.0014230905799195,-0.9994043707847596,0.0326466262340545,-0.0078170954081814,0.0118785359139976,0.0094128055089712,0.0082450555637478,0.0014001646777614,0.0035084702540189,-0.0352537630917504,0.1890366082638502,-9.805905194878578,14936.0
15.41,0.4000000059604645,281.0,24.488859176635746,0.2306014448404312,-79.78277646906919,40.45908357969024,271.0113364777565,-0.0110431462526321,0.0014171856455504,-0.999406397342682,0.0326029025018215,-0.0050817917163509,0.0110314491030725,0.0137180777555796,-0.0005926415324211,0.0007688624900765,0.0017288241069763,-0.0437817626679316,0.2088433386571705,-9.801456048488618,14936.0
15.6,0.3000000119209289,282.0,24.48385238647461,0.2703603208065033,-79.78277646045096,40.45908356998585,271.012702914238,-0.0110537251457571,0.0014197720447555,-0.9994058609008788,0.0326160453259944,-0.0066620189670719,0.0108395317819654,0.0139594932989048,0.0047341007739305,0.0016653080238029,0.0050555700436234,-0.0398127000918611,0.1738838595338165,-9.805790589451789,14936.0
15.7,0.3000000119209289,282.0,24.478843688964844,0.326022744178772,-79.78277658291142,40.459083446425325,271.0195553622246,-0.0110675608739256,0.0014089922187849,-0.9994060397148132,0.0326062031090259,-0.0135469965995555,0.0144727847178476,0.0167263609027065,0.010405640117824,0.0021803046111017,0.0034096860326826,-0.0365611959435045,0.1950554579682648,-9.803399078249932,14936.0
15.9,0.3000000119209289,282.0,24.386192321777344,14.989093780517578,-79.78277656332294,40.459083434388816,271.0212074837685,-0.0110780242830514,0.0013989600120112,-0.9994059205055236,0.0326066501438617,-0.016462936336066,0.0143102388124107,0.017116201329843,-0.0019558519124984,0.0005055766669102,-0.0002103486913256,-0.0391137020057067,0.1808302055485546,-9.804252771735191,14936.0
16.0,0.3000000119209289,280.0,24.26599502563477,3.482877016067505,-79.78277677513495,40.45908332157524,271.0264146051407,-0.0108649814501404,0.001572779379785,-0.9994147419929504,0.0323995761573314,-0.0069185810472239,0.012967048797823,0.0152999309721583,0.0342349223792552,0.010846153832972,-0.0048945127055048,-0.0309195510344579,0.1555579365044832,-9.809732197523116,14936.0
16.2,0.3000000119209289,281.0,24.48134803771973,0.1749390214681625,-79.78277676101648,40.45908331133201,271.0279286823273,-0.010885220952332,0.0015684640966355,-0.999414086341858,0.0324123874306678,-0.0153926775160913,0.0126446617604736,0.0163161742625839,-0.0365983694791793,0.0055814585648477,0.0069111897610127,-0.049537483099848,0.2259575724229217,-9.796946091055869,14936.0
16.31,0.4000000059604645,282.0,24.46757507324219,11.355133056640623,-79.78277696742806,40.45908320366381,271.0328439793587,-0.0109203960746526,0.0015001908177509,-0.9994142651557922,0.0324006900191307,-0.006486915634575,0.0110162756034203,0.0160457704509104,-0.0102762384340167,-0.0080886045470833,0.0122510166838765,-0.0441294207517057,0.2090410110913217,-9.810230380296709,14936.0
16.5,0.4000000059604645,283.0,24.465070724487305,0.4771064221858978,-79.78277711122746,40.45908311799783,271.0373840055466,-0.0108209392055869,0.0015868265181779,-0.9994192123413086,0.032276265323162,-0.0119209310125021,0.0086912018680308,0.0140959017264662,0.0229571443051099,0.0084639266133308,-0.0024808181915432,-0.0463590280339121,0.1726307281292975,-9.797800369262696,14936.0
16.61,0.4000000059604645,285.0,24.48134803771973,0.1749390214681625,-79.78277707620154,40.45908310482071,271.04018733119966,-0.010889284312725,0.0015311868628486,-0.999418079853058,0.0322906114161014,-0.016967267370941,0.0084824128557649,0.0149388731602054,-0.0036466389428824,0.002755619585514,-0.009076677262783,-0.0388002364290878,0.204189959987998,-9.79483758509159,14936.0
16.8,0.4000000059604645,284.0,24.45129776000977,1.0973447561264038,-79.78277725292367,40.45908299218304,271.04814675664903,-0.0109225241467356,0.0015104922931641,-0.9994152784347534,0.0323673151433467,-0.0126692303040395,0.0093726879899909,0.0176353828412856,0.0012365824077278,0.0063780141063034,-0.0090822558850049,-0.0359236598596908,0.1767033869214356,-9.801765366196632,14936.0
16.9,0.4000000059604645,287.0,24.328598022460927,3.4431180953979488,-79.78277750022961,40.459082889506114,271.0529828987122,-0.0108678396791219,0.0015071544330567,-0.9994174242019652,0.0323191359639167,-0.0002217183749168,0.0084529814729932,0.0157321104365761,0.0108894193544983,0.0079840747639536,0.0079226121306419,-0.0474177577905356,0.1885996202565729,-9.79957499921322,14936.0
17.1,0.4000000059604645,288.0,24.209651947021484,5.470820426940918,-79.78277749606876,40.45908288095519,271.0545657000542,-0.0108514307066798,0.0015312383184209,-0.9994189143180848,0.0322763472795486,-0.006131978386165,0.0079009116308576,0.0160795762252818,-0.01200389303267,0.0140870390459895,0.0168724060058593,-0.0323537405580282,0.1730280281603336,-9.811386959552763,14936.0
17.22,0.5,291.0,24.130773544311523,6.902139663696289,-79.78277765993171,40.45908275712522,271.06095162248613,-0.0107220346108078,0.0016500592464581,-0.9994253516197203,0.0321139879524707,-0.0048956476833359,0.0125648113267351,0.0156490522568459,-0.0034542463254183,-0.0063903164118528,0.004318053368479,-0.0479901362489908,0.205647195763886,-9.794411323070529,14936.0
17.4,0.5,292.0,24.03561782836914,9.478514671325684,-79.78277765046951,40.45908274606632,271.0625000319481,-0.0106481220573186,0.0017276552971452,-0.999428689479828,0.0320310965180397,-0.0117379458335789,0.0118182874712955,0.0146732946335985,-0.0030309129506349,-0.0349171049892902,0.0146171385422348,-0.0354734219703823,0.2014703468978404,-9.809218227267266,14936.0
17.5,0.5,292.0,23.950477600097656,11.068869590759276,-79.78277780616399,40.45908263539537,271.0688197336197,-0.0104047656059265,0.0019558605272322,-0.9994370341300964,0.0318391695618629,-0.0168418029983415,0.0117189724261689,0.0178879912542299,-0.056326899677515,0.0350644327700138,0.044176522642374,-0.1494299174565821,0.3299594025313854,-9.7787343531847,14936.0
17.7,0.5,292.0,23.79772758483887,13.995121955871582,-79.78277779393584,40.45908262597521,271.0704136810303,-0.0101126302033662,0.0018737423233687,-0.999440610408783,0.0318236649036407,-0.009806591551992,0.0102292467600221,0.0137513437011743,0.0649598389863967,0.0134516293182969,-0.1051293611526489,0.005167824011296,0.2064534171670675,-9.79390904724598,14936.0
17.8,0.6000000238418579,290.0,23.70507621765137,15.90354824066162,-79.78277804346807,40.45908253545792,271.07597986078264,-0.0084679620340466,0.0017440227093175,-0.9994613528251648,0.0316590964794158,-0.0070086975413536,0.0041923874475503,0.0225822041476974,0.0045123058371245,0.0149128632619977,0.0027073891833424,-0.0507691077142953,0.1616688615828752,-9.850521204471589,14936.0
18.0,0.6000000238418579,290.0,23.51601600646973,19.27510070800781,-79.7827782538205,40.459082455591314,271.07793525075914,-0.0071212965995073,0.0008213749388232,-0.999472975730896,0.0316628292202949,0.00418879896505,-0.0036845236611535,0.0213008672720106,0.0203000288456678,-0.0020081468392163,-0.0243497230112552,-0.1293891888018697,0.2063428317010402,-9.814690636396408,14936.0
18.1,0.6000000238418579,291.0,23.420860290527344,20.984731674194336,-79.78277824501535,40.45908246161292,271.08338049268724,-0.0060206842608749,-0.001394631806761,-0.9994863271713256,0.0314494408667087,-0.0160333260028921,0.0021600533630006,0.0277766181486803,-0.0561014860868454,-0.0329300574958324,-0.024922152981162,0.0186333152675069,0.0307544128736481,-9.775026633739472,14936.0
18.3,0.6000000238418579,291.0,23.221784591674805,25.21507453918457,-79.78277843707724,40.45908239194478,271.0850937685966,-0.0080722114071249,-0.0008010956807993,-0.99947327375412,0.0314253829419612,-0.0177825667305468,0.0110209603901456,0.0232357761121823,0.0203320253640413,-0.0240933746099472,0.0526480376720428,0.1043501597084105,-0.1134128688834607,-9.870930325984958,14936.0
18.4,0.6000000238418579,295.0,23.1103515625,26.94856262207031,-79.78277862635215,40.45908230314635,271.0884196481705,-0.0192684084177017,0.0033392254263162,-0.999286651611328,0.0323100686073303,-0.0626087974325193,0.0442314700780417,0.1248135617350164,-0.061779748648405,-0.1621157228946685,0.0072948168963193,0.1864518283121288,-0.1995346261560917,-10.515150818824768,14936.0
18.6,0.699999988079071,295.0,23.328208923339844,22.082077026367188,-79.78277851473473,40.45908225868394,271.1077925286293,-0.0235659852623939,0.0061688655987381,-0.9990944862365724,0.0348820574581623,-0.0997860791534866,0.0658982699805362,0.2769492575537548,-0.0537119507789611,-0.0617958195507526,-0.1771467179059982,0.0813340022787451,0.4280326310545206,-11.02553322315216,14936.0
18.71,0.699999988079071,295.0,23.380794525146484,20.56328773498535,-79.78277821583748,40.45908211087719,271.16208431339265,-0.009032679721713,0.0051360693760216,-0.999222457408905,0.0380349680781364,-0.1390590871021689,0.0954986368921703,0.3085208403745864,0.1418536603450775,0.0660728365182876,-0.0785418525338172,0.0083977985288947,0.0511448278650641,-9.90304791212082,14936.0
18.9,0.8000000119209291,294.0,23.41209602355957,20.022565841674805,-79.78277785318124,40.45908179504054,271.1952314696312,0.0038958170916885,-0.0043824217282235,-0.999307096004486,0.0367569997906684,-0.1639804635460042,0.107746832750031,0.1366256334660276,0.0939555615186691,0.0711676552891731,0.0348124876618385,0.1288173767924308,-0.2098298918455839,-9.634521549940107,14936.0
19.01,0.8000000119209291,290.0,23.26310157775879,22.81363868713379,-79.7827776501814,40.459081710503504,271.20551178073885,0.007313878275454,-0.0089835869148373,-0.9993093013763428,0.0353087782859802,-0.1574121329181832,0.1038299991214808,0.0738491047544514,0.1072984039783477,0.161041110754013,0.0651871860027313,0.0726165666198358,-0.0775297946389764,-9.20097623705864,14936.0
19.2,0.8000000119209291,294.0,23.13664436340332,26.10567283630371,-79.78277744901568,40.45908162804432,271.2106685957909,0.0091540366411209,-0.0123625341802835,-0.9993178844451904,0.0335729047656059,-0.1592636658205812,0.0962742344901225,0.0244446824088825,0.0469824858009815,0.0912939682602882,0.0532900616526603,0.0560029093315824,-0.1286007283162325,-9.279804890155791,14936.0
19.3,0.8000000119209291,293.0,23.26435470581055,22.400146484375,-79.78277740585641,40.45908134162836,271.2335375270844,0.0051381601952016,-0.0095168352127075,-0.9994488954544068,0.0313860066235065,-0.1394604294968491,0.0936191230817633,0.0207092097587152,-0.0744257792830467,0.0481185466051101,0.0577314682304859,0.180804002713412,-0.1966919474489987,-9.657450236678123,14936.0
19.5,0.8000000119209291,293.0,23.015195846557607,26.28061294555664,-79.78277711292738,40.459081040426575,271.2660350522995,0.0006504648481495,-0.0073349811136722,-0.9994881749153136,0.0311334617435932,-0.1576348791646467,0.0969347808190267,0.03188609724431,-0.1225323230028152,-0.0846397057175636,-0.0244563333690166,0.1173262458667159,-0.0115094765648245,-9.708387086391449,14936.0
19.6,0.8999999761581421,289.0,23.08656311035156,25.18326759338379,-79.78277675151284,40.45908087786192,271.279969783783,0.0011264460626989,-0.0043592629954218,-0.9995057582855223,0.0311141330748796,-0.1546461498826627,0.1072698195507599,0.1156669418743941,-0.041202001273632,-0.0430593304336071,0.012507920153439,0.1266724353656173,-0.1280558500438928,-10.217750905752183,14936.0
19.8,0.8999999761581421,289.0,23.17295455932617,22.66255569458008,-79.78277670256239,40.45908061556726,271.29675755119325,0.0024231288116425,-0.0046735671348869,-0.9994862079620358,0.0316175557672977,-0.1800166244910827,0.1238964203085563,0.1542594499800438,-0.044180329889059,-0.0800250470638275,-0.1216785088181495,0.1291969889961183,0.1692786107584834,-10.041850286722184,14936.0
19.9,0.8999999761581421,286.0,23.152921676635746,24.34037971496582,-79.78277656199901,40.45908022207725,271.3241749725342,0.0066993571817874,-0.0060339798219501,-0.9994428753852844,0.0321372412145137,-0.1452818207388593,0.1379288231873443,0.1495527726928155,0.0324387289583683,0.0187150947749614,-0.0672920420765876,0.116493648039177,-0.0057363075617468,-9.80947258114815,14936.0
20.11,0.8999999761581421,285.0,23.020204544067383,26.46350288391113,-79.78277638317013,40.45908010804586,271.3387440166473,0.0081931436434388,-0.0088229784741997,-0.999396562576294,0.0325839817523956,-0.1265550166333132,0.1408315380661099,0.134681708798179,0.1779256761074066,0.0441386327147483,0.0354512333869934,0.2460707517340779,-0.2792192019894719,-9.767430515885351,14936.0
20.2,0.8999999761581421,282.0,23.099082946777344,24.61869239807129,-79.78277633684014,40.4590798918352,271.36877808189394,0.0127271097153425,-0.0153755163773894,-0.9992531538009644,0.0330890789628028,-0.0977214282487988,0.1097706890849968,0.1528599965301028,0.2048597633838653,0.1077607721090316,0.078517198562622,0.285022819340229,-0.2204803393408656,-9.9154767537117,14936.0
20.4,0.8999999761581421,281.0,23.09031867980957,25.85121726989746,-79.78277621073815,40.4590798067335,271.38494155025484,0.014233618043363,-0.0170649494975805,-0.9992018938064576,0.0331949815154075,-0.1160377315625351,0.106411625144957,0.1439873017083134,-0.2033945322036743,-0.0821554139256477,-0.1136955097317695,0.2389298761636019,0.1906381058134138,-9.589320234060288,14936.0
20.51,0.8999999761581421,277.0,22.87872314453125,29.83505630493164,-79.78277620521895,40.45907961650942,271.4021057806015,0.0139366183429956,-0.0171350445598363,-0.9992061853408812,0.0331562273204326,-0.0943027880237978,0.0947945787454767,0.0169654038417976,-0.0563276223838329,-0.0937513187527656,-0.0019920368213206,0.2834581044316292,-0.228804216273129,-9.390263471603395,14936.0
20.71,0.8999999761581421,275.0,22.728477478027344,31.95022773742676,-79.78277598433195,40.45907948351051,271.4023139200211,-0.0004952166345901,-0.0126319350674748,-0.9993408918380736,0.0340307243168354,-0.1006190106303355,0.0744590966108045,0.0356085589736194,-0.3033411204814911,-0.0501247234642505,-0.1781001836061477,0.2138421781361103,0.3344081103801728,-10.077128877639767,14936.0
20.8,0.8999999761581421,269.0,22.59575843811035,34.431182861328125,-79.78277571836298,40.459079107938905,271.4659542760849,-0.0017077459488064,-0.0094825411215424,-0.9993401765823364,0.0350212194025516,-0.0796070886757522,0.0869109461175185,0.3394794991758187,0.0312522575259208,-0.0356260128319263,-0.0302178766578435,0.1790858714841306,0.1559352463670075,-11.246270291805269,14936.0
21.0,1.0,266.0,22.603271484375,34.39937210083008,-79.78277567965758,40.45907899871079,271.4909891805649,0.0048457821831107,-0.009427242912352,-0.9993246793746948,0.0351830832660198,-0.0539879964646072,0.07715028654681,0.4902544617788394,0.2006598860025406,0.0307602137327194,-0.0185915660113096,0.2064151544496417,0.0579522979399189,-11.67061676502228,14936.0
21.2,1.100000023841858,262.0,22.251445770263672,42.01717376708984,-79.78277552647606,40.45907888390136,271.62770173168184,0.0097429854795336,-0.0090880952775478,-0.99930602312088,0.0347867831587791,-0.0553188237511413,0.0825493494681267,0.8818674893867193,0.077924869954586,0.0620959401130676,0.0611972175538539,0.2468599065765738,-0.1386968140862882,-11.820308994054797,14936.0
21.3,1.2000000476837158,261.0,22.369138717651367,37.21430206298828,-79.78277566745193,40.4590787686566,271.72193667507173,0.0081092612817883,-0.0091623198240995,-0.9993287324905396,0.0345317348837852,-0.0510972082731445,0.0884486187432816,1.0944485631451086,-0.0077674058265984,-0.0178617872297763,0.0076491124927997,0.2724828806519509,-0.0798246166482567,-12.080919395685196,14936.0
21.4,1.2999999523162842,263.0,22.260210037231445,40.97549057006836,-79.78277580590644,40.4590785914489,271.9915209732056,0.0031358180567622,-0.0096754059195518,-0.9993767738342284,0.033802755177021,-0.0313600690284736,0.1045418008558811,1.5871645790730324,-0.0656841695308685,-0.1037367433309555,0.0570225082337856,0.3059788930602372,-0.1187411532830447,-12.26180535078049,14936.0
21.6,1.399999976158142,259.0,22.362876892089844,36.93598937988281,-79.7827757872835,40.45907853612685,272.1638394317627,0.0019967993721365,-0.0089293662458658,-0.999405026435852,0.0332557447254657,-0.0225968790725448,0.1130487213917105,1.8471060270158337,-0.0080306371673941,-0.1185427978634834,-0.0071873669512569,0.4259368427842856,-0.0024958657287061,-12.324124975204468,14937.0
21.7,1.600000023841858,258.0,22.22515296936035,40.71308135986328,-79.78277598162434,40.45907834290036,272.569835515976,-0.0011135831009596,-0.0047487169504165,-0.9994672536849976,0.0322709009051322,-0.0205588466144715,0.1227677099728862,2.3078709881137223,-0.0514214187860488,-0.1595405042171478,0.0704865902662277,0.368273648545146,-0.0054054710722994,-12.129051336050036,14937.0
21.9,1.7000000476837158,258.0,22.336584091186523,37.62779235839844,-79.78277594909447,40.459078275180566,272.8135271987915,-0.0031030431855469,-0.0043821283616125,-0.9994702339172364,0.032101709395647,-0.0171372983791401,0.1234489438970983,2.5503418802404907,0.0021089822985231,-0.1206431090831756,0.0432331897318363,0.3358172528073192,0.0051982478052377,-12.14101707816124,14937.0
22.0,1.8999999761581416,255.0,22.461790084838867,32.952152252197266,-79.78277620571647,40.45907807582041,273.0579234085083,-0.0040740552358329,-0.00511015066877,-0.9994606375694276,0.0321846790611743,-0.0053918537323791,0.1362003887212347,2.7520487663969777,0.0365705378353595,-0.1069236472249031,0.0048719164915382,0.3814810103550553,0.1304368545301258,-12.036329698562623,14938.0
22.2,2.0,257.0,22.62705993652344,29.71577835083008,-79.78277608864663,40.45907789794282,273.643591495514,-0.006861456669867,-0.0065337494015693,-0.9994125962257384,0.0329348742961883,-0.0255623185428971,0.1566111436864711,3.0539375264269,-0.0007679672562517,-0.0985921323299408,-0.0144728366285562,0.3614533100277186,0.0174423413642216,-11.122360775470732,14938.0
22.3,2.0999999046325684,257.0,22.86495018005371,27.15530776977539,-79.78277622348841,40.45907754697024,274.2477508506775,-0.0078244730830192,-0.0103706661611795,-0.9993435740470886,0.0338179543614387,-0.0370422698437165,0.1692310083447753,3.1146595925491365,-0.0815554559230804,0.0182165075093507,-0.0639417022466659,0.2689249047450721,0.1292499702516943,-10.034666397571565,14939.0
22.51,2.0,259.0,22.534408569335927,32.554561614990234,-79.78277637793481,40.45907727950007,274.52481803512575,-0.0082396259531378,-0.0127411419525742,-0.9992961287498474,0.0343079939484596,-0.047420996167256,0.1831878810879975,3.0594602009105234,-0.1035834401845932,0.0473421588540077,-0.103765107691288,0.2303352548740804,0.2240091339871287,-9.73451946258545,14939.0
22.6,1.8999999761581416,259.0,22.693418502807607,30.43939018249512,-79.78277611988489,40.459077084573615,275.13887366867067,-0.0066517372615635,-0.0178015548735857,-0.99921452999115,0.0347750075161457,-0.0634783943055844,0.1973581363053687,3.0941388887755084,0.0094920182600617,0.0616235472261905,-0.0211576893925666,0.1393794673774391,0.013356502354145,-9.884797582626344,14940.0
22.8,1.7999999523162842,262.0,22.791078567504893,26.93265914916992,-79.78277630804315,40.45907676378784,275.4010749778748,-0.006131469272077,-0.0195932555943727,-0.99919331073761,0.0345142446458339,-0.0697679794241702,0.2060001023892492,3.0822026813124865,0.0821292921900749,0.1244600787758827,0.0720767676830291,0.1880881350673735,-0.1552959995158016,-10.130340878963471,14940.0
22.91,1.600000023841858,271.0,22.67588996887207,30.38372802734375,-79.7827762415878,40.45907646788449,275.99602088546754,-0.0075810179114341,-0.0230731088668108,-0.9991275668144226,0.0339768603444099,-0.0724223366642163,0.1927357358876395,3.042064054344264,0.1542873382568359,0.0369679480791091,0.0504112318158149,0.1860753041692078,-0.0774733050540089,-9.676195825338365,14940.0
23.1,1.5,276.0,22.74475288391113,29.914573669433597,-79.7827760761311,40.45907642613732,276.29954251861574,-0.0061750183813273,-0.0217764601111412,-0.9991780519485474,0.0336300544440746,-0.0909258545296219,0.1814076470918766,3.0204093562696515,0.0465901270508766,0.054531242698431,-0.0119235459715127,0.1788442718423903,0.186254064515233,-9.569839065670967,14941.0
23.21,1.2999999523162842,289.0,22.71720886230469,29.88276672363281,-79.7827759027174,40.45907640083081,276.59939965820314,-0.0040999189950525,-0.0188851822167634,-0.99925035238266,0.0335454642772674,-0.0910525318357201,0.1518302874796887,2.9719469880590803,0.2191227823495865,0.0139865288510918,0.1459419727325439,0.1733844159543514,-0.1838806979544461,-9.439668350815772,14941.0
23.4,1.2000000476837158,299.0,22.658361434936523,29.97818756103516,-79.78277498716444,40.4590757211417,277.3361149749756,-0.0006100742612034,-0.0159656908363103,-0.9993122816085817,0.0334613062441349,-0.1487157081361075,0.1340876683543116,2.979739689919365,0.1530235111713409,0.0219083763659,0.076876662671566,0.1922859060019254,-0.213271617796272,-9.641851034760476,14942.0
23.51,1.0,320.0,22.82363319396973,26.137481689453125,-79.78277508055949,40.45907574995275,277.7627407035828,0.0031872994732111,-0.0173116624355316,-0.999315083026886,0.0325507931411266,-0.164700667270766,0.0952084383947031,2.8476065800755697,-0.1278711110353469,-0.0437635257840156,-0.1129756420850753,0.1998323590680956,0.1740063769742846,-9.590087973475455,14942.0
23.7,0.8999999761581421,332.0,22.667125701904297,28.817228317260746,-79.78277491546818,40.45907576230971,278.04538163757326,0.0044910688884556,-0.0169658083468675,-0.9993164539337158,0.032536894083023,-0.1640897508531127,0.0894706176703964,2.8020854472098606,-0.1463827192783355,-0.1096445247530937,-0.1001111641526222,0.2349090748652816,0.2457761434279382,-9.412517974376676,14943.0
23.8,0.8000000119209291,353.0,22.58574295043945,30.48710060119629,-79.78277444145873,40.459075530648434,278.7265807113648,0.004561401437968,-0.0142180155962705,-0.9993633031845092,0.0324066244065761,-0.1287625169096322,0.0721173008492866,2.7833624740718097,0.181544616818428,-0.0014643291942775,0.106199711561203,0.2164228833094239,-0.2546419110707939,-9.681256590485573,14943.0
24.0,0.8000000119209291,1.0,22.67588996887207,30.74155807495117,-79.78277378452422,40.45907545619434,279.1528206787109,0.0040298337116837,-0.0135788554325699,-0.9993677735328674,0.0326115228235721,-0.1570168333276142,0.0524362004261843,2.832874973245308,0.0385578647255897,0.0699055418372154,0.0802255645394325,0.1713232176192105,-0.1021888643503189,-9.719576902985573,14944.0
24.2,1.0,13.0,22.624555587768555,29.206865310668945,-79.7827734941159,40.459075533678494,279.7174902877808,0.0043225046247243,-0.014479068107903,-0.9993207454681396,0.0336132310330867,-0.1385840867380343,0.041703917632044,2.8192550663835343,-0.1042209938168525,-0.0272555518895387,-0.028500847518444,0.2280325665324926,0.0535532594472169,-9.763537439703944,14944.0
24.3,1.0,11.0,22.74350166320801,27.84711265563965,-79.78277315329194,40.45907556975149,280.2162524185181,0.0046246103011071,-0.0147877782583236,-0.9992976784706116,0.034119389951229,-0.124828541269802,0.0303321952647436,2.919276206577844,-0.0916501656174659,-0.0090900929644703,-0.0843186452984809,0.2365890164673328,0.1577485775761306,-9.784486259222032,14945.0
24.4,1.2000000476837158,19.0,22.64709281921387,30.43143844604492,-79.78277298826667,40.459075792135785,280.9126177749634,0.0047086090780794,-0.0151500944048166,-0.999275267124176,0.0346007868647575,-0.1011404750117932,0.0031115766753716,2.933755381502173,-0.1544730812311172,-0.0316414646804332,-0.1345024406909942,0.2371497827209532,0.3661154047027229,-9.634474187493325,14945.0
24.6,1.2000000476837158,22.0,22.73974418640137,27.3620548248291,-79.78277292942325,40.45907587615135,281.2058430633545,0.0052860146388411,-0.0143660642206668,-0.9992902278900146,0.0344213955104351,-0.0801601072787802,-0.0019339987858101,2.9414823172351268,-0.0505031533539295,-0.10968828946352,-0.0509508922696113,0.219051700104028,0.1500996977370232,-9.803099116086964,14946.0
24.71,1.2000000476837158,28.0,22.714704513549805,28.51506042480469,-79.78277289083378,40.45907596348628,281.5007925949097,0.0061826417222619,-0.0131929153576493,-0.9993130564689636,0.0340753719210624,-0.0728771832329863,-0.0077996575678441,2.9561225066105004,-0.1562263965606689,-0.0940794646739959,-0.1365212053060531,0.208659754358232,0.273805429469794,-9.831358709335328,14946.0
24.9,1.2000000476837158,29.0,22.68340301513672,29.342044830322266,-79.7827732876713,40.459076244389095,282.19715413665773,0.0058429860509932,-0.0096714803948998,-0.9993853569030762,0.0331863313913345,-0.009835030614802,-0.0456763326700205,2.971258015377124,-0.0211281422525644,-0.024192675948143,-0.0346806496381759,0.2335441702790558,0.1084416300896555,-9.693714083433152,14947.0
25.01,1.2000000476837158,28.0,22.66963005065918,28.91264915466309,-79.78277349925563,40.45907621134078,282.8590165100098,0.0022930004633963,-0.0080458465963602,-0.9994277358055116,0.032775692641735,0.0399523495005332,-0.04023499306459,2.9666997357562948,0.1809689700603485,0.0663056001067161,0.1798242181539535,0.2366490052454173,-0.3153892374783754,-9.644264180660253,14947.0
25.2,1.2999999523162842,24.0,22.63582420349121,28.77746963500977,-79.78277356199284,40.45907628523128,283.1549435577393,0.0010855251457542,-0.0085606658831238,-0.9994460344314576,0.0321445204317569,0.0310499345647618,-0.0336454583701649,2.9550164914012096,-0.1146101877093315,-0.0293142162263393,-0.0208669509738683,0.1692923517152667,0.0006354827061295,-9.655841667652131,14948.0
25.3,1.399999976158142,24.0,22.64709281921387,29.723730087280277,-79.78277362177231,40.45907631917007,283.8035403213501,-0.0016930249985307,-0.0094497129321098,-0.9994475841522216,0.0318200290203094,0.0534277648009117,-0.0173138949668803,2.9674679962041144,-0.145636186003685,-0.0315039604902267,-0.1205552816390991,0.1916087436117232,0.306461635529995,-9.748284977674484,14948.0
25.51,1.399999976158142,22.0,22.76603889465332,26.76567077636719,-79.78277381794587,40.459076470541504,284.1521149597168,-0.001071676495485,-0.0109280468896031,-0.9994255304336548,0.0320628955960273,0.0830131615721244,-0.0262698015565179,2.992393032182194,0.0330754853785038,0.0828751474618911,0.0022539847996085,0.1636108680814504,0.2249907170422375,-9.841838089227675,14949.0
25.61,1.2999999523162842,17.0,22.66462135314941,28.713855743408203,-79.78277399755336,40.45907659784636,284.7504445037842,-0.0009568146197125,-0.0106774885207414,-0.9993659853935242,0.0339518077671527,0.0963340471778065,-0.0098099995109854,2.9788265774656324,0.2038716077804565,0.0825044214725494,0.0740603804588317,0.2191472838073969,-0.1548907874710857,-9.683955665230751,14949.0
25.8,1.2000000476837158,13.0,22.448017120361328,33.11118698120117,-79.78277421277781,40.45907661894029,285.0873928985596,-0.0002714576257858,-0.0103820767253637,-0.999338448047638,0.0348550118505954,0.1023267737269486,-0.0096469195380891,2.9790058432306177,0.1918416172266006,0.0897561833262443,0.0791098251938819,0.2625769481621682,-0.1934716847911477,-9.726065558195115,14950.0
25.9,1.2999999523162842,10.0,22.573223114013672,30.0736083984375,-79.78277443496135,40.459076681195256,285.71397027587886,-0.0015516525600105,-0.0108365919440984,-0.9992882609367372,0.0360994860529899,0.0905573391346106,-0.001581528431536,3.0383791820750297,0.0439224503934383,0.0439040139317512,0.0270196367055177,0.2100893072225153,-0.0942737443372607,-10.0955230486393,14950.0
26.1,1.399999976158142,7.0,22.69091415405273,26.78952598571777,-79.78277453615381,40.4590767330208,286.0190459213257,-0.0024850629270076,-0.0107030142098665,-0.9992901086807252,0.0360361188650131,0.0979205035075662,0.0031641510626442,3.0592136339444256,0.0604149103164672,0.0492241978645324,0.0070304912514984,0.2176709897629916,0.0361039071343839,-9.983987410068512,14951.0
26.21,1.5,1.0,22.614540100097656,30.009994506835927,-79.78277469585733,40.45907675535521,286.6443673095703,-0.0035998711828142,-0.011778057552874,-0.9993136525154114,0.0349357575178146,0.1027915106472993,0.0156446072903979,3.001789736556936,0.0854247435927391,0.0753643959760665,0.1214457601308822,0.2709922061115503,-0.0823987345676869,-9.57625229179859,14951.0
26.4,1.600000023841858,355.0,22.52689552307129,30.924448013305664,-79.78277478153643,40.45907679483936,286.94406327819826,-0.003031009575352,-0.0104949977248907,-0.9993337988853456,0.0348236560821533,0.1010327025857397,0.0221068993003367,2.995780085278831,0.1313435584306717,-0.0374392867088317,0.0557566210627555,0.290464402679354,-0.2002367123030126,-9.766313112974167,14951.0
26.5,1.7999999523162842,349.0,22.622053146362305,29.75553894042969,-79.7827750763354,40.459076824177,287.56820115661617,-0.001230023917742,-0.0081708393990993,-0.9992948770523072,0.0366265699267387,0.099323094777729,0.0104046381976626,3.0360651074972904,0.0954045504331588,0.0331509374082088,0.0235071163624525,0.2718053710833192,-0.1901947224140167,-9.980915282964707,14952.0
26.71,1.7999999523162842,347.0,22.6132869720459,28.729759216308597,-79.78277516809871,40.45907685563861,287.87342271423336,-0.0027804314158856,-0.0093194507062435,-0.9992440342903136,0.0376412719488143,0.0885908448256701,0.012711124824873,3.0713753284754954,0.0223069489002227,0.0264783967286348,0.0743298009037971,0.220453058425337,-0.2537451674602926,-10.119385535717011,14952.0
26.8,1.7999999523162842,348.0,22.72221565246582,26.95651435852051,-79.78277548390001,40.45907690030688,288.5028000793457,-0.0042324932292103,-0.0113024245947599,-0.999196469783783,0.0382214561104774,0.1237709347481662,0.0360267392664911,3.0730303313976446,0.2106514126062392,0.0292231496423482,0.072804220020771,0.2950041443668306,-0.0462789394520223,-9.744855585694314,14953.0
27.0,1.7999999523162842,351.0,22.61579132080078,28.83313179016113,-79.78277563202755,40.459076993169454,289.1219311676025,-0.0032583908177912,-0.0073842043057084,-0.9992778301239014,0.0371317453682422,0.1157576900753771,0.0291184046712108,3.0142936612750137,0.1795993447303772,-0.0057900589890778,0.1557903438806533,0.2012488653324544,-0.0412778250407427,-9.536830948591232,14954.0
27.11,2.0,351.0,22.515628814697266,30.01794624328613,-79.78277572685613,40.45907701021615,289.42363748168947,-0.003507807618007,-0.0063642635941505,-0.9993215203285216,0.0361060388386249,0.1022421661819764,0.0236999112357232,3.0208714630201365,-0.0009766602888703,0.0177821740508079,0.0783629342913627,0.1982269694656133,-0.1415876957774162,-9.82621900677681,14954.0
27.3,2.0999999046325684,352.0,22.448017120361328,31.93432426452637,-79.78277590080177,40.45907695293489,289.7465802154541,-0.0041025513783097,-0.0072815869934856,-0.999364972114563,0.034639798104763,0.117939308396007,0.0383095233755059,3.0332168445624847,0.0595502406358718,0.0516655296087265,0.0943179726600647,0.2809479312971234,-0.111601584199816,-9.846333428621293,14954.0
27.4,2.200000047683716,348.0,22.41546440124512,32.22058868408203,-79.7827761193283,40.45907696175668,290.37098893737794,-0.0053474884480237,-0.0077361282892525,-0.9994237422943116,0.03261549025774,0.1153408918681753,0.062606657157068,3.079243952227477,0.0912864059209823,0.0444981679320335,0.1057295277714729,0.2762722053006291,-0.0798006430640816,-10.108417328596117,14955.0
27.6,2.200000047683716,346.0,22.82238006591797,22.821590423583984,-79.78277619903776,40.45907694101594,290.68137368774416,-0.0051652649417519,-0.0085338344797492,-0.9994322061538696,0.0321834683418273,0.1033553086098293,0.0694135900733187,3.1215976459445085,0.0454438813030719,0.0970323085784912,0.0025053629651665,0.2299715215153993,0.0874519988335669,-10.154202196598051,14955.0
27.7,2.200000047683716,343.0,22.936317443847656,20.420154571533203,-79.78277626527246,40.45907691289946,290.9936905822754,-0.0046609514392912,-0.0092367809265851,-0.9994297623634338,0.0321436449885368,0.0913353086869636,0.0825739287661658,3.1064920107767944,0.0703159421682357,0.069217212498188,-0.0014281055191531,0.2675893824175,0.2150740037485957,-9.687143567204476,14955.0
27.9,2.200000047683716,341.0,22.92254447937012,20.67461204528809,-79.782776290163,40.45907688149421,291.59852799987794,-0.000994290690869,-0.0103444969281554,-0.9993960857391356,0.0331588238477706,0.0586197115931213,0.0870766626802476,2.8417718562235783,-0.0023350259289145,-0.0035952243488281,-0.0326577797532081,0.1641696426272392,-0.0106706158211454,-8.487910627126695,14956.0
28.0,2.299999952316284,339.0,22.86620140075684,23.354360580444336,-79.78277637380491,40.45907674185655,292.1771374664307,-0.0002809053112287,-0.0109155308455228,-0.9993412494659424,0.0346109494566917,0.0374160191299158,0.1086369020268809,2.5587837772749285,-0.0438923798501491,-0.0271904952824115,-0.0587490983307361,0.2039895649440586,0.0410966435819864,-8.156147797107696,14957.0
28.21,2.299999952316284,340.0,22.91628456115723,22.169546127319336,-79.78277641558684,40.45907668968855,292.4254418334961,-0.0005468919989652,-0.0117640197277069,-0.9993029236793518,0.0354256704449653,0.0408612247907272,0.1079953248834085,2.4032147572594504,0.0083137387409806,0.0143541414290666,-0.0423585548996925,0.2673502495698631,0.0252190959267318,-8.22167286515236,14957.0
28.31,2.299999952316284,338.0,22.76478576660156,24.809534072875977,-79.78277648127974,40.45907662501974,292.89919862365724,-0.0012957063736394,-0.0145343588665127,-0.9992604851722716,0.0355767980217933,0.0225263303224294,0.1185348990372551,2.1177826613155064,-0.1118325740098953,-0.0003055434790439,0.0045998031273484,0.2762449792027474,0.1079985664598644,-8.40712140262127,14957.0
28.5,2.299999952316284,335.0,22.83489990234375,23.441829681396484,-79.78277652559713,40.4590766217841,293.1259709320068,-0.0019069140544161,-0.0150907542556524,-0.9992630481719972,0.0352421626448631,0.0326068826822231,0.1179834419655097,2.0294260855669366,-0.0097445603460073,0.0450284332036972,0.0365700609982013,0.2256175385601819,0.0818733896501362,-8.650942693948746,14958.0
28.6,2.299999952316284,331.0,22.86495018005371,23.61676788330078,-79.78277658394161,40.45907651150016,293.51074227905275,0.0002022595872404,-0.0186615474522113,-0.999176561832428,0.0360279232263565,0.0427286977323625,0.1135904624136807,1.8150088282378267,0.0950051769614219,0.0681647062301635,-0.0187167134135961,0.249432206377387,-0.0802360779047012,-8.723456354141236,14958.0
28.8,2.299999952316284,331.0,22.831144332885746,24.42784881591797,-79.78277656214448,40.459076515335376,293.7266827545166,0.001495779142715,-0.0194652415812015,-0.9991267323493958,0.0369435139000415,0.0286327762019283,0.1152208711355667,1.7543159873276273,0.0713467597961425,-0.0353049896657466,-0.0427465066313743,0.3037543381378055,-0.0351455553411506,-8.801464642882348,14958.0
28.9,2.299999952316284,333.0,22.72096443176269,25.39796638488769,-79.78277649952109,40.45907650490221,294.1237641296387,0.0040234960615634,-0.0183919966220855,-0.9990912675857544,0.038239374756813,0.015810017106883,0.1014503698488354,1.6421068019485463,0.0346247926354408,-0.0010941578075289,0.0355729945003986,0.2178864779323339,-0.1002911779191345,-8.982369309067726,14959.0
29.11,2.299999952316284,335.0,22.76603889465332,25.46953201293945,-79.7827765257953,40.45907647159947,294.28513917541505,0.0039741247892379,-0.016846302896738,-0.9991254210472108,0.0380651168525218,0.0193642966315785,0.0906109350630626,1.582483529053999,-0.0117072165012359,-0.1105914339423179,0.0295023806393146,0.2788569669798017,-0.0762739863060414,-9.176231989860533,14959.0
29.2,2.200000047683716,338.0,22.79608726501465,25.52519416809082,-79.78277656392659,40.45907644319208,294.44095811462404,0.0036127166822552,-0.0154578695073723,-0.9991830587387084,0.0371666103601455,0.0409117482431622,0.0780940930468207,1.5285994369123417,0.1050266101956367,0.0350211486220359,0.0600745864212513,0.2772480690479279,-0.1159345445875078,-9.224626470208168,14959.0
29.4,2.200000047683716,340.0,22.730979919433597,25.437725067138672,-79.78277639220086,40.45907648194461,294.8440304718018,0.0037332084029912,-0.0124867027625441,-0.999307096004486,0.0348639078438282,0.0342187435904113,0.0686193145479371,1.5250520674782473,0.0780867785215377,-0.0088570052757859,0.0691949725151062,0.2798366131447256,-0.0785844496171921,-9.407472996711732,14959.0
29.5,2.200000047683716,345.0,22.76228141784668,23.83146667480469,-79.78277618350613,40.459076514618246,295.0857239685059,0.0049903877079486,-0.0117976982146501,-0.9993389844894408,0.0340245850384235,0.0033514895427261,0.0755596080388447,1.5742772302835184,-0.0037266081199049,0.0721030458807945,-0.0083981649950146,0.2415615617483854,0.1206278305035084,-9.352093432545663,14960.0
29.71,2.0999999046325684,346.0,23.430877685546875,13.53391933441162,-79.78277624589832,40.459076438433605,295.3912049255371,0.0065813730470836,-0.0110328588634729,-0.99935382604599,0.0335707403719425,0.0163516244319665,0.0796987734575722,1.4615500978152558,-0.0872247442603111,-0.0105535155162215,-0.0286002121865749,0.2846927622891963,0.0638517959229648,-9.096104085445404,14960.0
29.8,2.0,350.0,22.96135711669922,22.209304809570312,-79.7827760006921,40.459076474208175,295.7535038909912,0.0047670118510723,-0.0087782507762312,-0.9979758262634276,0.0628056824207305,-0.0277436589571484,0.0766622416581827,1.0115815822152716,-0.0378277078270912,-0.0339038074016571,-0.8227118253707886,0.1650254009105265,-0.1469418449699878,-7.241481885910034,14960.0
30.0,2.0,349.0,22.91503143310547,22.52737617492676,-79.78277607197799,40.459076481802896,295.850195022583,0.0035506305284798,-0.0075485361739993,-0.9940377473831176,0.1087170764803886,-0.0153629895464341,0.0691637649538068,0.8504468033837729,0.0523299574851989,-0.0532975941896438,-1.0078623294830322,0.129472703486681,-0.3067670063674449,-7.8132775962352765,14960.0
30.2,1.7999999523162842,352.0,22.7597770690918,24.63459587097168,-79.7827760309402,40.4590763919806,295.9942093811036,0.0043721627444028,-0.0080145820975303,-0.9733676910400392,0.2290675789117813,0.0076234450176344,0.061534710480427,0.6072446586160792,0.0682858452200889,0.0324065424501895,-1.402146339416504,0.186275918483734,-0.0557950727920979,-8.666903838515282,14960.0
30.3,1.7999999523162842,353.0,22.81612014770508,23.79170799255371,-79.78277619122909,40.45907637385874,296.01510247802736,0.0063810897991061,-0.0084971347823739,-0.9546916484832764,0.2974071502685547,0.0332416957839741,0.0532422463416762,0.5338947720350311,0.0999753475189209,0.0750745609402656,-1.41489839553833,0.1046132113225758,0.042036277432926,-8.938302353024483,14961.0
30.4,1.600000023841858,342.0,22.71595573425293,26.717960357666016,-79.7827762767803,40.45907627395108,296.0793381652832,0.0096924435347318,-0.0085797067731618,-0.899122416973114,0.4375057816505432,0.0750817347837458,0.0353674001329455,0.4711062759068251,0.1058584228157997,-0.0376150719821453,-1.5199927091598509,0.1545619181357324,0.0277909708907827,-9.477379968166352,14961.0
30.6,1.600000023841858,333.0,22.73724174499512,25.453628540039062,-79.78277633204263,40.459076205145394,296.1263161621094,0.0105670969933271,-0.0076126810163259,-0.8625270128250122,0.505843460559845,0.0856017490146462,0.0169121846072166,0.4712676425614973,-0.0728232041001319,-0.0644059404730796,-1.6073462963104248,0.0949287603981793,0.3041015165671706,-9.669411885738374,14961.0
30.71,1.399999976158142,343.0,22.75602149963379,25.636518478393555,-79.78277648632532,40.45907586506976,296.1896763763428,0.0137528460472822,-0.0039179343730211,-0.7731810808181763,0.6340240836143494,0.1432712189708384,-0.0334908946584154,0.4947660112218765,-0.0638284683227539,-0.0405481420457363,-1.6091383695602417,0.0501870859181508,0.2455868398211896,-9.8119903922081,14961.0
30.9,1.399999976158142,347.0,22.68089866638184,27.43362045288086,-79.78277661467321,40.45907572764949,296.2391606292725,0.0148426908999681,-0.0038312885444611,-0.7247667908668518,0.6888238191604614,0.1948529653090476,-0.0694995294640404,0.5025907112365666,0.1454474627971649,0.0084673119708895,-1.354962706565857,0.1470891582593322,0.0813692682981491,-9.917502229213715,14961.0
31.0,1.2999999523162842,328.0,22.628313064575195,27.15530776977539,-79.78277652348825,40.459075373915226,296.3128167114258,0.0158697366714477,-0.0031734309159219,-0.6806070804595947,0.7324699163436891,0.2170104510787039,-0.0845230762157011,0.5734835528974581,-0.0233494490385055,-0.0789624005556106,-1.1196200847625732,0.1663860662654042,0.3830608183890581,-10.123913619518278,14961.0
31.21,1.2999999523162842,327.0,22.501855850219727,28.37988090515137,-79.78277678712767,40.459074877124095,296.4328690490723,0.0149293933063745,0.0012699362123385,-0.6202295422554016,0.7842772603034973,0.2826469537141077,-0.1467256612070184,0.6442065950981717,-0.066477432847023,-0.0524452552199363,-0.5800686478614807,0.1361068995483219,0.416813468746841,-10.131162997484209,14961.0
31.3,1.2000000476837158,341.0,22.59701156616211,28.26060485839844,-79.78277673149219,40.45907427259064,296.3891449890137,0.0015919953584671,0.0002679279423318,-0.5978302359580994,0.8016210794448853,0.3316026174527055,-0.1011472265230988,0.6178758261677696,-0.1843799799680709,-0.3747648000717163,-0.0826033651828765,0.4977868074551225,0.281624600328505,-10.018993520736696,14961.0
31.5,1.2000000476837158,348.0,22.63081741333008,26.376033782958984,-79.78277724854004,40.459073959242296,296.2760849914551,-0.0223910398781299,0.0140003329142928,-0.5961292386054993,0.8024541139602661,0.3796217661927106,-0.0614411666964764,0.5641256437895439,-0.0537147410213947,-0.6426748633384705,0.0480881296098232,0.4034572952985764,0.3473814008384943,-10.102365460395813,14961.0
31.7,1.2999999523162842,350.0,22.578229904174805,27.51313781738281,-79.78277687418131,40.459073287617066,296.39418801879884,-0.069970928132534,0.0529743991792202,-0.600047767162323,0.7951355576515198,0.4380724703326047,0.1034251461998086,0.6307357657651665,0.2925741374492645,-0.3670511245727539,0.2003696858882904,0.0326938794879242,-0.0130094883777201,-10.18803184747696,14961.0
31.8,1.2999999523162842,345.0,22.65460586547852,27.95048522949219,-79.78277700485731,40.45907316176846,296.3244362792969,-0.0849179401993751,0.0643225237727165,-0.6037790775299072,0.7900016307830809,0.4215956944234083,0.2329168721604237,0.6380944573151514,0.0895950272679328,-0.2765840291976929,0.1747867465019226,-0.014618669534102,-0.1363930111192167,-10.174369243383408,14961.0
31.9,1.399999976158142,358.0,22.55945014953613,27.99819564819336,-79.78277605206695,40.4590728178694,296.3208199462892,-0.1042607128620147,0.0704369992017746,-0.6115130782127379,0.7811658978462219,0.4205092806753381,0.6291657097859239,0.7337805535054226,0.1844210028648376,-0.0077814245596528,0.2797217965126037,0.0082748950808309,-0.2386845306493342,-10.287804057598112,14961.0
32.11,1.5,4.0,22.674638748168945,25.89097595214844,-79.782774887421,40.45907268484419,296.3785534820557,-0.1102265492081642,0.0701145231723785,-0.6146854758262634,0.7778791785240173,0.37972590922618,0.8785198559291695,0.8260608620290415,-0.2175783216953277,-0.1351711452007293,0.0995450764894485,-0.0522278281347826,0.1100215751677751,-10.308982672691345,14961.0
32.2,1.7000000476837158,9.0,22.63582420349121,25.914831161499023,-79.78277236632931,40.45907275787693,296.37841806030275,-0.120502732694149,0.0717592388391494,-0.6182456612586975,0.773370623588562,0.3368995780321572,1.354762024946102,0.909811626998058,0.1148077026009559,-0.0743330791592598,0.0921201929450035,-0.0889476069621741,0.058544607181102,-10.006319096088411,14961.0
32.41,1.7999999523162842,14.0,22.614540100097656,27.131452560424805,-79.78277034623241,40.45907284540241,296.4302960357666,-0.1283416450023651,0.0739348232746124,-0.61733078956604,0.7726350426673889,0.2973209523039135,1.6205966153499498,0.9910247912210408,-0.0888017937541008,-0.2037544399499892,0.0313662625849247,-0.0432977502560243,-0.0196428621746599,-10.13994434595108,14961.0
32.5,2.0999999046325684,23.0,22.5744743347168,28.06180953979492,-79.78276877124604,40.45907320556232,296.377035232544,-0.1364073455333709,0.0765106901526451,-0.6153027415275574,0.7726200819015503,0.23794493630194,1.8442751826681425,1.0620138948759936,-0.2086754441261291,-0.2290351390838623,-0.2287256866693497,-0.1884631060436368,0.3686597475036979,-10.237168339490893,14961.0
32.7,2.200000047683716,27.0,22.445512771606445,29.071685791015625,-79.78276323586883,40.45907385387571,296.47471246337886,-0.148570105433464,0.0789527967572212,-0.6082178950309753,0.7757347822189331,0.1874918448591127,2.3777959781969926,1.2958119802307455,-0.0823495835065841,-0.0511017255485057,-0.0266861226409673,-0.2849803356640041,0.2184794404171408,-10.15810579776764,14961.0
32.8,2.5999999046325684,32.0,22.573223114013672,26.36808204650879,-79.7827573932305,40.45907525943001,296.4617997131348,-0.1540305018424987,0.084833987057209,-0.6013264060020447,0.7794129252433777,0.1184023441376327,2.8997968495831525,1.4858923484704667,-0.0628905370831489,-0.1612904667854309,-0.0632874891161918,-0.3355668823421001,0.1318036046437919,-10.243464621305469,14961.0
33.0,2.799999952316284,33.0,22.47055435180664,29.56469535827637,-79.78275469096704,40.45907637491886,296.39905938720705,-0.1530037522315979,0.0888797491788864,-0.5995340347290039,0.7805442214012146,0.0669331290133585,3.121400249412294,1.5155358691370586,0.1039243638515472,0.0279398187994956,0.0140254497528076,-0.4218809216469527,0.0812878184113651,-10.008820534944537,14961.0
33.1,3.299999952316284,38.0,22.55444145202637,27.05193519592285,-79.78275058380913,40.45907719876632,296.4331894836426,-0.1505729705095291,0.0925344973802566,-0.5991606116294861,0.7808789014816284,0.0478728080560286,3.4090505513602625,1.6048821780913174,0.1024467349052429,0.0037523368373513,-0.0491428151726722,-0.4315469538420439,0.0057249357551336,-10.051829144954684,14961.0
33.3,3.5,40.0,22.513124465942383,27.823257446289062,-79.78274243499294,40.45907971134757,296.4103966674805,-0.1536419540643692,0.0938712134957313,-0.59702467918396,0.7817569971084595,-0.0667703638761964,3.9338143616042807,1.7475861978107587,0.0126826595515012,0.0101141706109046,-0.1665045469999313,-0.5380369934812188,0.3380742415040732,-10.045842765569688,14961.0
33.41,4.099999904632568,41.0,22.66963005065918,24.793630599975582,-79.7827329388833,40.45908270490396,296.39673814392086,-0.153420940041542,0.0880249664187431,-0.595668613910675,0.7835129499435425,-0.1616140191737253,4.430512878523367,1.8631415610402229,-0.0741663128137588,0.0558604672551155,0.0435793884098529,-0.6784192492067814,0.1367536929622292,-9.837117047309876,14961.0
33.6,4.400000095367432,44.0,22.53691291809082,27.298439025878903,-79.78272740458827,40.45908406990565,296.4123974761963,-0.1514002829790115,0.0862940028309822,-0.5958935022354126,0.7839275002479553,-0.1687232313388248,4.700861911281559,1.8811285683371168,0.0066419811919331,0.1175917759537696,-0.0090725226327776,-0.7667611759901047,0.1682102513685822,-9.682279268503189,14961.0
33.71,4.900000095367432,47.0,22.5744743347168,27.18711471557617,-79.78271605584682,40.45908770937042,296.39357766723634,-0.1479739695787429,0.0837319865822792,-0.5950046181678772,0.78553307056427,-0.29912189897699,5.173372369688803,1.96954626121133,-0.0645312070846557,0.0353404320776462,-0.0760519728064537,-0.7677174150198699,0.1468774159625172,-9.960848808288574,14961.0
33.9,5.199999809265137,48.0,22.66086578369141,23.871225357055664,-79.78270975721131,40.45908938047649,296.40288362121584,-0.1435546427965164,0.0825273543596267,-0.5954319834709167,0.7861564755439758,-0.2972978177987373,5.396913537323376,2.0095753458208283,0.113196924328804,0.208630159497261,-0.2107153236865997,-1.0054291699826718,0.2684589547477663,-9.906019467115405,14961.0
34.0,5.699999809265138,51.0,22.68966293334961,25.06399154663086,-79.7827037877212,40.45909210380034,296.38643846130367,-0.1324813365936279,0.0764476880431175,-0.5946877598762512,0.7892724871635437,-0.4304282781926053,5.560377414690845,2.0256376780676617,0.1210815533995628,0.3103934824466705,0.2579084038734436,-1.2171564102172852,-0.0252820220170542,-9.900556998252869,14961.0
34.2,6.0,54.0,22.920040130615234,20.55533599853516,-79.78269031007568,40.45909594522121,296.40175637817384,-0.1038172990083694,0.0528133101761341,-0.5985386371612549,0.7925808429718018,-0.4598926970852011,5.993386025520289,1.7094429567150309,-0.0023380063939839,0.3345124423503876,-0.1304135918617248,-0.8559294605255128,0.2663762861676514,-9.711722338199616,14961.0
34.3,6.5,54.0,22.900007247924805,19.02064323425293,-79.78267661907144,40.45910135658283,296.3685036621094,-0.088274247944355,0.0442331954836845,-0.5981144905090332,0.795305073261261,-0.6297140806268468,6.275755159146245,1.2488167484394757,-0.1001747772097587,0.0262089725583791,0.0841446667909622,-1.214684792160988,0.1115236517786979,-8.951142253875735,14961.0
34.5,6.800000190734862,54.0,22.80109596252441,21.97075080871582,-79.78266920174191,40.459104186030665,296.35331735229494,-0.0858699530363082,0.0402064360678196,-0.5972886085510254,0.7964020371437073,-0.7213497480135277,6.386512974311372,1.1250375067261251,-0.1622591167688369,-0.0634368807077407,-0.0339489169418811,-1.3037149362266065,0.2909015003219247,-8.798343399167061,14961.0
34.6,7.199999809265138,62.0,22.826135635375977,21.4379825592041,-79.782654913837,40.45910875299519,296.3113881072998,-0.0840752273797988,0.0266947709023952,-0.5973031520843506,0.7971498370170593,-0.74698528893893,6.508254913748544,0.9506693755858387,0.0544518381357193,0.1205308958888054,0.1953030675649643,-1.2175682734698057,0.0498088669963181,-9.277636157870292,14961.0
34.8,7.400000095367432,66.0,22.77229881286621,23.0203857421875,-79.78264723219273,40.459111520913225,296.265930267334,-0.0785923972725868,0.0240303128957748,-0.5970323085784912,0.7979964613914491,-0.8004652205111904,6.575926529323428,0.886299134106563,0.1015940681099891,0.1124495491385459,0.1078165844082832,-1.1776168801635505,0.2096339735761285,-9.401572571396828,14961.0
34.9,7.699999809265138,66.0,22.76228141784668,22.89315795898437,-79.78263195539002,40.45911669803549,296.1962338409424,-0.0632735267281532,0.0266587566584348,-0.5970284938812256,0.7992765307426453,-0.8638522826447763,6.679399854188852,0.7280750636112981,0.0437828116118907,0.1130807027220726,-0.2418069243431092,-1.1601265425235034,0.5717313178628683,-9.469033067822458,14961.0
35.11,7.900000095367432,66.0,22.862445831298828,20.99268341064453,-79.78262465256537,40.45911916297988,296.1684723815918,-0.058063942939043,0.0259502585977315,-0.5969321727752686,0.7997670173645021,-0.8693133838012645,6.699314154356973,0.6347439756606319,-0.0454626120626926,-0.0391529351472854,0.0262163374572992,-1.1810994087159634,0.3009206677973271,-9.436120845079422,14961.0
35.2,8.100000381469728,70.0,22.754770278930664,23.39411926269531,-79.78260924530308,40.4591246574848,296.09733781433107,-0.0508851632475853,0.0178440399467945,-0.5955680012702942,0.8014931082725525,-0.9056691011381768,6.7436600576404855,0.4963701010449338,0.0165745746344327,0.0929574966430664,-0.1197635233402252,-1.0867463249713183,0.2638842394016683,-9.5322467315197,14961.0
35.4,8.199999809265138,70.0,22.8424129486084,21.35846519470215,-79.78260193558611,40.459127182010505,296.0671521148682,-0.0449403002858161,0.0143552627414464,-0.5955438613891602,0.8019363880157471,-0.9042151625446888,6.725041452707735,0.4166998333682623,-0.0267729312181472,0.043024830520153,-0.0010000559268519,-1.1892168789356947,0.0520458107069134,-9.60735830962658,14961.0
35.51,8.399999618530272,70.0,22.767290115356445,23.06014442443848,-79.78259412585466,40.45912999916527,295.99583062744136,-0.0378585048019886,0.0096962777897715,-0.5960021615028381,0.8020312786102295,-0.9199858840326346,6.7247755778069696,0.3075144813625229,-0.0742686986923217,0.1054354831576347,0.1962231546640396,-1.1009025071561338,-0.0597319391369819,-9.592040358781816,14960.0
35.7,8.5,70.0,22.78607177734375,23.489540100097656,-79.78257972465916,40.45913505425426,295.9332657775879,-0.0182577222585678,-0.0012957231374457,-0.5969566106796265,0.8020647764205933,-0.9289554416837952,6.58765466707324,0.0704461933694987,0.1111382842063903,0.3230314552783966,0.0262020099908113,-1.0656016968190671,0.1792588394321501,-10.081065223217012,14960.0
35.8,8.600000381469728,76.0,22.87747001647949,20.17365074157715,-79.78256525154954,40.45914024312744,295.8228321990967,-0.0050129913724958,-0.0060219978913664,-0.5974606275558472,0.801859974861145,-0.9428528366589825,6.422159285773248,-0.1284494810824606,0.0665307790040969,-0.0401758551597595,-0.0723814070224762,-1.248920970708132,0.2050264041870833,-10.108320264816284,14960.0
35.91,8.600000381469728,78.0,22.79233169555664,22.535327911376957,-79.78255790239001,40.45914289111851,295.7289372406006,-0.0037946528755128,-0.0045310743153095,-0.5979431867599487,0.8015167713165283,-0.9469173396539384,6.369175199094277,-0.2200269687836924,0.0716280564665794,0.0112028792500495,0.1579880714416504,-0.9583745060116052,0.1259571290295571,-10.029144287109377,14960.0
36.1,8.600000381469728,78.0,22.817371368408203,21.119911193847656,-79.78254439009167,40.459147740492014,295.68541345214845,-0.0096512706950306,-0.0014141318388283,-0.5991838574409485,0.8005520105361938,-0.960911063485542,6.162406433167668,-0.1441005003393664,-0.1456546038389206,-0.1332395523786544,-0.0885129645466804,-1.1558996634185317,0.2292975933663547,-10.014888775348664,14960.0
36.3,8.600000381469728,78.0,22.73223304748535,22.0025577545166,-79.78253781080447,40.45915024010736,295.56828317260744,-0.0192748121917247,-0.0028524957597255,-0.5994732975959778,0.8001576066017151,-0.9710194030000976,6.07243136763914,-0.1622228528245397,-0.0318114347755909,-0.1519568860530853,0.1164518445730209,-1.2459324587881566,0.1623457864299416,-9.713564795851708,14960.0
36.41,8.600000381469728,78.0,22.90626716613769,20.610998153686523,-79.78252482951926,40.45915501226778,295.45594224548336,-0.0263017229735851,-0.0025075860321521,-0.5990533232688904,0.8002732396125793,-0.9900636667609092,5.92538245936905,-0.0324753268623568,0.0242272596806287,0.102793201804161,-0.2434660494327545,-1.1651856265962124,0.6701616650819778,-9.751540122628214,14960.0
36.6,8.600000381469728,76.0,22.704687118530277,24.761823654174805,-79.78251850375294,40.45915735271621,295.4264870605469,-0.0251056682318449,-2.707736712181941e-05,-0.5987358093261719,0.800553023815155,-0.9959460602877022,5.845128729824317,-0.0398915745777451,0.0946456417441368,-0.0807405337691307,-0.08949526399374,-1.3781013134121896,0.3652660600841045,-9.665729894042014,14960.0
36.71,8.5,75.0,22.814868927001957,21.64472770690918,-79.78251226413512,40.45915968216304,295.39642152404787,-0.0232543088495731,0.0002049652539426,-0.5984716415405273,0.8008065223693848,-0.9989634602597768,5.772878019920356,-0.0333344147206328,-0.0204331669956445,-0.0009751862380653,-0.2833262085914612,-1.1592526761442423,0.0975859910063445,-9.929049310684205,14960.0
36.9,8.399999618530272,75.0,22.882478713989247,20.762081146240234,-79.78249997903164,40.45916430654032,295.2838974914551,-0.0214892625808715,0.0016877143643796,-0.5973613858222961,0.8016824722290039,-0.9698357298984096,5.639647894893828,-0.0816542050911179,0.0699288696050643,-0.0538445971906185,0.0059191533364355,-1.2497770030796531,0.1595714287832379,-9.708722131848337,14960.0
37.0,8.300000190734862,76.0,22.81862449645996,21.445934295654297,-79.78248807182581,40.45916877363153,295.1638890228272,-0.0248869229108095,0.007016665302217,-0.5969478487968445,0.8018633127212524,-0.9325663880527144,5.50991116164888,-0.1481297759382354,0.0640018284320831,-0.1126745268702507,0.271720677614212,-1.1307509350776672,-0.0173708717152476,-9.371538932919504,14960.0
37.21,8.199999809265138,74.0,22.781063079833984,22.344484329223643,-79.78248221064537,40.45917098107301,295.12223825073244,-0.0240808315575122,0.0121238324791193,-0.5973186492919922,0.8015506863594055,-0.916930077536256,5.458220911553938,-0.1508526619710878,0.1759058684110641,-0.0097081623971462,0.1850256472826004,-0.8445183999091387,0.1899957343563437,-9.465982575416566,14960.0
37.31,8.100000381469728,74.0,22.66337013244629,25.44567680358887,-79.78247058529432,40.45917527736016,295.0160904846192,-0.028524862602353,0.0181051641702652,-0.5980613231658936,0.8007379174232483,-0.9009714944863304,5.355724132597009,-0.1422923543686824,-0.0043203523382544,-0.0789025425910949,0.0367884635925293,-1.2161395794153214,0.2087553563341498,-9.551476469635965,14960.0
37.5,8.100000381469728,74.0,22.87747001647949,20.396299362182614,-79.78246479207024,40.45917735376997,294.94682511901857,-0.0361213237047195,0.0157381780445575,-0.5981780886650085,0.8003940582275391,-0.8829182110713301,5.335241466878964,-0.0641545161046631,-0.2006075084209442,-0.1752375215291977,-0.0408037453889846,-0.8959744092822075,0.0872539061307907,-9.964792170524596,14959.0
37.6,7.900000095367432,72.0,22.62580871582031,25.843265533447266,-79.78245341731673,40.45918156310921,294.8602543792725,-0.0471536852419376,0.0180905945599079,-0.5983789563179016,0.7996199131011963,-0.8758790191926978,5.280457282378103,0.0284195655388195,0.1471568942070007,-0.1227206438779831,0.1675579994916916,-1.2085774485021827,0.118400443335995,-9.583913898468015,14959.0
37.8,7.900000095367432,72.0,22.674638748168945,25.453628540039062,-79.78244774161084,40.459183551325815,294.78928956604005,-0.0488233119249343,0.0213199462741613,-0.598839521408081,0.7990952134132385,-0.8581273525438643,5.261131137637988,0.0886210580922937,0.1309894025325775,-0.0324538573622703,-0.0404865443706512,-1.0081489292532206,0.1209804815612733,-9.661381319761276,14959.0
37.9,7.800000190734862,72.0,22.508115768432614,26.853139877319336,-79.78243641259633,40.45918756804672,294.6821480712892,-0.048738669604063,0.0234210342168808,-0.5995670557022095,0.7984957098960876,-0.8673576399143543,5.24819116600303,0.1497407810388757,-0.1733143925666809,0.0087625915184617,-0.0860757231712341,-1.097740771472454,0.2884277261048556,-10.02768599152565,14959.0
38.1,7.699999809265138,72.0,22.59450721740723,26.50326156616211,-79.78243077331973,40.45918962827618,294.6420632324219,-0.0495892688632011,0.0211993902921676,-0.5999289751052856,0.7982335686683655,-0.8749220708184356,5.2500842602391815,0.1823276095192345,-0.1547619849443435,-0.033757384866476,-0.1326248347759246,-0.9452672412246468,0.3553815612941981,-9.991734970808029,14959.0
38.2,7.699999809265138,70.0,22.57948303222656,27.25072860717773,-79.78242512360906,40.45919169742889,294.60256776428224,-0.0559928119182586,0.0220422409474849,-0.5994643568992615,0.7981362342834473,-0.8772009379667544,5.259707729895286,0.1784031913275718,0.0078882640227675,-0.1410012245178222,0.2564505338668823,-0.9498855914175512,0.1691719356179237,-9.811641898155212,14959.0
38.4,7.599999904632567,70.0,22.551937103271484,26.33627510070801,-79.78241395845889,40.45919573144661,294.48492631530763,-0.0649318099021911,0.034502275288105,-0.59847092628479,0.7977631688117981,-0.839868552047063,5.277161456325361,0.3469291529842771,0.2269047647714615,-0.0633798241615295,-0.1758886873722076,-0.9013623261451722,0.3548013713210821,-10.002947591543196,14959.0
38.5,7.599999904632567,70.0,22.624555587768555,24.57893371582031,-79.78240843130355,40.45919766791013,294.4138623199463,-0.0647575184702873,0.047129288315773,-0.5985577702522278,0.7970657944679259,-0.8304009106379369,5.278463261076215,0.4382627957788185,0.2558466196060181,-0.1253637373447418,-0.2369349896907806,-1.0418365658819675,0.3692720606178045,-10.08558862924576,14959.0
38.7,7.599999904632567,69.0,22.300275802612305,31.43336296081543,-79.78239691242946,40.45920176998153,294.352111907959,-0.058774646371603,0.0535630397498607,-0.5982984900474548,0.7973177433013916,-0.8001982481991231,5.3488031363980895,0.5974117595024881,0.024486880749464,0.0922892391681671,0.0620380379259586,-1.178300346583128,0.0048039033589884,-10.101697708368302,14959.0
38.8,7.599999904632567,64.0,22.66337013244629,23.40207099914551,-79.78238515444882,40.45920575880763,294.26813134765627,-0.0589289031922817,0.0411391705274581,-0.5974792242050171,0.7986574172973633,-0.7393085116255956,5.419849464284717,0.6595889375100767,-0.1343483477830886,-0.0021299405489116,0.1900667399168014,-1.2819026291370392,0.1313887812383473,-10.431314610242843,14959.0
39.0,7.5,65.0,22.50310707092285,27.00422477722168,-79.78237929158183,40.45920777120029,294.2214508972168,-0.05893075466156,0.0347129330039024,-0.5971790552139282,0.7991867661476135,-0.7204164908430607,5.429620157536278,0.6596583943794083,-0.108589768409729,0.0541348159313201,0.1413717716932296,-1.3346176171302797,0.2146176468394696,-10.333869591951371,14959.0
39.1,7.5,65.0,22.515628814697266,26.73386383056641,-79.78236735541249,40.45921178348964,294.2075463256836,-0.0480405092239379,0.0285317152738571,-0.5966872572898865,0.8005263209342957,-0.6851456578800237,5.458123532984568,0.6765919153848976,0.0595640428364276,0.0810438469052314,-0.0114943785592913,-1.17175409629941,0.3205951597541571,-10.338228106498716,14959.0
39.3,7.5,65.0,22.677143096923828,23.8076114654541,-79.78236137898504,40.45921382547756,294.1626130065918,-0.0429157465696334,0.0296027846634388,-0.5969375967979431,0.8005919456481934,-0.6794312882442245,5.462896676486479,0.6036971528103569,0.0174135789275169,0.1113912761211395,-0.1370701044797897,-0.899424339607358,0.1786271574161947,-10.333129334449769,14959.0
39.42,7.5,69.0,22.52939987182617,27.25072860717773,-79.7823494647632,40.45921781757581,294.1236496887207,-0.0518368035554885,0.0291032548993825,-0.5972932577133179,0.7998167872428894,-0.7118031745483916,5.451885558302786,0.5600609933823806,-0.2583152055740356,-0.1741583496332168,0.0437428131699562,-1.2650753657519818,0.1055571346543729,-9.738625377416607,14959.0
39.6,7.5,67.0,22.49434280395508,27.71193122863769,-79.78234350740496,40.45921983003716,294.12099084472663,-0.0563833899796009,0.0232549291104078,-0.5971924066543579,0.7997758388519287,-0.7079770005243916,5.443707430486971,0.6444288468500168,-0.1848559081554412,0.0293139405548572,0.1755525469779968,-1.3076913352310655,0.0405477179400622,-9.915914125442503,14959.0
39.71,7.5,67.0,22.525644302368164,27.60855865478516,-79.78233754703339,40.45922185263272,294.1211777648926,-0.0573212914168834,0.0188922733068466,-0.5972616076469421,0.7997725009918213,-0.7137919588573459,5.445967839545507,0.6873664504458497,0.0267285518348217,-0.0275627989321947,0.2169435322284698,-1.1691667033731938,-0.0083149964734911,-10.09697432756424,14959.0
39.9,7.5,67.0,22.62080001831055,25.843265533447266,-79.78232557250084,40.45922592451625,294.0957947692871,-0.0594014599919319,0.018382104113698,-0.5977364182472229,0.7992777228355408,-0.770605623441588,5.456018810366516,0.7103321018756596,-0.0356361903250217,0.0053761582821607,0.1365474015474319,-1.0691931297630073,0.2664712486043573,-10.130604003667832,14959.0
40.01,7.5,70.0,22.55444145202637,25.859169006347656,-79.78231347172509,40.45922995709973,294.093509765625,-0.0695365592837333,0.027056872844696,-0.597075879573822,0.798707127571106,-0.7996647791067322,5.487044801438318,0.8141231099322261,0.0153242787346243,-0.0157586503773927,-0.1001788824796676,-0.965913248062134,0.3630966699868441,-9.881490397453309,14959.0
40.2,7.5,68.0,22.50060272216797,27.9266300201416,-79.78230746534467,40.45923208746123,294.1023083648682,-0.0700729861855506,0.0292287729680538,-0.5964133143424988,0.799078643321991,-0.8212257748059042,5.492418532479477,0.932330645506019,0.088117778301239,-0.0010124436812475,0.1555496603250503,-1.203596278578043,0.0571683462057262,-10.012910077571869,14959.0
40.31,7.5,68.0,22.64709281921387,23.43387794494629,-79.78229528073656,40.45923650821858,294.11901292419435,-0.0721748247742652,0.0271288678050041,-0.595849871635437,0.7993859052658081,-0.8721358159903325,5.56176724971795,0.992891935035438,-0.0214593075215816,-0.0096324766054749,-0.1031585037708282,-1.0608776582032442,0.2898754967004061,-9.977611606121064,14959.0
40.5,7.5,68.0,22.485578536987305,28.58662796020508,-79.78228910268875,40.45923851173093,294.1358738861084,-0.0710495188832283,0.025509413331747,-0.5954248309135437,0.7998566627502441,-0.8544239361274323,5.5783633513318165,0.99769818301903,0.0713874846696853,0.0274965036660432,0.0791494101285934,-1.1178679110109806,0.3023236706480384,-9.742904954552651,14959.0
40.7,7.599999904632567,67.0,22.667125701904297,22.84544563293457,-79.78227684562681,40.4592429854609,294.163240524292,-0.0629907473921775,0.0290380921214818,-0.5951562523841858,0.8006110787391663,-0.8774310425171751,5.641180916410754,1.0052603945754857,0.0729341283440589,0.0840523466467857,-0.0642542093992233,-1.0224005672335623,0.2486004764959216,-10.086225975751876,14959.0
40.8,7.599999904632567,67.0,22.551937103271484,26.344226837158203,-79.7822705101685,40.45924527827864,294.1893673858643,-0.0588735230267047,0.0294845718890428,-0.5948176383972168,0.8011595606803894,-0.8999360779538758,5.675962132747602,1.022450774743487,-0.0199604108929634,0.0196186825633049,-0.0893687084317207,-0.9910846343636514,0.2125834553316236,-10.121765352487564,14959.0
40.9,7.599999904632567,67.0,22.5206356048584,27.21096992492676,-79.78225805422962,40.4592498526978,294.24020585632326,-0.0590926222503185,0.0288589317351579,-0.5943813323974609,0.8014899492263794,-0.9195426358385532,5.707094255210147,0.9851433218257204,-0.0157193522900342,-0.0873502939939498,0.2694244980812073,-1.146385293379426,-0.1583840602822601,-9.882737023830414,14959.0
41.1,7.599999904632567,67.0,22.68340301513672,24.36423492431641,-79.78225183579478,40.45925217079947,294.26456651306154,-0.061953917145729,0.0259994529187679,-0.5939731001853943,0.8016743063926697,-0.9241644456137046,5.710951447962272,1.033301525986754,-0.0973851606249809,0.0992251560091972,0.0528679564595222,-1.251813734471798,0.1724249244108796,-10.091702477931976,14959.0
41.21,7.699999809265138,67.0,22.6859073638916,22.86930084228516,-79.78224561065875,40.459254496269935,294.2930127105713,-0.0591534003615379,0.0229212492704391,-0.593863844871521,0.8020606040954591,-0.9141157061459734,5.7096249265685,1.0794866226215527,0.0851195678114891,0.1032539755105972,0.0863269194960594,-1.3701773129403592,0.0910004181973636,-10.025924810171126,14959.0
41.4,7.699999809265138,67.0,22.83489990234375,19.951000213623047,-79.78223297693594,40.45925917857528,294.3708764038086,-0.0463501028716564,0.0265098139643669,-0.5939361453056335,0.8027383685112,-0.9255099125874848,5.747251915491372,0.9627506599628732,-0.0164123754948377,0.0753664672374725,-0.2610565423965454,-0.9294061571359636,0.3941763387992978,-9.567462757229803,14959.0
41.5,7.699999809265138,67.0,22.728477478027344,22.408098220825195,-79.78222025785169,40.45926377010233,294.4520169219971,-0.0493041388690471,0.0316713042557239,-0.591889500617981,0.8038861155509949,-0.9085513605001764,5.754403885381098,0.8243128394244567,-0.0522505231201648,-0.1576766520738601,-0.1267043054103851,-1.2708914449810982,0.3500842762738466,-9.003202353715901,14959.0
41.71,7.800000190734862,67.0,22.614540100097656,24.165441513061523,-79.78221402102228,40.459266085576,294.46761521911617,-0.0537406578660011,0.0306359715759754,-0.5906475186347961,0.8045551776885986,-0.8780566023747969,5.760640283042336,0.8149666622799412,-0.0738778486847877,0.0162403769791126,-0.1037052199244499,-1.1168741036206484,0.5074226899445057,-9.31946129143238,14959.0
41.8,7.800000190734862,66.0,22.81236457824707,20.14979553222656,-79.7822074599722,40.45926841228315,294.5242939910889,-0.0565939024090766,0.031204167753458,-0.5895574688911438,0.8051369786262512,-0.8400878906819618,5.770962940539942,0.8582036801083235,-0.0200461745262146,-0.0749923661351203,-0.1942807286977768,-1.0183153369277715,0.5626660139858723,-9.38661422431469,14959.0
42.0,7.800000190734862,65.0,22.74350166320801,21.97075080871582,-79.78219457835034,40.45927299101364,294.5871430358887,-0.0571124255657196,0.0325521826744079,-0.5893847942352295,0.8051733970642091,-0.8120360972208868,5.799923488449397,0.8156250970495615,-0.1328110843896865,-0.0920954197645187,-0.1177128702402114,-0.9689346505701544,0.144940507505089,-9.059910989999771,14959.0
42.2,7.800000190734862,65.0,22.693418502807607,23.89508056640625,-79.78218199207558,40.45927759094005,294.58379373168947,-0.0609066560864448,0.0292069446295499,-0.5911847949028015,0.8037025928497314,-0.8285752810268978,5.819465822021074,0.7319824724763038,-0.0515794828534126,0.0859575867652893,-0.1593859493732452,-1.18548452809453,0.4568351017311216,-9.246227838993072,14959.0
42.3,7.900000095367432,65.0,22.708444595336918,22.821590423583984,-79.78217530100441,40.45927985711688,294.622152420044,-0.0591971799731254,0.0259438958019018,-0.5925768613815308,0.8029167056083679,-0.8522640020790155,5.833513915855862,0.7375800289652146,-0.096947468817234,0.0714895576238632,-0.2576448023319244,-1.2026322919875383,0.5735447221621871,-9.264867593050004,14959.0
42.4,7.900000095367432,64.0,22.672134399414062,23.410022735595703,-79.78216227411514,40.45928442009643,294.6655960998536,-0.0543857961893081,0.0191218331456184,-0.5937409400939941,0.8025884628295898,-0.8898596503936806,5.851200434485588,0.6442913382960475,-0.0624544434249401,0.0411407761275768,-0.0484493896365165,-1.3273388569056987,0.3312832852452994,-9.218682190775873,14959.0
42.6,7.900000095367432,67.0,22.75226593017578,22.169546127319336,-79.78215595214914,40.45928674395228,294.6563302001953,-0.052026193588972,0.0193170178681612,-0.5938054919242859,0.8026925325393677,-0.8993282094468975,5.855800782219451,0.5762740254482015,0.0161227192729711,-0.0856730937957763,-0.0966712087392807,-1.0211409308016302,0.1889553319662808,-9.507100195884703,14959.0
42.7,8.0,67.0,22.69216728210449,22.495569229125977,-79.78214963863834,40.45928907249733,294.6445008239746,-0.051998134702444,0.0230747796595096,-0.5938020944595337,0.8025975823402405,-0.8949365197213571,5.853270151780957,0.5182444436400808,0.0367575623095035,0.0166039895266294,0.1410274356603622,-1.2172013606876135,0.194337200615555,-9.51509509384632,14959.0
42.9,8.0,67.0,22.688411712646484,22.209304809570312,-79.78213658714805,40.45929358657512,294.6803532562256,-0.0472244769334793,0.0345324128866195,-0.5934118032455444,0.8027701377868652,-0.8688316547275767,5.852412525188544,0.5542191395041204,0.0148428538814187,-0.0304282922297716,-0.094994381070137,-0.9980316381901504,0.2346084366180003,-9.601497645378112,14959.0
43.0,8.0,67.0,22.65961456298828,23.24303436279297,-79.78212348519644,40.45929794000021,294.7564621887207,-0.0511718764901161,0.0369257181882858,-0.5916645526885986,0.8037108182907104,-0.7926353136720188,5.859218862273256,0.6816615670613594,0.0177589394152164,0.0173605848103761,-0.0787670016288757,-1.03393573500216,0.1311295851320028,-9.702275576591491,14959.0
43.2,8.0,66.0,22.66337013244629,22.41604995727539,-79.78211712167406,40.45930018425972,294.7522412261963,-0.0521412529051303,0.0353337042033672,-0.5904217362403871,0.8046334981918335,-0.769895414162412,5.858242671773131,0.6905627287639643,-0.0620655119419097,-0.0813625231385231,-0.0689828917384147,-1.2708316572010518,0.2938285068422556,-9.572628772258758,14959.0
43.3,8.0,67.0,22.674638748168945,23.56905746459961,-79.78210393755417,40.45930462808523,294.7838555297852,-0.0537878051400184,0.0330471098423004,-0.5888391137123108,0.8057811260223389,-0.6949847631969607,5.896650244727358,0.7029574614591106,-0.0164652839303016,-0.017881890758872,-0.1402203142642974,-1.1143964190781117,0.0209920500847511,-9.57161252617836,14959.0
43.5,8.100000381469728,67.0,22.61579132080078,24.714113235473643,-79.78209722997741,40.45930681196901,294.79615411376955,-0.0550845451653003,0.0313934236764907,-0.5887457728385925,0.8058279752731323,-0.6762184274471684,5.9162197667250815,0.69529500428508,-0.0353685617446899,0.0465898402035236,-0.2493872046470642,-1.0579346814751625,0.3872670860588551,-9.546449033617971,14959.0
43.61,8.100000381469728,66.0,22.728477478027344,21.80376434326172,-79.78209078352216,40.4593090298109,294.79026040649416,-0.057398322969675,0.0274231974035501,-0.5886433124542236,0.8058861494064331,-0.6734441570967789,5.91845777328766,0.7033948835373012,-0.0225704126060009,0.0207156930118799,0.2817383706569672,-1.098282516002655,-0.1230659275688231,-9.725713555812836,14959.0
43.8,8.0,67.0,22.65585708618164,24.01435661315918,-79.78207776508808,40.45931343249848,294.78509912109377,-0.0543979667127132,0.024176986888051,-0.5891858339309692,0.8058017492294312,-0.6891154693522087,5.917912955596224,0.6976943400294096,-0.040962990373373,0.056231390684843,-0.1057153567671775,-0.9983584975451232,0.3247067756205797,-9.71741986513138,14959.0
43.9,8.0,68.0,22.6959228515625,22.0025577545166,-79.78206470154464,40.45931779148879,294.77223596191413,-0.0520632304251194,0.0272038243710994,-0.5898981690406799,0.8053382039070129,-0.6961290327569555,5.934975324766276,0.6315813743270922,-0.0096980519592762,0.0192693918943405,0.1107791140675544,-1.0402309204638005,-0.0237927590310573,-9.799466241002085,14959.0
44.11,8.0,68.0,22.63457298278809,23.82351493835449,-79.78205824276642,40.459320017334974,294.7651215515137,-0.0534679815173149,0.0278467126190662,-0.590207576751709,0.804997444152832,-0.6988021846672272,5.937489474073615,0.6288897935816369,0.0882739275693893,0.0167060662060976,-0.0640977472066879,-1.043702485486865,0.2314535896852612,-9.593185828328131,14959.0
44.2,8.0,68.0,22.62956428527832,24.53122329711914,-79.78205178164953,40.4593222466852,294.7566948852538,-0.0554115734994411,0.028229996562004,-0.5901942253112793,0.8048624396324158,-0.7047054161944555,5.939585164396631,0.6363429711685435,-0.0143272224813699,0.0735094621777534,-0.2376421540975571,-1.0922413189709188,0.5820283377170563,-9.663005676269533,14959.0
44.4,8.0,67.0,22.61078453063965,25.42182159423828,-79.78203889548524,40.459326654645984,294.73292741394044,-0.0562883503735065,0.0276378318667411,-0.5905158519744873,0.8045861124992371,-0.7207201802021372,5.929431512113191,0.6629713860186368,-0.0720799341797828,0.083092525601387,0.1484166979789734,-1.13655546605587,0.2513358770683408,-9.715698444843293,14959.0
44.51,8.0,67.0,22.561954498291016,25.906879425048828,-79.78202596825929,40.45933105010221,294.6975575408936,-0.0588166043162345,0.0304564461112022,-0.5906252861022949,0.8042231202125549,-0.7156868667364429,5.9426989370457175,0.6351409664095802,0.0539642125368118,0.0236479267477989,0.0716806873679161,-1.1841879811137914,0.1526342555880546,-9.632180324792865,14959.0
44.7,7.900000095367432,68.0,22.59575843811035,24.91290855407715,-79.78201949922692,40.45933329425865,294.6841774902344,-0.0598415955901145,0.0305173974484205,-0.5907406806945801,0.8040605187416077,-0.7395446595636329,5.946832008235406,0.6590594550941763,0.0246607586741447,0.0274348873645067,0.0900558084249496,-1.2474423560500143,0.0812072638794779,-9.609089670181277,14959.0
44.81,7.900000095367432,67.0,22.603271484375,24.403993606567383,-79.78200649100205,40.4593377952994,294.64237985229494,-0.0575763247907161,0.0252264775335788,-0.5907171964645386,0.8044264912605286,-0.7555116808378306,5.973339225080028,0.6375682455558269,-0.0508390553295612,0.000136232949444,0.0188139304518699,-1.2192380920797588,0.2039837360009551,-9.815801607370377,14959.0
45.0,7.900000095367432,69.0,22.55569267272949,26.81338119506836,-79.78199989172369,40.45933996106187,294.61071786499025,-0.0569984726607799,0.0245684627443552,-0.5908910632133484,0.8043602705001831,-0.7466492505865318,5.989125660439751,0.5897258892232158,0.0099904090166091,0.0459757708013057,-0.0642668232321739,-1.1227408343553544,0.1794226893782616,-9.699094106554986,14959.0
45.2,7.900000095367432,69.0,22.588247299194336,24.9924259185791,-79.78198690067903,40.45934450870271,294.5760422668457,-0.0552270896732807,0.0278739500790834,-0.591217577457428,0.8041360378265381,-0.7622632389085715,5.979813366363393,0.5894014233916843,0.1767120510339737,0.0038966198917478,0.1298314332962036,-1.3930140522122385,0.2120103916525841,-9.76532025575638,14959.0
45.3,7.900000095367432,69.0,22.53315734863281,25.00832939147949,-79.78197396909057,40.45934896104782,294.52613458251955,-0.0502168573439121,0.0303255692124366,-0.5914490222930908,0.8042056560516357,-0.7699198033513722,5.965144585033006,0.5804893710789445,-0.0543176643550396,0.0371170751750469,0.0270310752093792,-1.3112294854223732,0.2750073794648051,-9.609683747291566,14959.0
45.41,8.0,70.0,22.52689552307129,26.54302215576172,-79.78196750914302,40.45935119604914,294.4869881591797,-0.0478940978646278,0.0325705707073211,-0.5914246439933777,0.8042774796485901,-0.7455292380528873,5.963959085651532,0.5540482611064611,0.1085526347160339,-0.0100604072213172,0.2139385640621185,-1.2404112254083155,-0.098219153098762,-9.954060190916062,14959.0
45.6,8.0,69.0,22.59450721740723,23.67243003845215,-79.78196104110006,40.45935344434515,294.47419557189943,-0.0462436154484748,0.0339861735701561,-0.5909477472305298,0.8046659231185913,-0.7380510292178829,5.953350903565176,0.5899674251227272,0.0354406014084816,-0.0088584711775183,-0.0764932930469513,-1.2491576367616657,0.0240549152903258,-10.01134068489075,14959.0
45.7,8.0,69.0,22.49058723449707,27.15530776977539,-79.78194817373509,40.459357924447616,294.4298459014893,-0.0533202067017555,0.0245644059032201,-0.5898312926292419,0.8053898215293884,-0.7230081363281401,5.930732902792716,0.6006874208283096,-0.1343249082565307,0.0119373425841331,0.1489366739988327,-1.2151788087934257,-0.012040915377438,-9.976366149187088,14959.0
45.9,8.100000381469728,69.0,22.54692840576172,25.7876033782959,-79.78194173474563,40.45936016199109,294.4227219543457,-0.0557092353701591,0.0207581613212823,-0.5893864035606384,0.8056608438491821,-0.7110625276150772,5.9252586397643245,0.638919735371593,-0.0947580561041832,0.0541005693376064,-0.2003511041402816,-1.0087788936495778,0.4576498381420971,-9.942463992834092,14959.0
46.0,8.100000381469728,69.0,22.52689552307129,25.914831161499023,-79.78193542879053,40.45936239424415,294.38141069030763,-0.0546291396021842,0.0225416794419288,-0.5894027948379517,0.8056749105453491,-0.7083042348525456,5.900301022150831,0.6091131147723057,0.115573301911354,0.0262498166412115,0.0922252163290977,-1.1026756022125483,-0.0455412766523659,-9.894068927764891,14959.0
46.2,8.100000381469728,70.0,22.51813125610352,25.159412384033203,-79.78192262025212,40.45936686232301,294.36643228149416,-0.0523334220051765,0.0319147631525993,-0.5893260836601257,0.8055666089057922,-0.7193737212772908,5.90200919341128,0.6320482371303267,-0.0342803299427032,-0.1778087019920349,0.1503258347511291,-1.2879142977297309,0.0226771102845668,-9.878587839603425,14959.0
46.3,8.100000381469728,70.0,22.60702705383301,24.05411529541016,-79.78190974901935,40.45937116439009,294.3305588684082,-0.0586593113839626,0.0427875630557537,-0.5882590413093567,0.8054065704345703,-0.679880369481104,5.9020637198895205,0.7811701758035563,-0.1129683703184127,-0.1225531548261642,0.0101393777877092,-1.4915029446780683,0.1567766058817506,-9.960531889200212,14959.0
46.5,8.199999809265138,69.0,22.670881271362305,24.22905540466309,-79.78190348399099,40.459373389377454,294.2954770050049,-0.0592535138130188,0.0405198670923709,-0.58812016248703,0.8055817484855652,-0.6831835195023366,5.888435270045724,0.8413693975582223,-0.1417178362607956,0.0063934009522199,-0.1239456608891487,-1.1686509058624506,0.259621345102787,-9.987118009328842,14959.0
46.7,8.199999809265138,66.0,22.62705993652344,24.34037971496582,-79.78189054934427,40.459377790192775,294.28934869384767,-0.0578148774802684,0.0417027734220027,-0.5885439515113831,0.8053163290023804,-0.636474100991819,5.923980480240992,0.8253858610173981,0.0911870300769806,0.1335601359605789,0.187881663441658,-1.1881828719377518,0.1258340268675238,-9.782675961256029,14959.0
46.8,8.199999809265138,67.0,22.65585708618164,23.147613525390625,-79.78187760255446,40.45938207286747,294.2616978607178,-0.051045823842287,0.0370417051017284,-0.5898044109344482,0.8050795793533325,-0.6347881485561071,5.943681993854001,0.721359877683609,-0.0760990008711814,0.0227917004376649,0.1880426704883575,-1.222649211511016,0.3189904279634357,-9.560090003013611,14959.0
46.9,8.199999809265138,67.0,22.55945014953613,24.96061897277832,-79.78187110851627,40.45938424996649,294.24836549377443,-0.0519194118678569,0.0339066125452518,-0.590018093585968,0.8050051927566528,-0.6360473581019336,5.954085889450381,0.6761345581554998,-0.0995631068944931,0.0046555665321648,-0.0744218081235885,-1.084557785242796,0.2618820979446173,-9.688751551508904,14959.0
47.11,8.100000381469728,67.0,22.59450721740723,23.82351493835449,-79.78186460044606,40.459386420401,294.24065789794923,-0.0524888597428798,0.0311055406928062,-0.5898078680038452,0.8052354454994202,-0.6333888217093596,5.957040618410907,0.6657815402093583,-0.0554162450134754,0.041903730481863,0.0309252720326185,-1.195904193297029,0.0483766874531284,-9.683432339429856,14959.0
47.2,8.100000381469728,69.0,22.624555587768555,24.316524505615234,-79.78185152907709,40.45939064357597,294.2124215087892,-0.0539296567440032,0.025034612044692,-0.5888163447380066,0.8060770630836487,-0.5962875660506836,5.957842038279043,0.6215216517464475,0.0059444825164973,0.0883434861898422,-0.0575999729335308,-1.1105129177123312,-0.0769922253862023,-9.671688206791876,14959.0
47.4,8.100000381469728,69.0,22.624555587768555,24.87314796447754,-79.78184502703346,40.45939280294875,294.2016869506836,-0.0529644899070262,0.0238978397101163,-0.5884730815887451,0.8064262270927429,-0.603230311888073,5.956322343399093,0.6026122294597218,0.0312022566795349,0.0978629440069198,0.0851608738303184,-1.040869801864028,0.2859567475877702,-9.659486821889878,14959.0
