time,wind_speed,wind_angle,battery_voltage,battery_current,position_x,position_y,position_z,orientation_x,orientation_y,orientation_z,orientation_w,velocity_x,velocity_y,velocity_z,angular_x,angular_y,angular_z,linear_acceleration_x,linear_acceleration_y,linear_acceleration_z,node_ids
0.0,0.4000000059604645,307.0,23.52853775024414,-0.0636141896247863,-79.78277182359905,40.45906384381824,269.94104319238664,7.450426346622407e-05,-0.0048417109064757,-0.9842939376831056,0.1764711141586303,-0.0494553118152136,-0.0195865107175414,-0.0072029685801366,-0.0041488367132842,-0.001869369414635,-0.0013105705147609,0.0773136760666966,-0.028881545132026,-9.803579172492029,14934.0
0.1,0.4000000059604645,307.0,23.53104019165039,-0.0795177370309829,-79.78277196633171,40.45906392747229,269.9081223549843,0.0001310629741055,-0.0047972882166504,-0.9842973351478576,0.1764535009860992,-0.0429374721827598,-0.0167028695692363,-0.0087116072239006,-0.0041172858327627,4.154547059442848e-05,-0.003640933195129,0.0832897040527314,-0.0506948206666857,-9.806557159423829,14934.0
0.3,0.4000000059604645,304.0,23.527284622192383,-0.0397588685154914,-79.7827719274745,40.45906395429675,269.9072209390402,0.0001416045124642,-0.0047860136255621,-0.9843005537986756,0.1764357686042785,-0.0471250956555884,-0.018081316659989,-0.0088867569439095,-0.0019084545783698,-0.0028036360163241,-0.0004893468576483,0.0779592086747288,-0.030358403341379,-9.803427144885063,14934.0
0.4,0.4000000059604645,303.0,23.527284622192383,-0.0795177370309829,-79.78277207482121,40.45906406462311,269.87249950492384,0.0001588376180734,-0.0047741355374455,-0.9843050241470336,0.1764114201068878,-0.0427009639246682,-0.0196273830907979,-0.0132401861602741,-0.0050658611580729,-0.0023345595691353,-0.0038469573482871,0.0830939776450395,-0.0509020039625465,-9.806610369086265,14934.0
0.6,0.4000000059604645,303.0,23.529788970947266,-0.0795177370309829,-79.78277228616516,40.45906410990504,269.83924884521963,0.0002328129048692,-0.0047555407509207,-0.9843092560768129,0.1763876974582672,-0.026872584518778,-0.0157794864375022,-0.0169389261644716,-0.0002468730381224,-0.0002449362364131,-0.0008670732495374,0.0781775747705251,-0.0295961662475019,-9.80312601327896,14934.0
0.7,0.4000000059604645,300.0,23.527284622192383,-0.0954212844371795,-79.78277226042785,40.45906413272897,269.837527507782,0.0002227248478448,-0.0047714398242533,-0.9843131303787231,0.1763661503791809,-0.0311240505916157,-0.0170984747652525,-0.0171569710468681,0.007559111341834,0.0040118433535099,0.003062549047172,0.0822432077676057,-0.0497467631706968,-9.805280712246896,14934.0
0.9,0.4000000059604645,298.0,23.52853775024414,-0.0874695107340812,-79.78277236045304,40.45906424969621,269.803042853117,0.0002667297667358,-0.0047470815479755,-0.9843189716339112,0.1763339787721634,-0.0336001408965299,-0.0189257348553826,-0.0211198829019169,-0.0017825320828706,-0.0029868390411138,-0.0035743622574955,0.0779842512030154,-0.0423799521010369,-9.804348081350328,14934.0
1.0,0.5,296.0,23.526033401489247,-0.0795177370309829,-79.7827724821981,40.459064334482704,269.7699304761887,0.0002683489292394,-0.0047384221106767,-0.9843264818191528,0.1762919574975967,-0.0294526345083958,-0.0157050506632779,-0.0217960006788663,-0.0047019626945257,0.0020206593908369,-0.003187773283571,0.0784954805765301,-0.042759998277761,-9.80468605041504,14934.0
1.2,0.5,295.0,23.5247802734375,-0.1033730581402778,-79.7827724542233,40.45906435807328,269.7677179517746,0.0002702177152968,-0.0047304411418735,-0.9843317270278932,0.1762629300355911,-0.0340125316349462,-0.0172795262184311,-0.021960428257427,0.0008235474233515,-0.0021135935094207,-0.0003182328073307,0.0773573931399733,-0.0283919755811803,-9.803839958310128,14934.0
1.3,0.5,297.0,23.53104019165039,-0.0795177370309829,-79.78277258353951,40.45906447147477,269.732392752409,0.0003104820498265,-0.0047226538881659,-0.9843338131904602,0.1762518882751464,-0.0312679026656507,-0.0197121281323732,-0.0253330906811751,-0.0099389431998133,-0.0028932276181876,-0.0022306921891868,0.0767526996787637,-0.0403903364762663,-9.803959241509435,14934.0
1.5,0.5,296.0,23.5247802734375,0.0079517737030982,-79.78277255522602,40.45906449892699,269.7298253121376,0.0003207391127943,-0.0047293086536228,-0.9843393564224244,0.1762200742959976,-0.0356618336443023,-0.021217077012903,-0.0254719493924289,0.0008932575583457,-0.0014804064994677,0.0040782610885798,0.0779312059935182,-0.0308623488200828,-9.803752834796908,14934.0
1.6,0.5,297.0,23.52352905273437,0.0079517737030982,-79.78277274173985,40.45906457631721,269.6971138956547,0.0003805190499406,-0.0047173728235065,-0.9843407869338988,0.1762125343084335,-0.0231763751312655,-0.0217108959885403,-0.0283922074352675,0.0062932642176747,0.0042148442007601,0.0045547224581241,0.0813765955902636,-0.0511424295930191,-9.805229256749154,14934.0
1.8,0.5,297.0,23.51852035522461,-0.0397588685154914,-79.7827726998258,40.45906463090899,269.6913960220814,0.0003865640610456,-0.0047110468149185,-0.9843456745147704,0.1761853396892547,-0.0330853403761518,-0.0240647255599393,-0.0284024746665933,0.0002990184584632,-0.0034532751888036,-0.0010434729047119,0.0779326038435101,-0.028791717281565,-9.804162724614145,14934.0
1.9,0.5,300.0,23.52352905273437,-0.0397588685154914,-79.78277281958705,40.45906473759523,269.658037001133,0.0003827772743534,-0.0047289384528994,-0.98434978723526,0.1761621236801147,-0.0320283181527659,-0.0242609877223803,-0.0299213550128075,-0.0046060150489211,-0.0011821184307336,0.0002859629457816,0.0833303513377904,-0.0489174452656879,-9.806608030200003,14934.0
2.1,0.5,302.0,23.52102470397949,0.0715659633278846,-79.78277298510766,40.45906481232336,269.6278158667088,0.000449341838248,-0.0047100335359573,-0.9843522906303406,0.1761485189199447,-0.0219931955653691,-0.023965856088011,-0.0313136104188224,-0.0048947017639875,-0.0003229819412808,-0.0059434114955365,0.0775833057984709,-0.0277968181064352,-9.803006145358086,14934.0
2.2,0.5,303.0,23.5147647857666,-0.0318070948123931,-79.78277295135295,40.459064868952176,269.621463889122,0.0004563069378491,-0.0047286413609981,-0.9843541383743286,0.1761378049850464,-0.0307728490847112,-0.0263261078091812,-0.0316313305625043,-0.0044265766628086,-0.0024355843197554,0.0021954022813588,0.0820934642292559,-0.0487585882935673,-9.805446773171424,14934.0
2.4,0.5,305.0,23.51226043701172,0.1749390214681625,-79.78277313448949,40.45906491582549,269.5908580365181,0.0004860914777964,-0.0047322744503617,-0.9843600392341614,0.1761043518781662,-0.0195601995198129,-0.023207458968969,-0.0327887700756533,-0.0065680225379765,-0.0015348950400948,-0.0051865270361304,0.0773045489285141,-0.0252910258155316,-9.803251143693924,14934.0
2.5,0.5,308.0,23.522275924682607,-0.0636141896247863,-79.78277319070963,40.459065019697725,269.56134169721605,0.0004825369396712,-0.0047260797582566,-0.9843619465827942,0.1760938465595245,-0.0269353420593882,-0.0211768772098168,-0.0281698456627583,0.0003403505252208,-0.0015820576809346,0.0041530956514179,0.0814017660263925,-0.0464320314349606,-9.804882516860964,14934.0
2.7,0.5,306.0,23.52352905273437,-0.0159035474061965,-79.78277316737211,40.45906504705548,269.5584948601723,0.0004750288499053,-0.0047168415039777,-0.9843640327453612,0.1760824620723724,-0.0320592988676735,-0.0224728058322331,-0.028303226310073,-0.008840262889862,-0.0011188273783773,-0.0094061149284243,0.0775658463779837,-0.027378753607627,-9.803032457828524,14934.0
2.81,0.5,308.0,23.51601600646973,0.0,-79.78277330555039,40.45906515691725,269.52794104242327,0.0004877054016105,-0.0046887015923857,-0.9843704700469972,0.176047146320343,-0.027359281674775,-0.0256722308966496,-0.0279492234545852,0.0018672266742214,-0.0025146815460175,0.0061253658495843,0.0799623733945191,-0.0415935061639174,-9.805446773171424,14934.0
3.0,0.5,308.0,23.522275924682607,0.0159035474061965,-79.78277328326345,40.459065188240906,269.5251109542847,0.0004728590138256,-0.0046787825413048,-0.9843727946281432,0.1760345548391342,-0.0327573314696149,-0.0268237028509096,-0.0280521270969182,-0.009096959605813,-0.0023290633689612,-0.0095748640596866,0.0768927587661892,-0.0325617209938354,-9.803293243646625,14934.0
3.1,0.4000000059604645,309.0,23.52102470397949,-0.0079517737030982,-79.78277335700393,40.45906520348541,269.499667757988,0.0004732693487312,-0.0046289730817079,-0.984377920627594,0.1760072857141494,-0.0300984145963079,-0.0137075105210166,-0.0221966263923985,0.005182777531445,0.0001747476053424,0.0025036439765244,0.0788138523325324,-0.0367451731022447,-9.804341649413107,14934.0
3.3,0.4000000059604645,309.0,23.51977348327637,0.0159035474061965,-79.78277333021886,40.45906522390811,269.4974277558327,0.0004958462086506,-0.0046467678621411,-0.984379768371582,0.175996333360672,-0.0351850169088852,-0.014605885384183,-0.022305725036161,-0.0071884533390402,-0.0037610870786011,-0.0050471085123717,0.07709018452093,-0.0352840978070162,-9.803407264351844,14934.0
3.4,0.4000000059604645,310.0,23.5247802734375,0.0,-79.78277345256262,40.4590653112876,269.469835454464,0.0005021612159907,-0.0046276357024908,-0.9843887686729432,0.1759466528892517,-0.0307645384328691,-0.0167111261733483,-0.0209648657314505,0.0065744146704673,0.0024898026604205,0.0045995847322046,0.0785870900005102,-0.0337792072235606,-9.803505497574806,14934.0
3.6,0.4000000059604645,309.0,23.52102470397949,0.0238553211092948,-79.78277360117215,40.45906535878088,269.4434742870331,0.000553588499315,-0.004619977902621,-0.9843925833702089,0.1759253591299057,-0.0225836426211072,-0.01466855737741,-0.0207945128794579,-0.0055324248969554,-0.0035068199504166,-0.0088122282177209,0.0772003314457833,-0.0350865943939425,-9.80353356420994,14934.0
3.7,0.4000000059604645,310.0,23.52352905273437,0.0079517737030982,-79.78277355796229,40.45906540064024,269.4392533245087,0.0005509592592716,-0.0045965984463691,-0.9843997359275818,0.1758858263492584,-0.0302021556959261,-0.0169375605001122,-0.0210750188716244,0.0068318038247525,0.0006181318894959,0.0041445214301347,0.0785343919694423,-0.036034334404394,-9.80474861562252,14934.0
3.9,0.4000000059604645,309.0,23.52102470397949,0.0159035474061965,-79.7827736694328,40.45906545150928,269.4163266363144,0.0005435757921077,-0.0045868852175772,-0.984402358531952,0.1758711785078048,-0.0258421052256582,-0.0155621426496395,-0.018306604198235,-0.0081642810255289,-0.0037416347768157,-0.0060845399275422,0.0775108185969293,-0.030013847022783,-9.803352885246277,14934.0
4.0,0.4000000059604645,309.0,23.513511657714844,0.0,-79.78277376668434,40.4590655261362,269.39101087474825,0.0005704009672626,-0.004576691891998,-0.9844056963920592,0.1758526563644409,-0.022595727509586,-0.0152518071573425,-0.0164178770105556,0.0014768344117328,0.0002628519432619,0.0040049413219094,0.0803426068648696,-0.0417762270849198,-9.804613544940947,14934.0
4.2,0.4000000059604645,309.0,23.5247802734375,-0.0238553211092948,-79.78277374569394,40.45906554710829,269.3893478455544,0.000571317563299,-0.0045962585136294,-0.9844092130661012,0.1758328825235366,-0.0275616689917843,-0.016260489924581,-0.0164720326833271,-0.0062120831571519,-0.0006625661044381,-0.0074380151927471,0.0790106111392378,-0.0272354442905634,-9.803542335033418,14934.0
4.31,0.4000000059604645,308.0,23.52352905273437,0.0238553211092948,-79.78277372280337,40.459065568938655,269.3876741471291,0.0005766261019743,-0.0045936950482428,-0.9844130873680116,0.1758110076189041,-0.0303294092292692,-0.017515015010951,-0.0167407578064378,0.0106066511943936,0.003238997189328,0.0033118003048002,0.080746430195868,-0.0452281080046668,-9.80631099164486,14934.0
4.5,0.4000000059604645,309.0,23.522275924682607,0.0238553211092948,-79.78277380873962,40.45906563367807,269.36373370313646,0.0005780914216302,-0.0046012452803552,-0.9844200015068054,0.1757721155881881,-0.0300909283159188,-0.0150766331959345,-0.0138730149821753,-0.0042009809985756,-0.0036177127622067,-0.0047532180324196,0.0770096665341407,-0.0262047309195622,-9.8041668176651,14934.0
4.6,0.4000000059604645,309.0,23.5247802734375,-0.0397588685154914,-79.78277393731236,40.45906572799608,269.33666365766527,0.000610186252743,-0.0046021370217204,-0.984427273273468,0.175731286406517,-0.0251083418604174,-0.0187010343942258,-0.01579346593039,-0.0073272753506898,-0.0016847947845235,0.0013145677512511,0.08105572049506,-0.0462591183045879,-9.805073720812796,14934.0
4.8,0.4000000059604645,308.0,23.52853775024414,-0.0795177370309829,-79.78277391766837,40.45906575153041,269.3350572528839,0.0006374772056005,-0.0046019027940928,-0.9844304323196412,0.175713375210762,-0.0291038797321978,-0.0199039845612858,-0.0159685070216949,-0.0035066588316112,-0.0011765627423301,-0.0030941567383706,0.0770300038810819,-0.0275542180426418,-9.802643617987632,14934.0
4.9,0.4000000059604645,308.0,23.527284622192383,-0.0795177370309829,-79.78277397872397,40.45906582127116,269.31049703979494,0.0006216435576789,-0.0045927753672003,-0.9844360947608948,0.1756821423768997,-0.0305847624436557,-0.0174326170165583,-0.0164679299850334,-0.0085204504430294,-0.0023597022518515,-0.0047092186287045,0.0830429698247462,-0.0496153926802799,-9.80609698355198,14934.0
5.1,0.4000000059604645,308.0,23.526033401489247,-0.0795177370309829,-79.78277409486056,40.459065860699226,269.2877812924385,0.0006691626622341,-0.0045584226027131,-0.9844408631324768,0.1756561994552612,-0.020942143900054,-0.0148176237790202,-0.0172053046333551,0.0035181548446416,0.0027699144557118,-0.0012557806912809,0.077797350436449,-0.0341863310337066,-9.804168571829797,14934.0
5.2,0.4000000059604645,309.0,23.5247802734375,-0.0954212844371795,-79.78277405488814,40.459065901383326,269.2842794003487,0.000676562602166,-0.0045466627925634,-0.9844492077827454,0.1756096184253692,-0.0297247388989519,-0.0166392364507231,-0.0174177437187774,-0.0066966130398213,-0.0002920487313531,-0.0090385563671588,0.0820018182601779,-0.0504183204565197,-9.806385251283649,14934.0
5.4,0.4000000059604645,309.0,23.526033401489247,-0.0874695107340812,-79.78277418549384,40.45906596005939,269.2623427453041,0.0006891724769957,-0.0045542428269982,-0.9844528436660768,0.1755890101194381,-0.0201536499109411,-0.0188617839206738,-0.0178662594008976,0.0076561118476092,0.0003231697482988,0.0044819102622568,0.0811174817103892,-0.0453472404554486,-9.805381284356118,14934.0
5.5,0.4000000059604645,310.0,23.529788970947266,-0.0636141896247863,-79.78277422961375,40.4590660073444,269.241949552536,0.0006908423965796,-0.0045305578969419,-0.9844590425491332,0.1755547523498535,-0.0233945805801316,-0.013037004861472,-0.0137912392663177,-0.0015872432850301,0.0007520541548728,-0.0054253037087619,0.078612497979775,-0.0475513666681945,-9.804851526618004,14934.0
5.7,0.4000000059604645,309.0,23.526033401489247,-0.0874695107340812,-79.78277420725092,40.45906602654838,269.24054514789583,0.0006873587262816,-0.0045235347934067,-0.9844635128974916,0.1755297482013702,-0.0265520683445908,-0.0141659401977522,-0.0141038534245822,0.0081517370417714,0.0067613977007567,0.0026680533774197,0.0828230779711157,-0.0507266240380704,-9.805405257940292,14934.0
5.8,0.4000000059604645,309.0,23.527284622192383,-0.0715659633278846,-79.78277427314757,40.45906610037312,269.2188156785965,0.0007338569266721,-0.0045381225645542,-0.9844696521759032,0.1754949539899826,-0.0265039202122436,-0.0164271081343154,-0.0149863157119129,0.0022720242850482,0.001354442210868,0.0027439193800091,0.0778380251303315,-0.0381672593462281,-9.805008816719056,14934.0
6.0,0.4000000059604645,309.0,23.5247802734375,-0.0715659633278846,-79.78277424802656,40.4590661234292,269.21729802513124,0.0007198813837021,-0.0045350976288318,-0.9844703674316406,0.1754907667636871,-0.0305833676613575,-0.0173216960517218,-0.0151356905695519,0.0014563241275027,0.0004941578954458,0.0047595934011042,0.081652785167098,-0.051352911083959,-9.806380573511122,14934.0
6.1,0.4000000059604645,310.0,23.527284622192383,-0.0795177370309829,-79.7827743751355,40.45906612075609,269.19807975912096,0.0007685463642701,-0.0045206248760223,-0.9844767451286316,0.1754554063081741,-0.0179543326020795,-0.0100855031334829,-0.0129267645050073,0.0096668926998972,0.0042662443593144,0.0042506102472543,0.0769895027764141,-0.0288066185452044,-9.803133029937744,14934.0
6.3,0.4000000059604645,312.0,23.529788970947266,-0.0715659633278846,-79.78277435898127,40.45906613466699,269.1967744174004,0.0007870490662753,-0.0045182113535702,-0.9844772219657898,0.175452321767807,-0.0224235001879004,-0.0107812912028988,-0.013016721374831,-0.0037774674128741,-0.0023093766067177,0.0038420245982706,0.0793527280725538,-0.0473680381849408,-9.80570580482483,14934.0
6.4,0.4000000059604645,312.0,23.529788970947266,-0.0795177370309829,-79.78277431336173,40.45906616698663,269.1820124330521,0.0007635185611434,-0.0044957301579415,-0.9844816327095032,0.1754286587238311,-0.0327084252551247,-0.0043748646858601,-0.0064964415288436,0.0057652671821415,-0.0005097637185826,0.0026956007350236,0.0774046642240137,-0.0265850648889318,-9.803210213184355,14934.0
6.6,0.4000000059604645,312.0,23.52352905273437,-0.0795177370309829,-79.78277439482656,40.45906619361465,269.1679291071892,0.0008010204182937,-0.0044822790659964,-0.98448246717453,0.1754238754510879,-0.0292281909354031,-0.0030734023496133,4.274145874124301e-05,-0.0071557178162038,-0.0025099106132984,-0.0024596522562205,0.0779402143601328,-0.0395748600270599,-9.804400121569632,14934.0
6.7,0.4000000059604645,310.0,23.52352905273437,-0.0874695107340812,-79.78277432767344,40.459066220125386,269.1678999605179,0.00079383054981,-0.0044730245135724,-0.984486997127533,0.175399050116539,-0.0358792412805368,-0.0051566553074048,-0.0002897998294869,0.0032405122183263,0.0028572375886142,0.00547008914873,0.0781744501646608,-0.0333091390505433,-9.804658568501472,14934.0
6.9,0.4000000059604645,309.0,23.52853775024414,-0.0715659633278846,-79.78277446708711,40.45906621962296,269.15248762989046,0.000823724840302,-0.0044593447819352,-0.9844873547554016,0.1753972321748733,-0.0228453906659261,-0.0041304942369792,0.0014125597511853,-0.008511315099895,-0.0009266131673939,-0.0090262657031416,0.0762465729145333,-0.0316919636540114,-9.803218399286274,14934.0
7.0,0.4000000059604645,308.0,23.526033401489247,-0.0715659633278846,-79.78277453989436,40.45906624188249,269.1358242573738,0.0008570064092054,-0.0044505149126052,-0.9844907522201538,0.1753778010606765,-0.0179505573090242,-0.0033567779794316,-0.0006686281640354,-0.0018839174881577,0.000434499583207,0.0057629928924143,0.0794638617150485,-0.0408978291135281,-9.804300718903542,14934.0
7.2,0.4000000059604645,308.0,23.52352905273437,-0.1113248318433761,-79.78277451954625,40.45906625131835,269.1357464733124,0.0008531684288755,-0.004434969741851,-0.9844955801963806,0.1753513813018798,-0.0222604587423761,-0.0042203763249886,-0.0007692808871666,-0.0040437872521579,-0.0005397954955697,-0.0058606388047337,0.0778096752706915,-0.0259169976599514,-9.802716708183288,14934.0
7.3,0.4000000059604645,308.0,23.527284622192383,-0.0795177370309829,-79.78277465395091,40.45906629798635,269.11931722784044,0.0009069028892554,-0.0044191870838403,-0.9844993948936462,0.175330102443695,-0.0135011012325707,-0.0111420287493169,-0.002221678402109,-0.0031521206256002,-0.0002934591902885,0.0015259683132171,0.0818774827010929,-0.045586903207004,-9.805495889782907,14934.0
7.5,0.4000000059604645,308.0,23.526033401489247,-0.0954212844371795,-79.78277464208608,40.45906631252903,269.1190795245171,0.0009298796067014,-0.0044306586496531,-0.9845019578933716,0.1753152757883072,-0.0172284140099204,-0.0121524361067446,-0.0022802966652912,-0.0048831519670784,0.0026204858440905,-0.0027660741470754,0.0778898095339536,-0.0270064846845343,-9.803926497101784,14934.0
7.6,0.4000000059604645,308.0,23.526033401489247,-0.0874695107340812,-79.78277465847925,40.45906633889616,269.10755109214784,0.0009261487866751,-0.0044242432340979,-0.984506905078888,0.175287589430809,-0.0244677399574734,-0.0081912845497933,0.00262843717295,-0.0075709684751927,-0.0007460411288775,-0.0026379723567515,0.0828489793092012,-0.0495965171372518,-9.805474839806555,14934.0
7.8,0.4000000059604645,308.0,23.513511657714844,-0.1590354740619659,-79.78277463520851,40.45906635356149,269.1077931466103,0.0009440263966098,-0.0044034854508936,-0.9845080375671388,0.1752817034721374,-0.0272827339909543,-0.0092362434027043,0.0023271722829533,0.003657829016447,0.0013076274190098,-0.0001230926864081,0.0772711832541972,-0.0324227080098353,-9.80306110918522,14934.0
7.9,0.4000000059604645,305.0,23.50975608825684,-0.1749390214681625,-79.78277463397242,40.45906633284598,269.0999024453164,0.0009256229968741,-0.0043745674192905,-0.984512984752655,0.1752548217773437,-0.0330678568992146,0.0011401387225755,0.0102856170968764,-0.0075731184333562,-0.0026524947024881,-0.0048259245231747,0.0820928612351417,-0.0521818863786757,-9.807210293412211,14934.0
8.1,0.4000000059604645,307.0,23.50850486755371,-0.1669872552156448,-79.78277468741959,40.45906628600513,269.09610390090944,0.0009369125473313,-0.0043396241962909,-0.9845169186592102,0.1752333492040634,-0.0291907714362558,0.0149304168274642,0.0271855454111033,0.0029584534931927,0.0022834513802081,0.002970669651404,0.0798453834000974,-0.0402310546673834,-9.804919939041136,14934.0
8.2,0.4000000059604645,306.0,23.5247802734375,-0.1033730581402778,-79.78277464668753,40.45906628356713,269.0988364162445,0.0009078449220396,-0.0043330029584467,-0.9845155477523804,0.1752417236566543,-0.0332485247940805,0.0143940197430396,0.0270879164220047,-0.0019415152492001,-0.001838729600422,0.0081483107060194,0.0799420908652246,-0.04943645874504,-9.806051375269892,14934.0
8.4,0.4000000059604645,306.0,23.52853775024414,-0.0954212844371795,-79.78277466241943,40.459066268449575,269.0953217687607,0.0009417780092917,-0.0043332185596227,-0.9845173358917236,0.1752310097217559,-0.0346969026484247,0.0174708325845331,0.0355850310366977,0.0067723076790571,0.0023801834322512,0.0027695579919964,0.0828626654483378,-0.0461952100647613,-9.806161887645723,14934.0
8.5,0.4000000059604645,305.0,23.52853775024414,-0.0954212844371795,-79.78277466431541,40.45906623169086,269.09211617136003,0.0009651518194004,-0.0043294159695506,-0.9845221638679504,0.1752041578292846,-0.0381824087016779,0.0242393410578599,0.0416730288921592,0.0025067415554076,-0.0004133768088649,-0.0038711912930011,0.0780956132523715,-0.045654379162006,-9.804392520189284,14934.0
8.7,0.4000000059604645,307.0,23.51977348327637,-0.1113248318433761,-79.78277461074383,40.45906622413397,269.096296602726,0.0009525243658572,-0.0043325931765139,-0.9845247864723206,0.1751893758773803,-0.0408647147790321,0.0234952126873441,0.0414339211830697,0.006981705315411,0.0004288036725483,0.002880236133933,0.082481847256422,-0.0502567637152969,-9.80619170844555,14934.0
8.8,0.4000000059604645,306.0,23.526033401489247,-0.0795177370309829,-79.78277473740164,40.45906621736988,269.0925167145729,0.0010071141878142,-0.0043283775448799,-0.9845293164253236,0.1751637309789657,-0.0278725099001758,0.0159165573991613,0.043336731122189,0.0036429050378501,-7.515814650105312e-05,0.0042387368157505,0.077797149438411,-0.0367276999773457,-9.80455682694912,14934.0
9.0,0.5,306.0,23.526033401489247,-0.0715659633278846,-79.78277469808977,40.45906621370671,269.0968638601303,0.0010125876870006,-0.0043345196172595,-0.9845324158668518,0.1751459389925003,-0.0313250027120848,0.0153740854228358,0.0432021575464943,-8.831616287352517e-05,0.001671683974564,0.0049409680068492,0.0811818376276642,-0.0511635206826031,-9.805982378125194,14934.0
9.1,0.5,304.0,23.51977348327637,-0.1192766055464744,-79.78277474418152,40.459066191803046,269.0907870473862,0.0010152865434065,-0.0043630390428006,-0.9845389127731324,0.1751091927289962,-0.0313251584671515,0.0165841902771903,0.04096134955942,0.0082327658310532,0.0022547740954905,0.0056407572701573,0.0772424679435789,-0.0274028345430269,-9.803622441887857,14934.0
9.31,0.5,306.0,23.52102470397949,-0.1113248318433761,-79.7827747021972,40.45906618791899,269.09489946985246,0.0010005894582718,-0.0043664765544235,-0.9845407605171204,0.1750983148813247,-0.0353277595906775,0.0161492787473426,0.0409200605609742,-0.0036691939458251,-0.002419005613774,0.0033209165558218,0.0796975127980113,-0.0483893000800162,-9.805937939286231,14934.0
9.4,0.5,305.0,23.522275924682607,-0.0874695107340812,-79.78277486146918,40.45906617507412,269.088467830658,0.0010500565404072,-0.004366585984826,-0.9845477342605592,0.1750588864088058,-0.0221201830288805,0.0101224677583109,0.039257344458381,0.0062141427770257,0.003646423574537,0.0045096399262547,0.0775408403947949,-0.0264382586628198,-9.803400832414628,14934.0
9.6,0.5,306.0,23.527284622192383,-0.0795177370309829,-79.78277507382573,40.45906620145791,269.0757576766014,0.0011073964415118,-0.0043797846883535,-0.9845509529113772,0.1750402003526687,-0.0084994222599977,-0.0026037629978189,0.0341752712528773,-0.0093665150925517,-0.0030127896461635,-0.0003957159351557,0.0775758231896907,-0.0420958276698365,-9.804922862648963,14934.0
9.7,0.5,303.0,23.5247802734375,-0.0954212844371795,-79.7827750529302,40.45906621446649,269.0825447382927,0.001116121886298,-0.0043856375850737,-0.9845556616783142,0.1750137060880661,-0.0137710023205523,-0.0044666158660119,0.0338105533847412,0.0063087213784456,0.0031674923375248,0.0019568481948226,0.0777014286909252,-0.0286604038928635,-9.803016085624694,14934.0
9.91,0.5,303.0,23.51977348327637,-0.1192766055464744,-79.78277514170901,40.459066207998966,269.07115989351274,0.0011166052427142,-0.004381219856441,-0.9845580458641052,0.1750001758337021,-0.0182035964999359,-0.0018792256813642,0.0306511812597294,-0.0091613065451383,-0.0019295060774311,-0.0050892545841634,0.0769287648238241,-0.0390685916505754,-9.803846390247346,14934.0
10.0,0.5,304.0,23.51977348327637,-0.1033730581402778,-79.782775270508,40.4590662064571,269.0605672540665,0.0011179597349837,-0.0043817316181957,-0.9845647811889648,0.1749624162912368,-0.0126856587785259,-0.0042829286443075,0.0226812122457743,0.0017855275655165,0.004788885358721,0.0048748892731964,0.078024469083175,-0.0340728630730882,-9.803259914517405,14934.0
10.2,0.5,304.0,23.522275924682607,-0.1033730581402778,-79.78277525620895,40.45906621513209,269.0628362836838,0.0011030534515157,-0.0044138045050203,-0.9845661520957948,0.1749539673328399,-0.0170245232610878,-0.0049327786875652,0.022759545749798,-0.0088598914444446,-0.0016814154805615,-0.0053542074747383,0.0773394220881164,-0.0330960377329029,-9.80386802494526,14934.0
10.3,0.5,304.0,23.5247802734375,-0.0954212844371795,-79.78277542282652,40.45906621427299,269.0519432964325,0.0011429573642089,-0.0044069197028875,-0.9845684170722958,0.1749409288167953,-0.0078608972628787,-0.0075804151835527,0.0167585615346244,0.0026977341622114,-0.003003169549629,0.0064077135175466,0.0773632769007235,-0.0385890468768775,-9.803784409761429,14934.0
10.5,0.5,305.0,23.527284622192383,-0.0795177370309829,-79.78277541553855,40.45906622417771,269.0536056699753,0.0011422371026128,-0.0044041499495506,-0.9845730662345886,0.1749150604009628,-0.0118358366976209,-0.0083887539865214,0.0166500013062726,-0.0056291706860065,0.0001129210068029,-0.00698993075639,0.0776724849734455,-0.0290398470754735,-9.803116657733918,14934.0
10.6,0.5,305.0,23.52853775024414,-0.0795177370309829,-79.78277553533424,40.45906621945228,269.04254686260225,0.0011229425435885,-0.004408692009747,-0.9845772981643676,0.1748911589384079,-0.0129544458388509,-0.0076808741583225,0.0132019083734858,0.0001146362410509,-0.0023853427264839,0.0040291012264788,0.0798364846687764,-0.0436641559749841,-9.805667213201524,14934.0
10.8,0.5,307.0,23.5247802734375,-0.0715659633278846,-79.78277552395359,40.45906623035968,269.0438549461365,0.001129311393015,-0.0044251489453017,-0.9845783114433287,0.1748847514390945,-0.0165875289615218,-0.0084999024082545,0.0131322533991108,-0.0089366855099797,-0.0004004515067208,-0.0048547335900366,0.0781430579256266,-0.0272634515399113,-9.803316047787666,14934.0
10.9,0.5,309.0,23.52352905273437,-0.0795177370309829,-79.78277563190908,40.45906622588464,269.03191327476503,0.0010891871061176,-0.0044275894761085,-0.9845853447914124,0.1748457998037338,-0.0181217456741401,-0.0082161250659216,0.0084935799837591,-0.0023007800336927,-0.0020748034585267,0.0033618668094277,0.0814134239125996,-0.0443523321440443,-9.80602915585041,14934.0
11.0,0.5,310.0,23.499740600585927,0.604334831237793,-79.78277575862238,40.45906622156016,269.019771689415,0.0010968812275677,-0.0044239154085516,-0.9845914244651794,0.1748111695051193,-0.0158466930175985,-0.0097828294204768,0.0050988040123533,-0.002142040291801,0.0001938584900926,0.0059390841051936,0.0810409745480865,-0.0240691815828904,-9.802680455446245,14934.0
11.2,0.4000000059604645,309.0,23.50975608825684,0.198794350028038,-79.78277574251804,40.45906623582157,269.02026056671144,0.0010773245012387,-0.0044126445427536,-0.9845817685127258,0.1748660206794738,-0.019058580578417,-0.010899315921418,0.0048466307057605,0.0071458742022514,0.0076030055060982,0.0083801625296473,0.0839805069006979,-0.0408968058507889,-9.807826005220411,14934.0
11.3,0.4000000059604645,310.0,23.51601600646973,0.2146978974342346,-79.78277572517406,40.459066250995214,269.02073609256746,0.0010876639280468,-0.0044343676418066,-0.9845967888832092,0.1747806519269943,-0.0233360869974243,-0.0116965534718971,0.0048064803954921,-0.0091931037604808,0.0030914668459445,-0.0070515009574592,0.0790928467456251,-0.057072515822947,-9.808148186802862,14934.0
11.51,0.4000000059604645,310.0,23.50850486755371,0.2306014448404312,-79.78277593295658,40.459066194173694,269.00701200389864,0.0011271176626905,-0.0043844454921782,-0.9845933318138124,0.1748015135526657,-0.0079755620405195,-0.0063999078170049,-0.0009608800254777,0.0084516629576683,0.0007403782219626,0.0023554251529276,0.076335774930194,-0.0533047573501244,-9.803980876207351,14934.0
11.6,0.4000000059604645,309.0,23.50850486755371,0.2146978974342346,-79.78277608535977,40.45906621929125,268.99570702934267,0.0011568600311875,-0.0044000563211739,-0.9846071004867554,0.1747233867645263,-0.0087222699536983,-0.0141467405354425,-0.0020135644233225,0.0045165331102907,0.0041369185782969,0.0030355732887983,0.0714972176821902,-0.0417192943906411,-9.80287692189217,14933.0
11.8,0.4000000059604645,308.0,23.51100730895996,0.278312087059021,-79.78277607996321,40.45906623426118,268.99548255825044,0.0011553381336852,-0.004406348336488,-0.9846078157424928,0.1747191250324249,-0.0124325246526236,-0.0147318844955746,-0.0023349819176764,0.0046537234447896,0.0033596560824662,0.0017704083584249,0.0830104720965027,-0.0480067551322281,-9.80601219892502,14933.0
11.91,0.4000000059604645,306.0,23.500991821289062,0.3021674156188965,-79.78277626061347,40.459066243422754,268.9812257232666,0.0011789677664637,-0.0043997853063046,-0.9846142530441284,0.174683004617691,-0.0078021326289955,-0.0188610241169299,-0.0068842182585297,0.0090389875695109,0.0048485724255442,0.0083217294886708,0.0742159399855882,-0.0321658622100949,-9.804193130135538,14933.0
12.1,0.4000000059604645,306.0,23.490976333618164,9.120684623718262,-79.78277635270177,40.45906618811062,268.971928352356,0.0011765361996367,-0.0043548471294343,-0.9846195578575134,0.1746537834405899,-0.0101649133939915,-0.0075049309218021,-0.0052733445516968,-0.0047770873643457,-0.0036537372507154,-0.0010815254645422,0.0777484165504574,-0.0539090168382972,-9.80540935099125,14933.0
12.2,0.4000000059604645,304.0,23.30442047119141,3.268179178237915,-79.78277633356234,40.45906620853064,268.970926279068,0.001357891364023,-0.0041557503864169,-0.9846511483192444,0.1744796186685562,-0.01196514847903,-0.0105353079541334,-0.0060671004862186,0.0362242013216018,-0.0059786662459373,0.0146230468526482,0.0896107908524573,0.0182572947617154,-9.823743295669557,14933.0
12.4,0.4000000059604645,304.0,23.50850486755371,0.1590354740619659,-79.7827765109959,40.45906616799253,268.9591988267899,0.0013874156866222,-0.0041684280149638,-0.9846438765525818,0.1745200902223587,-0.0061388342775712,-0.0091079327584295,-0.0086011229407111,-0.0124685699120163,-0.0137318652123212,-0.0129627659916877,0.047235269844532,-0.0257483854307793,-9.801637312173844,14933.0
12.51,0.5,303.0,23.477203369140625,13.63729190826416,-79.78277662920344,40.45906619964095,268.94772576713564,0.0013562450185418,-0.0041816639713943,-0.984654188156128,0.1744617968797683,-0.0092117201750637,-0.0166593281175797,-0.0091574214112826,0.0019098293269053,0.0071397367864847,0.0080736689269542,0.0581109310733154,-0.0380247494531795,-9.795357402563097,14933.0
12.7,0.5,299.0,23.48972320556641,0.4214440286159515,-79.78277662317299,40.45906621783955,268.9467042627335,0.0014182407176122,-0.0041740373708307,-0.9846535325050354,0.1744652837514877,-0.0119121061700475,-0.0184402153035249,-0.0106340676226221,2.242467235191725e-05,0.0181867480278015,0.0043290434405207,0.0748122646193951,-0.0840447988640517,-9.816243656873702,14933.0
12.81,0.5,297.0,23.50224304199219,0.1590354740619659,-79.78277675382543,40.459066201712346,268.9364201965332,0.001365293865092,-0.0042139464057981,-0.9846465587615968,0.1745037734508514,-0.0129021753940976,-0.0168860797449937,-0.0114886039384085,-0.0086918715387582,0.0146801304072141,0.0025705590378493,0.1020586176216602,-0.0254843562352471,-9.827590763568876,14933.0
13.0,0.5,298.0,23.48346328735352,1.0814412832260132,-79.7827767463277,40.459066218735146,268.9352601709366,0.0013406735379248,-0.0041866819374263,-0.9846583604812622,0.1744384914636612,-0.0134455318485994,-0.0149309651062535,-0.0124034939183419,0.0074619590304791,-0.0259889978915452,0.0132801122963428,0.0686812306009233,-0.0914801456965506,-9.810028066635134,14933.0
13.1,0.5,301.0,23.37954330444336,3.641912460327149,-79.78277686695753,40.45906623539349,268.92545735263826,0.0013362186728045,-0.0042687891982495,-0.9846687316894532,0.1743779778480529,-0.0128927988930532,-0.019245514897821,-0.0122181140862606,0.0049392506480216,0.0091054728254675,0.0025739003904163,0.0773799140565097,-0.0124714428966399,-9.794858050346376,14933.0
13.3,0.5,298.0,23.284387588500977,5.510579109191895,-79.78277685901357,40.45906625655291,268.92423927211763,0.0013586299028247,-0.0042233993299305,-0.9846644401550292,0.1744025647640228,-0.0172827995745289,-0.0216681472085886,-0.0116743895575513,0.0024414816871285,0.0124317640438675,-0.0053187939338386,0.0536762017244473,-0.0311586838820949,-9.798856376409534,14933.0
13.41,0.6000000238418579,294.0,23.20050048828125,6.512502670288086,-79.78277690304915,40.45906624572253,268.9147567691803,0.0014390934957191,-0.0041381227783858,-0.9846848249435424,0.1742892861366272,-0.0264030527695058,-0.017838941336543,-0.0119250181235308,-0.001936885761097,0.0190962292253971,0.0088483048602938,0.0495020115142688,0.0157442174339666,-9.771272136569022,14933.0
13.6,0.6000000238418579,294.0,23.125375747680664,8.945745468139648,-79.78277711441626,40.459066201777546,268.907568687439,0.0016126624541357,-0.0040553137660026,-0.984692633152008,0.1742457151412964,-0.0065323493541024,-0.0147283215388549,-0.0117150250908557,-0.0012528813676908,-0.039122387766838,0.0096509447321295,0.0473178526293486,-0.0276273196586407,-9.791184829473496,14933.0
13.7,0.699999988079071,295.0,23.05150604248047,10.440679550170898,-79.7827771123731,40.45906623768121,268.9052537622452,0.0021176552399992,-0.00388442305848,-0.98470139503479,0.1741943061351776,-0.0109830968562009,-0.0167417313083104,-0.0098041913779356,-0.0006349128088913,0.0423463433980941,-0.0297835152596235,0.0669997769454494,0.0248842697404325,-9.817738205194471,14933.0
13.9,0.699999988079071,298.0,22.92379570007324,13.19199275970459,-79.78277723489289,40.45906620522307,268.8980274143219,0.0024045819882303,-0.0037628954742103,-0.984737753868103,0.1739874929189682,-0.0076963800747371,-0.0164221983181068,-0.012488081225395,0.0246984269469976,-0.1095826998353004,0.036795437335968,0.0129639623221009,-0.1473082552570849,-9.780565116405487,14933.0
14.01,0.699999988079071,299.0,22.826135635375977,14.82210636138916,-79.78277738091006,40.45906618625233,268.89069497013094,0.0045142476446926,-0.0038528935983777,-0.9847304821014404,0.1739845722913742,-0.0046319206288536,-0.0145537400301715,-0.0039421962999045,0.0240673851221799,-0.0848965644836425,-0.0095969457179307,-0.0525228338688612,0.1064969101175666,-9.806415656805036,14933.0
14.2,0.8000000119209291,299.0,22.66086578369141,17.931249618530273,-79.78277739195269,40.45906620260418,268.89052605056764,0.0061701945960521,-0.0044300407171249,-0.9846951961517334,0.174120157957077,-0.0056656884521234,-0.0174225470828869,0.0023690225917441,-1.4508437743643302e-05,0.0146356830373406,-0.0584364347159862,0.1309851314965635,-0.0624758729897439,-9.878422948122026,14933.0
14.3,0.8000000119209291,303.0,22.58574295043945,20.141843795776367,-79.78277752551794,40.459066176389214,268.88442503833767,0.0058915102854371,-0.0056141479872167,-0.9846616983413696,0.1742849647998809,-0.0107761332343619,-0.0192783025559258,0.0049303276397178,-0.0408175885677337,0.0413315556943416,-0.0072773303836584,0.1277388852741569,-0.2677745747007429,-9.907524540424347,14933.0
14.51,0.8000000119209291,305.0,22.386667251586918,23.354360580444336,-79.78277750243235,40.45906618438142,268.8851683082581,0.0015767195727676,-0.0026500327512621,-0.9847482442855836,0.1739580035209655,-0.0238869015145683,0.009117807187021,0.0088699507550222,-0.0635907351970672,-0.144053652882576,0.1255579441785812,0.3605397191271186,-0.3266302537545562,-9.81943623661995,14933.0
14.6,0.8999999761581421,306.0,22.339088439941406,25.60471153259277,-79.78277753408555,40.45906620851211,268.8841776790619,-0.0151090268045663,0.0082420306280255,-0.9851999878883362,0.1705427169799804,-0.0580633938646996,0.0626264464393687,0.1612858035102246,-0.1728950142860412,-0.2312836050987244,-0.0485917665064334,0.2946724793314934,-0.2143767780996859,-10.186725579500196,14933.0
14.8,0.8999999761581421,303.0,22.565710067749023,18.599199295043945,-79.7827774382672,40.459066169385984,268.9072687568665,-0.0181556642055511,0.0093660121783614,-0.9852017760276794,0.1701766848564148,-0.0662793544317245,0.0733420539130969,0.2973041588097177,0.0562133677303791,-0.010829884558916,-0.00099027401302,0.0163363119727,0.1450464974250644,-10.963441640138626,14933.0
14.9,0.8999999761581421,301.0,22.53315734863281,19.752206802368164,-79.78277733979783,40.45906608962245,268.9458345117569,-0.0039711697027087,-0.0012638225452974,-0.9852860569953918,0.1708628237247467,-0.0821513993427826,0.1074323074355859,0.257837637834693,0.1641106903553009,0.195279523730278,-0.044086467474699,0.0565239282231778,0.179615830220282,-10.303276959657673,14933.0
15.1,1.0,304.0,22.501855850219727,21.000635147094727,-79.78277698636249,40.45906601566754,268.97524284744264,0.002941075945273,-0.0081374254077672,-0.9852229952812196,0.1710580736398697,-0.0997319972057872,0.0900244351471612,0.1606119662218386,0.0805371850728988,0.1265089511871338,0.0276561323553323,0.1643600791320204,-0.056664562895894,-9.328690536618232,14933.0
15.2,0.8999999761581421,305.0,22.473058700561523,20.968828201293945,-79.78277668743512,40.45906590617963,268.99683117294313,0.007649814710021,-0.0133406547829508,-0.9850422739982604,0.1716254651546478,-0.101241108313078,0.096342712431032,0.0658302068033526,-0.0596604160964489,0.1034617349505424,-0.0006066116620786,0.2424617771431804,-0.0097484105557668,-9.238653940558434,14933.0
15.4,0.8999999761581421,306.0,22.41546440124512,22.46376037597656,-79.78277658629644,40.45906575524353,269.02005946064,0.0055502080358564,-0.0148148844018578,-0.985032856464386,0.1716392636299133,-0.0681261910369345,0.1061078831102277,0.0536766830804592,-0.0004718925629276,0.0563067346811294,0.018923345953226,0.2642252234369516,-0.0544741593673825,-9.493770883083345,14934.0
15.5,1.0,313.0,22.299022674560547,24.41989707946777,-79.7827762348319,40.459065449736585,269.0569939556122,-0.0013501471839845,-0.0073277712799608,-0.9852308034896852,0.17106993496418,-0.0702051849649507,0.1268075457061883,0.0868415407245181,-0.0011898130178451,-0.0388823747634887,0.0240391809493303,0.1377428225800395,-0.1647009352594614,-9.93185714364052,14934.0
15.7,1.0,312.0,22.402942657470703,22.38424301147461,-79.78277610001899,40.45906536875941,269.06722580814363,-0.0022500038612633,-0.0065165376290678,-0.985239565372467,0.1710425168275833,-0.0697776502639224,0.1223164271678821,0.1086419778571437,0.0930892676115036,0.062155645340681,0.0020901223178952,0.0807540589850396,0.0952830194402486,-9.936490477323533,14934.0
15.8,1.0,312.0,22.38541412353516,22.185449600219727,-79.78277597072946,40.45906528525808,269.07827567482,0.0022303264122456,-0.0071588777936995,-0.9852832555770874,0.1707651019096374,-0.072156619933696,0.1234615716949282,0.1072843336448258,0.076787531375885,0.1053546443581581,0.018501391634345,0.19307895289734,0.0525262416992336,-9.81920000910759,14934.0
16.01,1.0,313.0,22.352861404418945,23.07604789733887,-79.78277570415766,40.4590652354395,269.1090624275208,0.007427530363202,-0.0096726324409246,-0.9852157831192015,0.1708834320306778,-0.0802293884736765,0.1062420876112635,0.0985936939837801,-0.0234158337116241,0.0982853323221206,0.0516053661704063,0.1600051094591617,-0.0338527245400473,-9.766327146291731,14934.0
16.1,1.0,315.0,22.30904006958008,23.17942047119141,-79.78277537720629,40.45906503240492,269.13169425153734,0.0029741674661636,-0.0159795358777046,-0.9852803945541382,0.1701716929674148,-0.0762783689499849,0.1020294346318856,0.1210210709064441,-0.0679300799965858,0.1924799233675003,0.0822062939405441,0.2155003023147583,-0.0917063781246542,-9.825065935850144,14934.0
16.3,1.0,315.0,22.28900718688965,23.64857482910156,-79.78277525597213,40.45906496884185,269.14463811540605,0.0013002625200897,-0.0195525120943784,-0.9853087663650512,0.169654905796051,-0.0826824375571888,0.0966045935735313,0.1371941166163686,-0.1158684864640236,0.0641284734010696,0.0141476308926939,0.1831669173762202,0.1674890886805951,-9.97452427625656,14934.0
16.4,1.0,315.0,22.34284400939941,21.891233444213867,-79.78277498943265,40.459064703698566,269.1839627566338,0.0042673205025494,-0.0201607886701822,-0.9853157997131348,0.1694941371679306,-0.055564976416918,0.0943236375441938,0.1798128594470878,0.092556782066822,0.0698620304465293,0.0079879183322191,0.2604949922114611,-0.0157821192685514,-10.06244768857956,14934.0
16.6,1.0,314.0,22.30152702331543,26.20109558105469,-79.78277486756251,40.45906443219096,269.1970826926232,0.0068740849383175,-0.0197976324707269,-0.9852397441864014,0.1698925048112869,-0.0449278702162567,0.0983262753056767,0.0600551215591452,0.0262746009975671,0.04534962028265,-0.021956592798233,0.155721494089812,-0.0391467707511037,-8.867215413451195,14934.0
16.7,1.0,313.0,22.131248474121094,27.32229423522949,-79.7827746888911,40.45906430636099,269.1886966171265,0.0020730237010866,-0.0129368640482425,-0.9852689504623412,0.1705096960067749,-0.0522562934151074,0.0814029814786035,-0.0623664499028509,-0.087157979607582,-0.089044377207756,0.0562821105122566,0.2498494783043861,-0.1275510526075959,-8.755767483115196,14934.0
16.9,1.0,310.0,22.008546829223643,30.78131675720215,-79.7827742747962,40.45906416142945,269.2227072658539,0.0006752861663699,-0.009183507412672,-0.9852747321128844,0.1707307398319244,-0.0719105685437653,0.0754386548049677,0.0687682788594363,-0.0385510362684726,-0.0287876576185226,-0.0888179689645767,0.2051329696923494,0.2702882378920913,-10.375053870677949,14934.0
17.0,1.0,309.0,21.984758377075195,30.773365020751957,-79.78277400650128,40.45906411773596,269.26017730855943,0.0055520646274089,-0.0100717274472117,-0.9852445125579834,0.1707663983106613,-0.0442303363514152,0.0697538185908945,0.3386313367664558,0.2450402826070785,0.1486090719699859,0.1238142848014831,0.237139641456306,-0.1700246789306402,-10.94397976756096,14934.0
17.2,1.0,308.0,21.83325958251953,32.618175506591804,-79.78277392286013,40.45906407640195,269.30352121019365,0.0104338470846414,-0.0118202762678265,-0.9852114915847778,0.170616015791893,-0.0432687537534308,0.0774614096677876,0.5259696771455861,0.1905211508274078,0.0676443949341774,0.0951742380857467,0.3184077529236674,-0.1931422672793269,-11.660794612169266,14934.0
17.3,1.100000023841858,307.0,21.80696678161621,33.469017028808594,-79.78277374796515,40.45906399810647,269.4466603937149,0.0064652301371097,-0.0100873550400137,-0.9852752089500428,0.1705560535192489,-0.0527413502450596,0.0923735671314743,0.91457036817666,-0.1088442578911781,-0.0822091847658157,-0.0034839564468711,0.3671668437123299,-0.0521105868928134,-11.777374058961868,14934.0
17.5,1.100000023841858,307.0,21.557809829711918,38.42296981811523,-79.78277368729607,40.45906394972255,269.54984074258806,0.0032169839832931,-0.0084147760644555,-0.9852662086486816,0.1707903146743774,-0.0378296277104169,0.0951581710152134,1.1500788704454783,-0.0505468994379043,-0.0504111647605896,0.0923688262701034,0.3170472154766321,-0.1892862843722105,-12.175429111719136,14934.0
17.6,1.2000000476837158,303.0,21.550296783447266,41.49235534667969,-79.78277359744139,40.45906382783114,269.8302777352333,-0.0008634544792585,-0.0089847734197974,-0.9852091073989868,0.1711185276508331,-0.0245906067995287,0.105125202412097,1.6936676657687415,-0.015262053348124,0.0218986663967371,0.098659873008728,0.2165748012810945,-0.1009654989279806,-12.688091930150984,14934.0
17.8,1.2999999523162842,301.0,21.461400985717773,41.23789978027344,-79.78277352795942,40.45906376635288,270.01539308005573,-0.0010690683266147,-0.0099483057856559,-0.9852774143218994,0.1706704497337341,-0.0244186820789011,0.1237723900542046,2.003405604132276,0.019772969186306,0.0217543859034776,-0.0882648155093193,0.3613438209146261,0.0363741764053702,-12.801053119897842,14935.0
17.9,1.5,295.0,21.49896240234375,37.47671127319336,-79.78277332736019,40.45906363416194,270.47059833431246,0.0007000599289312,-0.0095653841271996,-0.9854058027267456,0.169951245188713,-0.0459057937304707,0.1405904675280945,2.5546390537209267,0.0056520095095038,0.0646602883934974,0.05505046620965,0.2947303667664528,0.0975557773467153,-12.751481595039367,14935.0
18.1,1.600000023841858,298.0,21.666736602783203,34.66178131103516,-79.78277325436247,40.45906355599689,270.7376524152756,-0.0005886909784749,-0.0096985092386603,-0.9853805303573608,0.1700909286737442,-0.043407222769604,0.1565963135875326,2.7961376248988583,0.0470935218036174,-0.001750826719217,0.046432077884674,0.2845431466586888,-0.1702598831802606,-12.454548289775849,14935.0
18.2,1.7999999523162842,299.0,21.869569778442383,30.566619873046875,-79.78277303236453,40.45906338904703,271.3375616016388,-0.0008481925469823,-0.0045811072923243,-0.9853218197822572,0.1706435680389404,-0.0532983993068358,0.1757262717594485,3.1514143840014173,0.0074573173187673,-0.0198297202587127,0.0404142439365386,0.2933412327803672,0.0107486076280474,-12.011581943035129,14936.0
18.4,1.8999999761581416,299.0,21.256065368652344,28.73771095275879,-79.78277285822709,40.45906324697855,271.6950505914688,-0.0035283181350678,-0.0043361955322325,-0.985241949558258,0.1710764914751052,-0.0550549171736073,0.1730449268041683,3.242962966438088,0.0075442180968821,0.038965992629528,0.0887571424245834,0.2208173765055836,-0.2766746399179101,-10.761393442153931,14936.0
18.5,2.0999999046325684,298.0,21.685518264770508,33.11118698120117,-79.78277253174937,40.459062928822654,272.38841986083986,-0.0088904742151498,-0.011737372726202,-0.985002875328064,0.1719089746475219,-0.0449211968433605,0.2049245337844841,3.3523329699924727,0.0227874461561441,0.0924476087093353,0.1326827108860016,0.2356934971176088,-0.2897158311679959,-10.380064934492111,14937.0
18.7,2.200000047683716,296.0,21.858301162719727,31.0914363861084,-79.78277233663208,40.45906282338396,272.7266523780823,-0.0103711690753698,-0.0170407984405756,-0.984943389892578,0.1717229783535003,-0.0512294333761501,0.2356101137620549,3.4023692866872013,-0.0056776646524667,0.1195364370942115,0.0765755474567413,0.2396340636536479,-0.1056579991243779,-10.280175780057908,14937.0
18.8,2.299999952316284,296.0,22.07615852355957,25.23892974853516,-79.78277191396954,40.45906252303471,273.425231212616,-0.0104272691532969,-0.0222616959363222,-0.9849792718887328,0.1709138751029968,-0.0626360912967886,0.2869558016912257,3.4291260638564487,0.1724976748228073,0.0541181415319442,0.0901094898581504,0.3433203268423677,-0.2560796865820885,-9.850695451498034,14938.0
19.0,2.400000095367432,297.0,22.01605987548828,27.81530570983887,-79.7827716434477,40.45906245266645,273.767014497757,-0.0093047618865966,-0.0222753174602985,-0.9850479364395142,0.1705812066793441,-0.1142179082765992,0.2816583993410284,3.3983938105794693,-0.0764196664094924,-0.0697226524353027,-0.0084874453023076,0.2753126406669617,-0.0317849069740623,-9.60720335841179,14938.0
19.1,2.5,299.0,22.078662872314453,25.39796638488769,-79.78277155218407,40.45906232432144,274.1080090942383,-0.0091665098443627,-0.0233185738325119,-0.9850846529006958,0.1702366024255752,-0.136302542083291,0.2642286025979886,3.355170399928576,-0.0769088789820671,0.0405318066477775,-0.1099384576082229,0.2229520487599074,0.3006712475046516,-9.497182733416556,14939.0
19.3,2.5,301.0,21.99602699279785,28.14132881164551,-79.78277093534658,40.459062282741314,274.7722074928284,-0.0103968409821391,-0.0267915669828653,-0.9850770831108092,0.1696977615356445,-0.1771445077003227,0.2413627095280037,3.282169436748787,-0.0712590813636779,-0.057017758488655,-0.026246078312397,0.2510283683426678,0.0989897704403847,-9.428567411899568,14939.0
19.4,2.5,303.0,22.004791259765625,27.57675170898437,-79.7827706663588,40.45906224071453,275.391003364563,-0.0069079836830496,-0.0293632261455059,-0.9850921034812928,0.1693625599145889,-0.1950461407125481,0.2105860420112593,3.1923605485038133,0.0273462776094675,0.0133275464177131,0.0355884954333305,0.305311689209193,0.0676718001812696,-9.47618947505951,14940.0
19.6,2.5,305.0,21.968481063842773,28.90469741821289,-79.78277093645758,40.45906227659844,275.6680381240845,-0.004026009235531,-0.0283264201134443,-0.9850817918777466,0.169692188501358,-0.189428133444008,0.1785689927875804,3.145149447011882,0.0069711152464151,-0.1074047908186912,-0.0902827382087707,0.2811608978547156,0.0514240232761949,-9.674059837460518,14940.0
19.7,2.400000095367432,312.0,22.06614112854004,27.03603172302246,-79.78277036154819,40.45906247722933,276.2951619567871,0.001405056216754,-0.0258103981614112,-0.9850230813026428,0.1704743504524231,-0.2315728976020286,0.1165996826238747,3.1190975083254853,0.1129117235541343,0.0443007498979568,0.0989396721124649,0.2538758161850273,0.2519627716764808,-9.71558793246746,14941.0
19.9,2.299999952316284,314.0,21.912139892578125,29.57264709472656,-79.78276934968494,40.45906319084329,276.6399867477417,0.0022129281423985,-0.0246264450252056,-0.9850320219993592,0.1705891638994217,-0.3227994671331943,0.0552302300575973,3.0809084280943084,-0.0423822030425071,-0.1183660253882408,-0.0394472628831863,0.2407995781861245,0.0171732723712921,-9.562392636537552,14941.0
20.0,2.400000095367432,320.0,21.988513946533203,27.99819564819336,-79.78276919655266,40.45906371344253,277.3033316078186,0.0010765213519334,-0.0207038708031177,-0.9852193593978882,0.170038491487503,-0.2763368899785483,-0.0280099156745548,3.0759585233061904,0.1262711733579635,-0.0166959892958402,0.1366294175386428,0.2699702407233417,0.2402186207659543,-9.66970015347004,14942.0
20.2,2.299999952316284,323.0,21.929668426513672,28.43554306030273,-79.78276893541153,40.45906395347201,277.6100399436951,0.0013836759608238,-0.0183955058455467,-0.9853460788726808,0.1695669442415237,-0.2865451349588026,-0.0592825488858052,3.067593549619257,-0.0292106848210096,-0.0480729229748249,-0.0382192619144916,0.2274224278517067,0.1399200881458819,-9.705257071852683,14942.0
20.3,2.299999952316284,329.0,21.959716796875,28.276508331298828,-79.78276905696191,40.45906401536453,278.2735364379883,0.0043210806325078,-0.0174091700464487,-0.9854955077171326,0.168750986456871,-0.2105928889663786,-0.0722166700207018,3.0597586868845656,0.1679911911487579,0.0321891009807586,0.21601502597332,0.1405736424028873,0.3257282111048699,-9.712981828451158,14943.0
20.5,2.299999952316284,332.0,22.04110145568848,27.00422477722168,-79.78276888783981,40.459064240082014,278.5789458694458,0.0049695530906319,-0.0168051235377788,-0.9855824112892152,0.1682867705821991,-0.2352313047164149,-0.0791778202466658,3.0529218339855952,-0.1096411943435669,-0.0543060973286628,-0.1143742650747299,0.283928531203419,0.2122803502902388,-9.697176804542543,14943.0
20.6,2.299999952316284,334.0,21.93467712402344,28.75361442565918,-79.78276912134137,40.45906402332949,278.94245027923586,0.0056706117466092,-0.0159774255007505,-0.9856431484222412,0.1679886877536773,-0.1662702682177979,-0.0609277291323474,3.028451839076265,-0.0071000815369188,-0.00388316786848,0.0351637117564678,0.2494249156303704,0.0549082511756569,-9.567993684411052,14943.0
20.8,2.299999952316284,335.0,22.03734397888184,26.527118682861328,-79.78276893571791,40.45906440103825,279.5422265472412,0.0058133406564593,-0.0162282045930624,-0.9856332540512084,0.1680176109075546,-0.1522736897456304,-0.0786019978645034,2.977746492123549,0.0052738580852746,0.0821833983063697,-0.0271713100373744,0.3405309491604567,0.2228942161425949,-9.525228318572044,14944.0
20.9,2.400000095367432,337.0,21.90462684631348,29.310237884521484,-79.78276817111345,40.459064671170665,279.94200682067867,0.0062634712085127,-0.0147258238866925,-0.9855442643165588,0.1686607450246811,-0.1784406216809797,-0.0787405996414653,2.9778195260205687,0.0070911226794123,-0.0538031719624996,-0.0258508510887622,0.2600120670162141,-0.0200260375253856,-9.496427857875824,14944.0
21.1,2.400000095367432,338.0,21.915895462036133,27.696027755737305,-79.78276747913986,40.45906471235504,280.66231512451174,0.0069534443318843,-0.0117688244208693,-0.9854565262794496,0.1693775504827499,-0.1601365327616503,-0.0689078972129936,3.0125440156812817,0.1097233220934868,0.0940594896674156,0.1448471546173095,0.3318026276305318,-0.1212627010792494,-9.73048722267151,14945.0
21.2,2.5999999046325684,340.0,21.98726272583008,25.636518478393555,-79.78276738826904,40.45906487758073,280.9633557739258,0.0063124992884695,-0.0108907409012317,-0.9853507280349731,0.1700752675533294,-0.1683667197420899,-0.0652383602046057,3.0095335027951835,-0.1228324398398399,-0.119618609547615,-0.1288902908563614,0.1997738138213753,0.1274976236745715,-9.70222295165062,14945.0
21.4,2.700000047683716,339.0,21.94344139099121,27.57675170898437,-79.78276708178664,40.45906495429086,281.6709582748413,0.0068644834682345,-0.0081492783501744,-0.985237181186676,0.1708630323410034,-0.0973729911951242,-0.0580109524516089,3.026390446531348,0.1631602197885513,0.1105473116040229,0.2122915387153624,0.2979701079614461,-0.1771288814954459,-9.65529670715332,14946.0
21.5,2.700000047683716,341.0,21.90713119506836,28.992168426513672,-79.78276704470105,40.45906507159896,281.97312330627443,0.0078503368422389,-0.0089485738426446,-0.9852581024169922,0.1706597506999969,-0.1123944005390615,-0.0533063321249386,3.0194797200119083,-0.1162332370877266,0.0065161869861185,-0.1387988477945327,0.2355582254379988,0.2608271688781679,-9.68757860004902,14946.0
21.7,2.5999999046325684,340.0,21.912139892578125,27.21096992492676,-79.78276651547161,40.45906550459622,282.6566808166504,0.0069394363090395,-0.0155447917059063,-0.9853022694587708,0.1699701696634292,-0.0876418977589475,-0.0451775739147512,3.0372013046407766,0.0600716024637222,0.0944657921791076,0.1848070323467254,0.3250602398067713,-0.2187475535273552,-9.817499638795852,14947.0
21.8,2.5999999046325684,343.0,22.02607536315918,27.76759529113769,-79.7827665015197,40.45906562718772,282.9605309906006,0.004936546087265,-0.0163236260414123,-0.9853789806365968,0.1695214211940765,-0.0868628570351427,-0.0237020673562746,3.039592948571004,-0.1386909633874893,-0.0621209815144538,-0.0913235247135162,0.2830876285023988,0.21110679583624,-9.744280219674112,14947.0
22.0,2.5999999046325684,345.0,21.937179565429688,27.41771697998047,-79.78276625505286,40.45906585001512,283.67608713531496,0.003807321190834,-0.0120243355631828,-0.985693097114563,0.1680777370929718,-0.0269580286406633,-0.0284876429465109,3.072667538433884,0.1558810323476791,0.0512103326618671,0.2119755595922469,0.323487558066845,-0.1283386542834341,-9.717108793258667,14948.0
22.1,2.5999999046325684,350.0,21.912139892578125,27.870967864990234,-79.78276572388529,40.45906621322656,284.3585154953003,0.0045608906075358,-0.0103808604180812,-0.9857943654060364,0.1675737053155899,-0.0469448998330429,-0.0565674519496533,3.0887500189911266,0.095164805650711,0.0558783560991287,0.1110434681177139,0.1880456148460508,0.2823569275438786,-9.667527328133584,14949.0
22.3,2.5999999046325684,352.0,21.92716407775879,28.37192916870117,-79.78276572854297,40.45906632873889,284.66719221496584,0.0030281080398708,-0.0111800143495202,-0.9857280254364014,0.1679468601942062,-0.0558622963029704,-0.0538759986490724,3.0869563446448303,-0.0839722603559494,0.0033324321266263,-0.0595584101974964,0.2444691445492208,0.1360586965642869,-9.77013485312462,14949.0
22.4,2.5,359.0,21.981002807617188,26.02615547180176,-79.78276541117116,40.45906621473596,285.0261228027344,0.0011739096371456,-0.0123458849266171,-0.9856573939323424,0.1683028042316436,-0.0442401822749679,-0.0151765273492728,3.1056026573502686,-0.1159111186861992,-0.0288674067705869,-0.079406201839447,0.1243463033437728,0.2541436186619103,-9.77149023771286,14950.0
22.61,2.5,3.0,21.85454559326172,28.91264915466309,-79.78276537460414,40.45906594746304,286.0054671707153,-0.0005622627213597,-0.0092490063980221,-0.9856112599372864,0.1687741726636886,0.0241877894798879,0.0392830947588017,3.1157671694703546,-0.0500206425786018,-0.0895791724324226,-0.0395084284245967,0.2408458077348769,0.2861120277084411,-9.71655506193638,14951.0
22.72,2.400000095367432,10.0,21.80821990966797,30.72565460205078,-79.78276540489301,40.459065966305495,286.31735586547853,-0.0024424057919532,-0.0084283594042062,-0.9856576323509216,0.1685291230678558,0.0404810173647988,0.0279892132514458,3.1238900318608285,0.0521258637309074,0.0987113118171692,0.1119310855865478,0.2062304007075727,0.1980196125805378,-9.82842457652092,14951.0
22.9,2.400000095367432,13.0,21.93467712402344,27.25072860717773,-79.7827656656322,40.45906564873549,286.6417653503418,-0.0045094136148691,-0.0081278095021843,-0.9856457710266112,0.1685704439878463,0.0947395663367948,0.0515001371750116,3.1457119529875683,-0.0047274674288928,-0.0312498789280653,-0.0131774106994271,0.2546749843843281,-0.0075375543348491,-10.093021609783174,14951.0
23.0,2.400000095367432,17.0,21.90713119506836,27.47337913513184,-79.7827657417809,40.459065623258034,286.95759367370607,-0.0050233099609613,-0.0081453779712319,-0.9856100678443908,0.1687639057636261,0.0914343356989697,0.0587631498514773,3.167891335834042,-0.1774461716413498,-0.0611862763762474,-0.144365131855011,0.2318350656889379,0.4021435721218585,-9.96517340898514,14951.0
23.2,2.400000095367432,17.0,21.87708282470703,28.41168785095215,-79.78276610814252,40.45906544431978,287.5933606567383,-0.0084161376580595,-0.0078027467243373,-0.985655665397644,0.168378084897995,0.1408526498756946,0.0688988231211982,3.155945804530605,-0.0262856539338827,0.0626866668462753,0.0202273745089769,0.2941017728112638,0.1737167388014495,-9.852974696159364,14952.0
23.3,2.5,15.0,21.83701705932617,28.30036354064941,-79.78276619634437,40.45906539066144,287.90995001220705,-0.0088538769632577,-0.0093142222613096,-0.985980987548828,0.1663621813058853,0.1405880338605006,0.0848074623538702,3.1716650496278387,-0.0684113278985023,-0.0372100919485092,-0.0897280797362327,0.1981509191170335,0.2948821020126343,-9.911619930267335,14952.0
23.51,2.5,13.0,21.88960266113281,28.745662689208984,-79.78276657363477,40.45906520140892,288.5418870391846,-0.0096850497648119,-0.0119665153324604,-0.986477553844452,0.1631722152233123,0.1601789571098961,0.1185348755008815,3.163438140310234,-0.0769970342516899,-0.0473300106823444,-0.1269771158695221,0.2289133764803409,0.3074375358223915,-9.8290911591053,14953.0
23.6,2.5,13.0,21.83075523376465,28.578676223754893,-79.78276686727273,40.45906518122562,288.8499200286865,-0.009253179654479,-0.0140127902850508,-0.9864562153816224,0.163162961602211,0.194464375971194,0.107901502142345,3.1286207440539,0.0356072895228862,0.0687776878476142,-0.0012234734604135,0.280484009552747,0.06222516448237,-9.859576202630995,14953.0
23.8,2.5,13.0,21.94719696044922,25.88302421569824,-79.78276706690716,40.45906503762178,289.4802434387207,-0.0098771825432777,-0.0176077168434858,-0.9856052994728088,0.167852982878685,0.1748279240757448,0.14181316811493,3.1486666799091894,0.0538179278373718,0.0584181621670723,-0.01965899951756,0.3315683370083571,-0.0564432960329577,-9.846143978834151,14954.0
23.9,2.5,11.0,21.87833404541016,28.22084617614746,-79.78276763547656,40.459064755050406,290.0887925567627,-0.0102831507101655,-0.0194365661591291,-0.984626829624176,0.1732816994190216,0.2094743333991168,0.132829419027719,3.0913389118539,0.1855190098285675,0.0648838132619857,0.1026082038879394,0.1935967055708169,0.4467031195387245,-9.662348449230192,14955.0
24.11,2.5,11.0,21.977245330810547,25.58085632324219,-79.78276766435998,40.45906469318998,290.40706610107424,-0.0091364802792668,-0.0197850931435823,-0.9844698905944824,0.1741960942745208,0.1797265088219745,0.1257006200976058,3.1062493799801043,-0.0046465513296425,-0.0333322398364543,-0.0232642795890569,0.2274607088416815,0.0417150962725281,-9.94980575680733,14955.0
24.2,2.5,11.0,21.89961814880371,27.393861770629893,-79.78276775881609,40.45906465317093,290.7188432159424,-0.007910281419754,-0.0191626418381929,-0.984565019607544,0.1737871021032333,0.1448963574542325,0.1264268439404368,3.1119408595663054,-0.143274500966072,-0.1174398362636566,-0.0770405530929565,0.2292684121057391,0.4150889421254397,-9.775216668248175,14955.0
24.41,2.5,10.0,21.89210700988769,27.59265518188477,-79.78276810719495,40.459064524055954,291.33821844482424,-0.0081596011295914,-0.0143663324415683,-0.985031008720398,0.1715842336416244,0.1451998466283501,0.1050121851252186,3.071436734601965,-0.1018727272748947,-0.1335883885622024,-0.0071815503761172,0.2526124704256653,0.0782765937130898,-9.695726110339166,14956.0
24.51,2.400000095367432,8.0,21.87833404541016,27.05988693237305,-79.78276838268856,40.459064412831054,291.9566533508301,-0.0130288377404212,-0.0125612029805779,-0.9852371215820312,0.1702361851930618,0.1595938804777253,0.0771308431646791,3.045536107094089,0.0147025799378752,-0.0606908351182937,-0.0058889896608889,0.2402316125482321,-0.0989152275770902,-9.707219397425654,14956.0
24.7,2.400000095367432,9.0,21.78192710876465,30.21674156188965,-79.78276845547262,40.45906438577335,292.2612302246094,-0.0128007652238011,-0.0122291697189211,-0.9853639006614684,0.1695424914360046,0.1398148291231903,0.0711956919228211,3.039721479453412,-0.0786671712994575,-0.0731598660349845,-0.0360964350402355,0.1935769712179899,0.3383706587925553,-9.702437544465065,14957.0
24.8,2.299999952316284,15.0,21.88960266113281,28.04590606689453,-79.78276850639492,40.45906436303329,292.56560110473634,-0.0116252545267343,-0.0120687680318951,-0.9854028224945068,0.1694123595952987,0.1319450245685654,0.0708651394333663,3.042159834070888,0.0850899741053581,0.0916333645582199,0.057526595890522,0.2290929408185184,0.0992028831783682,-9.813289643526078,14957.0
25.0,2.299999952316284,18.0,21.811975479125977,28.97626495361328,-79.78276865215419,40.45906426942514,293.18638204956056,-0.0079462025314569,-0.0105895707383751,-0.9854871034622192,0.1692331284284591,0.0871294308022177,0.0757004913993889,3.0317864844912714,-0.1135303825139999,-0.0850942507386207,-0.1169247180223465,0.2435477147251368,0.4129741138592362,-9.66321617603302,14958.0
25.1,2.200000047683716,22.0,21.855796813964844,29.57264709472656,-79.78276871851395,40.45906428440676,293.5005776824952,-0.0055062277242541,-0.0092887692153453,-0.985576868057251,0.1688839644193649,0.0859105969954343,0.0637118778058288,3.0178711716955937,0.1039871796965599,0.0232020039111375,-0.0095610301941633,0.1277931090630591,0.1344446640461683,-9.618497255444527,14958.0
25.3,2.299999952316284,25.0,21.80070686340332,28.181087493896484,-79.78276875181048,40.4590642537629,294.1021726074219,-0.0050116572529077,-0.0096984263509511,-0.9856830835342408,0.1682547926902771,0.0373899192422395,0.0648916876432927,3.005673893273797,-0.1900802254676818,-0.0907377302646637,-0.0761312246322631,0.1042239055316895,0.3223317097127438,-9.732890428304673,14959.0
25.4,2.299999952316284,27.0,21.804462432861328,28.98421669006348,-79.78276886468221,40.45906424560308,294.7177197875977,-0.010071218945086,-0.0129738561809062,-0.9857763648033142,0.1672581732273101,0.0486381515387217,0.0757224606756567,2.995993130536024,-0.169665053486824,-0.0737810730934143,-0.0845513343811035,0.2473313017934561,-0.0033569961413741,-9.762360979914666,14959.0
25.6,2.299999952316284,27.0,21.72808837890625,29.604454040527344,-79.782768988137,40.45906431295345,295.02642797851564,-0.0112456567585468,-0.0143387308344244,-0.9858710169792176,0.1665122061967849,0.0774460110712096,0.0651435984597599,2.9845716212060114,0.0286596361547708,0.0419128499925136,0.047548159956932,0.2854758689180016,0.26723538832739,-9.68265699863434,14960.0
25.7,2.299999952316284,26.0,21.79444694519043,29.55674362182617,-79.78276898368874,40.45906431119124,295.32544302368166,-0.0111342519521713,-0.0136713860556483,-0.985925555229187,0.166252851486206,0.0841234167672618,0.0793880054498842,2.994044312045518,0.1442989856004715,0.0449189208447933,0.113563947379589,0.3168522108346224,-0.1381274597346782,-9.871513878107072,14960.0
25.9,2.400000095367432,23.0,21.753129959106445,29.44541931152344,-79.78276897528836,40.459064322049656,295.93044638061525,-0.0083858650177717,-0.0106495348736643,-0.9860020279884338,0.166181594133377,0.0418040809450655,0.0776708557141185,3.01824021557538,0.0108417989686131,-0.0073422328568995,-0.0917461961507797,0.2688895108178258,0.3537838461622596,-9.890959378480911,14960.0
26.0,2.5,22.0,21.815731048583984,28.451446533203125,-79.78276893361394,40.45906431307181,296.23334288024904,-0.0068316929973661,-0.0106912348419427,-0.9859076738357544,0.1668085306882858,0.0387185111787914,0.0778869011743466,3.0392567199596665,0.132535308599472,0.1202754974365234,0.0240492410957813,0.3365645269677043,-0.0034773939661681,-10.04115212917328,14961.0
26.2,2.5,20.0,21.845781326293945,27.57675170898437,-79.78276887626734,40.459064298414674,296.8438603820801,-0.0052001951262354,-0.0152574507519602,-0.985525906085968,0.1687572747468948,0.0192496619431774,0.1009936078987193,3.074444747712317,0.0205744076520204,0.1478350311517715,0.0390294566750526,0.3208149785175919,0.1371985381655395,-10.006407973766327,14961.0
26.3,2.5999999046325684,16.0,21.843276977539062,28.80132484436035,-79.78276893188665,40.459064147019625,297.44846510314943,-0.00656447885558,-0.0193495359271764,-0.984970211982727,0.1715113669633865,0.0288106609526287,0.1354456740850859,3.0617628157260848,0.0143654197454452,0.1286017298698425,-0.0175374690443277,0.3765201960504056,0.1703104798682034,-9.909151235818864,14962.0
26.5,2.700000047683716,14.0,21.70179557800293,29.98613929748535,-79.78276888891641,40.459064124064994,297.75524687194826,-0.0079730451107025,-0.0196247473359108,-0.98479026556015,0.1724514961242675,0.0379226071192387,0.145163191769605,3.0674549818507053,0.0334279760718345,0.0124890320003032,0.036999262869358,0.2973143609985709,-0.0387331076525151,-9.861207575798035,14962.0
26.6,2.700000047683716,7.0,21.929668426513672,26.39193725585937,-79.78276885427343,40.45906416798688,298.0562055053711,-0.0079701691865921,-0.0197857357561588,-0.9847577810287476,0.1726188063621521,0.0272424723721001,0.1327503782736368,3.0800858296470386,-0.1087831705808639,-0.1071586534380912,-0.0932893827557563,0.3495647511631251,0.1743364522978663,-10.020318499803544,14963.0
26.81,2.700000047683716,4.0,21.938432693481445,25.382062911987305,-79.78276875290251,40.45906416788464,298.67289518737795,-0.0068203588016331,-0.0192509926855564,-0.9849767684936525,0.1714751571416854,0.0223899489882875,0.1250985161929859,3.0822565086655627,0.0491474047303199,-0.0048167360946536,0.0801450759172439,0.3157037445902824,-0.0263064953126013,-9.887235871553422,14963.0
26.91,2.799999952316284,357.0,21.86581420898437,26.94061088562012,-79.78276885879197,40.45906415638289,299.27291273498537,-0.0057372576557099,-0.0183621998876333,-0.9853129386901855,0.1696714907884597,0.0197045521064901,0.1015385204463695,3.0359388057973766,0.0618047825992107,0.0773579329252243,0.1046605184674263,0.316088856831193,0.2087157049030065,-9.70018227338791,14964.0
27.1,2.799999952316284,355.0,21.83701705932617,27.24277687072754,-79.78276888808436,40.459064200093295,299.581056350708,-0.0055865631438791,-0.0185621585696935,-0.9854580163955688,0.1688100844621658,-0.0046832439342864,0.1001403609473681,3.0347720194319976,-0.085309974849224,-0.0140407569706439,-0.0912757888436317,0.2379078376851976,0.2797897623293102,-9.717630364894866,14964.0
27.2,2.799999952316284,352.0,21.89961814880371,25.70013236999512,-79.78276883303006,40.45906422034852,299.88461851501467,-0.0070787877775728,-0.0186678655445575,-0.9855149388313292,0.1684094071388244,0.0104045768466473,0.0989249393113834,3.0333222793759984,0.0604403018951416,-0.0152038568630814,0.0411497540771961,0.3459666304662824,-0.1851344506256282,-9.805319888591765,14964.0
27.4,2.799999952316284,351.0,21.82073974609375,27.21096992492676,-79.78276879997105,40.45906423537724,300.49982809448244,-0.0068902494385838,-0.0175216402858495,-0.9854836463928224,0.1687231361865997,0.0090812276254321,0.10196894620511,3.026203470386802,0.1406034082174301,0.06230403855443,0.0885568559169769,0.3466184853762388,-0.1011073121801018,-9.73963811516762,14965.0
27.5,2.799999952316284,353.0,21.855796813964844,27.86301612854004,-79.78276872484551,40.45906425842286,300.8023717346192,-0.0057575716637074,-0.0165978632867336,-0.9854170680046082,0.1692475974559784,-0.0216379016808405,0.0975705002418726,3.02360360891564,-0.0921895503997802,-0.1509172469377517,-0.1099952459335327,0.3004263405315578,0.1455477225780487,-9.738366345763206,14965.0
27.7,2.799999952316284,353.0,21.908382415771484,27.33819961547852,-79.78276855911476,40.459064291702255,301.4140946807861,-0.0037829678039997,-0.0171586442738771,-0.9853397011756896,0.1696965843439102,-0.0431623072688904,0.0956702744560584,3.0036844011853736,-0.0741310492157936,-0.0385101065039634,-0.1189384683966636,0.3443064232170582,0.2508253785967827,-9.622575688362122,14966.0
27.8,2.799999952316284,353.0,21.763145446777344,29.59650230407715,-79.78276847972509,40.459064316113945,301.71284078979494,-0.0023483824916183,-0.0174707192927598,-0.9853480458259584,0.1696423143148422,-0.0367293456669693,0.0929177948141996,2.9723192057731267,0.010163546539843,0.0277480967342853,0.0618940107524395,0.2731753188930452,0.1135994407441467,-9.545287776589396,14966.0
27.9,2.799999952316284,353.0,21.8132266998291,28.51506042480469,-79.78276840173662,40.45906435329174,302.023553604126,-0.0018603643402457,-0.0179938077926635,-0.9853045344352722,0.1698464602231979,-0.0408203264712722,0.093363239486719,2.979538185548972,0.0227040853351354,-0.0573059730231761,-0.037703301757574,0.3449417962878943,0.0644789920281618,-9.694464281201364,14967.0
28.1,2.700000047683716,355.0,21.83451271057129,27.10759735107422,-79.78276823512188,40.45906442607139,302.63013433837887,-0.0019657139200717,-0.0188456624746322,-0.9852858185768129,0.1698615103960037,-0.0378123904343681,0.0941020801760349,2.9926476043351866,-0.0529326647520065,-0.0591124035418033,-0.0008905320428311,0.2426255539990961,0.0558129159361124,-9.765131975412368,14967.0
28.3,2.700000047683716,355.0,21.75813674926757,28.24470138549805,-79.78276810945633,40.45906450399328,303.22754644775387,-0.0041884439997375,-0.0174291506409645,-0.9853334426879884,0.169696033000946,-0.023004967541722,0.076534278112965,2.973760795919005,0.0615949667990207,0.0572841875255107,0.1478074193000793,0.3481158476695418,-0.1064371497463435,-9.726758453249932,14968.0
28.4,2.700000047683716,357.0,21.80696678161621,27.58470344543457,-79.78276797032515,40.45906448792203,303.53902410888674,-0.0053605013526976,-0.0156601853668689,-0.9853153228759766,0.1699404418468475,-0.0482942533440953,0.081655748973837,2.9934787462451165,-0.1953912079334259,-0.1287052482366562,-0.1027219519019126,0.2388408888503909,0.4020997910946608,-9.79681335926056,14968.0
28.6,2.700000047683716,359.0,21.82574844360352,26.837236404418945,-79.78276796199223,40.4590645355691,304.14332556152345,-0.002390144392848,-0.015589696355164,-0.9853280186653136,0.1699414104223251,0.0068682973437856,0.0516646672996134,3.000310624330358,0.1592073142528534,0.0664622411131858,0.1012052372097969,0.2526985889486968,-0.1757873109541833,-9.879255591630937,14969.0
28.7,2.5999999046325684,3.0,21.7456169128418,30.407583236694336,-79.78276789064593,40.45906462247475,304.74439215087887,0.0011502467095851,-0.0170684438198804,-0.9853508472442628,0.1696793586015701,-0.0152253753844265,0.0564493243677113,3.0063206198049364,0.1041405349969864,0.0542087964713573,0.044796172529459,0.2352463313005865,0.4345305321738124,-9.79356698513031,14969.0
28.9,2.5999999046325684,8.0,21.79820251464844,27.632413864135746,-79.7827679209587,40.45906464256331,305.04685568237306,0.0001921481598401,-0.0166822727769613,-0.985298991203308,0.170022502541542,-0.0034261598835908,0.0483280511006065,3.0114960182850115,0.1150494962930679,0.0470609031617641,0.1520302593708038,0.2734950519539416,-0.2417921064980328,-9.901182650327684,14970.0
29.0,2.5,16.0,21.809471130371094,28.75361442565918,-79.78276791428,40.459064698415695,305.34852575683595,-0.001684843446128,-0.0156623683869838,-0.9853470325469972,0.1698326617479324,-0.0258686428224464,0.0402854732217378,3.020345167390236,-0.2457344979047775,-0.1309227794408798,-0.1408374607563018,0.1698760134726762,0.3540187580510974,-9.795275541543964,14970.0
29.2,2.5,20.0,21.76189422607422,27.680124282836918,-79.78276788453786,40.45906478409147,305.9535176696777,-0.0044973818585276,-0.01289286557585,-0.9856001734733582,0.1685407310724258,0.0251260681733066,0.0096816630618005,3.0158909306435784,0.1322280466556549,0.0685720294713974,0.1031026765704155,0.2416253329440952,-0.0760160464374348,-9.87454624414444,14970.0
29.3,2.5,29.0,21.76064109802246,27.67217254638672,-79.78276799115956,40.45906489411885,306.55856680297853,-0.0055197463370859,-0.0093718832358717,-0.9856529831886292,0.1684340536594391,0.0291897120715343,-0.0163032173266584,3.0090587088464216,-0.0352325998246669,-0.0774064809083938,-0.0807442441582679,0.1549429007805884,0.07538767632097,-9.829699269533158,14971.0
29.5,2.5,32.0,21.83952140808105,26.686153411865234,-79.7827680115934,40.45906496389794,306.85841345214845,-0.0051685166545212,-0.009368416853249,-0.9856769442558287,0.1683050543069839,0.0355543884354382,-0.0319320069817946,2.990296850930473,0.0515820495784282,0.0932800993323326,0.0259342193603515,0.1629126922599971,0.2433428611792624,-9.662064274549484,14971.0
29.61,2.5,40.0,21.77942276000977,27.41771697998047,-79.78276811972736,40.45906502432119,307.1618840637207,-0.0042215273715555,-0.0090255895629525,-0.9856903553009032,0.1682715266942978,0.0480447420445548,-0.0313327419496725,2.978697942683495,0.0814499408006668,0.0388039648532867,0.1043423935770988,0.1943054794706404,-0.0885802190937102,-9.686834834218024,14972.0
29.8,2.5999999046325684,42.0,21.7844295501709,28.682048797607425,-79.78276819002376,40.45906515312095,307.7565267028809,-0.003612000728026,-0.0069585070013999,-0.9859888553619384,0.166626825928688,0.030349742948871,-0.0325682901843038,2.9758436025293538,-0.049830425530672,0.0152836823835968,-0.0459227934479713,0.1809034236520529,0.3706791199743748,-9.802383416891098,14972.0
29.9,2.5999999046325684,47.0,21.75062561035156,28.554821014404297,-79.7827682597299,40.45906514017221,308.06123709106447,-0.0032183544244617,-0.0063754166476428,-0.986084759235382,0.1660901606082916,0.0560644664985013,-0.0236182479597162,2.982646858623016,0.2084842324256897,0.0447264872491359,0.1612218916416168,0.2387298831157386,-0.1671612608805298,-9.86956207752228,14973.0
30.1,2.5999999046325684,49.0,21.7456169128418,28.70590400695801,-79.78276839890323,40.4590652282868,308.66473364257814,-0.0029690898954868,-0.0077898171730339,-0.9862085580825806,0.1652975231409073,0.045581816936879,-0.0156841073707568,2.9908123000943223,-0.0638280883431434,-0.0095600327476859,-0.0802024975419044,0.1226392909605056,0.2632977819442749,-9.77569613993168,14973.0
30.2,2.700000047683716,52.0,21.7744140625,28.006147384643555,-79.78276850804771,40.45906528592662,309.2633588256836,-0.0050858263857662,-0.0103421714156866,-0.98590350151062,0.1669179201126098,0.0731550911767068,0.0137132385951351,3.0001678688624485,-0.0642994865775108,-0.0872233659029007,-0.1252502501010894,0.2800658422708511,0.0150183632690459,-9.893690028190612,14974.0
30.4,2.700000047683716,52.0,21.72182846069336,27.27458381652832,-79.78276860980797,40.45906526643495,309.56552481079103,-0.006924198474735,-0.0107388412579894,-0.98579078912735,0.1674913763999939,0.0731533372013668,0.0232778890057073,3.0091042351297785,-0.1907319128513336,-0.0450240522623062,-0.0809038132429122,0.1845157238468528,0.4125692307204008,-9.859825294017792,14974.0
30.5,2.799999952316284,50.0,21.770658493041992,27.354103088378903,-79.78276867756195,40.45906527728841,309.86719107055666,-0.008378985337913,-0.0107225393876433,-0.9857008457183838,0.1679547429084777,0.1134322982962071,0.0253109904614175,3.0176544924639264,0.0863655880093574,0.0395957417786121,0.0972997397184372,0.2160584555938839,0.1904422058165073,-9.865237476825715,14974.0
30.7,2.799999952316284,49.0,21.69428253173828,28.79337310791016,-79.78276883916907,40.45906527094541,310.46589254760744,-0.0085887620225548,-0.009982737712562,-0.9855833649635316,0.168677344918251,0.1033963337217021,0.0373125128784068,2.972765900647933,-0.0587512180209159,-0.1148473992943763,-0.0879382342100143,0.2301684813201427,0.123546952418983,-9.627470977306368,14975.0
30.8,2.799999952316284,47.0,21.6817626953125,29.33409309387207,-79.78276907249213,40.45906523305814,311.0654866638184,-0.008383504115045,-0.0110814925283193,-0.9856163263320924,0.1684262454509735,0.1302145689010355,0.0411966020803656,2.9824427070514887,0.1487108916044235,0.0350670181214809,0.1692214757204055,0.1860155163891613,0.4008863476663828,-9.761172825694084,14976.0
31.0,2.799999952316284,45.0,21.74436378479004,27.3063907623291,-79.78276913608455,40.45906522434048,311.3653676452637,-0.0096119539812207,-0.0112553210929036,-0.9856213927268982,0.1683196723461151,0.1086363288386154,0.0519751758442719,3.004109078905201,-0.0444578789174556,-0.0279286932200193,0.0208183657377958,0.1649051127210259,0.0368583441339433,-9.926128041744231,14976.0
31.1,2.799999952316284,43.0,21.664234161376957,29.07963752746582,-79.78276927305977,40.459065226133546,311.6679532470704,-0.0107650021091103,-0.0109964050352573,-0.9856353998184204,0.1681845039129257,0.115038430984696,0.0518851755116985,2.997886414453724,-0.1178583651781082,-0.1015941277146339,-0.0571249835193157,0.2001723381131887,0.2514849627949297,-9.803362825512886,14976.0
31.3,2.799999952316284,43.0,21.76439666748047,27.807353973388672,-79.78276938816475,40.459065201637046,312.2695195617676,-0.0096598947420716,-0.0107286823913455,-0.9856511354446412,0.16817706823349,0.136924758592221,0.0481694008783442,3.007553209316987,0.2343288660049438,0.1382059156894683,0.2083202749490738,0.2573673896491528,-0.0554802778875455,-9.8703222155571,14977.0
31.4,2.799999952316284,44.0,21.71431541442871,28.093616485595703,-79.78276953958941,40.45906518250125,312.5655591430664,-0.0083752013742923,-0.0113528398796916,-0.9855951070785522,0.1685328036546707,0.1020579251130198,0.0529579770994351,2.9888300019411664,-0.0644787549972534,-0.0561922825872898,-0.0879457294940948,0.1454684197157621,0.1277818714454769,-9.692412493228913,14977.0
31.6,2.900000095367432,44.0,21.71556663513184,28.538917541503903,-79.7827695780102,40.45906511732332,313.1668889465332,-0.0068649868480861,-0.0118206851184368,-0.9856002330780028,0.1685392707586288,0.089416789137899,0.068393115914451,2.9867061847318834,0.0991249606013298,0.0763512924313545,0.0706484988331794,0.1936989770270884,0.1808675363659858,-9.779773403406145,14978.0
31.7,2.799999952316284,46.0,21.637939453125,27.640365600585927,-79.78276960499204,40.45906510297415,313.46582769775387,-0.0067586721852421,-0.0110838515684008,-0.9856224656105042,0.1684637516736984,0.0934901380944456,0.0680224871555759,2.9893351143582625,0.1555190831422805,0.0189810320734977,0.1442751139402389,0.2047012076340616,-0.2030881435610354,-9.839755311012269,14978.0
31.9,2.799999952316284,48.0,21.70054244995117,27.7596435546875,-79.78276968141482,40.45906504442746,314.06921743774416,-0.0052724746055901,-0.0106808030977845,-0.9856890439987184,0.168152630329132,0.0769333767951464,0.06064164687835,2.990951505712608,0.0658388882875442,0.004418748896569,0.0100840758532285,0.1941937793791294,0.2799130106717348,-9.734971452355383,14979.0
32.0,2.900000095367432,51.0,21.597875595092773,29.96228408813477,-79.78276970807624,40.45906503218914,314.3682897033692,-0.0057463329285383,-0.0103466538712382,-0.9856704473495485,0.1682670563459396,0.0788140277739575,0.0633999000646167,2.988706114501728,0.0839202553033828,0.0634583681821823,0.0911934599280357,0.1881008893065154,-0.1070503490790724,-9.782609887719154,14979.0
32.2,2.900000095367432,51.0,21.679258346557614,28.65024185180664,-79.78276975425511,40.45906498488936,314.9760701599121,-0.008805138990283,-0.0099571216851472,-0.985720992088318,0.1678617298603058,0.0562641413107634,0.0578221407201043,3.032860237788004,-0.1813425123691558,-0.1009402349591255,-0.1048064902424812,0.1266140088904649,0.3939113868400455,-9.909491543769835,14979.0
32.31,2.900000095367432,52.0,21.75062561035156,27.67217254638672,-79.78276977241212,40.45906497824443,315.2798383178711,-0.0092886378988623,-0.0114424703642725,-0.985708236694336,0.1678159534931183,0.0827613052137694,0.0477398952974913,3.039073871648912,0.0957365334033966,0.1413918733596801,0.010105206631124,0.1640343892201781,0.2719688373059034,-9.86207413315773,14980.0
32.5,2.900000095367432,53.0,21.710559844970703,29.365901947021484,-79.78276993475713,40.459064931940354,315.88215231323244,-0.0087274257093667,-0.0138695165514945,-0.985706388950348,0.1676734685897827,0.0734211997489776,0.0638651306897145,3.012765849920436,-0.0976593792438507,-0.0469388663768768,-0.0648762881755828,0.2334623458050191,0.279077534917742,-9.666946114897726,14980.0
32.6,2.900000095367432,54.0,21.710559844970703,27.3620548248291,-79.78276998807992,40.459064938649966,316.48776220703127,-0.007266332861036,-0.0111996792256832,-0.9858299493789672,0.1672155261039734,0.0834529215003905,0.0523777846748242,3.0001367551763707,0.1376078575849533,0.0308042801916599,0.1643425673246383,0.1431941908691078,0.2703676503896713,-9.672891563773156,14981.0
32.8,2.900000095367432,54.0,21.685518264770508,29.38975715637207,-79.78277000290602,40.45906494814379,316.78757070922853,-0.0068330792710185,-0.0098665906116366,-0.985851228237152,0.1671927571296692,0.0471577299036115,0.048625009929626,2.994657099763097,-0.1457129418849945,-0.1238724142313003,-0.0826147720217704,0.1418684717640281,0.2669375275075436,-9.702266221046449,14981.0
32.9,2.900000095367432,54.0,21.74812126159668,28.825180053710927,-79.78276998940245,40.459064884487866,317.0919835510254,-0.0083297304809093,-0.0092858234420418,-0.9858497977256776,0.1671667397022247,0.0585622544975087,0.0516029739891651,3.00709677601586,0.0591317787766456,0.125044584274292,-0.0168779212981462,0.2263364902697504,0.1741316535696387,-9.83954247236252,14982.0
33.1,2.900000095367432,52.0,21.71431541442871,28.90469741821289,-79.7827700064857,40.459064848092005,317.69969915771486,-0.0098491748794913,-0.011525441892445,-0.985554039478302,0.1686814576387405,0.0529381490207645,0.0545268450731511,3.016542203048932,-0.1302602142095565,0.0296693556010723,-0.0905248299241066,0.2128899042494596,0.4890048742666841,-9.773568338155746,14982.0
33.2,2.900000095367432,51.0,21.785682678222656,27.40181350708008,-79.78276999085149,40.459064834479015,318.30197500610353,-0.0094201145693659,-0.0143705960363149,-0.9853155612945556,0.1698768883943557,0.0704843801735072,0.0747407216087581,2.993157180593295,0.0499513000249862,0.0435622297227382,0.1242928877472877,0.2043888018652797,0.1333655786700547,-9.777468430995944,14983.0
33.4,2.900000095367432,50.0,21.74686813354492,26.717960357666016,-79.78277003805213,40.4590647897466,318.6073262634277,-0.0090967277064919,-0.0152480527758598,-0.9852988719940186,0.1699143499135971,0.0507568818831048,0.0777486266669113,2.987056648340243,-0.1639977544546127,-0.0872232466936111,-0.0807487443089485,0.1356856898870319,0.4692492887377739,-9.61168174088001,14983.0
33.5,2.900000095367432,49.0,21.77316093444824,28.04590606689453,-79.78277004128745,40.45906473582846,319.2138135375977,-0.0089532230049371,-0.0140566201880574,-0.9854532480239868,0.1691282093524933,0.0482586012353602,0.0810391946638939,2.974999026260388,-0.1763167232275009,-0.0680344924330711,-0.1101028472185134,0.2898065361008048,-0.0854102607630193,-9.68199275493622,14984.0
33.7,2.900000095367432,49.0,21.66172981262207,28.578676223754893,-79.78277003661997,40.45906473790468,319.5106847229004,-0.0097495783120393,-0.0132034830749034,-0.9855501651763916,0.1685869842767715,0.0629021884358607,0.069971927650151,2.965184750586348,0.0319266878068447,-0.0201317742466926,-0.0058639873750507,0.1815428532287478,0.2643536977283657,-9.70824792265892,14984.0
33.8,2.900000095367432,49.0,21.685518264770508,28.65819358825684,-79.78277002856113,40.45906474482095,319.8080480041504,-0.0111156655475497,-0.0127869974821805,-0.985617995262146,0.1681375652551651,0.0723618878737872,0.0598923886967672,2.9773415144631667,0.1363696902990341,0.0910849347710609,0.0977542623877525,0.2325444974005222,-0.0074214962404221,-9.894956535100937,14984.0
34.0,2.900000095367432,49.0,21.76189422607422,26.28856468200684,-79.78276992655209,40.45906463085129,320.42317938232424,-0.0108546186238527,-0.0122902272269129,-0.9856961369514464,0.1677326112985611,0.0494058002021756,0.0677724975776627,3.0042004691070927,-0.1013870909810066,-0.0374552682042121,-0.0916852951049804,0.1580790000781416,0.5525568724796176,-9.788541887998582,14985.0
34.1,2.900000095367432,49.0,21.72182846069336,28.006147384643555,-79.78276993947523,40.459064620704495,320.72644400024416,-0.0101976534351706,-0.0130295660346746,-0.9856772422790528,0.167829230427742,0.0776008494439519,0.0580033417239347,2.999282846474703,0.243868812918663,0.0690955594182014,0.1511378139257431,0.2360924234054983,-0.165105562582612,-9.83153061747551,14985.0
34.3,2.900000095367432,50.0,21.770658493041992,27.41771697998047,-79.7827698867118,40.4590646446449,321.3247754516602,-0.0091548804193735,-0.0124810077250003,-0.9856322407722472,0.1681951880455017,0.0379980639580986,0.0595212714911177,2.9839603746783623,0.0123752607032656,-0.0280903652310371,-0.0337031595408916,0.2231558242253959,0.3175496374815703,-9.76852569937706,14986.0
34.4,3.0,52.0,21.61289978027344,29.707826614379893,-79.78276987012326,40.45906462794496,321.92891287231447,-0.0092511363327503,-0.0111549440771341,-0.9855436682701112,0.1688011735677719,0.0367253912321646,0.0514661365631332,3.0042294288717253,-0.0370843522250652,-0.0972363427281379,-0.0388883464038372,0.2316555196233093,0.0704987188149243,-9.789717763066292,14986.0
34.6,3.0,53.0,21.67174530029297,28.4912052154541,-79.78276982221287,40.45906460332875,322.23027014160164,-0.0086502572521567,-0.0113875763490796,-0.9855412244796752,0.1688314229249954,0.0114420368967992,0.0463567772534269,3.000668029496264,-0.1591111123561859,-0.0363190732896328,-0.1116764992475509,0.1441048581618815,0.5138516304641962,-9.804228798151016,14987.0
34.7,3.0,55.0,21.70179557800293,28.44349479675293,-79.78276978522,40.45906462473964,322.5305287780762,-0.0087604112923145,-0.0115689700469374,-0.9855377674102784,0.1688334941864013,0.0362462166017004,0.0437705083089737,3.0050567843157654,0.1422746330499649,0.0359511598944664,0.0417500622570514,0.1601429392956197,0.0791425023972988,-9.8828247320652,14987.0
34.9,3.0,55.0,21.71932411193848,26.67820167541504,-79.78276978444279,40.459064631263,323.13310217285164,-0.0083358539268374,-0.0101325223222374,-0.985611855983734,0.1685146689414978,0.0340529501724169,0.043155973070998,3.02202185558106,-0.0179424937814474,-0.0941554084420204,-0.0090230787172913,0.1382115408685058,0.0742922004684805,-9.981902292966844,14988.0
35.01,3.0999999046325684,58.0,21.739356994628903,27.457475662231445,-79.78276975696483,40.45906465500024,323.43656134033205,-0.0074249641038477,-0.0093944640830159,-0.9857106804847716,0.1680213958024978,0.0123396147195802,0.0351890467801455,3.043565949306976,-0.1312965601682663,-0.0535761266946792,-0.093742661178112,0.1145225699152797,0.3910383939743042,-9.951771590709685,14988.0
35.2,3.0999999046325684,59.0,21.71431541442871,27.370006561279297,-79.78276977875916,40.45906468466208,324.0406835021973,-0.0069119804538786,-0.0091846883296966,-0.985835611820221,0.1673202365636825,0.0307967758853028,0.0243208163500309,3.0364097549015727,0.0264738071709871,0.0380537398159504,0.1219974756240844,0.1048106279410422,-0.0445343130268156,-9.86195368051529,14989.0
35.3,3.0999999046325684,62.0,21.75062561035156,28.10951995849609,-79.78276979866594,40.459064750106776,324.6481015625,-0.0062028686515986,-0.009831678122282,-0.9859576225280762,0.1665908098220825,0.0313661593671864,0.0150347352964471,3.011195874765839,-0.0421310886740684,0.019873596727848,-0.0443673469126224,0.1730894056521356,0.1955691541358828,-9.791029878258705,14989.0
35.5,3.0999999046325684,62.0,21.70555114746093,27.20301818847656,-79.78276979931384,40.459064785338654,324.9494588317871,-0.0060579571872949,-0.0091921212151646,-0.9860637784004213,0.1660032570362091,0.0461772228184392,0.0137683881200054,3.013724700325917,0.1051625609397888,0.0136598860844969,0.1856720596551895,0.1956473058275878,-0.0412667244672775,-9.825256555080417,14989.0
35.6,3.0999999046325684,62.0,21.624168395996094,29.469274520874023,-79.78276982129509,40.45906476917951,325.2555463256836,-0.0063204229809343,-0.0086528453975915,-0.986120104789734,0.165688082575798,0.0246415929798116,0.0243085020365253,3.0132371466683554,-0.126316949725151,-0.1177805066108703,-0.0724606588482856,0.0919879398308694,0.2803625519201159,-9.719126082658768,14990.0
35.8,3.0999999046325684,62.0,21.723079681396484,27.46542739868164,-79.78276982581505,40.45906481912179,325.8574635925293,-0.0084108505398035,-0.0089296298101544,-0.985953688621521,0.1665679514408111,0.0344523277641633,0.0236990509231466,3.0074835560233915,-0.1280495077371597,-0.1029692664742469,-0.0966833233833313,0.149876114828512,0.2386120799928904,-9.769150182008744,14990.0
35.9,3.0,63.0,21.72808837890625,26.717960357666016,-79.78276982204281,40.459064838736666,326.46538137817384,-0.0080007091164588,-0.0109580876305699,-0.9856768250465392,0.1680986881256103,0.0571780157940988,0.0339806047990731,3.0029686936368667,-0.0151349510997533,-0.0156838316470384,0.0176430419087409,0.1998835587501526,0.2525896297395229,-9.766634125113493,14991.0
36.1,3.0,59.0,21.71556663513184,26.90085029602051,-79.78276983016069,40.45906483045325,326.7722814025879,-0.0074536367319524,-0.0115594333037734,-0.9855461120605468,0.1688481867313385,0.0489782987135975,0.0356604309667779,3.0002554274718483,-0.0097424620762467,-0.0028401957824826,0.0026261347811669,0.1975534798577428,0.2911073954030872,-9.74681030988693,14991.0
36.2,3.0,56.0,21.710559844970703,27.52108955383301,-79.78276982858941,40.45906484979195,327.07258200073244,-0.008246412500739,-0.0128796640783548,-0.9854423403739928,0.1693209856748581,0.0568287039593921,0.040840219296723,3.002989236461276,0.0771058350801467,0.1308361887931823,0.0549314729869365,0.2406925741396844,0.0730804107058793,-9.790304238796235,14992.0
36.4,3.0,54.0,21.749372482299805,27.083742141723643,-79.78276985643839,40.45906482832228,327.6778027954102,-0.0091701447963714,-0.0140236364677548,-0.9854189157485962,0.1693189144134521,0.0563141096975907,0.0556804919109344,2.9963340472334514,-0.0242122486233711,0.070971168577671,-0.0834810361266136,0.2627357183396816,0.4837129248306156,-9.720463340878489,14992.0
36.51,2.900000095367432,51.0,21.624168395996094,29.26252746582031,-79.78276985434287,40.459064840545565,327.9773061218262,-0.0093651292845606,-0.0130071965977549,-0.9854010939598083,0.1694929450750351,0.0758621946401893,0.0616455485651539,2.989133602537962,0.1165619790554046,0.0086276987567543,0.0983899310231208,0.2502073461748659,-0.1527045318111777,-9.747514314651491,14992.0
36.7,2.900000095367432,49.0,21.733097076416016,26.527118682861328,-79.78276981381809,40.45906486413629,328.5811307373047,-0.0068519515916705,-0.0121191069483757,-0.985422134399414,0.1695567965507507,0.0362578562529474,0.0441147656759992,3.006259100568005,0.0284846909344196,0.0523490309715271,0.0097686816006898,0.1454243189189583,0.3106408963724971,-9.821204434633255,14993.0
36.8,2.799999952316284,46.0,21.73810386657715,25.636518478393555,-79.78276983343397,40.45906483764541,329.1843602600098,-0.0052445759065449,-0.0130347004160285,-0.985489308834076,0.1691554635763168,0.0228258770318402,0.0515402600616017,2.9929426180841627,-0.22335284948349,-0.0641398355364799,-0.1182739287614822,0.2405964788049459,-0.2234132844395936,-9.792655988931656,14994.0
37.0,2.799999952316284,45.0,21.656721115112305,28.92855262756348,-79.7827698384669,40.45906485367574,329.4826657714844,-0.0049959947355091,-0.013621780090034,-0.9855002760887146,0.1690526306629181,0.0559396544211587,0.0508430584273026,2.9763928773242863,0.1424814611673355,0.0724426284432411,0.1188120692968368,0.2192572297342121,-0.0327901575481519,-9.71286079108715,14994.0
37.1,2.799999952316284,45.0,21.649208068847656,27.497234344482425,-79.78276983389918,40.45906479926619,329.7881543579102,-0.0057299695909023,-0.0136810122057795,-0.9855501651763916,0.1687335819005966,0.0463759803309235,0.0641404682903137,2.9884457138583214,-0.0172676257789134,-0.0143756046891212,0.0468588769435882,0.2002453369461,0.0060925063490867,-9.803951640129087,14994.0
37.3,2.799999952316284,44.0,21.723079681396484,26.670249938964844,-79.78276985165144,40.4590648213467,330.38944982910164,-0.006672479212284,-0.0152849443256855,-0.9856543540954592,0.1679503619670868,0.0717737682431041,0.0528627300877515,3.021659271998877,0.1675218641757965,0.1294891089200973,0.1569359004497528,0.226825847402215,0.1010238431766629,-9.999767875671386,14995.0
37.4,2.700000047683716,42.0,21.63167953491211,27.97434043884277,-79.78276995587262,40.45906485044815,330.9967076721192,-0.0061438847333192,-0.0160511620342731,-0.985754132270813,0.1673123240470886,0.0526406008604335,0.0593019424337484,3.038194038656462,-0.1137764006853103,-0.1317217051982879,-0.0333748459815979,0.1725746131315827,-0.0350859617069363,-9.884656080007554,14995.0
37.6,2.700000047683716,42.0,21.74436378479004,27.71988296508789,-79.78276998968775,40.45906482652142,331.2998464050293,-0.0061984173953533,-0.0144591834396123,-0.9858380556106568,0.1669607609510421,0.0641067887309126,0.0568593268151479,3.020123237208723,0.0163351148366928,0.0246343854814767,-0.0055995522998273,0.2395524401776493,0.3030941874906421,-9.778332649469377,14996.0
37.7,2.700000047683716,43.0,21.64795684814453,29.397708892822266,-79.78277001795277,40.45906485301149,331.60148596191414,-0.0061004725284874,-0.0132190138101577,-0.9858335852622986,0.1670937091112136,0.0764559178373463,0.0439759615181984,3.0108319226764007,0.0683111995458602,-0.0344660058617591,-0.0307383984327316,0.2328426505811512,-0.0524197218753397,-9.775024879574776,14996.0
37.9,2.700000047683716,42.0,21.713064193725582,27.266632080078125,-79.7827701009615,40.45906484254344,332.2086751403809,-0.0067386096343398,-0.0118664633482694,-0.9857947826385498,0.1673993617296219,0.0800471121449555,0.0401336318308458,3.0240859537431883,0.1566040366888046,0.0305798519402742,0.1364482343196869,0.3283633319288493,-0.0666045462805777,-9.918560575246811,14997.0
38.0,2.700000047683716,42.0,21.596622467041016,29.07963752746582,-79.78277013071771,40.45906486284375,332.5113599243164,-0.0066619492135941,-0.0112106697633862,-0.9857612252235411,0.1676449328660965,0.0627744582079576,0.0353076098252497,3.0242138090935384,-0.0414735749363899,0.0082787340506911,-0.076620876789093,0.2253218156285584,0.2736757857352495,-9.776839270591736,14997.0
38.2,2.700000047683716,42.0,21.600378036499023,28.26060485839844,-79.78277021016359,40.459064914542346,333.12519430541994,-0.007208103314042,-0.0116064930334687,-0.9857168197631836,0.1678564697504043,0.0764195098198278,0.0275367243215007,3.0394815436998863,0.0970727130770683,0.0699564889073371,0.1419663280248642,0.2805853308364749,0.0381538495793938,-9.86750385761261,14998.0
38.3,2.700000047683716,41.0,21.659225463867188,28.817228317260746,-79.78277023825574,40.45906493531851,333.42950415039064,-0.0081409579142928,-0.0114396316930651,-0.9856578707695008,0.1681712120771408,0.0593894147887335,0.037451382277566,3.043081525937545,-0.1161931678652763,-0.1270966827869415,-0.0897848531603813,0.1712164328433573,0.2284760412946344,-9.811182307004929,14998.0
38.5,2.700000047683716,40.0,21.686769485473643,27.44157218933105,-79.78277037818873,40.459064925264826,334.0376279296875,-0.0091888178139925,-0.0121590951457619,-0.9856263995170592,0.1682507544755935,0.0831853396945754,0.0339868959878741,3.022051645993232,-0.0390335619449615,0.0154586751013994,0.0292640756815671,0.1986091946437955,0.1172556772828102,-9.729417182207108,14999.0
38.6,2.700000047683716,39.0,21.67800521850586,28.1015682220459,-79.78277043635049,40.45906494662957,334.3429334106445,-0.0093947108834981,-0.0126597248017787,-0.9856339097023008,0.1681586503982544,0.0841443203139842,0.03130403667463,3.009837086716624,-0.0015561879845336,-0.0484810248017311,-0.0421144776046276,0.2414607338234782,0.2568439724855125,-9.71080432534218,14999.0
38.8,2.700000047683716,39.0,21.652965545654297,27.656269073486328,-79.78277049837583,40.45906499116955,334.9430615844727,-0.0087221348658204,-0.0138936350122094,-0.9856792688369752,0.1678310632705688,0.0753011790240299,0.038181330165606,2.999072888807864,-0.0866530686616897,-0.0948259979486465,-0.0773288011550903,0.149165449719876,0.1827706223353744,-9.779804978370668,14999.0
38.9,2.700000047683716,39.0,21.63543701171875,28.05385780334473,-79.78277056024096,40.459064986286826,335.25157141113283,-0.0075703142210841,-0.0139880934730172,-0.9857445359230042,0.1674960404634475,0.0788149900284108,0.0363957020344631,3.012960115740756,0.0118791200220584,0.0305034201592206,-0.016120258718729,0.2152329383790493,0.3579155252873898,-9.807185150384903,15000.0
39.1,2.700000047683716,40.0,21.626672744750977,28.65024185180664,-79.78277060758074,40.45906502270096,335.85910009765627,-0.007266535423696,-0.0127353686839342,-0.9857449531555176,0.167606696486473,0.0597638401583414,0.0342858808942016,3.0146461979524863,-0.1101834550499916,-0.0419572591781616,-0.027498660609126,0.1865767211839556,0.2161074077524244,-9.804312998056412,15000.0
39.2,2.799999952316284,40.0,21.69303131103516,27.58470344543457,-79.7827706339484,40.45906505170873,336.1605451049805,-0.0079245986416935,-0.0131295649334788,-0.9857046008110046,0.1677836328744888,0.0607945582065196,0.0286843585158892,3.015522151309288,-0.0384828187525272,0.0241909231990575,-0.0072475224733352,0.1577641823329031,0.3257021179050207,-9.840242968797684,15001.0
39.41,2.799999952316284,41.0,21.64169692993164,28.80927658081055,-79.78277066479383,40.459065073158,336.7702634277344,-0.0081372084096074,-0.0113955773413181,-0.9856374263763428,0.1682938337326049,0.0614052895453643,0.0347400726766489,3.0167262834009825,-0.1516157835721969,-0.1136153563857078,-0.0844060257077217,0.0679173284210264,0.2730317149311304,-9.744236365556716,15001.0
39.5,2.799999952316284,43.0,21.695533752441406,26.702056884765625,-79.78277076298562,40.45906505491485,337.3769528808594,-0.0081597939133644,-0.0111988503485918,-0.985608458518982,0.1684757769107818,0.0919256796275468,0.0421709252572187,3.0088905595464928,0.0825016871094703,0.0811160877346992,0.0535644926130771,0.1902516231313348,0.2398762480169535,-9.777578358650208,15002.0
39.7,2.799999952316284,44.0,21.74186134338379,27.751691818237305,-79.7827707996215,40.45906506162794,337.67842840576174,-0.0087125450372695,-0.0104895448312163,-0.9856480360031128,0.1682621985673904,0.0866690842689847,0.0455735367397215,3.016206604104521,-0.0774026662111282,-0.1090030148625373,-0.0625579804182052,0.1739124560728669,0.1364056374505162,-9.821432476043704,15002.0
39.8,2.900000095367432,45.0,21.72683525085449,26.02615547180176,-79.78277083668044,40.459065065492936,337.97945379638674,-0.0088380761444568,-0.0100664915516972,-0.9857104420661926,0.1679150462150573,0.0765814414514523,0.0395677568546831,3.004544425274393,-0.1030615493655204,0.0301641169935464,-0.1125896871089935,0.2010382924787701,0.5910486180335284,-9.732658878564836,15002.0
40.0,2.900000095367432,45.0,21.685518264770508,26.71000862121582,-79.78277092363776,40.45906509501468,338.5856091918945,-0.0098947994410991,-0.010699420236051,-0.985705018043518,0.1678493767976761,0.0759519203499899,0.0398971503474191,3.0071894850935235,-0.1922497898340224,-0.0563885904848575,-0.1606125384569168,0.1909173651784658,0.4587374933436513,-9.844183992147446,15003.0
40.1,2.900000095367432,46.0,21.662981033325195,27.95048522949219,-79.7827709109845,40.45906511557372,339.1952588500977,-0.0094046825543046,-0.012680665589869,-0.9856421947479248,0.1681081354618072,0.0941965995871769,0.0455814643967922,3.002576580998177,0.1126091554760932,0.1223613917827606,0.0992408543825149,0.1830645180121064,0.3427396983280778,-9.793760527968407,15004.0
40.3,2.900000095367432,46.0,21.64545249938965,27.78349876403809,-79.78277092995594,40.45906511922536,339.4949414672852,-0.0097280731424689,-0.014220168814063,-0.9856134057044984,0.1681354939937591,0.0657355753879234,0.0597532581251189,2.988308242371561,-0.175177976489067,-0.098704844713211,-0.0571071803569793,0.1228181061241775,0.3140661587566137,-9.6238345938921,15004.0
40.4,3.0,47.0,21.778169631958008,23.068096160888672,-79.78277100467884,40.45906512875997,339.80242895507814,-0.0101663246750831,-0.0147536983713507,-0.9856441020965576,0.167882815003395,0.1086532432043895,0.0582557993669983,2.977324729810592,0.1758595108985901,0.0831362828612327,0.1859681904315948,0.3087521360814571,-0.0403271774109453,-9.678080382943154,15004.0
40.6,3.0,47.0,21.952205657958984,21.485692977905277,-79.78277099522157,40.45906509029621,340.40483068847664,-0.0108237490057945,-0.0131169194355607,-0.9857417941093444,0.1674038171768188,0.094084453537134,0.06409599531323,2.8954782976472084,0.0418866053223609,0.005768240429461,0.0002767246041912,0.198217486012727,0.1995641180500388,-9.196465110182762,15005.0
40.7,2.900000095367432,50.0,21.910886764526367,21.764005661010746,-79.7827710146737,40.459065091885584,340.6896283569336,-0.0109764197841286,-0.01258335262537,-0.9857661724090576,0.1672909259796142,0.0828649458949366,0.0555501982768462,2.7885727811169105,-0.0287548378109931,0.0107871601358056,-0.0206148121505975,0.2112462153844535,0.2732335169613361,-8.82155684530735,15005.0
40.9,2.900000095367432,49.0,21.984758377075195,21.430030822753903,-79.78277103429099,40.45906505803803,341.24208044433595,-0.0116586266085505,-0.0142110446467995,-0.9857413768768308,0.1672604531049728,0.0725386082252053,0.0503389725669999,2.5643889735104377,-0.0343085750937461,0.042627852410078,-0.0220364928245544,0.2269619413465261,0.2635122103057802,-8.505545829534531,15006.0
41.0,2.900000095367432,49.0,21.984758377075195,19.887386322021484,-79.78277104472296,40.4590650614237,341.49146246337887,-0.012269222177565,-0.0153702413663268,-0.9857118725776672,0.1672883331775665,0.0725664057727518,0.050221962093731,2.420318637385791,-0.0054772249422967,-0.0382096320390701,0.0511364974081516,0.1441158947814256,0.1961891782656312,-8.389227168560026,15006.0
41.2,2.799999952316284,49.0,21.95345687866211,21.87532997131348,-79.78277103274148,40.45906505467115,341.96504949951174,-0.0105926152318716,-0.0183092765510082,-0.985665500164032,0.1673804223537445,0.0648764492780325,0.0417461123960128,2.163132303797393,0.058703850954771,0.0744148418307304,0.0004943025414831,0.2054574353434145,0.2038205986842513,-8.405668369531632,15006.0
41.3,2.799999952316284,51.0,21.970985412597656,21.42207908630371,-79.78277103888048,40.45906507722751,342.1749036254883,-0.0098173078149557,-0.0199202597141265,-0.9856209754943848,0.1675058603286743,0.0591224979022527,0.0353858659322191,2.035199173120452,0.0597000829875469,0.0466420426964759,0.0476837791502475,0.1796963756158948,0.0354445513430982,-8.50496052324772,15007.0
41.5,2.700000047683716,53.0,21.87332534790039,23.40207099914551,-79.78277102043114,40.45906513076937,342.5762937011719,-0.008482489734888,-0.0184401087462902,-0.9856287837028505,0.1677019894123077,0.0339390156733021,0.0170363355590826,1.8425674910350056,-0.0274141505360603,-0.0420449189841747,-0.0336584337055683,0.1604226372018456,0.2445256432704627,-8.738146314024926,15007.0
41.6,2.5999999046325684,55.0,21.977245330810547,21.056297302246094,-79.78277095866089,40.459065182660936,342.96216558837887,-0.007545571308583,-0.0134469186887145,-0.985690712928772,0.1678575426340103,0.026879928123677,-0.0146360540078128,1.7166208299258798,0.0024302641395479,-0.0354676507413387,0.0091759143397212,0.1554832017794251,0.2768431493639946,-8.956239856481554,15007.0
41.8,2.5999999046325684,56.0,21.859554290771484,23.736045837402344,-79.78277098020855,40.45906524200661,343.1298291625977,-0.0066282525658607,-0.0121395820751786,-0.9857411980628968,0.1676994264125824,0.0359529608327721,-0.0334710283435143,1.6425495399697705,0.0480508506298065,0.0235008485615253,-0.030840940773487,0.1758630141243338,0.2213608386553824,-9.084190383553503,15008.0
41.9,2.5,57.0,21.870820999145508,24.11773109436035,-79.78277084210687,40.45906520289765,343.3471219482422,-0.0043406100012362,-0.0117191923782229,-0.9857864379882812,0.1675384044647216,0.0338762754519179,-0.0273812404664821,1.644791554298769,0.1181689947843551,0.0541176199913024,-0.0231641512364149,0.2002174713090062,0.2016413048654795,-9.183493646979333,15008.0
42.1,2.400000095367432,57.0,21.940937042236328,22.185449600219727,-79.78277069098087,40.45906518230533,343.7346265258789,-0.0005360033828765,-0.0096216900274157,-0.9858263731002808,0.1674920320510864,0.0232368552642406,-0.0129022368822143,1.5942351763261722,0.0624863840639591,0.0201645176857709,-0.005877605639398,0.2032559586502612,0.1656461924873292,-9.185327918529511,15008.0
42.2,2.299999952316284,56.0,21.905879974365234,23.20327568054199,-79.78277072054945,40.459065214280095,343.89083074951174,-0.0016740190330892,-0.0074206008575856,-0.9858074784278872,0.1677077114582061,0.0301841707379832,-0.0114969870618667,1.528665580660112,0.0001586110593052,-0.0046087494120001,-0.0315261520445346,0.2567429252900183,0.1610555252060294,-9.156889985203744,15008.0
42.4,2.299999952316284,55.0,21.958465576171875,20.56328773498535,-79.78277058215333,40.45906512397925,344.25157904052736,-0.0041651176288723,-0.0021244720555841,-0.9857637286186218,0.1680717021226883,0.0417880191151243,0.0100693580334514,1.4566103777958683,-0.0245251581072807,-0.0397204086184501,0.0126907797530293,0.1842554679326713,0.2002787757106125,-9.09737643957138,15009.0
42.5,2.200000047683716,53.0,22.77605438232422,2.616133689880371,-79.78277048081263,40.45906501530239,344.5703656616211,-0.0058955112472176,-0.0053420374169945,-0.9854392409324646,0.1698418110609054,0.0357139206715287,0.0304850362563977,1.1824823195685457,-0.0167410355061292,0.0602401047945022,-0.2017853856086731,0.1718716681748628,0.2949396605417133,-8.963163544535638,15009.0
42.7,2.0999999046325684,51.0,21.98350715637207,21.92304039001465,-79.78277047956671,40.4590649839009,344.6749494018555,-0.0062266774475574,-0.0081695457920432,-0.9807279109954834,0.1951087266206741,0.0095730010580187,0.0432504384886102,0.9261602351333528,-0.025173868983984,0.0647190660238266,-0.7912467718124391,0.1417724221106618,0.1471660126000643,-7.461559973359108,15009.0
42.8,2.0999999046325684,51.0,21.984758377075195,21.87532997131348,-79.78277046332178,40.459064952330046,344.758567565918,-0.0060712550766766,-0.0085801277309656,-0.9711890816688538,0.2380786091089249,0.0062375626784729,0.0452456413970014,0.7531946593594349,0.0019055117154493,-0.0224738884717226,-1.0051372051239014,0.0829551793634891,0.0180245401756838,-7.970167163014412,15009.0
43.0,2.0,51.0,21.955961227416992,20.8813591003418,-79.78277056727664,40.45906498312017,344.8572919311524,-0.0024395566433668,-0.0092674093320965,-0.9365830421447754,0.35031458735466,0.0105640151958964,0.0247939586893816,0.5403288094572846,0.0041148466989398,0.0350009687244892,-1.3098927736282349,0.0171755564399063,0.264481897931546,-8.816557475924492,15009.0
43.11,2.0,47.0,21.96347427368164,21.326658248901367,-79.78277074384408,40.4590650477039,344.8456799926758,0.0002599389699753,-0.0089872917160391,-0.914005696773529,0.4056017696857453,0.0341984260850352,0.009071824331089,0.4628419317253762,0.115172654390335,-0.0033057064283639,-1.3760730028152466,0.047710420070216,-0.0080644524190574,-9.086313507556916,15009.0
43.3,2.0,39.0,21.809471130371094,23.69628715515137,-79.78277082527238,40.45906502464539,344.9258344116211,0.0032585666049271,-0.007409025914967,-0.8439982533454895,0.536284863948822,0.0436762363034616,-0.03031413255861,0.3532525006759754,0.0213056150823831,-0.0441319458186626,-1.563454031944275,-0.0227317497739568,0.1052219247445464,-9.358787909746171,15009.0
43.4,1.8999999761581416,44.0,21.77942276000977,24.56303024291992,-79.78277105008965,40.45906500179703,344.9504163208008,0.0046836356632411,-0.0035031272564083,-0.7526963353157043,0.6583418846130371,0.0573608952192287,-0.0846479186364901,0.3475866364049022,-0.0442491471767425,-0.0273312516510486,-1.4842898845672607,-0.0365256649721413,0.0815619888715446,-9.58674044251442,15009.0
43.6,1.8999999761581416,47.0,21.87833404541016,23.50544357299805,-79.78277096915328,40.45906495790493,344.93374609375,0.0062951622530817,-0.0017689423402771,-0.7076821327209473,0.706500768661499,0.0887080234791358,-0.0915352330304705,0.3586552542421624,0.0650664344429969,0.0291695371270179,-1.2428656816482544,-0.0605835312791168,0.4378064712882042,-9.884878274202348,15009.0
43.7,1.8999999761581416,28.0,21.77190971374512,25.159412384033203,-79.78277109994241,40.45906487281341,344.9694821777344,0.0075033651664853,0.0015656816540285,-0.6696377992630005,0.7426482439041138,0.1235108662347601,-0.1066761091563699,0.3589770373179263,0.2101444900035858,0.0138704124838113,-0.8151174783706665,0.0434936913661658,0.0254945180565118,-9.877875648736952,15009.0
43.91,1.7999999523162842,23.0,21.69803810119629,26.081817626953125,-79.78277043181859,40.459064477265294,345.0730969848633,0.0081751029938459,0.0070337634533643,-0.621316134929657,0.7834858894348145,0.1736498510313588,-0.0839710024658231,0.4912399361902894,0.0118785016238689,0.0069225202314555,-0.2360284328460693,0.0182467172399628,0.2057836186140776,-10.360417120456695,15010.0
44.0,1.8999999761581416,35.0,21.821990966796875,23.43387794494629,-79.78277046625495,40.45906428763649,345.1263348999024,0.0030781694222241,0.0110961254686117,-0.611491858959198,0.7911669015884399,0.2077164133102222,-0.0518333283441058,0.5740902320033935,0.0247120782732963,-0.3176062107086181,-0.0709115490317344,0.3131616310402751,0.1605719787441194,-10.491942050457002,15010.0
44.1,1.8999999761581416,41.0,21.86080551147461,22.670507431030277,-79.78277067840631,40.459064307744384,344.9812543334961,-0.0151346083730459,0.0273678954690694,-0.6093579530715942,0.7922782301902771,0.241619010633347,0.0067839350948366,0.5072374852349354,0.1138838529586792,-0.5650023818016052,0.1211227104067802,0.0525320934830233,0.1673434016481042,-9.930021117925644,15009.0
44.3,1.8999999761581416,38.0,21.72683525085449,25.58085632324219,-79.78277025716608,40.45906386629878,345.0811536254883,-0.0625186562538147,0.0673221945762634,-0.613491415977478,0.7843388319015503,0.3140198813229669,0.1671759572641764,0.5312929045071054,0.1194302812218666,-0.4022554159164429,0.2411596477031708,-0.1051585920900106,-0.2159766128472984,-9.94191435456276,15010.0
44.5,2.0,32.0,21.72808837890625,26.09772109985352,-79.78276974175083,40.45906371471923,345.0581586303711,-0.0917746424674987,0.0836402848362922,-0.6245092153549194,0.7710837125778198,0.3341702791271161,0.4843590542376744,0.5940853081310478,-0.0774170458316803,-0.1771465986967086,0.1795290559530258,-0.2476856247894466,0.108943659234792,-9.963954849243164,15010.0
44.6,2.0999999046325684,40.0,21.725584030151367,27.51313781738281,-79.78276913822927,40.45906368141864,345.0431592407227,-0.1017303168773651,0.0851321443915367,-0.6297111511230469,0.7654197812080383,0.3352099697207865,0.687432984285941,0.6350632363340929,-0.0472433529794216,-0.211299180984497,0.2027129977941513,-0.2461923007294536,-0.1960227884352207,-10.072844038009643,15010.0
44.8,2.200000047683716,43.0,21.64795684814453,27.099645614624023,-79.7827664799123,40.45906347527522,345.1305081787109,-0.1147834956645965,0.0876121893525123,-0.6372341513633728,0.7570214867591858,0.32654430181849,1.1830190012249984,0.7865844428199403,0.0272666793316602,-0.0796679034829139,0.168028637766838,-0.181783210337162,-0.2419610910303891,-10.143237497806547,15010.0
44.9,2.400000095367432,47.0,21.67174530029297,28.419639587402344,-79.78276303708267,40.459063690687024,345.1590268554688,-0.1262020021677017,0.0902833044528961,-0.6391334533691406,0.7532797455787659,0.2568726937044086,1.6726708513596829,0.951404652389919,-0.0126129733398556,-0.1255339235067367,-0.0391116328537464,-0.251425449103117,0.1389870187081396,-10.199501745700836,15010.0
45.1,2.5,48.0,21.602882385253903,28.992168426513672,-79.78276109233965,40.459064082303584,345.1443402709961,-0.1327277421951294,0.0916358157992363,-0.6376090049743652,0.7532867789268494,0.2214309404525566,1.914359502472044,1.0184444482466828,0.0972734913229942,-0.0537509284913539,0.0746387839317321,-0.3036872596107423,-0.1372496830299496,-10.140019190311431,15010.0
45.2,2.799999952316284,50.0,21.709306716918945,26.240854263305664,-79.78275840663326,40.45906426047385,345.18265509033205,-0.1399028301239013,0.0947885066270828,-0.6354083418846129,0.75345778465271,0.1941634956935813,2.1855345376810886,1.123949033347177,-0.0580633021891117,-0.1079846695065498,0.0123967640101909,-0.227102767881006,0.0195644363947212,-10.221734029054645,15010.0
45.4,3.0999999046325684,50.0,21.622915267944336,29.143251419067383,-79.7827524533457,40.459065239922325,345.20958685302736,-0.1531029641628265,0.1006485223770141,-0.6296705603599548,0.7549465894699097,0.1234670470019266,2.706937803886752,1.350649288788768,-0.1431513279676437,-0.2356196343898773,-0.1085095554590225,-0.5361592332646251,0.147803998645395,-10.036760870218275,15010.0
45.5,3.5,47.0,21.55154800415039,28.89674568176269,-79.7827454444284,40.45906684657324,345.21946691894533,-0.1608033627271652,0.1072224080562591,-0.624152421951294,0.757020115852356,0.0407394347184786,3.230284295838153,1.5875338101041263,-0.087991364300251,-0.1516966819763183,-0.1046259850263595,-0.6899585100263358,0.2318676456436515,-10.19106655240059,15010.0
45.7,3.700000047683716,46.0,21.580345153808597,27.72783470153809,-79.78274109785612,40.45906746745239,345.2469479980469,-0.161953404545784,0.1098389476537704,-0.6219663023948669,0.7581982016563416,0.0452672872090798,3.5195932106320287,1.7220586413637788,-0.0366702936589717,-0.0743863508105278,-0.0046546002849936,-0.6589526257663966,0.0751435185223817,-10.125994058847429,15010.0
45.8,4.300000190734863,46.0,21.626672744750977,27.409765243530277,-79.78273639172181,40.45906816450972,345.2731244506836,-0.1605892181396484,0.1108570173382759,-0.6206328868865967,0.7594317793846129,0.0537424804757786,3.802759211424082,1.8478295409465453,0.0567917563021183,0.0432005450129509,-0.0865953862667083,-0.7826541274040938,0.1520925476029515,-10.158351380825042,15010.0
46.0,4.5,46.0,21.636688232421875,27.57675170898437,-79.78272702616755,40.45907095083144,345.2647473754883,-0.155360922217369,0.108324259519577,-0.6181464791297913,0.762904942035675,-0.034794896708245,4.3403904767289445,1.987826942818813,0.0725588127970695,0.077884167432785,0.1104201525449752,-0.9361684620380402,0.0151745730056427,-10.042651355266573,15010.0
46.1,5.199999809265137,45.0,21.55530548095703,28.20494270324707,-79.78272259247699,40.45907341446774,345.23057531738283,-0.1531707942485809,0.1063675880432128,-0.6163802146911621,0.765049159526825,-0.1605026292263516,4.574598343051924,2.033293205494453,0.0224265903234481,0.0207833796739578,-0.0160577353090047,-0.9987590318173172,0.0517059230245649,-10.1077647793293,15010.0
46.31,5.5,44.0,21.66798973083496,26.40784072875977,-79.7827105325194,40.45907572367518,345.26973699951174,-0.1438743472099304,0.1081821918487548,-0.6182326674461365,0.7651047110557556,-0.1478541840550865,5.083441891238059,2.1875763987395938,0.1652753204107284,0.02572170086205,0.2374664545059204,-1.1570932994037868,0.0194120981544256,-10.257316675186155,15010.0
46.4,6.099999904632568,45.0,21.576589584350582,28.268556594848643,-79.78270515827886,40.45907851136887,345.2422559204102,-0.1410015076398849,0.1068883091211319,-0.6155897974967957,0.7679471373558044,-0.2975343335576971,5.289951343926751,2.2204452254917912,-0.0100879156962037,0.0656493082642555,-0.0673794150352478,-1.2073708024621008,0.2206641246378421,-10.01386200428009,15010.0
46.61,6.4000000953674325,45.0,21.716819763183597,25.5570011138916,-79.7826927979821,40.459083323752594,345.23922705078127,-0.1396870464086532,0.1017503589391708,-0.6112763285636902,0.772318422794342,-0.3838462333369077,5.695537585581237,2.3107541259295457,0.0943561419844627,0.0883054584264755,0.2510082423686981,-1.3603833729028705,-0.1098864679411053,-9.971674343347551,15010.0
46.7,7.0,47.0,21.67550277709961,25.723989486694336,-79.78267839819107,40.45908654981767,345.27320837402345,-0.1361998319625854,0.1008482947945594,-0.612261176109314,0.7722795009613037,-0.3287118355572085,6.127986894805408,2.321767938846266,-0.0718438550829887,-0.092093288898468,-0.0443678386509418,-1.4577433142066003,0.1785212862677872,-9.759151443243027,15010.0
46.9,7.300000190734862,48.0,21.64294815063477,26.59868431091309,-79.78267202040261,40.45909066102704,345.24508642578127,-0.1392107158899307,0.1009773313999176,-0.6083869338035583,0.7747833728790283,-0.5303132535536019,6.304330550850739,2.280196697609245,-0.1170113459229469,-0.1186118498444557,0.2200497537851333,-1.2450219011306762,-0.0489650955051183,-9.132604744434357,15010.0
47.0,7.800000190734862,49.0,21.770658493041992,25.30254554748535,-79.78266436771308,40.45909252355391,345.244895690918,-0.1433526873588562,0.1022471562027931,-0.6083369255065918,0.7739002704620361,-0.4544466283103928,6.493846996947108,2.307021831229427,-0.0777187570929527,-0.0942241251468658,-0.0266522523015737,-1.3857494714856151,0.1263521267194301,-9.205369250178338,15010.0
47.2,8.100000381469728,49.0,21.723079681396484,24.12568283081055,-79.78264935989606,40.45909898201364,345.2092816772461,-0.1466881334781646,0.1025158166885376,-0.6057061553001404,0.7753020524978638,-0.5775485196995627,6.826122309448366,2.445753081715613,0.0782942995429039,-0.0173644181340932,0.0734537690877914,-1.5319646537303926,0.0915866289753467,-9.443568443655966,15010.0
47.3,8.600000381469728,51.0,21.64545249938965,28.05385780334473,-79.78263322576215,40.45910528467307,345.17826818847664,-0.1434558033943176,0.1002309992909431,-0.6039870381355286,0.7775434851646423,-0.7936464761787398,7.187489822007438,2.527980275620645,-0.1059402748942375,0.0177296828478574,0.1490780562162399,-1.6769305783510209,0.2923054898902774,-9.569154356718064,15010.0
47.5,8.800000190734863,50.0,21.584102630615234,27.902774810791016,-79.78262463742485,40.45910765871034,345.1634061279297,-0.1419838070869445,0.0990349054336548,-0.6044988632202148,0.7775692939758301,-0.7317478131623306,7.36886816834669,2.5618640273221938,0.0875753909349441,0.0501732677221298,0.1773147881031036,-1.5966955237090588,-0.0222554118325933,-9.84758707165718,15010.0
