time,wind_speed,wind_angle,battery_voltage,battery_current,position_x,position_y,position_z,orientation_x,orientation_y,orientation_z,orientation_w,velocity_x,velocity_y,velocity_z,angular_x,angular_y,angular_z,linear_acceleration_x,linear_acceleration_y,linear_acceleration_z,node_ids
0.0,0.3000000119209289,273.0,23.2030029296875,-0.0636141896247863,-79.78275461397033,40.45906066728497,266.20715965223314,-0.0105688730254769,0.0110667096450924,0.9972179532051086,0.072953276336193,-0.0283438355997738,-0.0141029827963522,0.0010303495936753,-0.001710447249934,0.0007244700682349,0.0033837612718343,0.1820216122828424,-0.2946883399039507,-9.802681040167808,14931.0
0.1,0.3000000119209289,273.0,23.204256057739247,-0.0636141896247863,-79.78275482332481,40.45906074929569,266.1838025588989,-0.0106041524559259,0.0110604017972946,0.9972162842750548,0.0729722455143928,-0.0294946326562803,-0.0140366925281225,-0.0006485061207654,-0.0042596748098731,-0.0015821639681234,-0.0079322913661599,0.1781345477700233,-0.2704102802462876,-9.799855665564538,14931.0
0.2,0.3000000119209289,271.0,23.20050048828125,-0.0636141896247863,-79.78275478381339,40.45906075843256,266.18376703453066,-0.010575701482594,0.0110678076744079,0.9972152113914492,0.0729906633496284,-0.0339386318059142,-0.0161242203691157,-0.0009239577931859,0.0095541449263691,0.0056498614139854,0.0077874273993074,0.1885879440978169,-0.2853530591167509,-9.802693904042243,14931.0
0.4,0.3000000119209289,270.0,23.189231872558597,-0.0795177370309829,-79.7827549455779,40.45906084564028,266.15835590553286,-0.0105901360511779,0.0110830115154385,0.9972125887870787,0.0730218216776847,-0.0394461328780405,-0.0158412608809597,-0.0054444939317883,-0.0035134223289787,0.0009893127717077,-0.0089371846988797,0.1795797602087259,-0.2693355437368154,-9.800168491601942,14931.0
0.5,0.3000000119209289,269.0,23.2030029296875,-0.0636141896247863,-79.7827551442313,40.4590609480568,266.13313873004915,-0.0106213595718145,0.0110672069713473,0.9972105622291564,0.0730466321110725,-0.0346779244745738,-0.0173474475528898,-0.0083007317066731,-0.0051942481659352,-0.0050748027861118,0.0046491841785609,0.1889477123133838,-0.2874438955262303,-9.803301429748538,14931.0
0.7,0.3000000119209289,268.0,23.2030029296875,-0.0715659633278846,-79.7827550972049,40.45906095959089,266.13233573627474,-0.0106118433177471,0.0110515058040618,0.9972097873687744,0.0730618387460708,-0.0408830309131978,-0.019730562585884,-0.0086299722529488,-0.0005764292436651,-0.0001832870038924,-0.0089441845193505,0.1806656795181334,-0.2677577456831932,-9.800084291696551,14931.0
0.8,0.2000000029802322,268.0,23.19799613952637,-0.0715659633278846,-79.78275528659077,40.459061065302095,266.1064546842575,-0.0106125408783555,0.0110345454886555,0.9972102642059326,0.0730571448802948,-0.0383670408692959,-0.0203259208743364,-0.010991109550997,-0.0051931724883615,-0.0039773532189428,0.0035509103909134,0.1892497392743826,-0.2908371078595519,-9.80156539142132,14931.0
1.0,0.2000000029802322,266.0,23.20175170898437,0.0,-79.78275523501635,40.45906107890488,266.10539455604555,-0.0106163639575243,0.0110405990853905,0.9972094893455504,0.0730659291148185,-0.0441405462310741,-0.0226509365856436,-0.0111408226012,-0.0010121315717697,0.0020812021102756,-0.0087901335209608,0.1826602013222873,-0.268549696225673,-9.801227422356606,14931.0
1.1,0.2000000029802322,262.0,23.195491790771484,0.0238553211092948,-79.78275541691394,40.45906118062467,266.0801689167023,-0.0106483874842524,0.0110591445118188,0.997209131717682,0.0730637684464454,-0.0416418756578241,-0.0228215991129116,-0.0121335635399453,-0.0077660577371716,-0.0052342414855957,-0.0049784737639129,0.1884485245496034,-0.2935699868202209,-9.804764403104784,14931.0
1.3,0.2000000029802322,261.0,23.19924736022949,-0.0715659633278846,-79.78275536543792,40.45906119543518,266.07897718143465,-0.0106466645374894,0.0110533833503723,0.997206687927246,0.0730982720851898,-0.0461216562201811,-0.0251485743731354,-0.0125365368489088,0.0033681152854114,0.0039440849795937,3.836474934360013e-05,0.1855531843565404,-0.27363001300022,-9.801028032302858,14931.0
1.4,0.2000000029802322,258.0,23.20050048828125,0.0079517737030982,-79.78275556914811,40.45906131893706,266.0536235113144,-0.0106616448611021,0.0110594034194946,0.9972020983695984,0.0731583312153816,-0.0409811584068958,-0.0275009757699995,-0.0133781606671447,-0.0089054675772786,-0.0042323339730501,-0.0072266436181962,0.183524163980037,-0.2954428682662546,-9.801813313364985,14931.0
1.6,0.2000000029802322,259.0,23.19048309326172,0.0238553211092948,-79.78275584728954,40.45906135160372,266.0315097112656,-0.0107179712504148,0.0110319666564464,0.9971993565559388,0.0731912329792976,-0.0269433848036714,-0.0140985366586599,-0.0094825534995381,0.0080080889165401,0.0048111150972545,0.0041826884262263,0.1882966248504817,-0.2858929763920605,-9.802210924029351,14931.0
1.7,0.2000000029802322,258.0,23.18672752380371,0.0318070948123931,-79.78275580909644,40.45906136046148,266.0305920381546,-0.0107074752449989,0.0110219605267047,0.9971984028816224,0.0732068195939064,-0.0332614587527581,-0.0151680812629357,-0.0096734259601877,-0.0065291239880025,-0.0005668806843459,0.003024669829756,0.1780867102369666,-0.2926344505883753,-9.801787000894546,14931.0
1.91,0.2000000029802322,259.0,23.1929874420166,0.0636141896247863,-79.78275605169401,40.45906142498429,266.008552028656,-0.0107786459848284,0.0109983971342444,0.9971932768821716,0.0732696428894996,-0.0258398363385652,-0.009278933028794,-0.0044009580179247,0.0048289033584296,0.0039272410795092,0.0082499356940388,0.1878970407508313,-0.2938574688322842,-9.803569816946984,14931.0
2.0,0.2000000029802322,261.0,23.18797874450684,0.1749390214681625,-79.78275627419791,40.45906149565845,265.9863435764313,-0.0108311539515852,0.0109824435785412,0.99718976020813,0.0733123645186424,-0.0217065718034112,-0.0063368007354372,-0.0015414105742687,0.0035946113057434,0.0030976091511547,0.0003282174875494,0.1750312476977706,-0.2830242775753141,-9.800780695080755,14930.0
2.2,0.2000000029802322,264.0,23.189231872558597,0.0397588685154914,-79.78275624442483,40.45906149843355,265.9862217445374,-0.0107976924628019,0.0109668048098683,0.9971904158592224,0.0733109563589096,-0.0266150991068448,-0.0073741337205481,-0.0018067254001196,0.0012530507519841,-0.0006832422805018,0.0079510230571031,0.1849743830971419,-0.296139344740659,-9.801731452345848,14930.0
2.31,0.2000000029802322,266.0,23.19048309326172,-0.0159035474061965,-79.78275621214726,40.45906150178728,265.9860745210648,-0.0108268549665808,0.0109571563079953,0.9971897006034852,0.0733177587389946,-0.0327736262419779,-0.0089173345900781,-0.0019368610104479,-0.0053949602879583,-0.0038995360955595,-0.0083167692646384,0.1764131457544863,-0.2760625278018415,-9.800550899505618,14930.0
2.5,0.2000000029802322,266.0,23.19423866271973,0.0159035474061965,-79.78275640739241,40.45906163381088,265.9640174646378,-0.0108245788142085,0.0109653025865554,0.99718576669693,0.0733696594834327,-0.0294500367243322,-0.0166145788473088,0.0012504821314459,-0.002828226191923,-0.0013276292011141,0.0066852951422333,0.1823440131358802,-0.295694444719702,-9.802683963775635,14930.0
2.6,0.2000000029802322,264.0,23.195491790771484,-0.0159035474061965,-79.78275665574392,40.45906168835086,265.9413295526505,-0.0108780516311526,0.0109525108709931,0.9971851110458374,0.0733732879161834,-0.0222855847061668,-0.0067923583196237,0.0027007022716274,0.0112871937453746,0.0056644543074071,0.0059767924249172,0.1784437558427453,-0.2713841157406568,-9.80080759227276,14930.0
2.8,0.2000000029802322,261.0,23.189231872558597,0.0238553211092948,-79.78275662755341,40.459061691542495,265.94163568210604,-0.0109040951356291,0.0109379570931196,0.9971850514411926,0.073372296988964,-0.0278293088304244,-0.0077079770620278,0.0026304349958902,-0.0064590089023113,-0.0003385378513485,0.0037691050674766,0.1786836378648877,-0.2944497186876834,-9.801613923311232,14930.0
2.9,0.2000000029802322,257.0,23.19048309326172,-0.0079517737030982,-79.78275685331089,40.45906178564661,265.9185155172348,-0.0109056420624256,0.0109379291534423,0.9971824884414672,0.0734074264764785,-0.0235589316750024,-0.0086139149773189,0.0037175319734358,0.007205048110336,0.0027903146110475,0.0072410712018609,0.1794801930896938,-0.2694904949516058,-9.799652182459832,14930.0
3.1,0.1000000014901161,257.0,23.19048309326172,0.0079517737030982,-79.78275707821105,40.45906187516243,265.8951217670441,-0.0109417010098695,0.010932202450931,0.9971811771392822,0.0734200701117515,-0.0191300302520638,-0.0069667583625018,0.0047120952519562,-0.0080573866143822,-0.0058232173323631,0.0015478960704058,0.1776400743238628,-0.290493273306638,-9.801860675811769,14930.0
3.2,0.1000000014901161,255.0,23.195491790771484,-0.0477106422185897,-79.78275705196427,40.45906187968202,265.8956100482941,-0.0109195113182067,0.01093122176826,0.9971801042556764,0.0734381005167961,-0.0244155792595722,-0.0091476943183314,0.0044795884333338,-0.0002954212541226,0.0001340237940894,-0.0072661400772631,0.1803649499081076,-0.2679224544391036,-9.800628082752226,14930.0
3.4,0.1000000014901161,256.0,23.19799613952637,0.0079517737030982,-79.78275724906744,40.45906194714846,265.87199599933626,-0.0109557667747139,0.0109127797186374,0.9971773028373718,0.0734738633036613,-0.0238012230534941,-0.0022827920664159,0.0048213550744401,-0.0071789268404245,-0.0058324956335127,0.0015972886467352,0.1762998376786708,-0.2867383010499179,-9.801085335016252,14930.0
3.5,0.2000000029802322,252.0,23.19048309326172,0.0238553211092948,-79.78275746720878,40.45906204158968,265.84809560966494,-0.0110150873661041,0.0109012005850672,0.9971752166748048,0.073494829237461,-0.0171733862440813,-0.0035741042342437,0.0056870375737722,0.0062544462271034,0.0005652723484672,0.0093438969925045,0.1838046658784151,-0.2703436402603984,-9.800828057527545,14930.0
3.7,0.2000000029802322,250.0,23.1929874420166,0.0079517737030982,-79.78275744282983,40.45906204287685,265.8486995239258,-0.011001206934452,0.0109170489013195,0.9971739053726196,0.0735121220350265,-0.0235831319473683,-0.0047375983325431,0.0055891908788335,-0.0064557706937193,-0.0054173599928617,-0.0035054362379014,0.177250339128077,-0.2821044009178877,-9.800781864523886,14930.0
3.8,0.2000000029802322,244.0,23.195491790771484,0.0079517737030982,-79.78275741492041,40.45906204441845,265.849269821167,-0.0110303992405533,0.0109067689627408,0.9971717596054076,0.0735387727618217,-0.0274494880355798,-0.0067656691675333,0.0051338849133328,0.0043932036496698,0.0026420566719025,-0.0019435236463323,0.1850112936459481,-0.2743795712292195,-9.799918815493584,14930.0
4.0,0.2000000029802322,244.0,23.19674301147461,0.0318070948123931,-79.78275766417562,40.45906212089295,265.8244741697312,-0.0110455928370356,0.0108924331143498,0.9971688985824584,0.0735776349902153,-0.0216944197542062,-0.0027136424980602,0.0054844910580462,-0.0082634408026933,-0.0013252943754196,-0.0067767398431897,0.1756715726293623,-0.2757162447273732,-9.799347542524336,14930.0
4.1,0.2000000029802322,247.0,23.19924736022949,0.0318070948123931,-79.78275782914177,40.45906221723003,265.79925115299227,-0.0110645834356546,0.0108968922868371,0.997166097164154,0.0736120343208313,-0.0247060842349044,-0.0049820364102326,0.0052515783391349,-0.0052046668715775,-0.0023203860037028,0.0064608487300574,0.1876649245619774,-0.2811076151020825,-9.801667132973671,14930.0
4.3,0.2000000029802322,250.0,23.19924736022949,-0.0636141896247863,-79.78275780002222,40.45906221886931,265.7997978467941,-0.0110786985605955,0.0108967907726764,0.9971657991409302,0.0736135765910148,-0.0301590856949567,-0.0066567934765628,0.0050558164779758,-0.0041985432617366,-0.0026900309603661,-0.011984271928668,0.1796291509084403,-0.2707175148837269,-9.799994829297066,14930.0
4.4,0.3000000119209289,252.0,23.19924736022949,-0.0636141896247863,-79.7827580014598,40.459062321209615,265.77220745277407,-0.011089177802205,0.010892029851675,0.9971637129783628,0.0736403614282608,-0.0261063625434265,-0.0070504219284185,0.00203498786007,-0.0075025027617812,-0.0057725752703845,0.0036824771668761,0.1886472385190427,-0.2876427008584142,-9.801806881427764,14930.0
4.6,0.3000000119209289,255.0,23.19924736022949,-0.055662415921688,-79.78275821763212,40.4590624406052,265.74424548339846,-0.0111488047987222,0.0109072485938668,0.9971615672111512,0.073659136891365,-0.0196405163247002,-0.0105352496654435,0.0003176261603577,0.0009704403928481,0.0032393331639468,-0.0050700814463198,0.181419001892209,-0.2673210317641497,-9.800714621543882,14930.0
4.7,0.3000000119209289,256.0,23.20050048828125,-0.0874695107340812,-79.78275819065449,40.45906244753058,265.7442943592072,-0.0111240753903985,0.0109188836067914,0.9971614480018616,0.0736628398299217,-0.0230508528593113,-0.0117204662700804,2.399354420005729e-05,0.0055935988202691,0.0009430354111827,0.0084745269268751,0.1893762035854161,-0.2928299485892057,-9.803054677248,14930.0
4.9,0.3000000119209289,257.0,23.2030029296875,-0.0715659633278846,-79.78275834649084,40.45906253816933,265.71613652896883,-0.0111427539959549,0.0109128421172499,0.9971604347229004,0.0736743286252021,-0.0274470387385869,-0.0088755923850652,-0.0015875671770759,0.0033216222655028,0.0062244096770882,-0.0026801179628819,0.1856584525108337,-0.2736235262453556,-9.800933307409288,14930.0
5.0,0.3000000119209289,258.0,23.2030029296875,-0.0795177370309829,-79.78275851186595,40.45906264682847,265.6882301111221,-0.0111589217558503,0.010902440175414,0.9971585273742676,0.0736992359161377,-0.0272962473363671,-0.0085651031287637,-0.0021827795123719,-0.0052027585916221,-0.0078755831345915,-0.0070963953621685,0.1849536072090268,-0.2960188007354736,-9.802147774100304,14930.0
5.2,0.3000000119209289,260.0,23.19799613952637,-0.0795177370309829,-79.78275847656106,40.45906265124822,265.6880369920731,-0.0111460275948047,0.0109109105542302,0.9971568584442142,0.0737220272421836,-0.0306632137277864,-0.010303374192284,-0.0026770684303793,0.0067471391521394,0.0047168526798486,0.0046310522593557,0.1881853084824979,-0.2819770047068596,-9.801076564192773,14930.0
5.3,0.4000000059604645,262.0,23.20050048828125,-0.0477106422185897,-79.78275843877692,40.45906265629385,265.68780477237704,-0.0111488355323672,0.0109026357531547,0.9971576929092408,0.0737116783857345,-0.0354155563402054,-0.0110370830319296,-0.0028502130387145,-0.0025035394355654,-0.0028852403629571,0.0060199056752026,0.1806015245988965,-0.294171372950077,-9.801727359294892,14930.0
5.5,0.4000000059604645,262.0,23.19423866271973,-0.0636141896247863,-79.78275860023224,40.45906280606624,265.6571288843155,-0.0111681912094354,0.0109357666224241,0.9971549510955808,0.0737415179610252,-0.0320449690133509,-0.0178702248413928,-0.0064276795832771,0.0059322649613022,0.0046566003002226,0.0083454167470335,0.190464151147753,-0.2898204415105283,-9.802402127981187,14930.0
5.61,0.4000000059604645,262.0,23.195491790771484,-0.055662415921688,-79.78275883842656,40.45906290046558,265.6283857364655,-0.0112415859475731,0.0109334392473101,0.9971519112586976,0.0737713128328323,-0.0227630241346547,-0.0101012900879853,-0.0053128067204637,0.0026432275772094,0.002257305663079,-0.0021533765830099,0.1776172884553671,-0.2885763550177217,-9.801991653442382,14930.0
5.8,0.4000000059604645,260.0,23.20050048828125,-0.0636141896247863,-79.78275880980456,40.459062906224034,265.6278652687073,-0.0112271411344409,0.0109335966408252,0.9971520900726318,0.0737706571817398,-0.0261809774931948,-0.011054700743713,-0.005625597351132,0.0012053538812324,0.0027284892275929,0.0080748638138175,0.187025586348027,-0.2947704384662211,-9.802310911417008,14930.0
5.9,0.4000000059604645,261.0,23.20050048828125,-0.055662415921688,-79.78275898125825,40.45906304374736,265.5980721254349,-0.0112426718696951,0.0109568396583199,0.9971489310264589,0.0738084465265274,-0.0264771520927527,-0.0149169126674203,-0.005304220704368,0.0061171022243797,0.0021434444934129,0.0033050191123038,0.1768208794109523,-0.2789803615026176,-9.800305316448211,14930.0
6.1,0.4000000059604645,261.0,23.2030029296875,-0.055662415921688,-79.78275921260943,40.45906314014777,265.57022674274447,-0.0112680708989501,0.0109275486320257,0.9971492886543274,0.0738041624426841,-0.0176831599547365,-0.0082759157439443,-0.0018416238633744,-0.0025798801798373,-0.0020768642425537,0.0053876312449574,0.1832510259188712,-0.2957010959275067,-9.802644787430763,14930.0
6.21,0.4000000059604645,260.0,23.20050048828125,-0.0795177370309829,-79.7827591875095,40.45906314566684,265.5700587768555,-0.0112592531368136,0.010916200466454,0.9971488118171692,0.0738141387701034,-0.0230128807899769,-0.0099408305596325,-0.0020447651950945,-0.0025122023653239,-0.0008908081799745,-0.0098758917301893,0.1780784144997597,-0.2694630130380392,-9.800455005168915,14930.0
6.4,0.4000000059604645,262.0,23.19924736022949,-0.055662415921688,-79.78275930919197,40.45906325098083,265.53944583129885,-0.0112847695127129,0.0108893318101763,0.9971486926078796,0.0738143995404243,-0.0299092241850974,-0.0075114915366665,-0.0027378522954988,-0.0062787183560431,-0.0026370356790721,0.0022695970255881,0.1778362666815519,-0.2916545120626688,-9.802803831696512,14930.0
6.5,0.4000000059604645,263.0,23.20050048828125,-0.055662415921688,-79.78275952151478,40.45906337074464,265.5077744264603,-0.0113548450171947,0.0108768390491604,0.9971436858177184,0.073874182999134,-0.01953928153316,-0.0067891421469875,-0.0028672029408199,0.0070891212671995,0.0033436014782637,0.010393688455224,0.1823738704808056,-0.2681686587631702,-9.801195847392083,14930.0
6.7,0.4000000059604645,263.0,23.19799613952637,-0.1033730581402778,-79.78275949392015,40.45906337429268,265.50751908016207,-0.0113437008112669,0.0108787519857287,0.9971436262130736,0.07387575507164,-0.0252570621518095,-0.0077227551163051,-0.0030489771351233,-0.0059665143489837,-0.0073920157738029,-0.0046471366658806,0.177029277831316,-0.2852558491565287,-9.800782449245451,14930.0
6.8,0.4000000059604645,265.0,23.20050048828125,-0.0636141896247863,-79.78275964224999,40.459063487343656,265.4766277809143,-0.0113455336540937,0.0108705749735236,0.9971411228179932,0.0739099010825157,-0.0275638417852952,-0.0060921357147517,-0.0010342032304683,0.0009821327403187,0.0015713585307821,0.0073844417929649,0.1854544395022094,-0.2726187187805772,-9.801131528019903,14930.0
7.01,0.4000000059604645,265.0,23.1929874420166,-0.055662415921688,-79.78275960581931,40.45906348948751,265.47657604408266,-0.0113287847489118,0.0108903227373957,0.9971388578414916,0.0739412680268287,-0.0331575693125296,-0.0074959597039451,-0.0011865044414829,-0.0035576345399022,-0.0054392209276556,-0.0062206974253058,0.1763980709016323,-0.2738375526107848,-9.800437463521956,14930.0
7.1,0.4000000059604645,267.0,23.20050048828125,-0.055662415921688,-79.78275975723129,40.45906361607258,265.4458037157059,-0.0113417692482471,0.0108753172680735,0.9971365332603456,0.073971964418888,-0.0327484285554293,-0.0082068025289121,0.0013615724883904,-0.0063272430561482,-0.0038277886342257,0.0070976926945149,0.1886861407756804,-0.2833819444477558,-9.802667006850244,14930.0
7.3,0.4000000059604645,267.0,23.195491790771484,-0.0636141896247863,-79.7827597184521,40.45906361943704,265.4459679861069,-0.0113778235390782,0.0108774472028017,0.9971358180046082,0.0739757716655731,-0.037213090400049,-0.0099902299435557,0.0011286041506115,-0.0023066436406224,0.0010702770669013,-0.0089080771431326,0.1806473156064748,-0.2678279670886696,-9.800848522782326,14930.0
7.4,0.4000000059604645,268.0,23.20175170898437,-0.0715659633278846,-79.78275988569365,40.45906377196628,265.4120949048996,-0.0113767748698592,0.0108789568766951,0.9971351623535156,0.0739848837256431,-0.0338961541005542,-0.0128439711343332,-0.0004828694825886,-0.007949742488563,-0.0076440041884779,-0.0004838017048314,0.1888352265022695,-0.2915715546905995,-9.802272904515268,14930.0
7.6,0.4000000059604645,269.0,23.20175170898437,-0.0159035474061965,-79.78276014167677,40.4590638978836,265.3793528814316,-0.0114569319412112,0.0108772963285446,0.9971317648887634,0.0740182101726532,-0.0187422401551776,-0.0092476300912567,0.0028720382054143,0.0043768868781626,0.002508845180273,-0.0018994709243997,0.1851959742978216,-0.272553339600563,-9.801587026119233,14930.0
7.7,0.4000000059604645,269.0,23.20050048828125,-0.0795177370309829,-79.78276011581647,40.45906390366997,265.3796656866074,-0.0114225791767239,0.0108727654442191,0.9971311092376708,0.0740329474210739,-0.0223873190732464,-0.0100529598944889,0.0026664454139477,0.0009926217608153,0.0019722452852874,0.0104151731356978,0.1849356635659933,-0.2966373996064067,-9.803121920228005,14930.0
7.9,0.4000000059604645,270.0,23.19924736022949,-0.0477106422185897,-79.78276029200653,40.45906402942733,265.3458293218613,-0.0114761656150221,0.0108978478237986,0.9971275925636292,0.0740688517689704,-0.0220673366427233,-0.007041799700001,0.0033896342361934,0.0054307011887431,0.0061432048678398,0.0046800435520708,0.1894741444475949,-0.2825956583954394,-9.802157129645348,14930.0
8.0,0.4000000059604645,268.0,23.19799613952637,-0.0715659633278846,-79.78276048213023,40.45906417873488,265.30949742984774,-0.0115168206393718,0.0109052350744605,0.9971250891685486,0.074094533920288,-0.0196869606330628,-0.0070455750125861,0.001455703268824,-0.0023914265912026,-0.0019542106892913,-0.008211126551032,0.1798192585073411,-0.293994914945215,-9.802524334788323,14930.0
8.2,0.4000000059604645,267.0,23.20050048828125,-0.0795177370309829,-79.78276045626292,40.45906418267476,265.3096653957367,-0.0115002989768981,0.0109061663970351,0.997123956680298,0.0741122290492057,-0.0222120335289814,-0.008356557059863,0.0010837270876552,0.0069988365285098,0.0028464451897889,0.0042762006632983,0.1900606384500861,-0.2912541422434151,-9.802728402614594,14930.0
8.3,0.3000000119209289,268.0,23.2030029296875,-0.0715659633278846,-79.78276042882993,40.45906418732853,265.3097852010727,-0.0115089882165193,0.010897971689701,0.997122883796692,0.0741270706057548,-0.0271736151038391,-0.0090890126386223,0.0009529633322388,-0.0072916080243885,-0.0056806546635925,-0.0016008103266358,0.1775359938852489,-0.288091036118567,-9.802166485190392,14930.0
8.5,0.3000000119209289,268.0,23.19924736022949,-0.0715659633278846,-79.78276065450872,40.45906433938757,265.2744147319794,-0.0115457195788621,0.0108977844938635,0.9971192479133606,0.0741703510284423,-0.0185098242804235,-0.0087130570343951,0.002622410691169,0.0043788505718111,0.0026047970168292,0.0087133347988128,0.1866324159130454,-0.2948508559539914,-9.802836576104164,14930.0
8.61,0.3000000119209289,266.0,23.2030029296875,-0.055662415921688,-79.78276078261129,40.45906451277241,265.2361382980347,-0.011560677550733,0.0108855599537491,0.9971165657043456,0.074205957353115,-0.0260815639990854,-0.0138915416733107,0.0002879516065561,0.0037312640342861,0.0061636022292077,-0.0011463982518762,0.1752812892571091,-0.2812103250995279,-9.80049125790596,14930.0
8.8,0.3000000119209289,264.0,23.1929874420166,-0.0715659633278846,-79.78276075083127,40.459064521535694,265.23617418003084,-0.0115755815058946,0.0108765056356787,0.9971168637275696,0.0742009505629539,-0.0291672708563783,-0.0145223167293829,-4.233281487157447e-06,2.86888189293677e-05,-0.0004084116662852,0.0062011606059968,0.1848393306881188,-0.2948296780698001,-9.802423177957538,14930.0
8.9,0.3000000119209289,263.0,23.19924736022949,-0.0636141896247863,-79.78276100541875,40.45906467930487,265.1993314762116,-0.0116198547184467,0.0108690178021788,0.997111439704895,0.0742681473493576,-0.0187178647306,-0.0119046738616432,0.002226415852914,0.0062858327291905,0.0034777163527905,0.0034838798455894,0.1768774694949388,-0.2749347643554211,-9.799834615588187,14930.0
9.1,0.3000000119209289,262.0,23.20175170898437,-0.0715659633278846,-79.78276118117171,40.4590648398502,265.1605951328278,-0.011646750383079,0.010855128057301,0.99711012840271,0.074284017086029,-0.0205237661816566,-0.0107994946955274,0.0029816533637993,-0.0024951903615146,-0.0048060556873679,0.0096155870705842,0.1837103064358234,-0.2956959978863597,-9.803093268871306,14930.0
9.2,0.3000000119209289,261.0,23.1929874420166,-0.1113248318433761,-79.78276115291933,40.45906484733276,265.160907699585,-0.0116430595517158,0.0108641376718878,0.9971083402633668,0.0743061974644661,-0.0251213309393199,-0.0123115153487736,0.0026852763675162,-0.00696621555835,-0.0025690530892461,-0.0134425349533557,0.1788816209323704,-0.2712618906609714,-9.799995998740195,14930.0
9.41,0.3000000119209289,262.0,23.19674301147461,-0.0795177370309829,-79.78276126668213,40.459064980748735,265.1199383277893,-0.0116194579750299,0.0108292596414685,0.9971057176589966,0.0743509158492088,-0.0335417051116916,-0.0055805991198617,0.0005188805714682,-0.0023140548728406,-0.0033858837559819,0.0051659625023603,0.1802626601792872,-0.2934744396619499,-9.803779147267342,14930.0
9.5,0.3000000119209289,260.0,23.19924736022949,-0.0715659633278846,-79.7827614671162,40.45906515214109,265.0771672267914,-0.0116784842684865,0.0108149200677871,0.9971015453338624,0.074399210512638,-0.0251761440524704,-0.0064769546615282,-0.0011341317788167,0.0075817415490746,0.0050181876868009,0.004235521890223,0.1809671948477625,-0.2685102275200188,-9.800935061573982,14930.0
9.7,0.3000000119209289,259.0,23.19924736022949,-0.0795177370309829,-79.78276143350627,40.45906515457588,265.0771035690308,-0.0116704469546675,0.0108344284817576,0.9971002340316772,0.0744153037667274,-0.0298084850694519,-0.0071496252628512,-0.0012563105620692,-0.005119607783854,-0.002333928598091,0.0004553931939881,0.1783563582412898,-0.2906979258544743,-9.802840669155124,14930.0
9.8,0.3000000119209289,259.0,23.19423866271973,-0.0636141896247863,-79.78276162275016,40.45906538070789,265.0326780815125,-0.0117134740576148,0.0108527103438973,0.9970983862876892,0.0744303241372108,-0.0251289880470816,-0.0160869526933781,-0.0021377787476327,0.0057776891626417,0.0030270798597484,0.0085541782900691,0.1808044960722328,-0.2684226654656232,-9.800381330251694,14930.0
10.01,0.3000000119209289,259.0,23.19423866271973,-0.0874695107340812,-79.78276158751973,40.45906539177284,265.03248901557924,-0.0117165995761752,0.010865369811654,0.9970979094505308,0.0744355171918869,-0.0299460641663767,-0.0169127936253889,-0.0023370697759194,-0.0062201060354709,-0.0087012434378266,-0.0009532134863547,0.176139039248228,-0.2867621649987996,-9.801546095609666,14930.0
10.11,0.3000000119209289,258.0,23.18797874450684,-0.1113248318433761,-79.78276176573927,40.459065578377206,264.98699803543093,-0.0117199821397662,0.0108466548845171,0.9970958828926086,0.0744643285870552,-0.0276870281504492,-0.0160050038078742,-0.0030249569053159,0.001673148246482,-0.0005655031418427,0.007053236477077,0.1828635565191508,-0.2690321280620992,-9.802514394521712,14929.0
10.3,0.3000000119209289,258.0,23.19924736022949,-0.0715659633278846,-79.78276173072669,40.4590655890589,264.9867076416016,-0.0117334984242916,0.0108647430315613,0.9970954656600952,0.0744647607207298,-0.032308501070641,-0.016925484225108,-0.0031532790454839,-0.0094492649659514,-0.0044446778483688,-0.0064526423811912,0.1763453545980155,-0.282802357468754,-9.801457802653314,14929.0
10.4,0.3000000119209289,257.0,23.19799613952637,-0.0795177370309829,-79.78276196228306,40.45906578102132,264.9399013061524,-0.011738060042262,0.0108684720471501,0.9970940351486206,0.074482649564743,-0.0220556371567533,-0.0139625983310177,-0.0035677135019654,0.0043104314245283,0.0027609728276729,0.0099111376330256,0.1845874253287912,-0.2726337936334312,-9.800959035158158,14929.0
10.61,0.3000000119209289,260.0,23.174205780029297,0.5248170495033264,-79.78276216626591,40.45906595966756,264.8917912979126,-0.0117775192484259,0.0108504891395568,0.9970926642417908,0.0744975283741951,-0.0229664866174586,-0.0090553576251537,-0.0036304857394029,-0.005306810606271,-0.0033256765455007,-0.0074623576365411,0.1752396278455853,-0.2787448100745678,-9.800807007551192,14929.0
10.7,0.3000000119209289,261.0,23.17045021057129,0.2306014448404312,-79.78276213644645,40.45906596518662,264.8914422531128,-0.0117808133363723,0.0108649600297212,0.9971023201942444,0.0743658542633056,-0.0257322463897646,-0.0110309631264816,-0.004178783427433,0.0083550689741969,-0.0001766721397871,-0.0016028613317757,0.1858455451391637,-0.2765419263951481,-9.799957991838458,14929.0
10.9,0.3000000119209289,262.0,23.181718826293945,0.2385532110929489,-79.78276232352034,40.45906614959132,264.84161229324343,-0.0117758587002754,0.010836754925549,0.9970971345901488,0.0744399279356002,-0.0266959971986338,-0.0069810025753205,-0.0045918962732239,-0.0024420251138508,-0.0039675654843449,-0.00516037363559,0.179890009816736,-0.2695869922824204,-9.798692654371262,14929.0
11.0,0.3000000119209289,262.0,23.181718826293945,0.2226496636867523,-79.78276254487595,40.45906639205613,264.7931427497864,-0.0118069099262356,0.0108566237613558,0.9970922470092772,0.0744972825050354,-0.018609642344147,-0.0128716562370502,-0.001250222152104,0.0002880431129597,-8.666043140692635e-05,0.0154939657077193,0.1838989339582622,-0.2926228657923639,-9.800645624399186,14929.0
11.2,0.4000000059604645,264.0,23.18297004699707,0.2306014448404312,-79.78276251818083,40.45906640139376,264.79303021621706,-0.0118082351982593,0.0108469370752573,0.9970852136611938,0.0745927095413208,-0.0237017026127582,-0.0143229778266352,-0.0013704869531264,-0.0016313950764015,-0.0020947454031556,-0.0206963699311018,0.1731552233733236,-0.2736140976101161,-9.801799280047415,14929.0
11.31,0.4000000059604645,267.0,23.174205780029297,0.2544567584991455,-79.78276271094819,40.45906661772008,264.74145288658144,-0.0118262702599167,0.0108506279066205,0.9970832467079164,0.0746162608265876,-0.0224564731926027,-0.012676554337268,-0.0022411950158856,-0.0040064216591417,-0.0024326015263795,-0.0050565474666655,0.1882231692038476,-0.2759445054084062,-9.80169929265976,14929.0
11.51,0.4000000059604645,268.0,23.17671012878418,0.3339745104312897,-79.78276268122713,40.45906662646297,264.7412297267914,-0.0118073699995875,0.0108678443357348,0.997079610824585,0.0746646299958229,-0.0252333076629134,-0.0142545341136895,-0.0026251368897799,0.0004077466146554,-0.000460695970105,-0.0006689032888971,0.1813558702357113,-0.268020906932652,-9.80289621770382,14929.0
11.6,0.4000000059604645,268.0,23.17545890808105,0.3498780429363251,-79.7827628898072,40.45906686296965,264.68847079467776,-0.0118555184453725,0.0108844898641109,0.9970771670341492,0.0746873170137405,-0.0221911824162367,-0.0153171349879954,-0.0032322595539687,-0.0056223021820187,-0.0068083284422755,0.0018149246461689,0.1869244477897882,-0.2921504838578403,-9.802228465676306,14929.0
11.8,0.4000000059604645,268.0,22.767290115356445,5.709373474121094,-79.78276286297012,40.45906687378124,264.6881532211304,-0.0118855023756623,0.0108994133770465,0.997073233127594,0.074732668697834,-0.0254734815645735,-0.0177339277497106,-0.003609938545743,0.0041128545999526,0.0017475109780207,-0.005399530287832,0.1907962181791663,-0.2785077054798603,-9.807445936203004,14929.0
11.9,0.4000000059604645,270.0,23.14415740966797,0.6361418962478638,-79.78276303936678,40.45906707545272,264.6342038650513,-0.0118931848555803,0.0108993761241436,0.9970732927322388,0.0747301653027534,-0.0257631741525035,-0.0127528061998379,-0.0059122752373684,-0.0044382852502167,-0.0036101003643125,0.0007460812921635,0.1453321704547852,-0.2761059799231589,-9.790464452505113,14929.0
12.1,0.4000000059604645,270.0,23.179214477539062,0.1510837078094482,-79.78276324335947,40.45906732677207,264.5806014080048,-0.0119160469621419,0.0108988238498568,0.9970729947090148,0.0747311115264892,-0.0230711363215428,-0.0164331185656126,-0.0046373286728633,-0.0042719175107777,0.0233378745615482,0.005779867991805,0.1891043263301253,-0.2726502206549048,-9.804208332896232,14929.0
12.2,0.5,270.0,22.96135711669922,3.101191759109497,-79.78276321126039,40.45906733854447,264.5802044410706,-0.011865640990436,0.0108819874003529,0.9970709085464478,0.0747694298624992,-0.0256068900615136,-0.0175481073621795,-0.005840302781597,-0.0012300285743549,-0.0043425699695944,0.0021618697792291,0.1965361556969583,-0.3100895404815674,-9.789152337312697,14929.0
12.41,0.5,272.0,23.174205780029297,0.1828908026218414,-79.7827633361206,40.45906758677096,264.523031665802,-0.0118814408779144,0.0109029617160558,0.9970662593841552,0.0748261585831642,-0.0336636886829015,-0.0195746003364241,-0.0080006732056672,-0.0047125644050538,-0.0147463148459792,-0.0089428732171654,0.1324409054685384,-0.2746406859531999,-9.790741025805474,14929.0
12.5,0.5,271.0,23.177963256835927,0.1749390214681625,-79.7827635632498,40.45906783890404,264.4668375988007,-0.0119244698435068,0.0108864540234208,0.9970639944076538,0.074852131307125,-0.0193434561338151,-0.0163203708460356,-0.0056987730659061,-0.0092761712148785,-0.0026191833894699,0.0075141014531254,0.1487015919294208,-0.2697166725620628,-9.79802607178688,14929.0
12.7,0.5,270.0,23.049001693725582,2.950108051300049,-79.78276353510707,40.45906785210211,264.46623892974856,-0.0119089465588331,0.010933106765151,0.9970583319664,0.0749225616455078,-0.0223558839106703,-0.0192971536741518,-0.0063947514739899,9.68202148214914e-05,-0.008732346817851,-0.0077810822986066,0.1928267551772296,-0.2805805617012084,-9.790370897054672,14929.0
12.8,0.5,267.0,22.966365814208984,4.190584659576416,-79.78276350443592,40.45906786602911,264.4655978221893,-0.0118874516338109,0.0109327547252178,0.9970571398735046,0.0749414786696434,-0.0250001408031642,-0.0187433719197575,-0.0070750669613562,-0.0002613326651044,0.0107596032321453,-0.0050967773422598,0.2090391290187836,-0.2795689020305872,-9.800964297652245,14929.0
13.01,0.5,268.0,22.85117721557617,5.860457420349121,-79.78276369773032,40.45906808440589,264.4085998077393,-0.0119205629453063,0.0108655234798789,0.9970555901527404,0.074967548251152,-0.0232892109848457,-0.0139903200103567,-0.006157352574979,0.0058587989769876,0.0026227852795273,-0.0019708592444658,0.1751231768913567,-0.2951693282090128,-9.80489128768444,14929.0
13.1,0.5,265.0,22.78857421875,6.949850559234619,-79.78276389230369,40.45906835046598,264.3542582530976,-0.0123412441462278,0.010942974127829,0.9970460534095764,0.075015053153038,-0.0173043407055891,-0.0149616939144632,-0.0003821433130607,0.0229751653969287,0.0175266750156879,0.0030248421244323,0.1742238568514585,-0.2777795992232859,-9.81792063832283,14929.0
13.3,0.5,265.0,22.66837882995605,9.884055137634276,-79.78276386552984,40.45906836104354,264.35428137969967,-0.0127834817394614,0.0110114412382245,0.9970425367355348,0.0749773904681205,-0.0221789084680968,-0.0159116663967046,0.0018835870874099,-0.0040238671936094,0.0267408918589353,0.0354994311928749,0.1863702961988747,-0.2712033454142511,-9.825874021053314,14929.0
13.4,0.6000000238418579,267.0,22.59075164794922,11.196097373962402,-79.78276406954923,40.45906860980572,264.297169878006,-0.0143091082572937,0.0111217955127358,0.9970144033432008,0.0750593245029449,-0.0150538522476662,-0.0131185658126688,6.629989059357466e-06,0.007127677090466,0.0245876684784889,-0.0189370848238468,0.1811657991819084,-0.250293556060642,-9.793366425633431,14929.0
13.6,0.6000000238418579,269.0,22.455530166625977,14.170061111450195,-79.78276427975824,40.45906887212345,264.2369639415741,-0.0152796749025583,0.0109941754490137,0.9969844818115234,0.0752846524119377,-0.0145013383521339,-0.0125067428294021,-7.671644390971766e-05,0.0046174661256372,-0.0575000308454036,0.0117973666638135,-0.0030908199213445,-0.3353792598098517,-9.73203205704689,14929.0
13.7,0.6000000238418579,270.0,22.350357055664062,15.672945976257324,-79.78276426162931,40.45906888230488,264.23705835533144,-0.0159011855721473,0.0113706486299633,0.9969661235809326,0.0753428116440773,-0.0135713006206682,-0.0132960806035585,0.0042358389458591,0.005805660970509,-0.0029710563831031,0.0511657632887363,0.3002436150424182,-0.3867551257833839,-9.92804125070572,14929.0
13.9,0.6000000238418579,271.0,22.193851470947266,18.60715103149414,-79.78276439070166,40.45906916304129,264.17683096122744,-0.0169552844017744,0.0134542621672153,0.996903955936432,0.0755916684865951,-0.0273189349821919,-0.0265537017800188,0.0142658690151606,-0.0003784987784456,0.0102742100134491,0.0951553806662559,0.0926796106249094,-0.5647064729779959,-9.859220691919328,14929.0
14.01,0.6000000238418579,272.0,22.111215591430664,20.261119842529297,-79.78276459949538,40.45906942137084,264.1157392997742,-0.0114245899021625,0.0117025654762983,0.9970165491104126,0.0754368603229522,-0.0151295041111161,-0.0248039824692899,0.0388692869210095,-0.1143863424658775,0.0364027209579944,0.0354641936719417,0.4237964694947005,-0.331370006762445,-9.83342628479004,14929.0
14.2,0.6000000238418579,272.0,21.90087127685547,23.88712882995605,-79.78276457762796,40.45906944150396,264.122080280304,-0.0022039443720132,0.0109050329774618,0.9969704747200012,0.0769812166690826,-0.0217495904506333,-0.0319803574556774,0.0981460178093015,-0.2215305417776108,0.0595357082784175,-0.0001809931418392,0.1129982556123286,-0.2809667702950537,-10.38930938243866,14929.0
14.3,0.699999988079071,275.0,21.829504013061523,25.73989295959473,-79.78276453870822,40.459069472921016,264.13631386947634,0.0112659614533185,0.0121971713379025,0.996766984462738,0.0786132961511612,-0.037575252816034,-0.0484670549427135,0.1969462046864351,-0.2184494733810424,0.0896094590425491,0.0470370166003704,0.004331224495545,-0.1573366229608655,-10.655764660835269,14929.0
14.5,0.699999988079071,275.0,22.15253257751465,18.71052360534668,-79.78276511481778,40.459069948805016,264.08784623336794,0.0169529020786285,0.0041172360070049,0.9968237280845642,0.0777056589722633,-0.0430036762418838,-0.0307338834878172,0.3111282383980841,0.1956546306610107,-0.2147357314825058,-0.0318124666810035,0.3111547204479576,0.2321622356772423,-10.3358880507946,14929.0
14.6,0.8000000119209291,270.0,22.15503692626953,18.36859703063965,-79.7827649513372,40.459070469225786,264.0753089923859,-0.0012952527031302,-0.0041427062824368,0.9970359206199646,0.0768158882856369,-0.0676361213993286,-0.0459749371605173,0.2709412007908123,0.0281600672751665,-0.0127242384478449,-0.0679365396499633,0.1631765661388635,0.0527646025316789,-10.003912382125852,14929.0
14.8,0.8000000119209291,273.0,22.081167221069336,19.95895195007324,-79.78276485694575,40.45907049439164,264.1001734275818,-0.0004762364551424,-0.003092038212344,0.9970713257789612,0.0764141008257865,-0.078381839543887,-0.0265960783074602,0.2249065393899898,-0.0446297600865364,0.0171106085181236,-0.0268594175577163,0.1080886501260101,-0.0968401786498725,-9.392722225785256,14929.0
14.9,0.8000000119209291,275.0,22.084922790527344,19.847627639770508,-79.7827650208297,40.45907100191922,264.0485991973877,-0.0015734696062281,0.0009062535827979,0.997124969959259,0.0757526904344558,-0.0200295585332037,-0.0349505277456627,0.0840090657001877,0.0221564266830682,0.0967865362763404,-0.0179100017994642,0.1023066674731672,-0.0271336068073287,-9.318570175766943,14929.0
15.1,0.8999999761581421,275.0,21.96722984313965,21.430030822753903,-79.78276506870495,40.45907129772594,264.0112778682709,-0.002146195154637,0.0026308975648134,0.9970858097076416,0.0762130990624427,-0.0315621052800459,-0.0161489125275684,0.0851140038919425,0.0319194830954074,0.0188701804727315,0.0001494521857239,0.2236711283773184,0.0197874642745591,-9.568961398601534,14929.0
15.2,0.8999999761581421,276.0,21.90462684631348,22.821590423583984,-79.78276502324847,40.45907130366475,264.0194527645112,-0.0005690034013241,0.0027696616016328,0.9970322251319884,0.0769344791769981,-0.0460144528285677,-0.0035509754457629,0.0769790824127464,-0.1108826026320457,-0.0279975496232509,0.0404963791370391,0.1940266951918602,-0.0697362510301172,-9.643379496932033,14929.0
15.4,0.8999999761581421,274.0,21.96597671508789,20.889310836791992,-79.78276497329877,40.45907144756597,264.00127644729616,0.0036235724110156,0.0029537889640778,0.9969052076339722,0.0784740224480629,-0.046913258347379,0.0337670704803109,0.1174948117573911,0.0278304256498813,-0.0308091100305318,-0.0019198730587959,0.2486077306978404,-0.0323672736645676,-9.876054825782775,14929.0
15.5,1.0,270.0,21.912139892578125,22.257015228271484,-79.78276496769101,40.45907153687997,263.98374076080324,-0.001036706380546,0.004594771657139,0.9968568086624146,0.0790844932198524,-0.0616413863968208,0.066229986548121,0.1566945314624432,0.0575592257082462,-0.0338567048311233,-0.0452333576977252,0.2340088777430355,0.0390377932693809,-9.839790394306185,14928.0
15.71,1.0,268.0,22.01981544494629,20.8256950378418,-79.78276491173723,40.45907147177208,264.00104637336733,-0.0040596961043775,0.0052139358595013,0.9968605637550354,0.0789017230272293,-0.062451721459159,0.0690170100428684,0.1815969854507731,0.0308115985244512,0.0085183605551719,0.0357293672859668,0.2012901247479021,-0.1495855721645057,-10.011106796264649,14929.0
15.8,1.0,265.0,21.92716407775879,21.95484733581543,-79.78276481574919,40.45907145337596,264.0025491256714,-0.0054682241752743,0.0088815912604331,0.9968376755714417,0.0787777081131935,-0.0598310125789441,0.0862776882036606,0.1851807689510556,-0.0104402359575033,0.0242211613804102,-0.0281383283436298,0.1673486641421914,-0.054292274415493,-9.825730179548264,14929.0
16.01,1.0,263.0,21.922155380249023,22.288822174072266,-79.7827647710657,40.45907137066849,264.0216068763733,-0.0051497030071914,0.0088210832327604,0.9968485236167908,0.078669399023056,-0.0475747031751617,0.0861540757295828,0.1922092723984056,-0.0062235272489488,0.0071943625807762,0.0105734718963503,0.1059473997540772,-0.0328903139568865,-9.856430400609971,14929.0
16.1,1.100000023841858,260.0,21.90713119506836,22.074125289916992,-79.78276480751747,40.459071341773175,264.0326723594666,-0.0005243052728474,0.0116155799478292,0.9968384504318236,0.0785999223589897,-0.0287284093111588,0.0753401094216948,0.2169228843067537,-0.0232990458607673,0.105970025062561,-0.0061689047142863,0.1590331925824284,-0.0330713149742223,-9.918714941740037,14929.0
16.3,1.100000023841858,258.0,21.91714859008789,21.239187240600582,-79.782764783362,40.45907127398789,264.0547658939362,7.168116280809045e-05,0.015728959813714,0.9967628121376038,0.0788448750972747,-0.0256298364327216,0.0622782542705753,0.2228338742640416,0.0381636172533035,0.1017027050256729,0.0848552137613296,0.1289767499640584,-0.071007170761004,-9.92292259812355,14929.0
16.4,1.100000023841858,252.0,21.86330986022949,23.083999633789062,-79.78276467239887,40.45907115398146,264.0733248729706,-0.0029130724724382,0.0155565105378627,0.9966845512390136,0.0798095166683197,-0.0433345888717057,0.0765673899980315,0.2511209302273831,0.0256492178887128,-0.0902989134192466,-0.0142675815150141,0.255526156257838,0.0462619140045717,-9.870492954254154,14929.0
16.6,1.100000023841858,252.0,21.763145446777344,24.94471549987793,-79.7827648147176,40.45907117826489,264.0709151763916,-0.0045260209590196,0.0134577620774507,0.9966793060302734,0.080179713666439,-0.0200412864335803,0.0752950083171565,0.1362467158622053,-0.0163956675678491,-0.0423314496874809,0.0140424035489559,0.2746064066514373,-0.0618145437631756,-8.85397263944149,14929.0
16.7,1.100000023841858,248.0,21.72433280944824,25.79555511474609,-79.78276480229059,40.45907111127401,264.0803811092377,-0.0005664429045282,0.008655373007059,0.996709406375885,0.0805934593081474,-0.0315591605470033,0.0773328384447358,0.0705233150345004,-0.1591894924640655,-0.171447291970253,-0.0121772969141602,0.1789558440260589,-0.1008960084244608,-9.162057169675828,14929.0
16.91,1.2000000476837158,246.0,21.550296783447266,27.79145050048828,-79.78276459561913,40.45907099758642,264.109580947876,0.0074386876076459,0.0038233739323914,0.9966987371444702,0.0807573497295379,-0.0316974109491199,0.0727622826787267,0.2595225006059346,0.046504158526659,0.0693345814943313,0.001066502649337,0.2019876793026924,-0.0056157115940004,-10.649374823570252,14929.0
17.01,1.2000000476837158,241.0,21.391286849975582,30.35192108154297,-79.78276443238029,40.45907087976357,264.1493768234253,0.0016762771410867,0.0085613029077649,0.9967039823532104,0.0806542038917541,-0.0524448307998419,0.0889330620429502,0.5703812441073041,0.151377648115158,0.1046185344457626,-0.0797641947865486,0.1093427499756217,0.1185691263712942,-11.119359984397883,14929.0
17.2,1.2000000476837158,242.0,21.26608085632324,34.017688751220696,-79.78276438038847,40.45907079826063,264.21523065757754,-0.001924319891259,0.0104250162839889,0.9967292547225952,0.0801155269145965,-0.0511393542539129,0.0932288535996476,0.7471063667302134,0.0796953588724136,0.0775494277477264,0.0299795120954513,0.2446801193989813,-0.1399046843871474,-11.590785899162292,14929.0
17.3,1.2999999523162842,241.0,21.262325286865234,33.84275054931641,-79.78276425585432,40.459070746091015,264.3722617168427,-0.0012003076262772,0.0113415727391839,0.996774435043335,0.0794404223561286,-0.0613417146333724,0.091775645237263,1.1795783016639552,0.0279997866600751,0.0523952879011631,0.0630571842193603,0.2168434442952276,-0.2666931869834661,-11.914536874294276,14929.0
17.5,1.2999999523162842,241.0,21.192211151123047,34.44708633422852,-79.7827641992737,40.459070679149534,264.5033549804688,0.0015251818113029,0.011152571067214,0.9967851638793944,0.0793263837695121,-0.0693948884096091,0.0931042319555423,1.436397719373315,-0.0500936098396778,-0.0076963994652032,0.0583406500518322,0.1823882144317031,-0.029632674800232,-12.326493097543716,14929.0
17.6,1.5,244.0,21.05448532104492,36.84056854248047,-79.78276413755054,40.45907067013397,264.8025125999451,0.0018565616337582,0.0068707964383065,0.9966933727264404,0.0809435918927192,-0.0484081036906115,0.0982713134133427,1.95276789580726,0.0741856694221496,0.0086753219366073,0.0029230618383735,0.1945414328947664,-0.066044273385778,-12.396978943347928,14929.0
17.8,1.5,245.0,21.2134952545166,32.761306762695305,-79.78276407389066,40.45907060297563,265.0123192806244,0.0012888712808489,0.0036980903241783,0.9966420531272888,0.0817888379096984,-0.0627976547549305,0.097499063424113,2.244992447683311,-0.0216235760599374,-0.0691465884447097,0.0570050403475761,0.1310827891342341,-0.1287597634457052,-12.66308221936226,14930.0
17.9,1.7000000476837158,247.0,21.22100830078125,33.38949966430664,-79.78276401939294,40.45907062351025,265.4408807296753,0.0035120425745844,0.0007056415779516,0.9966182708740234,0.0820929780602455,-0.0816333189003645,0.0907177546046042,2.6600036161946314,-0.0866556242108345,0.0380234383046627,-0.029516814276576,0.218149365093559,-0.005648830588907,-12.368982474803929,14930.0
18.11,1.7000000476837158,247.0,21.29988670349121,31.56854248046875,-79.78276412185588,40.45907079348338,265.6072843809128,0.0060019725933671,0.0028170372825115,0.9966201186180116,0.0818802788853645,-0.0597601885374099,0.0866373615014833,2.804141668152837,-0.0756382197141647,0.0681363046169281,0.093525156378746,0.0757226121425628,-0.2527736343070865,-12.003073074817657,14930.0
18.2,1.7999999523162842,247.0,21.42634391784668,28.20494270324707,-79.78276403326191,40.45907069849038,265.8976110954285,0.0091068278998136,0.0048738550394773,0.996627390384674,0.0814076736569404,-0.0694080209205658,0.1143443668173773,2.9925557761418378,-0.0380681939423084,0.0750290229916572,0.0093861045315861,0.1631616922840476,-0.0969599826168269,-11.675543628931043,14930.0
18.4,1.8999999761581416,246.0,21.527759552001957,25.898927688598643,-79.78276404697911,40.45907080175606,266.363864733696,0.0160132478922605,0.0053708697669208,0.9966666698455808,0.0798143222928047,-0.0702244865351706,0.1297420614824236,3.061688951412181,-0.0620998591184616,0.0096919145435094,-0.1073982715606689,0.2308761405944824,0.1105637399666011,-10.598326292037962,14931.0
18.5,2.0,247.0,21.57533836364746,26.50326156616211,-79.78276416533487,40.45907115266745,266.7423644502163,0.0183016061782836,0.0025144552346318,0.9966081380844116,0.0801932066679,-0.0590932659728808,0.0904417418595083,2.959003177423277,0.1138841733336448,0.076919138431549,0.12482201308012,0.1057189198024571,0.0997126690205186,-10.249550403356553,14931.0
18.7,2.0,246.0,21.55280113220215,26.38398551940918,-79.78276395197628,40.45907106307863,267.0391960580349,0.020349096506834,0.0015103438636288,0.9965352416038512,0.0806309729814529,-0.1068203804788108,0.0947529459366323,2.98431668373129,-0.0806189700961113,-0.0196559280157089,0.0168274920433759,0.1767663906700909,-0.1151438457146287,-10.090651148557663,14932.0
18.8,1.7999999523162842,252.0,21.64169692993164,23.84737014770508,-79.78276369679149,40.459070959888095,267.33723905575283,0.0208417437970638,0.0012702964013442,0.9965199828147888,0.080697551369667,-0.1465455768872915,0.1034235608311149,2.98836777780776,-0.1006236001849174,-0.0474605746567249,-0.1547388136386871,0.032871671388857,0.2670844022557139,-9.814820444583892,14932.0
19.0,1.7000000476837158,247.0,21.626672744750977,24.865196228027344,-79.78276372549641,40.45907150304853,267.6268261809349,0.0183766242116689,0.0067172213457524,0.9965770840644836,0.0803205668926239,-0.1739064057900013,0.0698228215014646,2.763034158255268,-0.0204106122255325,0.0499014742672443,-0.0575747117400169,0.086927330000326,0.0195276400493458,-9.456176210045816,14932.0
19.1,1.600000023841858,247.0,21.58535385131836,25.64447021484375,-79.78276406163654,40.45907227530607,267.8717705149651,0.0144866993650794,0.0126773379743099,0.9965358376502992,0.0809068381786346,-0.1848792598586472,0.0381420307073525,2.536133958654663,0.0652328059077262,0.0251041278243064,-0.0224269777536392,0.2026294112205505,-0.1403941054735333,-9.483667479157448,14932.0
19.3,1.399999976158142,242.0,21.554052352905277,25.946638107299805,-79.78276381339185,40.45907227763994,268.11703474712374,0.0104871317744255,0.0146478079259395,0.9965142607688904,0.0814547836780548,-0.2007877182713736,0.0319579948061039,2.508347176485312,0.1546273976564407,0.0932719632983207,0.0727670490741729,0.2293580937758088,-0.1178944399114698,-9.63531618654728,14933.0
19.4,1.2000000476837158,232.0,21.501466751098643,27.099645614624023,-79.78276346790827,40.45907163102703,268.74760194015505,-0.0023203541059046,0.0121426004916429,0.9964910745620728,0.0827816277742385,-0.2298304908590337,0.0813430476312768,2.514711530746438,0.1831825077533722,-0.0651765465736389,0.0729191824793815,0.1472725598327815,0.2935270463302732,-9.573073745369912,14933.0
19.6,1.100000023841858,227.0,21.56532096862793,25.962541580200195,-79.78276250759217,40.45907095143506,269.1792549629212,-0.0078999623656272,0.0063924314454197,0.9964667558670044,0.0833717286586761,-0.2910560990934269,0.0858108187458956,2.583957019705523,0.05194878205657,-0.1494046747684478,0.0494127236306667,0.1672358311526477,-0.1136049681901931,-9.897008907794952,14934.0
19.7,0.8999999761581421,209.0,21.493953704833984,26.550973892211918,-79.78276220473306,40.45907089567339,269.4379627246857,-0.0126251056790351,0.0061052702367305,0.9963590502738952,0.0840956345200538,-0.2927377764612974,0.0424187404380952,2.5780626671318174,0.1722497940063476,0.1162186563014984,0.0494536086916923,0.0487657739734277,0.0651429250929504,-9.769940725564958,14934.0
19.9,0.8000000119209291,196.0,21.46515655517578,26.63049125671387,-79.78276107543688,40.45907025387637,270.15434832763674,-0.0133992554619908,0.0148697132244706,0.9962500333786012,0.0841740220785141,-0.3042826912851224,0.0784492273952174,2.641775478484828,-0.044261310249567,0.1418448537588119,0.0326481908559799,0.1404075540695339,-0.1591686469875276,-9.833223971128463,14935.0
20.0,0.6000000238418579,185.0,21.56907844543457,25.19917106628418,-79.78275991222294,40.4590696090305,270.90233369064333,-0.0041560153476893,0.023928664624691,0.9962610006332396,0.0829103663563728,-0.2424536354001885,0.1173414530845529,2.7357735026756824,0.0529469810426235,0.1937221586704254,0.0411512181162834,0.1136341311782598,-0.0028072939161211,-9.866714483499528,14935.0
20.2,0.6000000238418579,181.0,21.55280113220215,26.12157821655273,-79.78275970003084,40.459069576528094,271.1755938072205,-0.00453398283571,0.0274579785764217,0.9962570071220398,0.0818380117416381,-0.2129145781045133,0.121783222205961,2.713315904877056,-0.0451179668307304,-0.0199565719813108,-0.0594334155321121,0.2014794100821018,0.0845085287466645,-9.621565289497378,14936.0
20.3,0.5,184.0,21.576589584350582,25.67627716064453,-79.7827589143265,40.45906903172086,271.8932313461304,-0.0092250742018222,0.0279687400907278,0.9962818026542664,0.0809650793671608,-0.1969516247573873,0.1070073296954152,2.7264783260101955,0.0149487452581524,-0.0987785086035728,0.0367590226233005,0.1684838827885687,0.1369817800540477,-9.554427559375764,14936.0
20.5,0.5,186.0,21.53026390075684,26.43964767456055,-79.78275874633583,40.4590690675448,272.1662053604126,-0.0121612017974257,0.0259077493101358,0.9963010549545288,0.0810260623693466,-0.1840744049059219,0.0731057652908331,2.7287526054724807,0.0379230752587318,-0.0376704037189483,-0.0448455512523651,0.1656520397029817,0.0750692132022231,-9.728808487057686,14937.0
20.6,0.5,193.0,21.60538673400879,25.15146064758301,-79.78275813210625,40.45906852035216,272.62579627227785,-0.0134855154901742,0.0232740063220262,0.996349275112152,0.0810225158929824,-0.1785316729654013,0.0537056592703117,2.7955570048072738,0.11465535312891,-0.0148068200796842,0.0870539247989654,0.2385691760480404,-0.1932368825376033,-9.805353802442554,14937.0
20.81,0.5,196.0,21.516490936279297,26.01025199890137,-79.78275787304943,40.45906865981001,273.1827992935181,-0.0132814664393663,0.0206650160253048,0.9963449835777284,0.0818128585815429,-0.1330065306480786,-0.0176363615083566,2.7547180166020766,0.012621128000319,0.0161437150090932,0.0304815825074911,0.2055078493058681,-0.0617412754101678,-9.613971510529518,14938.0
20.9,0.6000000238418579,241.0,21.49896240234375,26.41579246520996,-79.78275757752398,40.459068169073625,273.6456841964722,-0.0134968245401978,0.0209198091179132,0.9962987303733826,0.0822748020291328,-0.114880863242246,-0.0081951547806472,2.812786034757089,-0.0027612594421952,0.0584157258272171,-0.0387712977826595,0.1705873272567987,0.1268254862353205,-9.617980946302415,14938.0
21.11,0.6000000238418579,275.0,21.443872451782227,27.966388702392567,-79.78275725492394,40.45906784808708,274.4098753471375,-0.0114747965708374,0.0212530847638845,0.9962350130081176,0.0832620337605476,-0.0673282223588935,-0.0097303470029224,2.8888001568717643,-0.0660466030240058,0.0405008122324943,0.0169153958559036,0.1323088040761649,-0.0262542997766286,-9.771569759845734,14939.0
21.3,0.6000000238418579,272.0,21.5352725982666,24.89700508117676,-79.78275729951186,40.459068120872885,274.990205242157,-0.0074517214670777,0.0194187518209218,0.9962735772132874,0.0837050899863243,0.0018068905350529,-0.0469782535496331,2.925247067480292,-0.0086405230686068,-0.028117336332798,-0.1045404523611068,0.2010229435376823,0.2311717538908124,-9.938788433074954,14939.0
21.4,0.6000000238418579,279.0,21.55530548095703,24.66640281677246,-79.78275689152929,40.45906765819768,275.5143308181763,-0.0082249529659748,0.0168536212295293,0.9963123798370358,0.0837264358997345,0.0287416274568629,-0.040335849845652,3.0310750693357504,0.0796344876289367,0.025798873975873,0.0279468037188053,0.2557499036192894,-0.0345423076953738,-9.877915409803393,14940.0
21.6,0.6000000238418579,281.0,21.497711181640625,26.65434646606445,-79.78275711451383,40.45906758597009,276.2365121383667,-0.0084847593680024,0.0118809631094336,0.9963512420654296,0.0840900093317031,0.0560792395237093,-0.0650413621517441,3.0542012950611714,-0.0520844161510467,-0.003645661752671,0.0250535141676664,0.1748365171439946,-0.1046902666613459,-9.726652033925056,14941.0
21.71,0.699999988079071,287.0,21.47642517089844,26.48735809326172,-79.78275723026952,40.45906773562655,276.5410756607056,-0.0065448954701423,0.0120432069525122,0.9963422417640686,0.0843464732170105,0.0709457851454152,-0.08099677809965,3.0478001897157503,-0.0549475364387035,0.0373757742345333,-0.0328416302800178,0.1361198913305998,0.014420060631819,-9.708284760117529,14941.0
21.9,0.8000000119209291,288.0,21.4426212310791,26.781574249267567,-79.78275733233194,40.45906778796793,277.2349423904419,-0.0031366739422082,0.0132773518562316,0.9963330626487732,0.0844650417566299,0.1180886198216703,-0.0646236296771294,3.054114112345065,-0.0016368234064429,0.0159435477107763,0.0044205356389284,0.1764867110364139,0.0035567699186503,-9.651769081950189,14942.0
22.0,1.0,292.0,21.594118118286133,24.49941635131836,-79.78275748493853,40.45906793942255,277.53963084411623,-0.0019885129295289,0.0122381057590246,0.99637633562088,0.0841458886861801,0.1373560454178781,-0.0702449823267166,3.0481819781212987,0.0052259033545851,-0.0140399746596813,0.0364673100411892,0.2428561718389392,-0.1162845643982291,-9.766417778134349,14942.0
22.21,1.100000023841858,292.0,21.497711181640625,25.66037368774414,-79.78275804546445,40.45906799172743,278.2277144927979,-0.0026404741220176,0.011840951628983,0.9964522123336792,0.0832819789648056,0.1689330354013649,-0.0582896786060267,3.0483508581590097,-0.0530045218765735,-0.0719180926680564,-0.0227858684957027,0.2530093136429787,-0.0162576006841845,-9.723010972738267,14943.0
22.3,1.2000000476837158,292.0,21.560312271118164,24.435800552368164,-79.78275836412924,40.45906796464101,278.8973598022461,-0.0003144927322864,0.010465720668435,0.996504008769989,0.0828872919082641,0.1744982279580106,-0.0421342820692534,3.035962298138664,-0.0842105001211166,-0.0800084620714187,-0.0699275359511375,0.188456473108381,0.0304739612247794,-9.706345238685609,14943.0
22.5,1.2999999523162842,295.0,21.487693786621094,26.622539520263672,-79.78275857128277,40.45906809376713,279.19960875701906,0.0008991791401058,0.00981539580971,0.9965049624443054,0.0829502120614051,0.1904545979233776,-0.0492883845229117,3.0131881521197017,-0.0135771296918392,0.0315910205245018,0.0135408332571387,0.1908512185513973,0.0176989096496254,-9.60690807402134,14944.0
22.6,1.399999976158142,294.0,21.50522232055664,25.44567680358887,-79.7827588842583,40.459067869488045,279.56435294342043,0.0018280772492289,0.0095784310251474,0.9964988827705384,0.0830354019999504,0.2144860945587525,-0.0182712903285969,3.0307063058057206,-0.1028741002082824,-0.0646445676684379,-0.0656252801418304,0.1631334977410734,0.1187566392682492,-9.684558513164523,14944.0
22.8,1.399999976158142,292.0,21.490198135375977,26.1772403717041,-79.78275936049656,40.45906807656156,280.1699523468018,0.0035063016694039,0.0093557434156537,0.9964627623558044,0.0834401026368141,0.2179231296548195,-0.0147308993813869,3.02467946458987,-0.0539165660738945,-0.0501482263207435,-0.0656540095806121,0.190928785521537,0.0536148516414687,-9.742637152075767,14945.0
22.9,1.5,296.0,21.448881149291992,26.670249938964844,-79.78275969933375,40.459068035921725,280.53133578491213,0.0052343760617077,0.0085629755631089,0.9964547157287598,0.0835307613015174,0.2578847958930355,-0.0145699712911383,3.041964850377421,0.0221333224326372,-0.0105341328307986,0.0590099543333053,0.2780349215492606,-0.1533312436938285,-9.789090941548348,14945.0
23.11,1.5,297.0,21.49896240234375,25.366159439086918,-79.78276016555536,40.45906809432967,281.19200988006594,0.0060631716623902,0.0073567046783864,0.9964336156845092,0.0838411673903465,0.2673444029143048,-0.0189887457802092,3.077433299766478,0.1004932150244712,0.0415865592658519,0.0878695994615554,0.2653184334933758,-0.0780741247348487,-9.984330056905748,14946.0
23.21,1.600000023841858,298.0,21.54403686523437,24.594837188720703,-79.78276041126884,40.45906818355456,281.5005950469971,0.0048477281816303,0.0071532316505908,0.9964091181755066,0.084227442741394,0.2403435288592401,-0.0071587318549283,3.087077959913416,-0.0726858600974083,-0.0475886613130569,-0.1185512095689773,0.1775204804912209,0.2184057289548218,-9.8287075817585,14946.0
23.3,1.600000023841858,298.0,21.43260383605957,26.821332931518555,-79.78276064747163,40.459068264768725,281.80862708282467,0.0041056782938539,0.0063091968186199,0.99638831615448,0.0845802649855613,0.2363423805956117,-0.0043814446723251,3.0697015606488787,0.0211308728903532,-0.0018445586320012,0.0047469194978475,0.2387669398449361,-0.05279575265944,-9.707183144688608,14946.0
23.5,1.600000023841858,299.0,21.34621238708496,28.18903923034668,-79.78276101753794,40.45906835230924,282.46201987457283,0.0043850811198353,0.0060000517405569,0.9963199496269226,0.0853899866342544,0.2132516523161169,-0.0079425285778471,3.0650667929541133,-0.0538017489016056,-0.049924187362194,0.0350780710577964,0.2436491090990603,-0.1455733132828027,-9.817526535987854,14947.0
23.7,1.5,300.0,21.443872451782227,26.312419891357425,-79.78276126790345,40.45906839129368,283.113264038086,0.0076612369157373,0.0064423461444675,0.9963185787200928,0.0851425230503082,0.1961499020088978,0.0062621734555696,3.0847128346320685,-0.0220334492623806,-0.0573699846863746,0.0488107539713382,0.2973205371201039,-0.078882100302726,-9.934711754322054,14948.0
23.8,1.5,301.0,21.48393821716309,24.83338928222656,-79.78276144486935,40.45906844335271,283.4218539733887,0.007743346504867,0.0053528132848441,0.9963234066963196,0.085154116153717,0.1897767680191913,0.0180141286098786,3.0832023038899066,-0.018308138474822,0.0270069688558578,-0.041029330343008,0.2197576965764165,0.1540611223876476,-9.780311931967736,14948.0
24.0,1.399999976158142,302.0,21.48268699645996,25.77169990539551,-79.78276178715974,40.45906835739888,284.0706042785645,0.0066532073542475,0.0042692935094237,0.996364176273346,0.0848294645547866,0.1814680440632032,0.0274717375360615,3.0639303838218885,0.0206436030566692,0.0454698242247104,0.0381531827151775,0.1414983978308737,0.0128933000913821,-9.762712982296945,14949.0
24.1,1.2999999523162842,300.0,21.3987979888916,27.32229423522949,-79.78276205601254,40.45906828688037,284.7139052886963,0.0066450242884457,0.0059360372833907,0.9963961243629456,0.0843533799052238,0.1690622932739408,0.0415755068344656,3.045419421750189,0.0553853623569011,0.0892367884516716,0.0449027456343174,0.1835868753679096,-0.0426405917387455,-9.761196214556692,14949.0
24.31,1.2000000476837158,296.0,21.41632652282715,26.73386383056641,-79.78276220260662,40.45906829661091,285.01786227416994,0.0076600713655352,0.0065886960364878,0.9963985681533812,0.0841898247599601,0.1488175618981219,0.0571499180019181,3.0257961730715337,-0.0090012904256582,-0.0399699844419956,-0.045079868286848,0.1769222737848758,0.0899488147348165,-9.616122116446496,14950.0
24.4,1.100000023841858,303.0,21.39253807067871,27.409765243530277,-79.78276229226032,40.45906815648318,285.35380549621584,0.0074933376163244,0.006837613414973,0.9964072108268738,0.0840819403529167,0.1638084278458519,0.0640063619209805,3.0083782462379927,0.0915326401591301,0.0348709747195243,0.0938364043831825,0.2369663080573082,-0.1077841746434569,-9.68512569308281,14950.0
24.6,1.100000023841858,306.0,21.430099487304688,27.27458381652832,-79.78276248812527,40.4590680081912,285.9947127838135,0.0056820660829544,0.0074223265983164,0.996411681175232,0.0841217264533042,0.1319631171979867,0.0775293083486128,3.0099331433400405,0.0133645236492156,0.0466480627655983,-0.005911860615015,0.2087514277361333,0.0051629263971699,-9.760029110312464,14950.0
24.7,1.0,318.0,21.38001823425293,28.41168785095215,-79.78276260457527,40.45906799114879,286.2958144683838,0.0057978820987045,0.0084073105826973,0.9963908791542052,0.0842669159173965,0.117326615592463,0.0880369133092654,3.0094953463970326,-0.0632456094026565,-0.0165495537221431,-0.0522508211433887,0.1288418985530734,0.1143568378966301,-9.747519577145576,14951.0
24.81,0.8999999761581421,325.0,21.441368103027344,25.80350685119629,-79.78276271589677,40.45906796795824,286.5969733734131,0.0057368804700672,0.0077186743728816,0.9964167475700378,0.0840313509106636,0.1266064005735278,0.0964415752605441,3.012427389361472,0.0655078887939453,-0.0114684496074914,0.0225008316338062,0.2774968680739403,-0.1237680959422141,-9.900576878786088,14951.0
25.0,0.8000000119209291,352.0,21.377513885498047,26.837236404418945,-79.7827626474668,40.45906777534528,287.57073588562014,0.0077840988524258,0.0048732105642557,0.9964119195938108,0.0841375812888145,0.0765490428297766,0.0682555562939241,3.05070594495932,-0.1211501806974411,-0.0459466464817524,-0.0863041877746582,0.2298546320199966,0.0240486752148717,-9.921465471982955,14952.0
25.2,0.8000000119209291,0.0,21.456392288208008,26.32832336425781,-79.78276270879363,40.45906775088579,287.8760127563477,0.0090042427182197,0.005600316915661,0.9963578581809998,0.0846085920929908,0.0981117320768132,0.0730565868795258,3.0466679798311684,0.0354591831564903,0.0343794673681259,0.0532461181282997,0.2519419226981699,-0.1219968372769654,-9.853527842760087,14952.0
25.3,0.699999988079071,14.0,21.51273536682129,25.20712280273437,-79.78276275921134,40.45906771856482,288.1808223266602,0.0099899647757411,0.0058237789198756,0.9962978959083556,0.0851874276995658,0.0798424426050105,0.0858457758464129,3.045489481612774,-0.006884223781526,-0.0116002587601542,-0.024749007076025,0.1746284659020602,0.1371234288532287,-9.770442416667937,14953.0
25.5,0.699999988079071,22.0,21.468914031982425,24.483510971069336,-79.78276273286899,40.45906756955142,288.8091315765381,0.0095524592325091,0.0084109082818031,0.9961538910865784,0.0866920799016952,0.0696565404622723,0.0820166822193434,2.9957043139373765,0.0646350756287574,0.0933700129389762,0.0785261765122413,0.1824475819431244,0.0401786764059215,-9.652280128598214,14953.0
25.6,0.699999988079071,40.0,21.37626266479492,26.781574249267567,-79.78276269105966,40.45906736587673,289.13823504638674,0.0089612426236271,0.0101566025987267,0.9961036443710328,0.0871441066265106,0.0475158250191927,0.1025546888351955,2.9821404921337296,-0.0563215166330337,-0.007893644273281,-0.0794852599501609,0.1615657678619027,0.1602334066852927,-9.644364168047906,14954.0
25.81,0.699999988079071,44.0,21.342456817626957,27.5369930267334,-79.7827626822784,40.459067285796216,289.7349242706299,0.0103807002305984,0.0102561227977275,0.9960678219795228,0.0873846784234047,0.0251936935609825,0.109196951793802,2.987908095710893,0.0159668903797864,-0.0031537536997348,-0.0173387210816144,0.226281763985753,0.0792102844174951,-9.82593249320984,14954.0
25.9,0.699999988079071,39.0,21.368749618530277,27.05193519592285,-79.78276252179144,40.45906711375007,290.3636207122803,0.0074290847405791,0.008580757305026,0.9962151050567628,0.0861789658665657,-0.0010112778099194,0.0921159248565525,3.0148304499899887,0.0195691436529159,0.0418425798416137,-0.1057140901684761,0.2396878214925528,-0.1037918693851679,-9.905863931179049,14955.0
26.1,0.699999988079071,40.0,21.3700008392334,26.5748291015625,-79.7827623793111,40.45906700958584,290.69032092285164,0.0069144014269113,0.0087399343028664,0.9963001608848572,0.085217148065567,-0.0106980418839591,0.0729476117572674,3.026348260040936,-0.0329838991165161,-0.0321567617356777,0.0159179233014583,0.158258582688868,-0.0251289300341159,-9.976002452373503,14955.0
26.2,0.699999988079071,31.0,21.388782501220703,26.87699508666992,-79.7827623223763,40.459066986964274,290.9935798187256,0.0061409962363541,0.0097220540046691,0.9963406920433044,0.0846935734152793,-0.018627711839911,0.0763082727378091,3.038315898947891,-0.0035855995956808,0.0131164956837892,-0.0674563869833946,0.1648999598622322,0.1339066288433969,-9.887545773983,14955.0
26.3,0.699999988079071,30.0,21.417579650878903,26.54302215576172,-79.78276226246194,40.45906696302976,291.29741473388674,0.0040156478062272,0.0097786327823996,0.9963721036911012,0.0844453871250152,-0.011937871387056,0.0772922675343605,3.0374765176874754,0.1488439589738845,0.0160746742039918,0.0781698673963546,0.2872711103037,-0.1345421115495264,-9.891677416563033,14956.0
26.5,0.8000000119209291,9.0,21.35622978210449,26.59073257446289,-79.78276184219295,40.459066640765705,292.24735446166994,0.0014760157791897,0.0090814400464296,0.996260702610016,0.0859077274799346,-0.0663354090870112,0.0683533279345509,3.004701789882962,-0.0385587885975837,0.0277858953922987,-0.0254182461649179,0.195447440687567,-0.0059794495208188,-9.698171415925026,14957.0
26.7,0.699999988079071,359.0,21.42634391784668,24.94471549987793,-79.78276177094223,40.459066620071134,292.5487155456543,0.0023004659451544,0.0085420114919543,0.9962361454963684,0.0862284824252128,-0.0584542684621042,0.0676088751006938,3.0250255315410866,-0.0474587641656398,-0.0631501525640487,0.0456293784081935,0.2197346731647849,-0.0926754901651293,-10.005267766714097,14957.0
26.8,0.6000000238418579,344.0,21.41632652282715,26.12952995300293,-79.78276169927692,40.45906659837817,292.8520984191895,0.0028814449906349,0.0084655443206429,0.9962130784988404,0.0864849090576171,-0.0541247820614998,0.0665482044749124,3.0368807990599,0.0149145135655999,0.0518640242516994,0.0181213021278381,0.1783792720176279,0.0103696669405326,-9.885125026702884,14957.0
27.01,0.6000000238418579,336.0,21.3987979888916,25.80350685119629,-79.78276151522898,40.45906643489885,293.4771556396485,0.00274602137506,0.009915817528963,0.9962577223777772,0.0858187451958656,-0.0465917901890594,0.065867734632095,3.030513722770437,0.0504853352904319,0.0885128527879715,0.0378618165850639,0.1973156443610788,0.050470589082688,-9.893388311862946,14958.0
27.1,0.699999988079071,329.0,21.34621238708496,26.92470741271973,-79.7827613782299,40.45906627445336,293.80424494934084,0.0022369141224771,0.0109457084909081,0.9962802529335022,0.085445761680603,-0.0542117165360469,0.0728353420283367,3.033555627133118,-0.0469814576208591,-0.0269473642110824,-0.0357530824840068,0.2123215914331376,0.0144720506016165,-9.895614931583404,14958.0
27.3,0.699999988079071,330.0,21.39253807067871,26.16133689880371,-79.78276123751904,40.45906624180172,294.41231723022463,0.0021830378100276,0.0120513243600726,0.9962774515151978,0.0853311046957969,-0.0547024373198719,0.076345582692459,3.04557731120832,-0.0467303693294525,-0.0299687981605529,0.0211625583469867,0.210000630542636,-0.1277240479644388,-9.893636233806609,14959.0
27.4,0.699999988079071,319.0,21.39629364013672,25.485435485839844,-79.78276106097479,40.45906608374485,295.04413600158693,0.0041909296996891,0.0121640646830201,0.9961919188499452,0.0862334221601486,-0.0424051184194303,0.067748644877075,3.0322229604948925,0.0108374208211898,-0.0718122795224189,0.0720364674925804,0.2238413188979029,-0.0286913872836157,-9.844482200145723,14960.0
27.6,0.699999988079071,314.0,21.411319732666016,26.51916694641113,-79.78276089121889,40.459065902232254,295.3710135955812,0.004558996297419,0.0118379304185509,0.9961445927619934,0.0868048220872879,-0.0392264082048279,0.0646624929235328,3.0255602930863432,0.0562460087239742,0.0661754012107849,0.0734135657548904,0.2104352431185543,-0.0468861819338053,-9.789670400619508,14960.0
27.7,0.6000000238418579,305.0,21.433856964111328,25.087846755981445,-79.78276081146237,40.45906590079157,295.67398448181154,0.0046188468113541,0.0116377566009759,0.9961189031600952,0.0871234908699989,-0.0548055524527395,0.0636636258245318,3.031652091409834,-0.0442011058330535,-0.0548442341387271,-0.065649926662445,0.1892038934491574,0.1298191144689917,-9.807875121831897,14960.0
27.8,0.6000000238418579,304.0,21.42634391784668,26.821332931518555,-79.78276072999405,40.4590659007529,295.9763488311768,0.0037100636400282,0.0109590664505958,0.9961244463920592,0.0871908217668533,-0.0492802800031614,0.0563176736199,3.0174279412501965,0.0520806387066841,0.0495552085340023,-0.0170828029513359,0.2383837644942105,0.0755326872691512,-9.755877002477646,14960.0
28.0,0.6000000238418579,301.0,21.41883087158203,25.52519416809082,-79.78276036816088,40.45906559746685,296.9419974822998,-0.0002273924910696,0.0108518972992897,0.9961878657341005,0.0865561217069625,-0.0628595359429399,0.0482190983592513,3.007236005915644,0.021078947931528,0.0441238358616828,0.0152070811018347,0.1698668406531215,-0.0431700936611741,-9.707050412893295,14961.0
28.2,0.6000000238418579,300.0,21.4426212310791,24.91290855407715,-79.78276029328829,40.45906560142392,297.2422484893799,-0.0005178808351047,0.0110618118196725,0.996198832988739,0.0864026173949241,-0.0715792174228312,0.0506227896058689,2.9990923744612505,-0.0411291681230068,-0.0802386775612831,-0.0142600014805793,0.1727893886715174,0.0001419046148657,-9.735714633464816,14962.0
28.3,0.6000000238418579,298.0,21.40255546569824,24.984474182128903,-79.78276022263631,40.45906560691184,297.5419063110352,0.0002144436002708,0.0109126940369606,0.9961892366409302,0.0865325480699539,-0.0619925883168932,0.0491466791440655,2.9914949806237034,-0.0079376026988029,0.0198928080499172,0.0523369498550891,0.2094490371085703,-0.1026117459498346,-9.726888846158982,14962.0
28.5,0.6000000238418579,302.0,21.38001823425293,26.26470947265625,-79.78276002438912,40.45906545442983,298.1688766021729,0.0037257107906043,0.0107004335150122,0.9962014555931092,0.0863391682505607,-0.0339039436565524,0.0428713941190103,3.0015021420021104,0.0660027787089347,0.0326440669596195,0.047136053442955,0.2905793552845717,-0.0818457615561783,-9.892671443223954,14963.0
28.6,0.6000000238418579,302.0,21.422588348388672,25.68422889709473,-79.78275987221117,40.459065304460985,298.49725146484377,0.003542105667293,0.0109059512615203,0.996180534362793,0.0865616798400878,-0.0382449519005179,0.049395652942919,3.019651700232435,-0.0112195303663611,-0.033424112945795,-0.0481213331222534,0.1596246749907732,0.1614091538451612,-9.838915650844577,14963.0
28.8,0.6000000238418579,301.0,21.32993507385254,26.622539520263672,-79.78275974793422,40.459065326180784,299.10035319519045,0.0011700993636623,0.0117616243660449,0.9961054921150208,0.0873742997646331,-0.0452251694781299,0.0423305469908343,3.011011245495579,0.0154260899871587,0.0402193702757358,-0.0439060106873512,0.1807323377765715,0.1073893322702497,-9.744330505728724,14964.0
28.9,0.6000000238418579,296.0,21.417579650878903,25.42977333068848,-79.78275959615824,40.45906524459948,299.733396484375,-0.0007257461547851,0.0117124868556857,0.9960281848907472,0.0882618352770805,-0.043276105543634,0.0407688047935998,3.0256515764750267,-0.0317073762416839,0.0341270454227924,-0.0194395072758197,0.2569699434377253,0.004420833075419,-9.836906547546386,14964.0
29.1,0.6000000238418579,300.0,21.308650970458984,26.312419891357425,-79.78275947630003,40.45906506668538,300.0635242004395,-0.0003952699480578,0.0111771170049905,0.9960193037986756,0.0884336978197097,-0.0458595350788515,0.0449898210904408,3.035161470744073,-0.0677332058548927,-0.0735966488718986,-0.0036982716992497,0.1496092716604471,-0.0677215746045112,-9.887403101921082,14965.0
29.2,0.6000000238418579,307.0,21.403806686401367,24.777727127075195,-79.78275943571906,40.459065086372966,300.36756701660164,0.000321933592204,0.0109090954065322,0.9959823489189148,0.0888823941349983,-0.0313504054449905,0.0367679955085517,3.0453929517500447,0.0448544435203075,0.0567712262272834,0.0688939690589904,0.2074866201728582,-0.026421897879336,-9.91104105591774,14965.0
29.41,0.6000000238418579,313.0,21.401302337646484,25.68422889709473,-79.78275928544268,40.45906500115238,300.99726672363283,0.0015686199767515,0.0109337056055665,0.9959837794303894,0.0888507664203643,-0.0140105488807526,0.0247410353062622,3.0470822126873447,0.0677401795983314,0.0700354576110839,0.0492648519575595,0.2035251863859594,-0.0164754482964053,-9.870537393093109,14965.0
29.5,0.6000000238418579,317.0,21.368749618530277,25.326400756835927,-79.78275924169381,40.45906488527908,301.6313685913086,0.0023882444947958,0.0098168905824422,0.9959916472434998,0.0888744369149208,0.0006337704676131,0.0367071137129378,3.0516287723682467,-0.0550433360040187,-0.0026095318607985,0.0007601243560202,0.1907202043756842,0.1774826197698712,-9.84730172753334,14966.0
29.7,0.6000000238418579,324.0,21.31866836547852,26.55892562866211,-79.78275923201028,40.459064911587184,301.93622012329104,0.0036246955860406,0.0087431231513619,0.9960155487060548,0.0886771902441978,0.0009077117382089,0.0321975659052843,3.045463179071781,-0.0613528899848461,-0.0054403478279709,-0.0531260594725608,0.1140281786955893,0.1109548821486532,-9.702687220573424,14966.0
29.8,0.699999988079071,336.0,21.421335220336918,25.21507453918457,-79.782759224612,40.45906493880135,302.2404002685547,0.0029905305709689,0.0081516802310943,0.9960651397705078,0.0881986394524574,0.0147605136654561,0.0235693741201344,3.0410495797201778,-0.0058127134107053,-0.0660312920808792,-0.0005975611857138,0.1849836472794413,0.0174770900420844,-9.802109767198566,14967.0
30.0,0.699999988079071,342.0,21.451385498046875,24.38809013366699,-79.78275911892213,40.45906484158504,302.87397570800783,0.000122140860185,0.0075471149757504,0.996057629585266,0.0883873552083969,0.0078208485430971,0.0252177466672227,3.0367172994728984,0.0018441486172378,-0.0265589598566293,-0.0341933295130729,0.1587369032017886,0.0518544560065493,-9.762514761686326,14967.0
30.1,0.699999988079071,347.0,21.358732223510746,26.7418155670166,-79.78275913238211,40.45906474584807,303.2066325683594,0.0004143189289607,0.0083174342289567,0.9960319995880128,0.0886052846908569,0.0252496154972686,0.0196607157448555,3.029368885337851,0.0359770134091377,0.0431352779269218,0.0072602909058332,0.2164515712112188,-0.027994883400388,-9.696854622960087,14968.0
30.32,0.699999988079071,348.0,21.39754676818848,24.92881202697754,-79.78275918332547,40.45906479549487,303.8103084106445,0.0027554759290069,0.0102850077673792,0.9959734678268432,0.0890147164463996,0.0297897875483465,0.0352250703047607,3.0150283191314973,-0.0433518588542938,-0.0545836314558982,0.0127500714734196,0.1760250916332006,0.0198818442737683,-9.76464958012104,14968.0
30.4,0.8000000119209291,356.0,21.46265411376953,24.39604187011719,-79.78275915639846,40.45906465011217,304.4410609741211,0.0035091785248368,0.0096445446833968,0.9959304332733154,0.0895396023988723,0.0391194034702891,0.0474257229935217,2.9931236147872915,-0.0033780245576053,-0.0021696619223803,-0.001691952580586,0.2078150144219398,0.0096565670147538,-9.726586545109749,14969.0
30.6,0.8000000119209291,357.0,21.351221084594727,26.527118682861328,-79.78275914295531,40.45906452254697,304.77011294555666,0.0030400939285755,0.0097230337560176,0.9959236979484558,0.089622788131237,0.0405177600929029,0.0458410293766878,2.9896745821334365,0.014706103131175,-0.0191866643726825,-0.0190564300864934,0.2217071217298508,0.0580390422977507,-9.650976199507712,14969.0
30.7,0.8000000119209291,358.0,21.324928283691406,26.63049125671387,-79.78275917315423,40.45906453976865,305.06894488525387,0.0024164223577827,0.0109089650213718,0.9959263801574708,0.0894753709435463,0.0423032518130264,0.0428777615883736,2.9856153626426365,0.0144730890169739,0.0771653056144714,0.014479168690741,0.1993548608198762,0.0227278942661359,-9.725959723591805,14970.0
30.9,0.8999999761581421,0.0,21.4426212310791,24.491464614868164,-79.78275919836238,40.45906442218735,305.6996669311524,0.0037866269703954,0.01232420373708,0.995952308177948,0.0889543816447258,0.0422957043070867,0.0619127230794134,3.0163017165854167,0.0130049772560596,0.0118927359580993,0.0314626917243003,0.2505804350785911,-0.076576849236153,-9.934503593444823,14970.0
31.0,0.8999999761581421,3.0,21.368749618530277,25.453628540039062,-79.78275916782617,40.45906432492809,306.32603259277346,0.0045502805151045,0.0112413940951228,0.9959985613822936,0.0885427296161651,0.0499663236628747,0.0522573237979991,3.0068454006885195,0.0235434714704752,0.0001410037802997,0.0167815387248992,0.181016786545515,0.0885237203724682,-9.778443746566774,14971.0
31.21,0.8999999761581421,0.0,21.405059814453125,25.24688148498535,-79.7827591877161,40.45906434838703,306.6264934082032,0.0050526717677712,0.0109879598021507,0.9960028529167176,0.0884987786412239,0.0433871773006691,0.0461625835630369,2.9980404802994483,0.0271505862474441,0.0342972837388515,0.0027772758621722,0.2073494481481612,0.0479445782164111,-9.700529597997663,14971.0
31.3,0.8000000119209291,3.0,21.3987979888916,25.127605438232425,-79.78275920334613,40.459064373996256,306.925291015625,0.0060089034959673,0.0108218323439359,0.9960307478904724,0.0881458073854446,0.0397116937381676,0.0397511329273179,2.9785276218506067,-0.0011249390663579,-0.0468005537986755,0.0070085409097373,0.210774235446006,0.0192700930405408,-9.6660245937109,14971.0
31.51,0.8999999761581421,4.0,21.324928283691406,26.38398551940918,-79.78275919439339,40.459064278325855,307.5465182800293,0.0064279302023351,0.0093212751671671,0.996088445186615,0.0876344144344329,0.0479545487835513,0.0426642136770956,2.9844697606051853,-0.0004592414479702,-0.0754787623882293,-0.0310597252100706,0.1694025717303157,0.0980575780849903,-9.794366884231568,14972.0
31.6,0.8000000119209291,3.0,21.38502693176269,24.467607498168945,-79.78275919396192,40.45906416841925,307.8737849731445,0.00590206310153,0.0078965630382299,0.9961301684379578,0.0873359963297844,0.0572011796272815,0.0361729394069775,3.0071920845240143,0.0521263591945171,0.0303121879696846,0.0843803584575653,0.2382016237266362,0.0048083218897227,-9.940356656312945,14972.0
31.81,0.8000000119209291,1.0,21.296131134033203,26.75771903991699,-79.78275922818885,40.45906420482935,308.4780559082032,0.0044155674986541,0.0064976913854479,0.9961702823638916,0.0870817154645919,0.0394480135018539,0.0232128065584352,3.0302930329214446,0.0135701177641749,0.0713446289300918,0.0079980781301856,0.1715315612219274,0.0676870486233383,-9.93005620121956,14973.0
31.9,0.8000000119209291,356.0,21.3061466217041,27.37795829772949,-79.78275913840588,40.45906409993618,308.800405456543,0.0055104885250329,0.0080295242369174,0.9961121082305908,0.0875546857714653,0.017325713133035,0.0300760259702491,3.052060177526058,-0.1349137872457504,-0.017903758212924,-0.0950016900897026,0.1186566153354942,0.1882960584014654,-10.013195421695707,14973.0
32.1,0.699999988079071,1.0,21.348716735839844,25.5570011138916,-79.78275919702861,40.45906406660821,309.42040438842776,0.0070034652017056,0.0103037115186452,0.995922327041626,0.0893510431051254,0.0353795830440075,0.0354344201621012,3.0762028115115685,-0.0759097933769226,-0.0773108899593353,0.0246506351977586,0.1695483683981001,0.0275966834463179,-10.070353124141691,14974.0
32.2,0.699999988079071,12.0,21.3700008392334,25.5570011138916,-79.78275919582977,40.45906408871664,309.72848696899416,0.0054711238481104,0.0102801052853465,0.9958160519599916,0.090635597705841,0.0429434672280846,0.0397286630927249,3.086073432407132,0.0796817168593406,0.0709760412573814,0.06078427657485,0.205039395969361,-0.0002429426740854,-9.952627623081208,14974.0
32.41,0.699999988079071,16.0,21.35372543334961,25.77169990539551,-79.78275909150881,40.45906405325127,310.3581294555664,0.0022439886815845,0.0087545625865459,0.9956605434417723,0.0926201045513153,0.0263576037131083,0.0239667360486402,3.0643663914333747,0.0848468840122222,0.043764553964138,0.0777489766478538,0.1811035994254052,0.0089713921118527,-9.76890459895134,14975.0
32.5,0.699999988079071,18.0,21.33369255065918,25.33435249328613,-79.78275909027481,40.45906408192221,310.6642627258301,0.0021497684065252,0.0078255906701087,0.995603322982788,0.0933175310492515,0.0087245140192118,0.0234749151862191,3.0585360598651574,-0.0594024397432804,0.0003854915557894,-0.0055111506953835,0.1248237833194434,0.0702258091606199,-9.733589755296707,14975.0
32.7,0.699999988079071,18.0,21.361236572265625,25.978445053100582,-79.78275900982825,40.45906403457172,311.2923030395508,0.0062795374542474,0.0067400219850242,0.9955824613571168,0.093438982963562,0.0209122545407512,0.0144970176982008,3.0470662675173497,-0.0354515388607978,0.0399945899844169,-0.0195484459400177,0.1769480380788445,0.0272579652070999,-9.81455264210701,14976.0
32.8,0.6000000238418579,10.0,21.331188201904297,26.535070419311523,-79.78275900317064,40.459064060276496,311.5968951721192,0.0074032018892467,0.0069030662998557,0.9956330657005308,0.0928030982613563,0.0261746644146141,0.0207261515345798,3.0433187777295294,-0.01837869733572,0.0079516097903251,-0.031807318329811,0.1657586417533457,0.0848438482917845,-9.752371596693994,14976.0
33.0,0.699999988079071,7.0,21.391286849975582,25.42977333068848,-79.78275898182184,40.45906394255454,312.22637744140627,0.0055879969149827,0.0083138616755604,0.9957574009895324,0.0914705023169517,0.0342772170448109,0.0328725742641529,3.0292569159415086,0.0214713644236326,0.0301829688251018,0.0343267954885959,0.1548482855223119,-0.0013208494707942,-9.743711285591123,14977.0
33.1,0.699999988079071,2.0,21.38502693176269,25.30254554748535,-79.78275890383199,40.45906385836777,312.55547137451174,0.0039490642957389,0.0088317990303039,0.9957758784294128,0.0913066491484642,0.0190140538084339,0.0373450465867564,3.026626565325388,0.0242800991982221,-0.0230510402470827,-0.0370234213769435,0.1705334415100515,0.063005703818053,-9.70162887454033,14977.0
33.3,0.8000000119209291,8.0,21.38001823425293,25.342304229736328,-79.78275887397744,40.45906388335328,313.15903277587887,0.0034629749134182,0.0079723559319973,0.9957494735717772,0.0916923061013221,0.0088826732798796,0.0359485569585088,3.011683378261538,0.0261018648743629,0.0469172075390815,0.0394021309912204,0.220927066616714,0.0186301860935054,-9.766734112501148,14978.0
33.4,0.8000000119209291,24.0,21.301137924194336,27.529041290283203,-79.78275882413031,40.459063760682334,313.48532672119137,0.0037096480373293,0.0084513109177351,0.9957093000411988,0.0920754373073578,0.0170667029378427,0.0377060087845777,3.0147938314665685,0.0121766552329063,0.0089964913204312,0.019745048135519,0.194461216405034,0.0448961780173704,-9.743795485496523,14978.0
33.6,0.8999999761581421,32.0,21.34496116638184,25.024232864379893,-79.78275874228393,40.45906363776554,314.11484332275387,0.0045677246525883,0.0093268016353249,0.9956327676773072,0.0927771776914596,0.0103218019499804,0.0480475546128551,3.0325549580680007,-0.0022241917904466,0.0493714772164821,0.0174817368388175,0.2161372468248009,0.0805318556539714,-9.864784902334211,14979.0
33.71,0.8999999761581421,29.0,21.37125396728516,24.92881202697754,-79.78275872503905,40.45906364456318,314.72123141479494,0.0065672826021909,0.0075231208465993,0.9956337213516236,0.0928111970424652,0.0173258966353562,0.0569598680584014,3.0185502396001214,-0.0853564515709877,-0.0826603397727012,-0.0301967561244964,0.1854703914374113,0.1801857144758105,-9.808532348871232,14979.0
33.9,1.0,29.0,21.34746551513672,26.25675773620605,-79.7827586072103,40.45906352310855,315.049299194336,0.0075660170987248,0.0055640488862991,0.9956451654434204,0.0927499085664749,0.0166804598040392,0.0510507380703925,3.0115726924793105,-0.0240991413593292,-0.0340123325586319,0.0118661606684327,0.1814449854567647,-0.0015915481466799,-9.6676852029562,14980.0
34.0,1.0,23.0,21.32117080688477,24.793630599975582,-79.78275858145683,40.45906351672422,315.34983630371096,0.0073163644410669,0.0053238538093864,0.9956765174865724,0.0924471467733383,0.0171486135845488,0.0412757998258904,3.000844085706939,0.0490276515483856,0.0458031967282295,0.0228616744279861,0.1185056932177394,0.0683352581597864,-9.68336158812046,14980.0
34.2,1.0,22.0,21.417579650878903,24.11773109436035,-79.78275849414462,40.45906335049128,315.98311801147463,0.0046722060069441,0.0077397287823259,0.9957010746002196,0.0921829789876938,0.0054224442796954,0.0579308723786654,3.021220222083645,0.0215737670660018,0.0118825873360037,0.0295890141278505,0.2062344389408827,-0.0403272048197686,-9.867342474460605,14980.0
34.3,1.0,23.0,21.30990219116211,25.79555511474609,-79.78275846565334,40.45906333206725,316.2851733703613,0.0038339500315487,0.0090870456770062,0.9956993460655212,0.0921172425150871,-0.0072284253749452,0.0671728799834044,3.017032627045785,-0.0089148944243788,0.0571502894163131,0.0156298838555812,0.1523125399556011,0.002403193070786,-9.76950744688511,14981.0
34.5,1.100000023841858,24.0,21.296131134033203,26.7497673034668,-79.78275831739239,40.45906319411449,316.91424746704104,0.0039221169427037,0.0118333250284194,0.9956899285316468,0.0919037461280822,-0.0132398623138452,0.0767230477750139,3.0036696307770523,0.0666807144880294,0.0283079966902732,0.0305413175374269,0.3032510025054216,-0.0252262998791411,-9.701970351934431,14981.0
34.6,1.2000000476837158,24.0,21.32743263244629,25.40591812133789,-79.78275819471766,40.45906297795671,317.54199786376955,0.0042723678052425,0.0118203563615679,0.9957379102706908,0.091368056833744,-0.0160864715962224,0.0918935940957954,3.012660903816152,-0.0163703467696905,-0.041678674519062,-0.0512947626411914,0.1955532022006809,0.0067942110565491,-9.714952340126038,14982.0
34.8,1.2000000476837158,18.0,21.421335220336918,23.75194931030273,-79.78275816067203,40.459062958112376,317.84370227050783,0.0037308731116354,0.0119135426357388,0.99577134847641,0.091014489531517,-0.0066773130386163,0.0880011425419383,3.0166794377121184,0.0851074457168579,0.0386636331677436,0.0242515951395034,0.2668071711435914,-0.0313573544542305,-9.852233269214633,14982.0
34.9,1.2999999523162842,11.0,21.301137924194336,26.07386589050293,-79.78275803002558,40.459062777544496,318.17115969848635,0.0015833117067813,0.0118475221097469,0.9958086013793944,0.0906773284077644,-0.0203752378214527,0.0962687254710413,3.0141653370225026,0.0642927959561348,-0.0045801429077982,-0.0492757745087146,0.2308807635493577,0.115903600025922,-9.723488105535507,14983.0
35.1,1.399999976158142,9.0,21.377513885498047,25.06399154663086,-79.78275783509666,40.45906258365295,318.7982615966797,-0.0007192632183432,0.0125227430835366,0.9958084225654602,0.0905999615788459,-0.0333070617932126,0.0850860055523301,3.036613438334324,0.0514769181609153,0.0783856436610221,0.0651106983423233,0.2126393693313002,-0.0482529320474714,-9.974884464740754,14983.0
35.2,1.399999976158142,9.0,21.34996795654297,26.43964767456055,-79.78275780451825,40.45906256620261,319.10326953125,0.000650429923553,0.0130849359557032,0.995792031288147,0.0907007455825805,-0.040958317566364,0.0878103611397218,3.0582664393644747,-0.0407198145985603,-0.0154798850417137,-0.0305300336331129,0.1501261198427528,0.1203396724071353,-9.971638090610504,14984.0
35.41,1.5,8.0,21.31991958618164,25.77169990539551,-79.78275777867626,40.45906255194711,319.4097117919922,0.0027625646907836,0.013096866197884,0.9957769513130188,0.0908255949616432,-0.0198258100934107,0.0878522766444126,3.066798072133087,-0.0181468352675438,0.0248223096132278,0.0332899279892444,0.190595804862678,0.1388897904753685,-9.77316078722477,14984.0
35.5,1.600000023841858,14.0,21.308650970458984,25.46953201293945,-79.78275769691979,40.45906245592457,320.0353679199219,0.0061361785046756,0.0123731363564729,0.9957717061042786,0.0908191949129104,0.0015202734313755,0.070403047337099,3.0416065047630663,-0.0399067476391792,-0.0204956512898206,-0.0190499518066644,0.2094478859379888,0.0916591161768883,-9.77888696551323,14985.0
35.7,1.7000000476837158,15.0,21.42509078979492,23.736045837402344,-79.78275763950997,40.45906233760145,320.6636523742676,0.0066487868316471,0.0114804962649941,0.9957338571548462,0.0913134142756462,0.0234736405024055,0.0731108000914061,3.0318006232889263,-0.0798852890729904,-0.0863252654671669,-0.0657940432429313,0.1946535532549024,0.2186090293340385,-9.701133615374566,14985.0
35.8,1.8999999761581416,19.0,21.38126945495605,24.793630599975582,-79.78275763291278,40.459062342736175,320.96567340087887,0.0056995502673089,0.0094152726233005,0.995712399482727,0.0918463245034217,0.0291520060528992,0.0670879231497345,3.006122958174266,-0.0012031007790938,-0.017597222700715,-0.0139455888420343,0.2588276038505137,0.1008129231445491,-9.596852032542229,14985.0
36.0,2.0,21.0,21.30990219116211,25.81941032409668,-79.78275759966684,40.45906222050432,321.59028048706057,0.004592212382704,0.0075060310773551,0.9955880641937256,0.0934190899133682,0.0275675318210934,0.0534299104194424,2.982815553642065,-0.0153981270268559,-0.0091152191162109,-0.0467760264873504,0.1975377289205789,0.1804935703799128,-9.674971418380736,14986.0
36.1,2.0,26.0,21.24730110168457,27.529041290283203,-79.78275755134888,40.45906208544152,321.9181880493164,0.0048629320226609,0.008690963499248,0.9955297112464904,0.0939226225018501,0.0318776501023655,0.0612822602980262,2.9958161076218683,-0.0605653263628482,0.0097311940044164,-0.0184122249484062,0.2328622570261359,0.0970998681150376,-9.797581683397294,14986.0
36.31,2.0999999046325684,29.0,21.296131134033203,26.081817626953125,-79.78275758370937,40.459062064151134,322.51980395507815,0.0076690008863806,0.0123253418132662,0.9954150319099426,0.0945424884557724,0.0417103385495498,0.0824372782756738,3.024183108997767,-0.0497275777161121,0.001545859966427,-0.0165154989808797,0.1787038290314376,0.1146939207427203,-9.950957658290864,14987.0
36.4,2.200000047683716,34.0,21.28736686706543,26.95651435852051,-79.78275746079711,40.45906202060739,322.85040469360354,0.008825703524053,0.0141051989048719,0.9953696131706238,0.0946704819798469,0.0464408965400263,0.0736811134695632,3.038035229805094,0.0191199053078889,0.058696549385786,0.0002066962915705,0.3472873337566853,0.05379645336885,-9.978702696561816,14987.0
36.6,2.200000047683716,36.0,21.363740921020508,24.348331451416016,-79.78275743186029,40.45906190543511,323.47599215698244,0.0088312970474362,0.01435930095613,0.9953567981719972,0.094766192138195,0.045712485175498,0.0938011488400352,3.036172435743434,-0.0216697826981544,-0.0646131336688995,0.0151363033801317,0.23196290044114,0.1596686204709112,-9.83317368507385,14988.0
36.7,2.299999952316284,38.0,21.35372543334961,25.07989501953125,-79.78275743590238,40.459061908883314,323.7794513244629,0.0075481100939214,0.0135048190131783,0.9953818321228028,0.0947406664490699,0.0487289873798583,0.0859058265909549,3.0260032388119744,-0.0018073619576171,0.015213331207633,-0.0171371158212423,0.2327895505540073,0.1448517760075628,-9.721751482486724,14988.0
36.9,2.299999952316284,38.0,21.34996795654297,24.93676376342773,-79.78275740615601,40.45906176755321,324.4057483215332,0.0071163200773298,0.0121777513995766,0.9954199194908142,0.0945529192686081,0.0396473470580765,0.0841344568218114,3.0090376930676626,-0.0590258762240409,-0.0314793735742569,-0.0857659205794334,0.2602048789523542,0.235925357490778,-9.736397588253023,14989.0
37.0,2.299999952316284,37.0,21.322423934936523,25.73989295959473,-79.78275749626225,40.45906160494132,325.0318278808594,0.008797631599009,0.0116620874032378,0.9954304099082948,0.0943660363554954,0.0697527767890632,0.0899528043814372,2.9985012665854285,-0.0292023569345474,0.0112587604671716,-0.0211846493184566,0.2317203323543072,0.1229267455637455,-9.727908600568774,14990.0
37.2,2.299999952316284,36.0,21.395042419433597,24.89700508117676,-79.78275753485592,40.45906159572178,325.3318957824707,0.010167765431106,0.0127489818260073,0.9954004883766174,0.0944031476974487,0.0763690067855377,0.0894144817693847,2.996597227419024,-0.0141738299280405,0.0299297217279672,0.0670163035392761,0.2121700389124452,0.0684896886069327,-9.739558593034744,14990.0
37.3,2.299999952316284,35.0,21.29988670349121,26.01820373535156,-79.78275756849959,40.45906158552962,325.6312694091797,0.0117180328816175,0.0136742861941456,0.9953736662864684,0.0943768918514251,0.0773629443281605,0.0987337448250697,2.9861904625924924,-0.036140352487564,-0.0109054194763302,0.0268332660198211,0.2134490259736776,0.0717701090639457,-9.716433439850809,14990.0
37.5,2.299999952316284,35.0,21.336196899414062,25.87507247924805,-79.7827577113341,40.45906126651624,326.2538051147461,0.0122539671137928,0.0146495085209608,0.9954107999801636,0.0937698483467102,0.1058936208568164,0.1313767645156852,2.9945649079964567,0.0634953677654266,0.0444322228431701,0.0286542493849992,0.3870233302563429,0.0997567972261458,-9.850145813226698,14991.0
37.6,2.299999952316284,34.0,21.252307891845703,26.511213302612305,-79.7827576797733,40.45906119248296,326.5778750915528,0.0116893230006098,0.0149927018210291,0.9954370260238647,0.093508280813694,0.0927267032715862,0.1198940631025138,2.9978584414674927,0.0142098572105169,0.0187402181327343,0.0315053164958953,0.2886401262134314,0.0736070392699912,-9.753243416547775,14991.0
37.8,2.299999952316284,34.0,21.31991958618164,26.04205894470215,-79.78275773096685,40.45906116491024,327.179010345459,0.0104707181453704,0.0142555451020598,0.9955027103424072,0.0930674225091934,0.0740583508066004,0.1075968594164272,3.009445257639143,0.0542367026209831,-0.0226380992680788,0.0548764578998088,0.2979464267380535,0.0922915473673492,-9.870887056589126,14992.0
37.9,2.299999952316284,33.0,21.269838333129886,26.19314384460449,-79.78275767630325,40.45906105155545,327.80793185424807,0.0091816931962966,0.0133637050166726,0.9955288767814636,0.0930560976266861,0.0500288350342562,0.095325789479102,3.04179049142816,-0.0380901880562305,-0.0457593165338039,-0.0687447860836982,0.226217006072402,0.1225548261031508,-9.893850241899491,14992.0
38.1,2.299999952316284,33.0,21.29988670349121,25.517242431640625,-79.78275752435297,40.45906094343953,328.12858004760744,0.0091931913048028,0.0128943584859371,0.9955137372016908,0.093282327055931,0.0453190631648559,0.0823477791304185,3.030306370162549,-0.0189643781632184,0.0109833860769867,-0.0402021408081054,0.3017161997593939,0.1603036829084158,-9.804383749365806,14993.0
38.2,2.299999952316284,30.0,21.278602600097656,25.66037368774414,-79.78275751905724,40.45906094718724,328.43184848022463,0.0091847730800509,0.0127539569512009,0.9954914450645448,0.0935406610369682,0.0406724950542381,0.0794403660636028,3.0330294189030265,-0.0417857617139816,0.0390026234090328,-0.0375667139887809,0.2448990245349705,0.1915288012102246,-9.807797353863718,14993.0
38.4,2.299999952316284,31.0,21.262325286865234,26.050010681152344,-79.78275741879523,40.45906087484479,329.0554141540528,0.0104360878467559,0.0133635615929961,0.9953902959823608,0.0943964347243309,0.0399323976437701,0.0689993525562492,3.0157634505307542,-0.0427812822163105,-0.0565412044525146,0.0496615655720233,0.2384610573761165,0.065143555495888,-9.75606586754322,14994.0
38.5,2.299999952316284,32.0,21.361236572265625,24.36423492431641,-79.78275740343649,40.459060887123904,329.3572024841309,0.0108445947989821,0.0126190856099128,0.9953582882881165,0.0947898998856544,0.0476008349522918,0.0669705595495119,3.0180235567853644,0.0279903579503297,0.0298480726778507,0.0611032918095588,0.227572500295937,0.037791303936392,-9.82157280921936,14994.0
38.71,2.299999952316284,32.0,21.281105041503903,25.89097595214844,-79.78275728563163,40.45906083321946,329.97815509033205,0.0103678423911333,0.011890354566276,0.995339035987854,0.0951393395662307,0.0414121479718471,0.0494069406866628,3.006973456807452,0.0118559198454022,-0.0112066371366381,0.0282348226755857,0.2372391903027892,0.0629069680999964,-9.782944348454476,14994.0
38.81,2.299999952316284,33.0,21.194713592529297,26.59073257446289,-79.78275725613263,40.459060853588745,330.2789744873047,0.0104678589850664,0.013187687844038,0.9953140020370485,0.0952189117670059,0.0345617052666712,0.0461225461259498,3.0114394429319,0.0202386733144521,0.0816512778401374,-0.0417164340615272,0.3004236727394164,0.1231121753901243,-9.86781259059906,14995.0
39.01,2.299999952316284,33.0,21.348716735839844,24.658451080322266,-79.78275737691563,40.45906084407936,330.8914241333008,0.0110108405351638,0.0147485788911581,0.9952681064605712,0.0954082533717155,0.0538204842652011,0.0463180791290726,3.028167986518081,-0.0521066114306449,-0.0138694550842046,-0.0150065757334232,0.2739590833336115,0.1379586396552622,-9.949679456949234,14995.0
39.1,2.299999952316284,35.0,21.252307891845703,26.43169593811035,-79.78275712739057,40.45906072874817,331.1971034545898,0.0105690499767661,0.0139449834823608,0.9952850937843324,0.095402181148529,0.0313999799639485,0.0437814768085602,2.9980898393458126,-0.0150682162493467,0.0117731280624866,-0.0224079452455043,0.2298975725099444,0.2043488763459026,-9.793679836392403,14996.0
39.3,2.299999952316284,36.0,21.32617950439453,25.087846755981445,-79.78275704685404,40.459060816848016,331.79726977539065,0.0079355854541063,0.0108479531481862,0.9953491091728208,0.0953919515013694,0.0228966353839298,0.0204822728058468,3.0125824325512243,-0.0146163459867239,-0.0419659726321697,0.0222463719546794,0.220250050406903,0.030923730880022,-9.929334654808043,14996.0
39.4,2.299999952316284,37.0,21.28736686706543,25.70013236999512,-79.7827567852393,40.45906089916148,332.40910906982424,0.0083136204630136,0.0098689878359437,0.995386004447937,0.0950809344649314,0.0069606786948672,-0.009820891079544,2.9946983836143386,0.0069002457894384,-0.0116035817191004,-0.0358017645776271,0.2232539660856128,0.0346279831090942,-9.826268123388289,14997.0
39.6,2.299999952316284,39.0,21.272340774536133,25.58085632324219,-79.78275662787807,40.45906083774978,332.728513671875,0.0074637490324676,0.0107702165842056,0.995395004749298,0.09495859593153,0.0125436555735188,-0.0048785398870224,2.9915653361836614,0.058875098824501,0.0632922202348709,-0.0181726403534412,0.3254674252867698,0.0969783373922109,-9.791898189783096,14997.0
39.7,2.299999952316284,39.0,21.348716735839844,24.94471549987793,-79.78275657116252,40.45906088927313,333.02734942626955,0.0061246240511536,0.0113432854413986,0.9953755140304564,0.095191515982151,0.0026952769551237,0.0035096303322021,2.985791918731584,0.0629669278860092,0.0350013822317123,0.0343519262969493,0.2548689474910497,0.1307857962604612,-9.741922622323038,14998.0
39.9,2.299999952316284,40.0,21.268585205078125,26.04205894470215,-79.78275641908577,40.45906086652487,333.64991564941414,0.0037084827199578,0.010023602284491,0.9953272342681884,0.0959670469164848,-0.0034297550999492,0.0099165299494019,2.9776954883516806,-0.0155426692217588,-0.0104481847956776,0.0011892173206433,0.2492187464609742,0.120564324259758,-9.675267872214318,14998.0
40.0,2.299999952316284,42.0,21.271089553833008,26.95651435852051,-79.78275638241054,40.459060910650464,333.94675250244137,0.0045254565775394,0.0098004406318068,0.9952993392944336,0.096243254840374,-0.0064112537559392,0.0077632078862366,2.962580474514112,-0.0519855841994285,0.0284070409834384,-0.0026369234547019,0.2279206471703947,0.1533588352426886,-9.688306578397752,14998.0
40.2,2.299999952316284,42.0,21.25356101989746,26.137481689453125,-79.78275617425774,40.45906086406325,334.5703486938477,0.0100585231557488,0.0090143289417028,0.9952388405799866,0.0965259671211242,0.0155583862373712,0.0217781360337799,2.9813172973106554,-0.0887323543429374,-0.0483777374029159,-0.0978907123208046,0.1944098157249391,0.2556836108118295,-9.78145915567875,14999.0
40.3,2.299999952316284,43.0,21.30990219116211,25.09579849243164,-79.78275614482476,40.45906089825326,334.86902423095705,0.0106452526524662,0.0092773847281932,0.9952251315116882,0.0965797901153564,0.0397608056853943,0.0160132035982645,2.99270229186054,0.0274389591068029,0.0229799225926399,0.0407486706972122,0.2216582609340548,0.1161064344551414,-9.929162746667863,14999.0
40.5,2.299999952316284,42.0,21.50522232055664,21.310754776000977,-79.78275605441637,40.45906088865584,335.4915751953125,0.0083611691370606,0.0120329326018691,0.9952138066291808,0.0966168865561485,0.0431264335484479,0.0262073199783375,2.9557347316464866,0.0226958636194467,0.0118429707363247,0.0177263654768467,0.2307492194697261,0.055282098390162,-9.427123734354971,15000.0
40.6,2.299999952316284,41.0,21.57158088684082,20.00666236877441,-79.78275596083445,40.459060816568886,335.8080501098633,0.0079007623717188,0.0128076691180467,0.9951984286308287,0.0967141836881637,0.0316582719639174,0.0406427612686702,2.893050598535418,-0.0071777929551899,-0.013948006555438,-0.0181729011237621,0.2057776800356805,0.1153590323869139,-9.097521450519563,15000.0
40.8,2.299999952316284,42.0,21.63919258117676,19.116064071655277,-79.78275592407772,40.45906088294571,336.3646831054688,0.0084050456061959,0.0126180974766612,0.9951611757278442,0.0970796644687652,0.027432430389103,0.0343437449142332,2.657944993233289,-0.0165913328528404,-0.0117938462644815,-0.0087761729955673,0.2684730794280767,0.1099111176095903,-8.61707620561123,15001.0
40.9,2.299999952316284,43.0,21.64545249938965,19.855579376220703,-79.78275583707894,40.459060788462615,336.6557292480469,0.0086459768936038,0.0112321358174085,0.9951373934745787,0.0974720418453216,0.029998008794524,0.0292492085516202,2.542745143269193,-0.0145749766379594,-0.0465030968189239,-0.0244484487920999,0.1790961772017181,0.1075060116313398,-8.37421853542328,15001.0
41.1,2.200000047683716,44.0,21.60538673400879,19.855579376220703,-79.78275571588135,40.45906074417706,337.16358752441414,0.008671480230987,0.0101151308044791,0.9951335191726683,0.0976311415433883,0.0305149592850942,0.0088282171444477,2.272050530557048,0.0287084020674228,0.0072805904783308,-0.0572004951536655,0.0946982796024531,0.1564525604993105,-8.35096298933029,15002.0
41.2,2.0999999046325684,44.0,21.629175186157227,19.92714500427246,-79.78275569498649,40.45906078107132,337.38429064941414,0.0090707894414663,0.0117471255362033,0.9951226115226746,0.0975230634212494,0.0233489993418358,0.0007501385986916,2.1412419483209963,-0.0036161169409751,0.0693652033805847,-0.0039093634113669,0.1922277262061834,0.1266437291912734,-8.492325859665872,15002.0
41.4,2.0999999046325684,47.0,21.51774406433105,20.94497299194336,-79.78275567278881,40.45906082025113,337.5919017333985,0.0091312807053327,0.0139478808268904,0.9951108694076538,0.0973472669720649,0.020763727460727,0.0036674834784883,2.0149285591108823,0.0173690021038055,0.0028661091346293,0.0111293969675898,0.1397281898371875,0.1629779983498156,-8.494482897520065,15002.0
41.5,2.0,46.0,21.52901268005371,20.841598510742188,-79.78275545034258,40.45906068995807,338.2490901489258,0.0057375151664018,0.0164004452526569,0.995133936405182,0.0969878435134887,0.0100078477797294,0.0094455079199864,1.82733377641356,-0.0108578875660896,-0.0235696472227573,0.0223852638155222,0.2215966458991169,0.1077124092075973,-8.903778052926064,15003.0
41.7,2.0,46.0,21.511484146118164,21.31870651245117,-79.78275543804206,40.45906073959628,338.4274043579102,0.0058787791058421,0.0153550738468766,0.9951457977294922,0.0970289334654808,0.015765075397893,0.0023863066727887,1.7459359408133224,-0.0209753010421991,-0.0448866337537765,0.011151710525155,0.2095670595020056,0.0997002710960805,-8.988004855513573,15003.0
41.8,1.8999999761581416,48.0,21.495206832885746,21.47774124145508,-79.78275543162759,40.45906079451093,338.59853930664065,0.0062284478917717,0.0137036116793751,0.9951606392860411,0.0971021801233291,0.0215341303180579,-0.0087736850057463,1.6815598281337376,-0.0352721437811851,-0.0090307369828224,0.0266696326434612,0.2560118406079709,0.0905380313470959,-9.12836551308632,15003.0
42.0,1.7999999523162842,46.0,21.477678298950195,22.026412963867188,-79.78275535199619,40.45906069737406,339.0194911499024,0.005598344374448,0.0104214698076248,0.9951916337013244,0.0972300097346305,0.0351947645198522,-0.0097631245865058,1.6510033400068052,0.0091542936861515,-0.0596403665840625,-0.0016283961012959,0.248572154045105,0.1848978393897414,-9.27506806075573,15004.0
42.11,1.7000000476837158,45.0,21.47892951965332,22.018461227416992,-79.78275529959257,40.4590604980939,339.5005168457032,0.0054529793560504,0.0092111490666866,0.9951495528221128,0.097790241241455,0.0409839000391288,0.0094159479160324,1.7002187045215709,-0.0024809695314615,0.0268638916313648,0.006983243394643,0.1902365848235786,0.1366561997774988,-9.395460476875304,15004.0
42.3,1.7000000476837158,43.0,21.58785820007324,19.839675903320312,-79.78275531972284,40.45906052670742,339.66761584472664,0.0057403645478188,0.0104551287367939,0.9951246380805968,0.0979017987847328,0.0440124815818361,0.0084283559669873,1.637206530586942,0.0086248805746436,0.0676812082529068,-0.0325545668601989,0.253570098169148,0.2157388687133789,-9.216266705989838,15004.0
42.4,1.600000023841858,43.0,21.64294815063477,18.567392349243164,-79.78275539817086,40.45906039566235,340.0218867797852,0.0061938934959471,0.0123665360733866,0.995067536830902,0.0982314869761467,0.0613564927363907,0.0258013191607086,1.6986730957442997,0.0094975708052515,0.0161555223166942,-0.0400165542960166,0.2441504530236125,0.1580903656035661,-9.040502911806106,15005.0
42.6,1.600000023841858,42.0,21.634183883666992,17.83582878112793,-79.78275545855605,40.45906024376489,340.39461322021486,0.004203628282994,0.0128599312156438,0.9954084157943726,0.0947583615779876,0.0621616283361742,0.0418604201909089,1.3258908821205129,0.1026761382818222,-0.0222590677440166,-0.3389438092708588,0.2332877881452441,-0.0828591023012995,-7.194146336317062,15005.0
42.7,1.5,43.0,21.600378036499023,21.24713897705078,-79.78275549843569,40.45906024431293,340.5134410400392,0.0001961697416845,0.0102438256144523,0.997847616672516,0.0647707805037498,0.0279448217175986,0.0293327298262358,1.0634534149706258,0.029832299798727,-0.0191904250532388,-0.84358811378479,0.1312113456521183,-0.0723351099807769,-7.2888571965694435,15005.0
42.9,1.399999976158142,43.0,21.52525520324707,21.74015045166016,-79.78275539866698,40.459060154840046,340.7156962890625,-0.0038893360178917,-0.0127237569540739,-0.9992454648017884,0.0364907868206501,0.016794796187808,-0.0018905926839479,0.7930448647662449,-0.0371500663459301,0.0453318655490875,-1.184725642204285,0.1223872485570609,0.0219545999960973,-8.52188061118126,15005.0
43.0,1.399999976158142,38.0,21.57909393310547,19.457990646362305,-79.78275529708806,40.45906005881268,340.8996486206055,-0.0022605620324611,-0.0126436902210116,-0.9854443669319152,0.1695125252008438,0.0349268312781127,-0.0198413094161201,0.7105782931789765,0.0819370001554489,-0.013476395048201,-1.4539003372192385,0.1558213535696268,0.1557126319035887,-8.973724200725556,15005.0
43.2,1.399999976158142,30.0,21.455141067504886,22.47171401977539,-79.78275533909697,40.459060093037046,340.9677409667969,-0.0004425941733643,-0.0109022296965122,-0.9702664613723756,0.2417932301759719,0.032900591626548,-0.0354241468909401,0.6561837984453726,0.0657396763563156,-0.0410036332905292,-1.5291236639022827,0.0423224209807813,0.147892565689981,-9.229462117552757,15005.0
43.3,1.2999999523162842,35.0,21.490198135375977,22.026412963867188,-79.78275540044349,40.45906013952711,341.0304317016602,0.0009304210543632,-0.0086875343695282,-0.9504905343055724,0.3106306195259094,0.0303575206536428,-0.0569411164470379,0.6192955902895038,0.079465314745903,-0.0313476212322711,-1.5227404832839966,-0.0047826478164643,0.1531307664234191,-9.410008934140206,15006.0
43.5,1.2999999523162842,40.0,21.5352725982666,20.261119842529297,-79.78275513970854,40.4590599839748,341.22739215087887,0.005448913667351,-0.005391817074269,-0.8896836042404175,0.4565133154392242,0.0383254347446004,-0.0773237247761562,0.6319038998960159,0.0598268024623394,-0.0313378013670444,-1.6231110095977783,-0.0493752685468644,0.1916721493564546,-9.480735100507736,15006.0
43.6,1.2999999523162842,24.0,21.49270248413086,22.31267738342285,-79.78275498814338,40.45905993279069,341.42666430664065,0.0079503785818815,-0.0008522509015165,-0.8066754341125488,0.5909407734870911,0.0399135718515739,-0.1038840122774409,0.6582339094557956,0.0294431429356336,-0.0301004257053136,-1.5962202548980713,0.0204141122032888,0.089949783179909,-9.554191331863404,15006.0
43.8,1.2000000476837158,18.0,21.51774406433105,21.14376640319824,-79.78275515533575,40.45905992166293,341.492055847168,0.0086834616959095,0.0022773891687393,-0.7587569952011108,0.6513119339942932,0.0512863174907696,-0.1206574118156728,0.6383781413493522,0.0733843147754669,-0.074800506234169,-1.480188012123108,0.0204101767530664,0.1239803224615752,-9.643725067377089,15006.0
43.9,1.2000000476837158,31.0,21.496458053588867,22.026412963867188,-79.78275511363604,40.4590597057977,341.50901599121096,0.0097418976947665,0.006838509812951,-0.7128886580467224,0.7011762857437134,0.076832565807248,-0.1258641189437414,0.5875741590684425,0.0683884620666503,-0.051967479288578,-1.2670508623123171,0.0422647071350365,0.2585018225759268,-9.7111118888855,15006.0
44.1,1.2000000476837158,39.0,21.501466751098643,20.475818634033203,-79.78275517087019,40.45905946782296,341.5697459716797,0.0137809962034225,0.0151469148695468,-0.6438608169555664,0.7648685574531555,0.1395759110980952,-0.1310491044569915,0.5300170762340363,0.1615110784769058,0.0259880181401968,-0.5473977923393251,-0.0306633013766258,0.0482946208678186,-9.838913311958311,15006.0
44.2,1.2000000476837158,31.0,21.36749649047852,23.99845314025879,-79.78275531437932,40.45905931048051,341.6237544555664,0.0139295663684606,0.0112116066738963,-0.6238013505935669,0.781378448009491,0.1649763176908007,-0.1444686615157111,0.5569610062065546,-0.0281207934021949,0.0188888348639011,-0.2452368438243866,0.1088520954921841,-0.2305707149393857,-10.043301565647123,15006.0
44.4,1.2999999523162842,35.0,21.44637680053711,22.877254486083984,-79.78275525967216,40.45905883554445,341.69238848876955,-0.016717541962862,0.0253706723451614,-0.6084088683128357,0.7930420041084291,0.2350315539616213,-0.0401878006211206,0.5744504642166096,0.093919463455677,-0.63102126121521,-0.0150358220562338,0.4238990150392056,0.2206128153204918,-10.11307405114174,15006.0
44.5,1.2999999523162842,49.0,21.377513885498047,24.10182762145996,-79.78275498022506,40.459058291250905,341.7780894775392,-0.0627109631896019,0.0659757256507873,-0.611743152141571,0.7858020663261414,0.3076613731185879,0.0969900643346629,0.6350538754320738,0.133669912815094,-0.4484750330448151,0.3077325820922852,0.0913260441552847,0.1813477389514446,-10.137106107473372,15006.0
44.7,1.399999976158142,55.0,21.43260383605957,24.02230834960937,-79.78275457857545,40.45905807156655,341.8414515991211,-0.0770997554063797,0.0769387558102607,-0.6165702939033508,0.7797289490699768,0.3066402249518457,0.2476267358503192,0.7196464155850433,-0.0913877934217453,-0.3328210115432739,0.0675701349973678,-0.1748324423655867,0.1247859225980937,-10.318298456668854,15006.0
44.8,1.5,50.0,21.338699340820312,25.5570011138916,-79.7827539396711,40.45905787166695,341.9082927246094,-0.086057960987091,0.0813444405794143,-0.6224423050880432,0.7736555337905884,0.3368291116613049,0.4219591090633287,0.7990713442867753,0.0069992244243621,-0.1064458712935447,0.2206407487392425,-0.177580779902637,-0.0426233515888452,-10.315944367647171,15006.0
45.0,1.600000023841858,47.0,21.44512367248535,23.219179153442383,-79.78275192500793,40.45905753481138,342.00767321777346,-0.0959881767630577,0.0814006999135017,-0.6338946223258972,0.7631106972694397,0.3444921417512817,0.8556703034611156,0.9678561437880158,-0.0692917108535766,0.0040832734666764,0.1816579401493072,-0.1167144261114299,-0.0848440310172736,-10.491978303194047,15007.0
45.1,1.7999999523162842,53.0,21.41632652282715,23.736045837402344,-79.78274891264653,40.45905741199229,342.09522052001955,-0.1020960286259651,0.0789583995938301,-0.6404452323913574,0.7570812106132507,0.3104577516232557,1.3115370745680064,1.0665915843735647,-0.0366451665759086,-0.0540059432387352,0.0862288475036621,-0.1727212320640683,0.1193562895059585,-10.26230201125145,15007.0
45.3,1.8999999761581416,56.0,21.38627815246582,23.410022735595703,-79.78274692374984,40.459057404114674,342.16534228515627,-0.1052761524915695,0.0789824053645134,-0.6412630677223206,0.7559499740600586,0.2975975220469109,1.5406559886305558,1.1300811516679534,0.0485407747328281,-0.0057754018343985,0.0689087659120559,-0.1306429688818753,-0.0187770722620189,-10.110170323848727,15007.0
45.4,2.299999952316284,61.0,21.348716735839844,24.11773109436035,-79.78274500491925,40.45905761807976,342.1564158935547,-0.1093421503901481,0.0795012935996055,-0.6409372687339783,0.7555945515632629,0.2308880985062572,1.759357127976943,1.1561808050074005,-0.1901384890079498,-0.1495680958032608,-0.039540309458971,-0.2623297388479114,0.05582094672136,-10.139338574409486,15007.0
45.6,2.5,62.0,21.405059814453125,23.25893783569336,-79.78274011692899,40.45905815361217,342.21074481201174,-0.1244518458843231,0.0842811465263366,-0.6366743445396423,0.7563426494598389,0.1909874443431404,2.2025179182717123,1.2734719686047236,-0.0785268172621727,-0.1711743026971817,-0.098550982773304,-0.2751458305679262,0.0504125052178278,-10.121435569524763,15007.0
45.7,2.900000095367432,63.0,21.40005111694336,23.24303436279297,-79.78273705874358,40.459058415717344,342.2712153930664,-0.1327534466981887,0.0890456587076187,-0.6335631608963013,0.7569974660873413,0.1581568908562462,2.4370548162744097,1.3749109444572618,-0.0380955599248409,-0.201606273651123,-0.0155670763924717,-0.5617079477012158,0.0669856476970017,-10.04190992832184,15007.0
45.91,3.2000000476837163,63.0,21.36624526977539,23.91098403930664,-79.78273369542399,40.4590587504108,342.3294658203125,-0.1406868547201156,0.093530960381031,-0.630367636680603,0.7576911449432373,0.1628542296014085,2.685127686311314,1.4786816650976768,-0.0196595545858144,-0.1649329662322998,-0.0038488204590976,-0.3214788933098316,-0.1659432127699256,-10.00228100895882,15007.0
46.0,3.700000047683716,59.0,21.3700008392334,24.57098197937012,-79.78272673377523,40.459060145771886,342.3419017333985,-0.154265359044075,0.1014888361096382,-0.6252973675727844,0.75822514295578,0.080464724517975,3.1625548401651216,1.6691377676702266,0.0669131875038147,-0.0373696163296699,0.0549024157226085,-0.597564170435071,0.1390964712761342,-9.996089977025989,15007.0
46.2,3.900000095367432,56.0,21.38627815246582,23.815563201904297,-79.78271877659613,40.45906208869649,342.3402080078125,-0.157939538359642,0.1044474989175796,-0.6222258806228638,0.7595925331115723,-0.0194927664177194,3.660534091213712,1.8542203384484528,-0.0415227152407169,-0.0307770147919654,0.1156573295593261,-0.8264209020137787,-0.2570120251178741,-9.916583046913148,15007.0
46.3,4.5,56.0,21.32743263244629,25.286640167236328,-79.78270976565253,40.459064713591495,342.32829852294924,-0.1531810462474823,0.1056682616472244,-0.6212535500526428,0.7611924409866333,-0.1630443618893026,4.187351781342972,1.945457226499068,0.0237811468541622,0.0584299378097057,-0.010940053500235,-0.6743789693713188,0.2958880423754453,-9.784024913907052,15007.0
46.51,4.800000190734863,55.0,21.24354362487793,26.10567283630371,-79.78270432830531,40.4590657368721,342.35330004882815,-0.1517262011766433,0.1053113937377929,-0.6210918426513672,0.7616649866104126,-0.1573800754809731,4.454272936807593,2.003147471567457,0.1492184251546859,0.0271508991718292,0.1799152046442032,-0.9888431042432786,-0.1314290356636047,-9.86081815123558,15007.0
46.6,5.300000190734863,54.0,21.23352813720703,26.40784072875977,-79.78269933458006,40.45906761990675,342.3306102294922,-0.1494476050138473,0.1043637692928314,-0.6204149723052979,0.7627968192100525,-0.2452869473787616,4.684813394002921,2.043164442994099,0.1118121221661567,0.0508086569607257,0.1115035191178321,-1.1473713532090188,-0.1273183699697256,-9.887793695926666,15007.0
46.8,5.599999904632568,55.0,21.49145126342773,22.511472702026367,-79.7826870755058,40.45907010911633,342.3716029663086,-0.1429498344659805,0.1021651402115821,-0.6217100620269775,0.7632851600646973,-0.2809932596580832,5.188571484249294,2.1789526110757698,0.0574146918952465,0.11707404255867,-0.1061761528253555,-1.0803553182631729,0.2740977719798684,-9.96852152466774,15007.0
46.9,6.199999809265138,55.0,21.51273536682129,21.620872497558597,-79.78267461667772,40.45907409756028,342.356313659668,-0.1466107666492462,0.0930283218622207,-0.6204456090927124,0.7647864818572998,-0.4231795882461787,5.636700693320041,2.169494514409976,-0.1980251371860504,-0.1195540353655815,-0.0995084419846534,-0.7875038080662491,-0.1923594164662064,-9.81601795434952,15007.0
47.1,6.5,55.0,21.44637680053711,21.70834350585937,-79.78266866107072,40.4590772105454,342.31995196533205,-0.1486378014087677,0.0919801220297813,-0.6192188858985901,0.7655158042907715,-0.5473026296290691,5.8246786031833695,2.219890242734268,-0.0421485267579555,-0.0232664570212364,-0.06476441770792,-1.3614909817278391,0.1851884460076689,-9.657232720255852,15007.0
47.2,7.0,55.0,21.5452880859375,20.35654067993164,-79.78266150775579,40.45907891268367,342.3273982543945,-0.1470083147287368,0.0933400467038154,-0.6203351616859436,0.7647616863250732,-0.5479395551680079,6.013503993591873,2.2750897080848387,0.1742569953203201,-0.009445296600461,0.2407929003238678,-1.5379026474058628,-0.0750692954286933,-9.49003451228142,15007.0
47.41,7.199999809265138,56.0,21.37250518798828,23.50544357299805,-79.78264767548228,40.45908454004744,342.29565234375,-0.1459662914276123,0.0956778153777122,-0.6190038323402405,0.7657505869865417,-0.7694170014390576,6.394624414398932,2.3102479948405583,-0.0863793194293975,0.0791671574115753,-0.0067668189294636,-1.1045326048135755,-0.0026915464550256,-9.587035726904867,15007.0
