time,wind_speed,wind_angle,battery_voltage,battery_current,position_x,position_y,position_z,orientation_x,orientation_y,orientation_z,orientation_w,velocity_x,velocity_y,velocity_z,angular_x,angular_y,angular_z,linear_acceleration_x,linear_acceleration_y,linear_acceleration_z,node_ids
0.0,3.0999999046325684,44.0,25.06605529785156,-0.1669872552156448,-79.78282094087794,40.45905707852026,267.9023907279968,-0.0132677722722291,0.0002899377141147,-0.997508466243744,0.0692883282899856,-0.0056293735721118,0.0007419830942337,-0.0069074012878733,0.0089380638673901,0.0044216904789209,0.0044056377373635,-0.0293903876538388,0.2460370936989784,-9.804305396676066,14932.0
0.2,3.2000000476837163,44.0,25.074819564819336,-0.1828908026218414,-79.78282092473914,40.45905707895557,267.90094686508183,-0.0132639892399311,0.0002681008190847,-0.9975048303604126,0.0693419724702835,-0.0068896810517554,0.0001777999188139,-0.0074083074346933,0.0074534309096634,0.0021011708304286,0.0093820830807089,-0.0297302090981975,0.2630895845219493,-9.801594042778015,14932.0
0.32,3.400000095367432,45.0,25.06480407714844,-0.1828908026218414,-79.78282088162695,40.459057097986175,267.91597689151763,-0.0132574951276183,0.0002553809026721,-0.99750554561615,0.0693323910236358,-0.0066473586100856,-0.0052081288950288,-0.0032035360406882,0.0010039291810244,0.0013988987775519,-0.0020888324361294,-0.035492969029583,0.2646946452185512,-9.802491005659103,14932.0
0.5,3.5999999046325684,45.0,25.062299728393555,-0.1669872552156448,-79.78282081917857,40.459057082166254,267.9299322462082,-0.0132894609123468,0.0002752336731646,-0.9975003600120544,0.0694011151790618,-0.0050364867258702,-0.0005364628673034,8.078185467846457e-05,0.011074942536652,0.0023518889211118,0.0061041875742375,-0.0268575839675031,0.2433133510127664,-9.804442806243896,14932.0
0.61,3.5,52.0,25.06730651855469,-0.1749390214681625,-79.78282081167345,40.4590570833069,267.92992020607005,-0.0132777011021971,0.0002804377290885,-0.9975014328956604,0.0693867206573486,-0.0077504083195063,-0.0008478702862232,5.990724493919537e-05,-0.0065283486619591,-0.0026284537743777,-0.0129014169797301,-0.035637797252275,0.2704954303242266,-9.801144976615909,14932.0
0.8,3.400000095367432,51.0,25.06480407714844,-0.1669872552156448,-79.78282073934477,40.45905706433079,267.945023188591,-0.0132866138592362,0.0002822644892148,-0.9975020289421082,0.0693773329257965,-0.0090332259225421,0.0022213073734229,0.0035925181811853,0.0053479876369237,0.0038653074298053,-0.001197411911562,-0.0251340098027139,0.230098552275449,-9.8057180839777,14932.0
0.91,3.0999999046325684,52.0,25.06730651855469,-0.1749390214681625,-79.78282072709628,40.45905706358682,267.9453550672531,-0.0133110452443361,0.0002832209574989,-0.9974998831748962,0.0694026127457618,-0.0112072643194196,0.0019335629752117,0.0036916973795003,-0.0083107147365808,-0.0030475708190351,-0.0110012646764516,-0.0341509325383231,0.2604596713744104,-9.803692608475686,14932.0
1.1,3.0999999046325684,52.0,25.062299728393555,-0.1908425688743592,-79.78282071261873,40.45905706104281,267.9590786790848,-0.0133007382974028,0.000278730149148,-0.9974989891052246,0.0694178119301796,-0.0036020509986517,-0.0002589394334251,0.0022561395777004,-0.004388537723571,0.000352551753167,-0.0056040296331048,-0.0256385491392575,0.2313906772993505,-9.805418706536294,14932.0
1.2,2.900000095367432,53.0,25.06605529785156,-0.1908425688743592,-79.78282070818312,40.4590570620581,267.9592824077605,-0.0133260712027549,0.0002820352383423,-0.9974961876869202,0.0694527402520179,-0.0047714933206261,-0.000617252647351,0.002118135422137,-0.0068442872725427,-0.0059138559736311,-0.0044547971338033,-0.0279439395340159,0.2492164989374578,-9.803965673446656,14932.0
1.4,2.900000095367432,53.0,25.058542251586918,-0.1828908026218414,-79.78282066101762,40.45905706122182,267.9734928703308,-0.0133009441196918,0.0002904937136918,-0.9974952936172484,0.0694714859127998,-0.0053751967894548,-0.0012170786933364,0.00200418397756,-0.0009254709002561,-0.0013738003326579,-0.0093723675236105,-0.0231283988454379,0.2377733699977398,-9.805546175837517,14932.0
1.5,2.900000095367432,53.0,25.06730651855469,-0.1669872552156448,-79.7828206344054,40.45905704060051,267.9868431186676,-0.0133054014295339,0.0003014084650203,-0.9974932074546814,0.0695005804300308,-0.0012280778896692,0.0013098245107631,0.0018373371025624,-0.0019989646971225,-0.0008489438914693,0.0003482275933492,-0.0283702792134136,0.2414031204767525,-9.80551401615143,14932.0
1.7,2.799999952316284,55.0,25.0610466003418,-0.1828908026218414,-79.78282063025652,40.45905703929322,267.987136850357,-0.0133006228134036,0.0002988480846397,-0.997492015361786,0.0695180743932724,-0.0034549951298524,0.000743382093572,0.0014234449822586,-0.0119371004402637,-0.004748816601932,-0.0126751298084855,-0.0337491009151563,0.2686821173876524,-9.802854702472688,14932.0
1.8,2.5999999046325684,54.0,25.06480407714844,-0.1828908026218414,-79.78282059560796,40.459057050382576,268.0006861782074,-0.0133022228255867,0.000318020756822,-0.9974918961524964,0.0695189833641052,-0.0028957513178637,-0.0041036264160867,0.0011199376897746,0.0011379623319953,-0.0006833038059994,0.0062732556834816,-0.0254503418854437,0.2327000698819757,-9.805730363130571,14933.0
2.0,2.5,52.0,25.0610466003418,-0.1828908026218414,-79.78282060211097,40.45905704425537,268.01458121299737,-0.0132787460461258,0.0003225139807909,-0.9974905848503112,0.0695425942540168,0.0044215518285856,-0.0037239310193376,0.0009936335372376,-0.0089148357510566,-0.0035003707744181,-0.0071622217074036,-0.0281884696357883,0.2494000832363963,-9.802496268153194,14933.0
2.1,2.5,55.0,25.05353546142578,-0.1510837078094482,-79.78282060891334,40.45905704737345,268.0146677589416,-0.0132755544036626,0.0003289442975074,-0.9974910616874696,0.0695355758070945,0.0051789740725361,-0.004446512760497,0.0005273069312192,0.0059592174366116,0.0021654504816979,0.0094987256452441,-0.023635918891523,0.2297777776792645,-9.8063221013546,14933.0
2.3,2.400000095367432,55.0,25.042266845703125,-0.1033730581402778,-79.78282057257262,40.45905702429885,268.02835417747497,-0.0132782207801938,0.0003526980290189,-0.9974891543388368,0.0695630684494972,0.0007730437905751,0.0010881805910353,0.0010231214689744,-0.0082746660336852,-0.0028085601516067,-0.0067358128726482,-0.032581635788083,0.2595921455696225,-9.802661744356156,14933.0
2.4,2.299999952316284,56.0,25.04977798461914,-0.1749390214681625,-79.78282057387267,40.4590570234564,268.02844084262847,-0.0132856825366616,0.0003555525618139,-0.9974883198738098,0.0695745274424552,0.0018114717291524,0.0005460026051382,0.0005680583133421,0.0049193776212632,0.0019419613527134,0.0117027228698134,-0.0231875082571059,0.2350698915682733,-9.805459052324297,14933.0
2.6,2.299999952316284,56.0,25.036006927490234,-0.1510837078094482,-79.78282053998727,40.45905701847115,268.0415456390381,-0.0132937934249639,0.0003778806712944,-0.997486174106598,0.0696035102009773,-0.0008881050732576,2.1937625826177668e-05,0.0007751272145262,0.002003121888265,0.0018496761331334,0.0049919951707124,-0.0333467690809629,0.2671424906887114,-9.801554866433143,14933.0
2.71,2.0999999046325684,56.0,25.04977798461914,-0.1033730581402778,-79.78282053824731,40.459057018740346,268.0416107273101,-0.0132899740710854,0.0003820026759058,-0.9974860548973083,0.069605141878128,-0.0017061912193315,-0.0002267638958309,0.0005707931136383,0.0018452674848958,0.0019381731981411,-0.0036465812008827,-0.0307971181045286,0.2581275642290711,-9.801613338589668,14933.0
2.9,2.0999999046325684,56.0,25.042266845703125,-0.0795177370309829,-79.78282050280748,40.459057014747046,268.05467928409576,-0.0133019620552659,0.000388477143133,-0.9974830150604248,0.0696461349725723,-0.0025428584392601,-0.0007149490227472,0.0004073789360549,0.0073813670314848,0.0036541726440191,0.0059774103574454,-0.0289633673219941,0.2478013996593654,-9.804267974495886,14933.0
3.0,2.0,56.0,25.04101371765137,-0.0874695107340812,-79.78282049516464,40.4590569942857,268.06778181552886,-0.0132978707551956,0.0003832958173006,-0.9974812865257264,0.0696728527545929,0.0006625338635275,0.0033678474649137,0.0008864606579118,-0.0082456171512603,-0.0043958323076367,-0.0078795878216624,-0.0299585816985927,0.2585526568070054,-9.801353137493132,14933.0
3.2,2.0,56.0,25.027240753173828,-0.1113248318433761,-79.78282049628757,40.45905698896927,268.06790591239934,-0.013274485245347,0.0003818074183072,-0.9974801540374756,0.0696917921304702,-0.0007636144977889,0.0028295016977417,0.0005623193197067,-0.0070218308828771,-0.0005002131802029,-0.0107346000149846,-0.0255950810294598,0.2384391303174197,-9.805252645611764,14933.0
3.3,1.8999999761581416,55.0,25.03475379943848,-0.1033730581402778,-79.78282044325995,40.459056988717,268.081343421936,-0.0132885789498686,0.0003934603009838,-0.9974787831306458,0.0697096958756446,-0.0042494539354142,0.0017043930318437,0.0009040105713894,0.0070956200361251,0.0033006656449288,0.0087740393355488,-0.0259189299819991,0.236522084120661,-9.805509338378906,14933.0
3.51,1.8999999761581416,56.0,25.027240753173828,-0.1272283792495727,-79.78282041038365,40.45905698488366,268.09411312103265,-0.013287822715938,0.0004042230721097,-0.9974748492240906,0.0697655752301216,-0.0045433295468392,0.0010127094364417,0.0009579426856255,0.004540778696537,-0.0002466149162501,0.0104349153116345,-0.0316392975999042,0.2659624312072992,-9.801848396658896,14933.0
3.6,1.7999999523162842,58.0,25.03099822998047,-0.1510837078094482,-79.7828204040493,40.4590569845769,268.0941946601868,-0.0132726365700364,0.0004078601195942,-0.9974737763404846,0.0697837769985199,-0.0066943921388613,0.0012303601564884,0.0009408335278699,-0.0077339801937341,-0.0026895189657807,-0.0155242979526519,-0.031463935947977,0.2659128029644489,-9.800440387129784,14933.0
3.8,1.7000000476837158,57.0,25.03350257873535,-0.1192766055464744,-79.78282039849073,40.45905696619499,268.1091077423096,-0.0132309263572096,0.0004221277777105,-0.9974721670150756,0.0698154494166374,-0.0025262835439369,0.0035385577150269,0.0041205756033122,-0.0058337375521659,-0.0008543810108676,-0.0106610534712672,-0.0241009050118736,0.2344715752266347,-9.805426892638206,14933.0
3.9,1.7000000476837158,60.0,25.027240753173828,-0.0954212844371795,-79.78282039517245,40.45905696342956,268.10949827194213,-0.0132244825363159,0.000434133427916,-0.9974707365036012,0.0698362812399864,-0.0019612335742077,0.0031668584926464,0.0038170027768938,0.0082643069326877,0.0026163298171013,0.0106346402317285,-0.0249317509587854,0.2345003179460764,-9.8057315325737,14933.0
4.11,1.7000000476837158,61.0,25.04602241516113,-0.1351801604032516,-79.78282037141193,40.45905697719258,268.120897064209,-0.0132108982652425,0.0004223833966534,-0.9974682927131652,0.069873608648777,-0.0031982131759204,-0.0015142598056352,-0.000192277009455,0.0062790815718472,0.002783924806863,0.0075043784454464,-0.0321439557080157,0.2646712929010391,-9.80172618985176,14933.0
4.21,1.7000000476837158,64.0,25.04101371765137,-0.1351801604032516,-79.78282036689761,40.45905697900256,268.1208659505844,-0.0132125178351998,0.0004298250132706,-0.9974673390388488,0.0698871091008186,-0.0050308679785868,-0.0014205387756181,-0.0002110733636498,-0.0037788318004459,-0.0017608812777325,-0.0071636564098298,-0.0326383149507455,0.2648299717158079,-9.801260751485826,14933.0
4.41,1.600000023841858,64.0,25.036006927490234,-0.1351801604032516,-79.78282038087201,40.45905696951759,268.1346964931488,-0.0132200121879577,0.0004524913674686,-0.9974642992019652,0.0699286684393882,-0.0003540813129687,-0.0015143521692082,0.0004904018057958,-0.0082927551120519,-0.0061153089627623,-0.009932585991919,-0.0245583308651112,0.2347249241173268,-9.805439171791075,14933.0
4.51,1.5,62.0,25.038509368896484,-0.1113248318433761,-79.78282036581541,40.45905696244297,268.14774478435515,-0.0132388202473521,0.000459144677734,-0.997463047504425,0.0699436515569686,0.0001969362572006,-0.0014908184525045,0.0009108828794954,0.0085449693724513,0.0016209254972636,0.0069054155610501,-0.0258444921858608,0.2367970311641693,-9.805570149421692,14933.0
4.7,1.399999976158142,61.0,25.03350257873535,-0.1351801604032516,-79.78282036388995,40.45905696525162,268.1479041075706,-0.0132353520020842,0.0004523076931945,-0.997461199760437,0.0699696913361549,-0.0011288971191313,-0.0017127055830929,0.0004271029607823,0.0081616332754492,0.0061923977918922,0.0109255108982324,-0.0323613556427881,0.2647549629025161,-9.801478852629662,14933.0
4.81,1.399999976158142,62.0,25.02974510192871,-0.0954212844371795,-79.78282037588265,40.45905690819527,268.1630464887619,-0.0132247861474752,0.0004779252049047,-0.9974604249000548,0.0699832960963249,0.0019247390003406,0.0096243499498046,0.0046184990519712,-0.006860819645226,-0.0013314590323716,-0.0111982496455311,-0.0316530454088933,0.2619092692248524,-9.801534985899924,14933.0
5.0,1.2999999523162842,63.0,25.032249450683597,-0.055662415921688,-79.78282035713255,40.459056898184535,268.17670513153075,-0.013216532766819,0.0004719761782325,-0.9974570274353028,0.0700336322188377,-0.0003330340553536,0.0057065380839417,0.0033525010150944,-0.0057636341080069,-0.0012159754987806,-0.0076060937717556,-0.0252715198695659,0.2403632662631571,-9.804730489253998,14933.0
5.1,1.2999999523162842,61.0,25.03976249694824,-0.0954212844371795,-79.78282035638203,40.45905689326317,268.17701930761336,-0.0132029419764876,0.0004628797178156,-0.9974570274353028,0.0700360685586929,0.0005578787596963,0.0052116123721078,0.0029793730892653,0.0085435649380087,0.0045778672210872,0.0057535795494914,-0.027529520408716,0.2452954657562077,-9.804471457600592,14933.0
5.3,1.2000000476837158,60.0,25.03725814819336,-0.1669872552156448,-79.78282034065224,40.45905688536247,268.1906384921074,-0.0131813613697886,0.000435475812992,-0.9974567890167236,0.0700431242585182,-0.0004979345143117,0.002948068239714,0.002299883752502,0.0049704033881425,0.00018593922141,-0.0012405574088916,-0.0295804130262695,0.2494524889066816,-9.803949885964396,14933.0
5.4,1.2000000476837158,60.0,25.042266845703125,-0.1749390214681625,-79.78282033859466,40.45905688279806,268.19086153268813,-0.0131884403526783,0.0004374661366455,-0.9974539875984192,0.0700820237398147,-0.0018174791135409,0.0030983864235001,0.0021727017516362,-0.0023838356137275,-0.000626947148703,0.0003853930393233,-0.0273142629303038,0.2416899446770549,-9.804784868359569,14933.0
5.61,1.100000023841858,61.0,25.05729103088379,-0.1908425688743592,-79.78282034246666,40.459056874673536,268.2037678456306,-0.0131835406646132,0.0004343827022239,-0.9974521398544312,0.0701085701584816,0.0008011247196097,0.0015700706359037,0.0017274476641136,0.0034139486961066,-0.0005607948405668,0.0077448156662285,-0.0312794037605635,0.2600333728082478,-9.802353596091269,14933.0
5.7,1.100000023841858,62.0,25.058542251586918,-0.1749390214681625,-79.78282034267468,40.45905687321701,268.20393467903136,-0.0131602426990866,0.0004319891158957,-0.9974508881568908,0.0701314285397529,-0.0002255699771006,0.0015992005853125,0.00169377712998,-0.0027134008705616,0.0010132330935448,-0.0047116060741245,-0.0322848439123481,0.2639320403896272,-9.80281377196312,14933.0
5.9,1.0,61.0,25.062299728393555,-0.1749390214681625,-79.78282032268496,40.45905688172345,268.2166094279289,-0.0131659712642431,0.0004127336433157,-0.997449278831482,0.0701537504792213,-0.0026219741552133,-0.0022416689402257,0.0016569531060338,-0.0041885557584464,-0.0015920820878818,-0.0094504011794924,-0.0252050785976462,0.2342668313160539,-9.806050790548325,14933.0
6.0,1.100000023841858,64.0,25.0610466003418,-0.1669872552156448,-79.78282030679071,40.459056867376965,268.2291155552864,-0.0131669789552688,0.0004141212266404,-0.997447669506073,0.0701758041977882,-0.0012168557209986,-0.0015607321456264,0.0014708083437119,0.0051979981362819,0.0047957655042409,0.0101671181619167,-0.0251723570306785,0.2365629232674837,-9.805263755321503,14933.0
6.2,1.100000023841858,66.0,25.06480407714844,-0.1828908026218414,-79.78282030174795,40.459056870786256,268.22938544511794,-0.0131532065570354,0.0004269717319402,-0.9974470138549804,0.0701875165104866,-0.0022310804447179,-0.0019837872819558,0.0011220519011754,0.0082082115113735,0.0056530279107391,0.0094400560483336,-0.0314300220971927,0.2619655121304095,-9.801764196753505,14933.0
6.3,1.100000023841858,62.0,25.06605529785156,-0.1828908026218414,-79.78282028880376,40.45905682700258,268.2437811589241,-0.0131397694349288,0.0004453520232345,-0.9974476099014282,0.0701817646622657,-0.002827076189915,0.0058496383800793,0.0052551308561775,-0.0073238899931311,-0.0015813446370884,-0.0075678760185837,-0.0310100937983952,0.2589705500006676,-9.803223661780358,14933.0
6.5,1.100000023841858,61.0,25.0610466003418,-0.1828908026218414,-79.78282028928584,40.459056814032365,268.25559092521667,-0.0131248533725738,0.0004355063138063,-0.9974462985992432,0.0702039375901222,0.0001634609071497,0.0034203118812512,0.0039382075092274,-0.0077908490784466,-0.000969843531493,-0.0066372593864798,-0.0255567086767405,0.2424433584138751,-9.80557307302952,14933.0
6.61,1.100000023841858,60.0,25.047273635864247,-0.2067461162805557,-79.78282028953741,40.459056811094094,268.2559633350372,-0.0131241157650947,0.00044085358968,-0.9974472522735596,0.0701898336410522,0.0012148861065307,0.0029470324599974,0.0034810620875178,0.0054591065272688,0.0007264689193107,0.0077913436107337,-0.0264497292554006,0.2440551616810262,-9.803482108712195,14933.0
6.8,1.100000023841858,58.0,25.04977798461914,-0.1828908026218414,-79.78282027881805,40.45905681477955,268.2676325535774,-0.0131315756589174,0.0004201844567433,-0.997446358203888,0.070201389491558,-0.000117676720846,-0.0017172207206617,0.0027454554841752,0.0042322534136474,0.004671549424529,-0.0008840868249535,-0.0298016570485197,0.2513758025877178,-9.80312133550644,14933.0
6.9,1.100000023841858,55.0,25.0610466003418,-0.1828908026218414,-79.78282027778222,40.45905681624063,268.267906794548,-0.0131385754793882,0.0004155243223067,-0.9974441528320312,0.0702311620116233,-0.0017740601213275,-0.0013862515996868,0.0027858074847937,-0.0063979779370129,-0.0025867847725749,-0.0055756075307726,-0.0286851883213967,0.2471239631809294,-9.804831646084788,14933.0
7.1,1.100000023841858,53.0,25.06605529785156,-0.1828908026218414,-79.78282026193155,40.45905680699372,268.2794789171219,-0.0131341880187392,0.0004316982231102,-0.9974414706230164,0.0702698901295661,-0.0022667938051499,-0.0010967183958254,0.0024254382094939,0.0003728348237928,0.0001822579506551,-0.0024278736673295,-0.0297140584490262,0.2544978868402541,-9.802664667963985,14933.0
7.2,1.100000023841858,49.0,25.06730651855469,-0.1669872552156448,-79.78282025947061,40.45905680836946,268.2797048187256,-0.0131299244239926,0.0004319325089454,-0.9974393844604492,0.0703006610274314,-0.00238022151768,-0.0013564384600599,0.0021955032928278,-0.0010150870075449,0.0009858524426817,-1.4939054381102324e-05,-0.0313646680419333,0.2588029541820288,-9.801751917600631,14933.0
7.4,1.0,48.0,25.05353546142578,-0.1828908026218414,-79.7828202731105,40.45905679834906,268.2914182639122,-0.0131094623357057,0.0004247350152581,-0.997438669204712,0.0703144893050193,0.0010392352331303,-0.0013176017013584,0.0019800542101736,0.0007282391306944,-0.0002713170251809,-0.0061900964938104,-0.0265526539552956,0.2370353052020073,-9.804970809817316,14933.0
7.5,1.0,46.0,25.05353546142578,-0.1510837078094482,-79.7828202770008,40.45905677037752,268.30223942756646,-0.0131181431934237,0.0004362155450507,-0.9974366426467896,0.070341370999813,0.0044502294600416,0.0019407867354616,0.0015921600551352,0.0030522153247147,0.0015295360935851,0.0068807420320808,-0.0257590680196881,0.2362149591185153,-9.805814563035968,14933.0
7.71,1.0,43.0,25.06480407714844,-0.1908425688743592,-79.78282028548128,40.45905676609035,268.3025557494164,-0.013123856857419,0.0004379869205877,-0.9974352121353148,0.0703603848814964,0.0039480772600244,0.0016109419400816,0.001196234645756,0.0028651063330471,0.0014198449207469,0.0096221603453159,-0.0335279322671704,0.2650963123887777,-9.801703970432282,14933.0
7.81,0.8999999761581421,46.0,25.062299728393555,-0.1908425688743592,-79.78282026814927,40.4590567385721,268.31317944288253,-0.013112960383296,0.0004449703847058,-0.9974368214607242,0.0703401640057563,0.0012678601855376,0.0053227234708787,0.0011597528366873,-0.0058301370590925,-0.0006660082144662,-0.0093446327373385,-0.0314905293588526,0.2650108151324093,-9.801156671047211,14933.0
8.0,0.8000000119209291,47.0,25.052282333374023,-0.1749390214681625,-79.78282027167835,40.45905672650876,268.3239001727104,-0.0131140360608696,0.0004448749241419,-0.9974360466003418,0.0703517347574234,0.0038246352278223,0.002506206765575,0.0010907116816559,-0.0085519095882773,-0.0016758869169279,-0.0101597607135772,-0.0239262057398445,0.2361887380108237,-9.805257323384287,14933.0
8.11,0.8000000119209291,49.0,25.06355094909668,-0.1828908026218414,-79.7828202764147,40.4590567238845,268.3240057325363,-0.0131047889590263,0.0004517455527093,-0.9974352121353148,0.0703643038868904,0.0051764140519259,0.002061396251614,0.0008297270840476,0.0066135190427303,0.0034041299950331,0.0100663993507623,-0.0246914943493902,0.2391635637916624,-9.806599259376526,14933.0
8.31,0.699999988079071,50.0,25.06480407714844,-0.1908425688743592,-79.78282028050741,40.45905671172696,268.3331122493744,-0.0130986561998724,0.0004671953211072,-0.9974356889724731,0.0703591108322143,0.0063172936340883,0.0008499565904953,-0.0021735577731892,0.0068872277624905,0.0036636523436754,0.0024407487362623,-0.0304718964267522,0.2621207191608846,-9.803399078249932,14933.0
8.4,0.699999988079071,52.0,25.059795379638672,-0.1908425688743592,-79.78282028648476,40.459056710175965,268.3329153752327,-0.0130942286923527,0.0004690019413828,-0.9974346160888672,0.0703740492463111,0.0041539613844311,0.0012201536947313,-0.0020491388103103,-0.0086114611476659,-0.0032165739685297,-0.0104378378018736,-0.0307283493666909,0.257347801476717,-9.802712615132332,14933.0
8.6,0.6000000238418579,54.0,25.06355094909668,-0.1828908026218414,-79.78282026951817,40.45905668434935,268.342966208458,-0.0130764385685324,0.0004727107880171,-0.9974343180656432,0.0703822150826454,0.0020913954295052,0.0042886760574773,-0.0012115511667678,-0.0064009651541709,-0.0043661245144903,-0.0083940895274281,-0.0265117622748948,0.2429216789267957,-9.804636349081994,14933.0
8.71,0.6000000238418579,57.0,25.0610466003418,-0.1828908026218414,-79.78282027207187,40.45905668038585,268.3428335881233,-0.0130722289904952,0.0004655678931158,-0.9974347949028016,0.0703760832548141,0.0033233050503033,0.0039082558696071,-0.0015618900773045,0.0034665539860725,0.0031697212252765,0.0065632439218461,-0.0266395353572443,0.2462240949645638,-9.804129395484924,14933.0
8.91,0.6000000238418579,58.0,25.0610466003418,-0.1908425688743592,-79.78282024573654,40.45905667004043,268.35105271101,-0.0130691835656762,0.0004437211609911,-0.9974344372749328,0.0703823342919349,0.0010226032254216,0.0027739770981384,-0.0038582638790936,0.0067010675556957,0.0006798706017434,0.0047145085409283,-0.0281420345208607,0.2516085400432348,-9.803694947361947,14933.0
9.0,0.6000000238418579,57.0,25.0510311126709,-0.1749390214681625,-79.78282022435263,40.45905669953722,268.3613660430908,-0.013075559400022,0.0004406399093568,-0.9974334836006165,0.0703945755958557,-0.0019456672594533,-0.005944291542622,-0.0015879916751597,-0.0036959771532565,-0.0017058062367141,-0.002160205040127,-0.0281200572126545,0.2453095538914204,-9.804600096344949,14933.0
9.2,0.5,56.0,25.06355094909668,-0.1113248318433761,-79.78282022234987,40.45905671091349,268.3610057926178,-0.0130847068503499,0.0004402557387948,-0.9974327683448792,0.0704031735658645,-0.0025248979010921,-0.0060331995013429,-0.0018309300252444,-0.0034815748222172,-0.0021556606516242,0.003581645200029,-0.0298304979829117,0.2534590741619468,-9.802513809800148,14933.0
9.3,0.5,57.0,25.058542251586918,-0.1908425688743592,-79.78282019782053,40.45905670084424,268.3714786863327,-0.0130535513162612,0.0004465825622901,-0.9974356293678284,0.0703684091567993,-0.0016839773210596,-0.0039451194902803,-0.000531198203654,0.0030305844265967,0.0008914247155189,-0.0014994894154369,-0.030536110731773,0.2580887898802757,-9.80211386024952,14933.0
9.5,0.5,57.0,25.062299728393555,-0.1828908026218414,-79.78282019043208,40.45905667172133,268.38274247407907,-0.013034701347351,0.0004613598575815,-0.9974344968795776,0.0703875124454498,0.0018298877132767,0.0026746270280203,0.0029406288810865,-0.0005680604372173,0.0002908390888478,-0.0025408738292753,-0.0261718608881346,0.2392857888713479,-9.806526753902435,14933.0
9.6,0.5,55.0,25.04977798461914,-0.198794350028038,-79.78282019182909,40.45905666909519,268.3830364441872,-0.0130455279722809,0.0004742151650134,-0.997433304786682,0.0704012364149093,0.0016796470899297,0.0026677747408126,0.0028599615628148,0.0007294919341802,-0.0020347717218101,0.005481326021254,-0.0253536823857575,0.2369562398828566,-9.806098737716676,14933.0
9.8,0.5,56.0,25.054786682128903,-0.1828908026218414,-79.78282016732227,40.459056681578005,268.39298469781875,-0.0130455661565065,0.000475202279631,-0.9974323511123656,0.0704148262739181,-0.0001873631058593,-0.0022245987709702,0.0020337155459387,0.0007171268225647,-0.0011150503996759,0.0113219646736979,-0.0326050018100068,0.2620561439730227,-9.801432659626007,14933.0
9.9,0.5,57.0,25.0510311126709,-0.198794350028038,-79.78282016697511,40.45905668362364,268.3931876516341,-0.0130296237766742,0.0004545531992334,-0.9974310994148254,0.0704366490244865,-0.0010971094538046,-0.0021671422225915,0.0020820259216937,-0.0030636694282293,0.0004495900939218,-0.0106259100139141,-0.0336012348812073,0.2644029422476888,-9.802435457110406,14933.0
10.11,0.5,55.0,25.0510311126709,-0.2146978974342346,-79.78282016512553,40.45905668001521,268.4029282426834,-0.0130296926945447,0.0004319724976085,-0.9974290728569032,0.0704647675156593,0.0024178464028281,-0.0019117726854969,0.0014656370681726,-0.0021266499534249,-0.0004361939791124,-0.0053686657920479,-0.0246013604337349,0.2354990223795176,-9.80579409778118,14933.0
10.2,0.5,54.0,25.05729103088379,-0.1749390214681625,-79.78282016859137,40.45905668150287,268.40307606220244,-0.0130449198186397,0.0004316698177717,-0.9974260926246644,0.0705045610666275,0.003077983712543,-0.0022143515605445,0.0013225366050414,0.0046156696043908,0.0020415079779922,0.0094245476648211,-0.024222828594502,0.2341135977208614,-9.807074638009071,14933.0
10.4,0.5,56.0,25.054786682128903,-0.1828908026218414,-79.78282016619508,40.45905665905735,268.4153169488907,-0.0130072673782706,0.0004402400518301,-0.9974270462989808,0.0704986453056335,0.0056197938678042,0.001530086447586,0.0049005507118977,0.0059009124524891,0.0020904203411191,0.0097425775602459,-0.0326346124755218,0.2644499392434955,-9.80194779932499,14933.0
10.5,0.5,57.0,25.058542251586918,-0.1749390214681625,-79.78282014013944,40.45905665677447,268.4264868593216,-0.0129974586889147,0.000436169677414,-0.9974265694618224,0.0705063343048095,0.0030176254097837,0.0014167278682016,0.0091035633551068,-0.0020229737274348,-0.0044700358994305,-0.0114329159259796,-0.0321765973325818,0.2656353525817394,-9.801781153678894,14933.0
10.7,0.5,57.0,25.038509368896484,-0.2862638533115387,-79.78282014686452,40.459056653745215,268.4282870388031,-0.0129608828574419,0.0004221011186018,-0.9974260926246644,0.0705203860998153,0.0024541872143259,0.0012346293276481,0.008969510626956,-0.0021405287552624,-0.0004219301627017,-0.0133403083309531,-0.023617705728393,0.2349382378533483,-9.806483484506607,14933.0
10.8,0.4000000059604645,61.0,25.04602241516113,-0.3021674156188965,-79.7828201243492,40.45905665702541,268.43951381206506,-0.0129695916548371,0.0004127248539589,-0.997425377368927,0.0705285891890525,0.002738556815852,0.0003510652698912,0.0128033707814277,0.0028663887642323,0.0043462393805384,0.0120266051962971,-0.0244210743298754,0.2351031110621989,-9.805884729623797,14933.0
11.0,0.4000000059604645,60.0,25.04977798461914,-0.2146978974342346,-79.78282008051602,40.45905664490732,268.4498968815804,-0.0129680326208472,0.0003778411482926,-0.9974231123924256,0.070561446249485,-0.0014191576118038,0.0037396637306931,0.0124970284560772,0.0066324579529464,0.0018080832669511,0.008336897008121,-0.0327006882964633,0.2657976493611932,-9.801909207701684,14933.0
11.1,0.4000000059604645,60.0,25.038509368896484,-0.2146978974342346,-79.78282007729894,40.45905664183378,268.4511495327949,-0.0129594728350639,0.0003653311869129,-0.9974235296249392,0.0705570131540298,-0.0028383445049347,0.0038115842324312,0.0126979299471546,-0.0058858976699411,-0.0057517858222126,-0.0143955470994114,-0.0329868318443186,0.2665639269724488,-9.802232558727264,14933.0
11.3,0.4000000059604645,60.0,25.0610466003418,-0.1908425688743592,-79.78282005132058,40.45905665033244,268.4614713287353,-0.0129527077078819,0.0003624468517955,-0.9974216818809508,0.0705838352441787,-0.002629048707975,0.001868277145248,0.0124125163890216,5.657022484228946e-05,-0.001069830963388,-0.0109964776784181,-0.0246463565854355,0.2339671066962182,-9.806981667280198,14933.0
11.4,0.5,61.0,25.052282333374023,-0.1908425688743592,-79.78282004806839,40.45905664916953,268.4626920318604,-0.0129609676077961,0.000365310406778,-0.9974189400672911,0.0706211179494857,-0.0019250920271096,0.0014059242095732,0.0121179810762158,0.0050905952230095,0.0021904925815761,0.0081078661605715,-0.02450743496418,0.2332481549866497,-9.805675399303436,14933.0
11.5,0.5,60.0,25.052282333374023,-0.1908425688743592,-79.78282002757409,40.45905665666336,268.47088069677346,-0.0129481824114918,0.0003596171736717,-0.9974186420440674,0.0706283822655677,-0.0022990720300377,0.0008900432451582,0.0121020924996438,0.0001567984290886,-0.0007421593763865,-0.0058219567872583,-0.0317389720701612,0.2639242928288877,-9.802503869533538,14933.0
11.7,0.5,61.0,25.04977798461914,-0.2385532110929489,-79.78282002140136,40.45905665602139,268.4732729291916,-0.0129465935751795,0.0003665817494038,-0.9974164366722108,0.0706593766808509,-0.0023629426485525,0.0004398260281045,0.0120406249879093,0.0012730817543342,0.0001768612273735,-0.0043933382257819,-0.0319471466518007,0.261853483133018,-9.803559876680373,14933.0
11.9,0.5,61.0,25.04602241516113,-0.1908425688743592,-79.78281999821566,40.4590566064924,268.4822791314125,-0.012938380241394,0.0003758476232178,-0.997414767742157,0.070685289800167,-0.0002331773854926,0.0102381945753268,0.0119025398456771,-0.0005520551349036,0.0022691816557198,-0.0016699935076758,-0.0261830391199328,0.2389070902951061,-9.807045401930807,14933.0
12.0,0.5,62.0,25.05353546142578,-0.1828908026218414,-79.78281998276131,40.459056651216784,268.48936820983886,-0.0129583878442645,0.0003707323339767,-0.9974130392074584,0.0707053020596504,-0.0012863675911639,0.0007533703373635,0.0115516896858371,-0.0022808508947491,0.0002023663691943,0.0057471352629363,-0.0261382736591622,0.2419351257383824,-9.806185861229896,14933.0
12.21,0.6000000238418579,62.0,25.04101371765137,-0.1590354740619659,-79.78281997947819,40.4590566507165,268.4916543459892,-0.0129496064037084,0.000367063214071,-0.997412085533142,0.0707210749387741,-0.0016428952348011,0.0003301205939703,0.0114877304280662,-0.0042584091424942,0.0011844271793961,0.0018733182223513,-0.0298008941696025,0.2559233649261296,-9.803690269589424,14933.0
12.3,0.6000000238418579,64.0,25.05603790283203,-0.1749390214681625,-79.78282001391594,40.45905664253239,268.49823606967925,-0.0129102850332856,0.0003693865728564,-0.9974143505096436,0.0706965550780296,0.0086653697784256,0.0024369133581763,0.0108591952945191,0.0023590689525008,0.0033666158560663,0.0014552568318322,-0.0296423227060586,0.2548887001164258,-9.803164604902268,14933.0
12.5,0.6000000238418579,64.0,25.05603790283203,-0.1669872552156448,-79.78281997560477,40.45905664383191,268.5040202832222,-0.0129135595634579,0.0003627334081102,-0.9974125027656556,0.0707219243049621,0.0022739485284532,0.004982613758078,0.0074268101221321,0.0055410778149962,0.0029644693713635,0.0019609057344496,-0.0283580594463273,0.2453260905481875,-9.806032079458236,14933.0
12.6,0.699999988079071,65.0,25.052282333374023,-0.1908425688743592,-79.78281997653377,40.45905663910244,268.5047744011879,-0.0129004344344139,0.0003669903962872,-0.9974115490913392,0.0707370564341545,0.0011832032816118,0.0050954723044094,0.0075307537086789,-0.0032251554075628,-0.0023818025365471,-0.0027854351792484,-0.027766485675238,0.2471760034002364,-9.805273695588111,14933.0
12.81,0.699999988079071,68.0,24.893272399902344,0.1351801604032516,-79.78281997975226,40.45905664548408,268.50968242645257,-0.0128731373697519,0.0003517783770803,-0.9974140524864196,0.0707072764635086,0.0035815171063351,0.0055887353798215,0.0053197772613685,-0.0079307090491056,-0.0037427700590342,-0.0090737603604793,-0.0283630889654159,0.2514006715267897,-9.804306566119196,14933.0
12.9,0.699999988079071,70.0,24.9583797454834,0.1113248318433761,-79.78281998382666,40.45905664027877,268.5102081990242,-0.0128580294549465,0.0003536020522005,-0.9974085688591005,0.0707865208387374,0.0050003894835069,0.004252564601298,0.0050413338719925,0.0061741806566715,0.0053718513809144,0.0051084826700389,-0.0321119718952104,0.2556846340745688,-9.804812350273131,14933.0
13.1,0.699999988079071,72.0,24.96463966369629,0.1351801604032516,-79.78281999337388,40.45905668282976,268.5164130425453,-0.0128559302538633,0.0003393117513041,-0.9974079728126526,0.0707953944802284,0.0064867634131098,-0.0027582018445507,0.0070542304138771,0.0033325657714158,-0.0012055457336828,0.0068991249427199,-0.0323255597194656,0.2386819176748395,-9.800777186751366,14933.0
13.2,0.699999988079071,72.0,24.972150802612305,0.1192766055464744,-79.78282000065974,40.45905668445617,268.51714367628097,-0.0128480345010757,0.000336899771355,-0.9974079728126526,0.0707966461777687,0.00510739070298,-0.0025296262830943,0.0071422485921542,-0.0075932806357741,-0.0021762303076684,-0.0090265367180109,-0.0308788763405755,0.2475402301177382,-9.801877048015593,14933.0
13.41,0.8000000119209291,74.0,24.96463966369629,0.1431319266557693,-79.78281998829317,40.45905669463625,268.5224035477638,-0.0128261484205722,0.0003407219483051,-0.9974085688591005,0.0707921758294105,0.0040275684495725,0.0004446678315295,0.008198645961484,-0.0081845736131072,-0.004388740286231,-0.0142823224887251,-0.0261064931284636,0.2472959992289543,-9.80499829173088,14933.0
13.5,0.8000000119209291,74.0,24.96714401245117,0.1828908026218414,-79.78281994984145,40.459056719979245,268.5239685869217,-0.0128223914653062,0.0003354629734531,-0.9974071979522704,0.0708125829696655,8.03158120117967e-05,-0.000521949370584,0.0050829123234465,0.0071354247629642,0.0035833525471389,0.0088330283761024,-0.0315417107683606,0.2416986789554357,-9.80271787762642,14933.0
13.71,0.8000000119209291,75.0,24.95462226867676,0.2385532110929489,-79.78281994832497,40.45905672060135,268.5250167346001,-0.0128404349088668,0.0003491762909106,-0.9974060654640198,0.0708255171775817,0.0011000553649222,-0.0007770654685224,0.0051283968601826,0.0100704170763492,0.0041614533402025,0.0132789174094796,-0.036196416481398,0.2604997796192765,-9.800945001840592,14933.0
13.81,0.8000000119209291,74.0,24.9433536529541,0.278312087059021,-79.78281995633745,40.45905674901601,268.52822620630263,-0.0128234215080738,0.000350372021785,-0.9974072575569152,0.0708113387227058,0.0022525928905078,-0.0011896632583372,0.0069701422890106,-0.0042937290854752,-0.0019434541463851,-0.0100841196253895,-0.0368184597278013,0.2657528267987073,-9.7997755587101,14933.0
14.0,0.8999999761581421,75.0,24.34988212585449,1.3279461860656738,-79.78281992880748,40.45905676496313,268.5308179950714,-0.0125957084819674,0.0005094839143566,-0.9974166750907898,0.0707184448838234,-0.0010509673709652,0.0022432193089925,0.0074783715450581,0.0089154886081814,-0.028135173022747,-0.0073079629801213,-0.010899015830364,0.3073090432584286,-9.800428107976916,14933.0
14.11,0.8999999761581421,76.0,24.77307510375977,0.1272283792495727,-79.78281992685953,40.45905676387537,268.5315572714805,-0.0126061141490936,0.0005900326650589,-0.9974156022071838,0.0707315281033515,-0.000751338175076,0.0011259151580559,0.0078760607671954,0.0149648617953062,-0.0008796595502644,0.0043767052702605,-0.0517047672858461,0.2037731448747217,-9.81144309282303,14933.0
14.3,0.8999999761581421,76.0,23.539804458618164,5.733229160308838,-79.78281991761587,40.45905677375325,268.5357332921028,-0.0126104615628719,0.0005519419792108,-0.9974143505096436,0.0707485377788543,0.0010403230710705,0.0022283087659788,0.0121396435552878,0.0116605656221508,0.0218301191926002,0.0223136227577924,-0.0163204925134778,0.2284738668613136,-9.8164927482605,14933.0
14.4,0.8999999761581421,78.0,24.48510360717773,1.0893930196762085,-79.78281991706777,40.45905677002593,268.53690595388406,-0.0125739397481083,0.0005973716033622,-0.9974169731140136,0.0707172974944114,-0.0062695773151013,0.0040220881092052,0.0125818793302807,-0.0460258424282074,-0.0009484665351919,0.0011396611807867,-0.0546855636220425,0.2943898760899902,-9.795991825461387,14933.0
14.6,0.8999999761581421,73.0,24.88325500488281,0.055662415921688,-79.78281990201539,40.45905680288798,268.53871996164315,-0.012601907365024,0.0005791881121695,-0.9974138140678406,0.0707572549581527,0.0008069267434748,-9.320239722325892e-05,0.0107620904220212,0.0250038858503103,0.0042031486518681,0.0018358613597229,-0.0105868841498158,0.2542024745419621,-9.804208332896232,14933.0
14.7,0.8999999761581421,76.0,24.912052154541016,0.2942156493663788,-79.78281990112151,40.459056801585504,268.53979296445846,-0.0125714093446731,0.0005294747534208,-0.997409462928772,0.0708244070410728,-0.0010681762608041,0.0017516009867312,0.0108045309882435,-0.0048310831189155,-0.0127703920006752,0.00257612997666,-0.0344310598494485,0.2354699142090977,-9.797593377828598,14933.0
14.91,1.0,76.0,24.15456199645996,4.357572078704834,-79.78281991351197,40.45905681800848,268.5420810079574,-0.0125520871952176,0.000524824950844,-0.9974104166030884,0.0708144083619117,0.0016653994059738,0.0018050025009738,0.0130741634423312,-0.0035793320275843,-0.008359532803297,-0.0115487398579716,-0.0232071443949826,0.2235640512406826,-9.801043819785116,14933.0
15.0,1.0,77.0,23.971763610839844,4.8823890686035165,-79.7828198907254,40.45905687029404,268.5418904519081,-0.0125392405316233,0.0005341384094208,-0.997410774230957,0.0708115398883819,-0.0040773504380567,-0.0036947325730429,0.0125709586146715,-0.009495235979557,0.0024530889932066,0.0003951152029912,-0.0395702553447336,0.2472365038096905,-9.801577085852625,14933.0
15.2,1.0,79.0,23.57736778259277,7.19635534286499,-79.78281988731999,40.45905687480987,268.5443527197839,-0.0123530589044094,0.0006626070244237,-0.9974164366722108,0.0707628950476646,-0.0010154554986391,-0.001763433509224,0.0124702506345401,0.0016935364110395,-0.014651664532721,-0.0291327442973852,-0.0293813861394301,0.2672584665566683,-9.809476089477537,14933.0
15.3,1.0,82.0,23.384552001953125,8.373217582702638,-79.78281986129949,40.45905689280397,268.5413112139702,-0.0122153162956237,0.0006958154262974,-0.9974194765090942,0.070744439959526,-0.0013718727859067,-0.0020369830130363,0.006540180877731,0.0175310652703046,0.0507405400276184,-0.0184958819299936,-0.0394050303893163,0.2942719633318484,-9.797720262408257,14933.0
15.51,1.0,83.0,22.988903045654297,11.180193901062012,-79.78281988206783,40.459056965447004,268.53622550725936,-0.0118356840685009,0.0009027622872963,-0.9974281787872314,0.0706846415996551,0.0094731952661231,-0.0048237572632911,0.005581128802679,-0.0630229189991951,-0.0855143368244171,0.0684476867318153,0.0330534923868253,0.2384311817586422,-9.874578988552091,14933.0
15.6,1.0,87.0,22.80109596252441,12.31729793548584,-79.7828198880691,40.45905696921485,268.53686369419097,-0.0113040683791041,0.0009549302631057,-0.9974443912506104,0.0705410614609718,0.0028977611593332,-0.0050102738236736,0.00844191732336,-0.0597960129380226,0.0144865876063704,-0.0285147074609994,-0.0036105597345158,0.1552144491299986,-9.85391375899315,14933.0
15.8,1.0,87.0,22.39042282104492,15.553669929504396,-79.78281991954698,40.45905698075671,268.53739375829696,-0.009559859521687,0.0010912228608503,-0.997472643852234,0.0703975483775138,0.0183354357810192,0.0006226151505087,0.0100463065183421,0.0003618355549406,0.0480550751090049,-0.0653661787509918,-0.0497575119975954,0.2133740354329348,-9.858736542463305,14933.0
15.9,1.100000023841858,88.0,22.23141288757324,16.77029037475586,-79.78281992868943,40.459056980141575,268.53841037511825,-0.0091646621003747,0.000641091435682,-0.997486650943756,0.0702571421861648,0.0053839427096534,-0.0026776948078572,0.0075570179828927,-0.008978983387351,0.0741249024868011,-0.0317715443670749,0.0244044097652658,0.3375186098366976,-9.785262184739112,14933.0
16.1,1.100000023841858,90.0,21.83325958251953,19.79196548461914,-79.78281993950998,40.45905701530824,268.5367589092254,-0.0076184924691915,-0.0002539119450375,-0.9975268244743348,0.069872960448265,0.0012202369105615,-0.0090629852589734,0.006376430513021,-0.0271061062812805,0.0642319694161415,-0.0563438721001148,-0.0490388526488095,0.2747340404056013,-9.890925464630127,14933.0
16.2,1.2000000476837158,97.0,21.65797233581543,21.350513458251957,-79.78281994610295,40.45905702313085,268.5377621746063,-0.0076603931374847,-0.0009268312714993,-0.997527539730072,0.0698529407382011,-0.0007529309137771,-0.0098491235388096,0.0180668281507724,-0.0114752473309636,0.0209975354373455,0.0164828710258007,-0.053895316994749,0.2126454906351864,-9.95351756930351,14933.0
16.4,1.2000000476837158,98.0,21.322423934936523,24.411945343017567,-79.78281996073791,40.45905703601221,268.53914744615554,-0.0108216265216469,0.001900688977912,-0.9975814223289492,0.0686342567205429,-0.0113390206516888,0.03649440564938,0.034607983991637,-0.0219736136496067,-0.175726443529129,0.0761804282665252,0.0533213625289499,-0.1098787934705615,-9.860854403972628,14933.0
16.51,1.2999999523162842,98.0,21.09830665588379,26.137481689453125,-79.78282003942205,40.45905710626207,268.526583442688,-0.0143072372302413,0.0130584826692938,-0.9975934624671936,0.0665753036737442,-0.0192668446328754,0.0576425398782257,0.0595355227034559,-0.0300729516893625,-0.2320480495691299,0.0574621930718421,0.2177990437857807,0.2715771652199328,-10.15362566113472,14933.0
16.7,1.2999999523162842,99.0,20.771520614624023,29.07963752746582,-79.78281994280438,40.459056938427416,268.5551479554176,-0.0168755277991294,0.0276414714753627,-0.997787058353424,0.0580716468393802,-0.0472287136214596,0.1486728923170583,0.2450838450525224,-0.1417859494686126,-0.1283980756998062,0.0334728956222534,0.0894774834718555,0.3067549099400639,-10.504913513660432,14933.0
16.8,1.5,94.0,21.29112243652344,23.871225357055664,-79.78281975669603,40.45905698475215,268.5616271591186,-0.0144724138081073,0.0229326318949461,-0.9981887936592102,0.0537025481462478,-0.0356662690239121,0.1643698837012615,0.3213963909248325,0.1266645193099975,0.2460419684648513,0.0448004528880119,-0.1531647899094969,0.4297155693545937,-10.686539726257324,14933.0
17.0,1.5,90.0,21.37250518798828,22.877254486083984,-79.78281922857838,40.459056459722966,268.61655826330184,0.0077147684060037,-0.0132261924445629,-0.9985974431037904,0.0506838597357273,-0.0328490669177917,0.2105599239936865,0.3170640026244751,0.1128395572304725,0.1938317120075225,0.0007195380167104,-0.0243577028461732,0.4190742581337691,-10.210306230783464,14933.0
17.1,1.600000023841858,92.0,21.368749618530277,22.77388000488281,-79.78281917603141,40.45905627568756,268.6458990073204,0.0126331727951765,-0.0218481533229351,-0.9982646703720092,0.0532050281763076,-0.0010080250339069,0.2097841930901922,0.2613198492915079,0.1408253759145736,0.0845026448369026,0.0095528494566679,0.4416152013838292,-0.1619878637418151,-9.544451040029529,14933.0
17.3,1.7000000476837158,94.0,21.16216087341309,24.69025802612305,-79.78281921322031,40.45905584468238,268.6592029428482,0.004938178230077,-0.0219064075499773,-0.9978966116905212,0.0608127824962139,0.0370202225342956,0.13657149267528,0.1122028285419382,-0.0327709354460239,-0.0338564924895763,-0.0464351288974285,0.207554831597954,0.069880074262619,-9.372814210653306,14933.0
17.4,1.8999999761581416,112.0,21.08828926086425,25.14350891113281,-79.7828192488246,40.45905573187912,268.669014493227,-0.0008026892319321,-0.0189524535089731,-0.997783362865448,0.0637854933738708,0.0650481523230706,0.1101104462485509,0.0818338733663051,0.0072526773437857,-0.0803366154432296,-0.0038995929062366,0.1205075149051845,0.0475980621669441,-9.493246387839315,14933.0
17.6,2.0,109.0,20.98186492919922,25.898927688598643,-79.78281910404634,40.459055436049454,268.70130039215087,-0.0067383721470832,-0.0063954736106097,-0.9978596568107604,0.0647294893860817,0.0743702800840795,0.1080987972855507,0.0829191545210905,0.0510466210544109,-0.0315339230000972,0.0311228781938552,0.1469669697247445,0.1941047189757228,-9.700722556114195,14933.0
17.7,2.0999999046325684,109.0,20.96183204650879,26.24880599975586,-79.78281916823606,40.459055333484905,268.70959712028497,-0.0078249154612421,-0.002878971863538,-0.997975766658783,0.0630461573600769,0.0775148647948201,0.0959977077012602,0.0806727972379474,0.0451595708727836,0.0509164258837699,0.0435313135385513,-0.0167942174803465,0.260497751366347,-9.772452689409256,14933.0
17.9,2.0,109.0,20.85791206359864,26.7497673034668,-79.78281914899615,40.45905511745715,268.73282654047006,-0.0093198530375957,-0.0059184692800045,-0.9982194900512696,0.0586181357502937,0.0390185203958051,0.098086866651225,0.1076451860642892,-0.1768974512815475,0.0613784343004226,-0.0133140347898006,-0.0261839047819376,0.2757909794524312,-9.842814574241636,14933.0
18.0,2.0,107.0,20.728952407836918,28.07771301269531,-79.78281927678884,40.45905503934083,268.7492636835575,-0.0104467989876866,-0.0080072209239006,-0.9983187913894652,0.056447859853506,0.0482749438107643,0.0959148112129949,0.1410031518188899,-0.0672904998064041,-0.0531176477670669,0.1206967085599899,0.1295789492223412,-0.0275376813858747,-10.044309625625608,14933.0
18.2,2.0,106.0,20.90924644470215,25.71603775024414,-79.78281935157496,40.45905488037285,268.78268928289407,-0.0116748139262199,-0.0095967538654804,-0.998367726802826,0.0550776831805706,0.0277108648388445,0.080290745374147,0.1855715422241101,-0.0758271142840385,-0.0022510872222483,-0.0558458790183067,0.1062909602187574,0.2271396601572633,-10.038439021110538,14933.0
18.3,2.0,105.0,20.941801071166992,25.92278289794922,-79.78281941764237,40.45905465425305,268.7971280014515,-0.0090204682201147,-0.0083959009498357,-0.9983791708946228,0.0555625893175602,0.0563071028046732,0.1047633024390067,0.2082723924886101,0.1172736287117004,-0.0621118806302547,0.0339258350431919,0.067269392972812,0.1103621206618845,-9.965219017267223,14933.0
18.5,2.0,105.0,21.86581420898437,18.09028625488281,-79.78281966531506,40.45905448588432,268.8427657580376,-0.0045789158903062,-0.0067379660904407,-0.99836003780365,0.056665439158678,0.0741883337327482,0.080306502962678,0.184751643267594,0.0437558963894844,0.0373600386083126,-0.0329773128032684,0.1079784301109612,-0.11500552251935,-9.902873665094376,14933.0
18.61,2.0999999046325684,108.0,21.041963577270508,24.93676376342773,-79.7828197374751,40.45905440586064,268.85646788239484,-0.0046519790776073,-0.0077230599708855,-0.9982988834381104,0.0576022863388061,0.0853843133552486,0.0778137992786361,0.0866004189849223,0.0967083126306533,-0.0126348342746496,0.0232482831925153,0.0407346324110403,0.0552803624980151,-9.033422518372538,14933.0
18.8,2.0999999046325684,108.0,20.52737045288086,29.413612365722656,-79.78281991590686,40.459054275274966,268.88212243676185,-0.0018926616758108,-0.0053603909909725,-0.9983146786689758,0.0577545091509819,0.0847157354771391,0.0653922661127954,0.0950896886701367,0.0761247277259826,-0.0452063865959644,0.0595492534339428,0.0771272960677743,-0.0279016888327896,-9.41611108839512,14933.0
18.9,2.0,105.0,20.35834503173828,31.04372596740723,-79.78281999823673,40.45905421218007,268.89463453948497,-0.0024971179664134,-0.0057042930275201,-0.9983493089675904,0.0570957735180854,0.065599556567474,0.0621628303039308,0.1605290054075548,-0.1576224267482757,0.070827841758728,-0.0815827548503875,-0.0271127898059785,0.3075462209433317,-10.269661316871645,14933.0
19.1,2.0,104.0,19.823719024658203,36.29984664916992,-79.78282014750822,40.45905406705749,268.95659407436847,-0.0110697755590081,-0.0067707034759223,-0.998395562171936,0.0551182702183723,0.0735156493502472,0.0668018985530714,0.3963196577522182,-0.0772513523697853,-0.0470181927084922,-0.0830701440572738,0.1489102553017437,-0.1034677783213556,-10.645351939201356,14933.0
19.2,1.8999999761581416,103.0,19.63465881347656,38.3116455078125,-79.78282022715791,40.45905400962975,269.00496273696416,-0.0106674637645483,-0.0057812710292637,-0.9984867572784424,0.0536385178565979,0.0905692247600652,0.0561206461060767,0.5757048182735031,0.077484905719757,0.0779742076992988,-0.0007633084896951,0.0049544531735591,0.3088966353982687,-11.472603145837786,14934.0
19.4,2.0,105.0,19.518218994140625,39.07501602172852,-79.78282052453152,40.45905408239808,269.1235466787964,-0.0045905513688921,-0.0137143703177571,-0.9987601041793824,0.047636441886425,0.0962028935672938,0.0160182493870534,0.9556686500338564,0.0697390958666801,0.104238748550415,0.0255265738815069,0.0060935615887865,0.239175970852375,-11.898136603832246,14934.0
19.5,2.0999999046325684,106.0,19.51947021484375,39.11477661132813,-79.78282066575541,40.45905409731243,269.2190520635247,-0.0017070157919079,-0.0159627143293619,-0.998880922794342,0.0444900058209896,0.1034037579287115,0.0100036972624778,1.1578080223663634,0.0632673949003219,0.0822465941309928,0.0413877181708812,0.1641269214078784,0.2673215068504214,-12.03715415596962,14934.0
19.7,2.0999999046325684,107.0,19.54952049255371,38.16056442260742,-79.78282096613387,40.45905415475556,269.4935100769997,0.0136059336364269,-0.0111950784921646,-0.9990877509117126,0.0389015600085258,0.1504507689493519,-0.0146357059900374,1.5759134607963896,0.2069858610630035,-0.1523808389902115,0.0469594113528728,0.1850426127947867,0.1042172451876104,-11.994882295131683,14934.0
19.81,2.0999999046325684,111.0,19.494428634643555,38.836463928222656,-79.78282109434326,40.45905427379496,269.64326072692864,0.0151089737191796,-0.0020199085120111,-0.9991705417633056,0.0377609282732009,0.1329888857329148,-0.0227380954935564,1.7387718892443256,-0.1382926553487777,-0.2761094570159912,-0.0234445333480834,0.2203535278514028,-0.0495460072439164,-11.658976128101347,14934.0
20.0,2.200000047683716,113.0,19.425567626953125,39.13862991333008,-79.7828214311426,40.45905451246033,269.9742221331596,-0.0200552251189947,0.0248746778815984,-0.9986305236816406,0.041427131742239,0.1542873180688475,-0.0484821114346535,2.0347185826700573,-0.4297236502170563,-0.2833027839660644,-0.0597978830337524,0.1463159644883126,-0.3474128296226263,-11.599043337106703,14934.0
20.1,2.299999952316284,113.0,19.4443473815918,38.74104309082031,-79.78282159002595,40.45905447504373,270.1860940551759,-0.0445369258522987,0.035069789737463,-0.9973569512367249,0.0454498827457428,0.2008700278359948,-0.0494406115592545,2.1983878903786644,-0.3373587131500244,-0.1491453796625137,-0.0313846245408058,-0.0084724099142476,-0.0534664557036012,-11.569931219816208,14935.0
20.31,2.200000047683716,114.0,19.475648880004886,38.438873291015625,-79.78282148282804,40.459054648507816,270.54685474395745,-0.0593285746872425,0.022005345672369,-0.9966731071472168,0.051368810236454,0.2195444540104005,-0.0288830132488512,2.4497626675367017,0.1775242686271667,0.4057219624519348,-0.0061537912115454,-0.1710372156836092,0.1587827855721116,-11.57301504135132,14935.0
20.4,2.400000095367432,97.0,19.429323196411133,38.86032104492188,-79.78282134509391,40.45905450540437,270.80002392292016,-0.0409838110208511,0.0015793078346177,-0.9977723360061646,0.052614364773035,0.1661202456195879,0.049142575824627,2.611362469161349,0.4624517858028412,0.4758888781070709,-0.0125125143676996,-0.1358619377575814,0.4792320207506418,-11.346831876039506,14935.0
20.5,2.5,106.0,19.4193058013916,38.764896392822266,-79.7828210466451,40.45905458011577,270.9855253791809,-0.0100002102553844,-0.018863582983613,-0.9983838200569152,0.0526688173413276,0.0601481092417275,0.1309851380992718,2.6893265373841144,0.5895562171936035,0.3762016892433167,0.0130201950669288,0.0577696912223473,0.4704849881306291,-11.232849762439724,14935.0
20.7,2.799999952316284,108.0,19.737327575683597,34.932144165039055,-79.78282074964251,40.45905440664143,271.54697514534,0.0512566231191158,-0.0351020246744155,-0.9970512986183168,0.0450485162436962,-0.1865223684287925,0.2639789226870555,2.8937407321483763,0.4132058918476105,-0.0902250856161117,0.2203971147537231,0.3766305622458458,-0.1937772748991847,-10.885119355916975,14936.0
20.9,2.799999952316284,109.0,20.04783630371093,30.821075439453125,-79.78282047794225,40.459054492721,271.79206300735467,0.0513387471437454,-0.019216913729906,-0.9977078437805176,0.0396776087582111,-0.2899887410941632,0.2435619321904994,2.900111486887808,-0.2472637444734573,-0.4145458042621613,0.1304426789283752,0.429152957573533,-0.4284347367659211,-10.446309210062028,14936.0
21.02,3.0,133.0,20.40592193603516,28.35602569580078,-79.7828206946163,40.45905451856761,272.40094400405883,-0.0171438157558441,0.0292896125465631,-0.99855375289917,0.0416985750198364,-0.0671706560117058,-0.0336488906237699,2.9482569435118497,-0.6274457573890686,-0.1912702471017836,-0.088301233947277,-0.3147938812896609,0.2903676312603057,-9.879675421714785,14937.0
21.1,3.0,116.0,20.344572067260746,28.29241180419922,-79.78282071130884,40.45905448712324,272.6968278980255,-0.0387457087635994,0.0317267403006553,-0.9977897405624392,0.0436803698539733,0.1529822073752799,-0.1411126060288216,2.9141218830740963,-0.2135802954435348,0.0450580604374408,-0.0342439003288745,-0.4179044130071997,0.3627447772398591,-9.58508334159851,14937.0
21.3,3.0999999046325684,119.0,20.67386054992676,25.501338958740234,-79.78282092519171,40.45905432128741,273.29553295135497,-0.0292067248374223,0.0061268592253327,-0.9982535839080808,0.0509824864566326,0.2256376213741697,-0.0558141247278187,2.775294164312544,0.4035620093345642,0.2816702127456665,0.0037200569640845,-0.0394620818551629,0.0950242344662547,-9.12424439549446,14938.0
21.4,3.2000000476837163,121.0,20.7064151763916,25.000377655029297,-79.78282089083265,40.45905424965101,273.5688293075561,-0.013016877695918,-0.0053072134032845,-0.9984872341156006,0.0531585924327373,0.1327774599214277,0.0463057708537282,2.6744176375533417,0.4452905356884002,0.1746319085359573,0.0092354770749807,0.0558274152036756,-0.0199854016606695,-8.790965967178343,14938.0
21.61,3.299999952316284,126.0,20.80282211303711,24.6027889251709,-79.78282079137173,40.45905442233232,274.03619743347167,0.0096856318414211,-0.0108477687463164,-0.9984074234962464,0.0545095913112163,-0.0349471425774775,0.0646850631696296,2.393960142262749,0.1079284399747848,-0.0151800587773323,0.0293965265154838,0.0369162064441479,-0.1215051960758864,-8.700720625519754,14939.0
21.8,3.299999952316284,133.0,20.50107765197754,27.012176513671875,-79.78282049816247,40.45905372316665,274.69764448165887,0.0071763838641345,-0.0081054158508777,-0.9986371397972108,0.0510566942393779,-0.0334265019989283,0.0356584029319049,2.268182579426845,0.0344000943005085,-0.0501212887465953,0.055272776633501,0.0657386787096038,-0.0087947513815015,-8.734721015095714,14939.0
21.9,3.2000000476837163,131.0,20.37962913513184,28.10951995849609,-79.78282051684792,40.45905373934664,274.92070222854613,0.0052678841166198,-0.0058332104235887,-0.9987859725952148,0.0486307702958583,-0.0004940508606854,0.0053376958267088,2.1972325941286943,0.0456671938300132,0.0035427580587565,0.0727398842573165,-0.0284154580906033,0.0223969304398633,-9.034152835607529,14939.0
22.0,3.0999999046325684,130.0,20.349580764770508,28.149280548095703,-79.78282023042837,40.45905326121407,275.2763140296936,0.0034095833543688,-0.004394662566483,-0.998921275138855,0.0461015030741691,0.0085322965812615,-0.0013790607457701,2.207654969729837,-0.056782990694046,0.0469149053096771,-0.0015191360143944,-0.1232342542894184,0.2121756851300597,-9.257838070392609,14940.0
22.2,3.0,130.0,20.36836051940918,27.76759529113769,-79.7828203419565,40.45905332053861,275.7115962600708,-0.0005487371236085,-0.0037767882458865,-0.9991222023963928,0.0417176932096481,0.0649073013665265,-0.0353407433384286,2.143723224832424,0.0775061771273613,-0.0403209514915943,0.0620931833982467,0.0157259585894644,-0.1442019310779869,-9.512160961031917,14940.0
22.4,2.900000095367432,130.0,20.10918617248535,30.44734191894531,-79.78282013951822,40.459052788775615,276.0634963607788,-0.0022613899782299,-0.0040602567605674,-0.999201238155365,0.0396920070052146,0.055031445343563,-0.0207943664973669,2.1751187175161126,-0.0117927463725209,0.0604627914726734,0.0179476328194141,-0.0249034056672826,0.1545768102630973,-9.527941426634788,14941.0
22.51,2.799999952316284,130.0,20.188066482543945,29.00012016296387,-79.78282003673765,40.45905221482011,276.65947652816766,-0.0023671814706176,-0.0067479033023118,-0.9992654919624328,0.0376492515206337,0.0827980743136021,-0.0102617259881822,2.2294291543167777,0.0730360969901084,0.0541483685374259,-0.0131975421682,-0.0069920251029543,0.0182430022023618,-9.721084899902344,14941.0
22.6,2.900000095367432,130.0,20.198081970214844,29.206865310668945,-79.78282011413299,40.45905224334507,276.8821747398376,-0.0025197332724928,-0.0076223597861826,-0.999257504940033,0.0376840606331825,0.0695472275793793,-0.0094229130691142,2.2260238701929813,-0.0952643379569053,-0.0181652903556823,-0.0567242689430713,-0.0641572352824732,0.1902133238688111,-9.75079752624035,14941.0
22.91,3.0,130.0,20.447240829467773,25.61266326904297,-79.78282009767797,40.45905166923525,277.4756648635864,0.0031730972696095,-0.0029876404441893,-0.9992488026618958,0.0385092422366142,0.0797364347180779,0.0023022099087257,2.3028906923591785,-0.0395862832665443,-0.0354883521795272,-0.124337837100029,-0.0932945641223341,0.2363765615411103,-9.777124614715577,14942.0
23.0,2.900000095367432,127.0,20.536136627197266,25.47748374938965,-79.78282021375553,40.45905169101086,277.70518852233886,0.0065793059766292,-0.0008072188356891,-0.9992011189460754,0.0394122190773487,0.103408814020453,-0.0240116961916535,2.286272071231462,0.1337296664714813,-0.0323073044419288,-0.0498684346675872,-0.0047291914746165,0.0312815941823646,-9.68070227444172,14942.0
23.1,2.900000095367432,124.0,20.42094612121582,26.9724178314209,-79.78282009251997,40.459051100043006,278.3385617828369,-0.0020420656073838,-0.0015862013678997,-0.9991040229797364,0.0422432348132133,0.1095146548389454,-0.0067308385622093,2.289841788245985,-0.0633241683244705,-0.0259902663528919,0.0074699860997498,-0.0028837188519537,-0.1367525052465498,-9.27313438653946,14943.0
23.3,2.900000095367432,123.0,20.254425048828125,28.50710868835449,-79.78282024319549,40.459051099379565,278.564675102234,-0.0077476263977587,-0.0037341434508562,-0.9989745616912842,0.04445032030344,0.1489052224488136,-0.0076775556172593,2.2350306355818685,-0.0256308075040578,0.0173160340636968,-0.018184270709753,0.0475586482789367,0.0621801135130226,-9.293206708431244,14943.0
23.41,2.900000095367432,121.0,20.25943183898925,28.4912052154541,-79.78282001857079,40.4590508938396,279.11680484771733,-0.01178156491369,-0.0074938116595149,-0.9988009929656982,0.0469219721853733,0.1524040497222087,0.0251948621766891,2.2332229383301367,-0.0905881896615028,0.0188216939568519,0.0056983209215104,0.0647056173160672,0.2896251627802849,-9.46192402303219,14944.0
23.5,2.799999952316284,120.0,20.18305778503418,28.85698699951172,-79.78282016238069,40.45905068370731,279.3986623382568,-0.0110114868730306,-0.0067180451005697,-0.9988182187080384,0.046859536319971,0.1736459290536497,0.0458728137478305,2.2640928469569603,-0.0158829353749752,-0.0862642750144004,0.021795755252242,0.0549019836913794,0.0909998700208962,-9.567444046139718,14944.0
23.7,2.900000095367432,119.0,20.186813354492188,28.76156616210937,-79.78282042370171,40.45905067018182,279.85214878082274,-0.0129324030131101,-0.0089648822322487,-0.9989157319068908,0.0438153035938739,0.1348704859521668,0.0177092475725448,2.267795789823494,-0.2057037651538849,0.0710795074701309,-0.0628735274076461,-0.0241346658300608,0.3094194495677948,-9.7487860840559,14944.0
24.11,2.799999952316284,121.0,20.22061920166016,28.04590606689453,-79.78282075826074,40.45905074037209,280.5242650604248,-0.013532486744225,0.0014801484066992,-0.9991015195846558,0.0401362180709838,0.1441938805032682,0.011220381091887,2.277234002645635,0.0530780404806137,-0.1714318394660949,0.0485089607536792,0.0566981021594256,0.2293358743563294,-9.818120613098143,14945.0
24.2,2.799999952316284,117.0,20.22562789916992,28.419639587402344,-79.78282083735104,40.45905074424783,280.75187183380126,-0.0060695717111229,0.0049361451528966,-0.9991663098335266,0.0400700159370899,0.1331855905032897,-0.0195881315688699,2.266292462120859,0.2168524265289306,-0.0258997902274131,0.0704544559121131,0.0647816311195492,0.0821947672404349,-9.7204715269804,14945.0
24.3,2.700000047683716,116.0,20.12921905517578,29.190961837768555,-79.7828209908459,40.45905084324836,281.1775014495849,-0.0059188143350183,0.0020751010160893,-0.999079167842865,0.0424458868801593,0.0663105920611495,-0.0219471428628286,2.230990871661285,-0.1046528667211532,-0.0287072844803333,0.0457517616450786,-0.0605926675535738,0.2345954448357224,-9.651694237589837,14946.0
24.5,2.700000047683716,115.0,20.04533195495605,29.55674362182617,-79.78282126982359,40.4590509354805,281.59862781524663,-0.0134003823623061,-0.0030214607249945,-0.9988795518875122,0.0452882014214992,0.1101271327620724,-0.0002637643680139,2.2232675066657017,-0.1079479306936264,-0.0082736648619174,-0.0123786451295018,-0.0010791310574859,0.3247725933417678,-9.768115224838258,14946.0
24.6,2.700000047683716,118.0,20.06160926818848,29.588550567626957,-79.78282134684369,40.45905093442924,281.82152915954583,-0.0136268651112914,-0.0037039360031485,-0.9988335967063904,0.0461736060678958,0.1344446281444097,0.0038600762160583,2.23050284548582,0.1267232149839401,0.0329556204378604,0.0211615320295095,0.0838128471281379,0.0710840525105595,-9.861346739530564,14946.0
24.7,2.5999999046325684,119.0,20.041576385498047,29.469274520874023,-79.78282141585693,40.45905093079988,282.04508758544915,-0.0124981515109539,-0.0022194252815097,-0.998854637145996,0.0461349710822105,0.1065769307356949,0.0207691041138972,2.237109991517399,-0.0971143841743469,-0.0486094057559967,-0.1200847178697586,-0.0233944266010075,0.4548758824914694,-9.789575091004371,14947.0
24.91,2.700000047683716,114.0,20.059104919433597,29.413612365722656,-79.7828215601039,40.459051052724966,282.4597308731078,-0.0086568016558885,0.0060546146705746,-0.998955011367798,0.0444684103131294,0.0842699048328535,0.0031496216307923,2.2426810803033512,0.0058148130774498,0.0232849791646003,-0.0309680979698896,-0.0476071847369894,0.298802989013493,-9.934937456846235,14947.0
25.1,2.700000047683716,112.0,20.22813034057617,26.92470741271973,-79.78282159619165,40.45905122183903,282.6483037567138,-0.0097760586068034,0.0063142948783934,-0.9989834427833556,0.0435524433851242,0.0839135158805336,-0.0125594261762268,2.2223239667472257,0.0096764657646417,-0.0185727011412382,0.0192028880119323,0.0510668314900249,-0.0567749747727066,-9.95213294863701,14947.0
25.5,2.700000047683716,105.0,20.03030776977539,28.89674568176269,-79.78282181297675,40.45905122464042,283.68025279998784,-0.0130548849701881,-0.0012164118234068,-0.9990238547325134,0.0421830751001834,0.05512005651418,0.0650437033300988,2.115589753282696,-0.0468672886490821,-0.0359659902751445,0.0371738411486148,0.0784421155974268,0.1387137892842292,-9.778472397923473,14948.0
25.6,2.700000047683716,105.0,20.120454788208008,28.30036354064941,-79.78282180684197,40.45905116861815,283.89181209564214,-0.0121346050873398,-0.000825225142762,-0.9990638494491576,0.0415151752531528,0.0650975868341967,0.0619922842872316,2.111959422598805,0.1852308511734008,0.029289111495018,0.0750778168439865,0.1807227446883917,-0.0720189217943698,-9.804182020425795,14948.0
25.81,2.5,109.0,19.98773765563965,29.516984939575195,-79.78282179810006,40.45905116555964,284.2952239608765,-0.0100836800411343,-0.0034280959516763,-0.999153196811676,0.0397425405681133,0.0464427777865639,0.0627069724743928,2.109820421388417,0.1001480817794799,-0.0054368153214454,0.0690798088908195,0.1102732521202415,-0.0889422348327934,-9.889175977706907,14949.0
26.0,2.5999999046325684,108.0,19.87129592895508,30.3042106628418,-79.78282177207815,40.45905110863775,284.5068137741089,-0.0113354828208684,-0.0031848987564444,-0.9991727471351624,0.0389279797673225,0.0161349714809008,0.0878815339442427,2.1228655254839217,-0.1065152361989021,-0.011143309995532,-0.0267852451652288,0.0342069241963326,0.2197290086746216,-9.857094644308091,14949.0
26.1,2.5,104.0,20.04282760620117,28.093616485595703,-79.7828215433439,40.45905108624565,284.91106296539306,-0.0114391027018427,0.0027679728809744,-0.9991881847381592,0.0385311357676982,0.008107458205044,0.0890923025004127,2.144373432653816,-0.033288087695837,-0.1086532324552536,-0.056214265525341,0.0914605301152914,0.2149676026962697,-9.966320632696153,14949.0
26.3,2.5999999046325684,102.0,20.03155899047852,28.83313179016113,-79.78282118169481,40.45905105989164,285.3114965057373,-0.0093551659956574,0.0057616522535681,-0.9990473985671996,0.0422336645424366,-0.0279912679092375,0.0870765752857805,2.1371533542462378,-0.0782367214560508,-0.0275479312986135,-0.0594767294824123,0.0468312774924561,0.1531752783525735,-9.838038568496705,14950.0
26.4,2.700000047683716,97.0,20.067869186401367,28.1572322845459,-79.7828211005118,40.45905096152504,285.52488876342767,-0.0103598125278949,0.0028266878798604,-0.9989455938339232,0.0446373634040355,-0.00084636702311,0.0901721333502896,2.135490407587568,0.1482616811990738,0.1207607463002204,0.0173360016196966,0.0905106773413717,-0.0494815462594851,-9.859306061267851,14950.0
26.6,2.700000047683716,97.0,20.08915328979492,28.03000259399414,-79.78282093892997,40.459050869880926,285.7204949951172,-0.0121161667630076,-0.0031629439909011,-0.998811423778534,0.0471065118908882,-0.0233679698846736,0.1221986814534375,2.126481403843065,-0.0759870409965515,0.2073198109865189,-0.1254782378673553,0.0087592478189617,0.4999115028977394,-9.750260751843454,14950.0
26.7,2.799999952316284,95.0,20.001510620117188,29.03192710876465,-79.78282077536507,40.45905063445719,286.1436288452148,-0.0144359925761818,-0.0137715814635157,-0.9985432624816896,0.0501328818500042,0.0069218177965928,0.1623338268312675,2.106228133467744,0.0345066301524639,0.1236473023891449,0.050102237612009,0.1222250522766262,0.2263293274305761,-9.714261783957484,14951.0
26.9,2.900000095367432,94.0,20.08414459228516,27.9266300201416,-79.78282055490752,40.45905042415313,286.552594909668,-0.0206281561404466,-0.0118291480466723,-0.9985576868057252,0.0481375977396965,0.0271697470000302,0.1809084125029341,2.106523260929133,0.0617844238877296,-0.1278025358915329,0.0706789493560791,0.0876803508773446,0.5823891109228134,-9.756836530566217,14951.0
27.01,3.0,92.0,20.01027488708496,29.278430938720703,-79.78282042363846,40.459050401138896,286.74926353454583,-0.0191241987049579,-0.0071312068030238,-0.9987307786941528,0.0460468865931034,0.0073267645168368,0.1579034445731744,2.1084555161066607,-0.0634365156292915,-0.0560376830399036,-0.013538553379476,0.1115927037410438,0.6623891074955464,-9.789528313279153,14951.0
27.1,3.0,90.0,19.99024200439453,28.92060089111328,-79.78282032766025,40.459050311987546,286.9605634307861,-0.0167047511786222,-0.0032241928856819,-0.9988672137260436,0.0444406569004058,0.0071060872053971,0.1316969287184047,2.116406477105852,0.0010458003962412,-0.1644258648157119,0.0837121978402137,0.1032051287032663,0.2524998567067086,-9.904315588474274,14951.0
27.3,3.0,86.0,20.107934951782227,27.68807601928711,-79.78282013879159,40.459050172655566,287.3752935028076,-0.0169049091637134,-0.0038967917207628,-0.9988911151885986,0.0437689237296581,-0.0187377665485107,0.1032512453242639,2.1174458166834973,-0.1716455519199371,-0.0249652452766895,0.0400480665266513,-0.1008178750053048,0.2995110868290067,-9.75549868762493,14952.0
27.4,3.0999999046325684,83.0,20.20309066772461,26.43964767456055,-79.78282004656738,40.45905009543229,287.58579040527337,-0.0184017866849899,-0.0059447255916893,-0.9988104701042176,0.0447642616927623,0.0126251995340315,0.1003021884991776,2.091587721252989,0.0693578124046325,0.0428892411291599,0.022094951942563,0.092433991022408,0.2216427475400269,-9.62541743516922,14952.0
27.6,3.2000000476837163,85.0,20.117950439453125,27.43362045288086,-79.7828197870144,40.459050087709535,287.9925458526611,-0.018628479912877,-0.0064406944438815,-0.998632550239563,0.0484213046729564,-0.0089884744112991,0.0887531232973179,2.036731375137683,-0.0792625248432159,0.0260465145111084,-0.1077946946024894,-0.0808566958922892,0.6597851230949163,-9.486037355661392,14952.0
27.8,3.2000000476837163,87.0,21.20848655700684,12.937536239624023,-79.78281969769242,40.4590500441725,288.19447494506835,-0.0135171506553888,-0.0063945492729544,-0.9986692667007446,0.049358382821083,0.007113062582391,0.0692907227191632,2.005761790573787,0.0921130180358886,-0.0726350545883178,0.0271046441048383,-0.0416505713341757,0.354240550249815,-9.536087767481805,14953.0
27.9,3.299999952316284,90.0,22.41170692443848,9.494418144226074,-79.78281978977752,40.45904989012314,288.5943639373778,-0.0049937875010073,-0.008422334678471,-0.9987358450889589,0.0493052527308464,-0.0036086471119508,0.0327130540999353,1.7796938481111737,0.0398033522069454,0.0017071506008505,-0.0200657621026039,-0.169831684269011,0.2592904292419553,-7.8279435825347905,14953.0
28.0,3.299999952316284,92.0,21.895862579345703,12.388863563537598,-79.78281965757664,40.45904989573989,288.7603681182861,-0.0068891285918653,-0.005530166439712,-0.9987728595733644,0.0487325452268123,-0.002248858236326,0.0464638125366156,1.4561779398728398,-0.1765838861465454,-0.1091556102037429,0.0349077880382537,-0.0019601785484701,0.4361981580778957,-6.668616135120393,14953.0
28.2,3.299999952316284,96.0,21.17968940734864,18.62305450439453,-79.78281969001584,40.45904987990011,288.98285842895507,-0.0145950447767972,0.0004036612808704,-0.9989619851112366,0.0431500636041164,0.0490276777750506,-0.0011846928840074,0.8043091188483513,-0.0649929717183113,-0.0337703675031662,0.0865023881196975,-0.1298466877453029,0.3629258947446943,-6.74892647266388,14953.0
28.3,3.400000095367432,94.0,21.016923904418945,19.259197235107425,-79.7828196743268,40.45904990148063,289.05011344909667,-0.0164465922862291,-0.0009161652415059,-0.9990225434303284,0.0410221964120864,0.065091380154387,-0.0130606268623331,0.5975220198493052,-0.0062722107395529,0.0271793603897094,0.0157683566212654,-0.0941747802123427,0.4255765812098979,-7.519766666293143,14954.0
28.51,3.5,93.0,20.47854232788086,24.88905143737793,-79.78281975807619,40.459049928943045,289.14363647460937,-0.0175462402403354,-0.0045268815010786,-0.9992865920066832,0.0331363640725612,0.0629746469350367,-0.0170888331372304,0.3039622213481067,-0.1471875309944152,-0.0104516856372356,0.0321970172226429,-0.0431923404894769,0.3407131995633245,-8.348598375320435,14954.0
28.7,3.5,92.0,20.001510620117188,29.15915489196777,-79.7828199001644,40.45904998201255,289.1915490722656,-0.030641108751297,-0.0088436631485819,-0.9991172552108764,0.027343351393938,0.0641121966260244,-0.0595714621466393,0.1937603552749037,-0.1338309347629547,0.1315284669399261,0.0414588488638401,-0.0444811216369271,0.1180899653211236,-9.015169849991798,14954.0
28.8,3.700000047683716,90.0,19.96770477294922,29.501081466674805,-79.78281982562213,40.45904997407509,289.2387540435792,-0.0369670316576957,-0.0103929443284869,-0.9989174008369446,0.0262583047151565,0.0490756473719568,-0.0532596391097779,0.2544486009109104,-0.1020731180906295,-0.1214438527822494,0.0429384969174861,0.1390158527903258,0.4311105688288808,-9.890776945352554,14954.0
28.9,3.799999952316284,88.0,19.74859619140625,31.62420463562012,-79.78281985937824,40.45905002953992,289.2660691833496,-0.0414951741695404,-0.0057458686642348,-0.9987890124320984,0.0258027389645576,0.0398720089522672,-0.0686805209181405,0.2936677845492006,0.0055177463218569,-0.1579163819551468,0.0775360316038131,0.0225339471478946,0.4222792997583747,-10.167199387550356,14954.0
29.11,4.0,87.0,19.476900100708008,34.049495697021484,-79.782819786032,40.459050011054416,289.39677215576165,-0.0286497045308351,0.0084667392075061,-0.9992322325706482,0.0253487881273031,0.0529200592458266,-0.0751940151241749,0.5824185388288057,0.2435833960771561,-0.0886859968304634,0.0023813832085579,-0.214375499021262,0.600925880894065,-11.06626960515976,14954.0
29.31,4.0,85.0,19.48566436767578,34.979854583740234,-79.78281979735853,40.45905007772725,289.4630735015868,-0.0192471146583557,0.0076259542256593,-0.9994808435440063,0.0246861036866903,0.0434658523366078,-0.0936215824148997,0.7372083236112342,0.0834028869867324,0.0126459142193198,-0.0980385914444923,-0.2857788643240929,0.9042647378146648,-11.179457666873931,14954.0
29.4,4.199999809265137,84.0,19.48316192626953,34.28009796142578,-79.78281961259098,40.45904966380862,289.78294731140136,-0.0211967341601848,0.0053120320662856,-0.9994847178459167,0.0235124230384826,0.0497646282791803,-0.0195243179786383,1.1198893582449498,-0.2497372180223465,-0.0578746311366558,0.0920730754733085,-0.1083440272696316,0.4953271396458149,-11.085974721908569,14954.0
29.6,4.199999809265137,85.0,19.609619140625,32.02179336547852,-79.78282061251694,40.4590504098928,289.6747262573241,-0.0383649468421936,0.0184898730367422,-0.9987646341323853,0.0256048329174518,0.1074923942137817,-0.0168232976769963,1.12234198246134,-0.1866036802530288,-0.2304726988077164,-0.0712771415710449,0.1254354568943381,0.3179071216285229,-10.996284281015395,14954.0
29.7,4.300000190734863,84.0,19.62213897705078,31.17095375061035,-79.7828206401495,40.45905038818132,289.7930562591552,-0.048424158245325,0.0261633470654487,-0.9981201291084292,0.0269590336829423,0.1154291096338672,-0.0071588293551348,1.2358141821580757,-0.113548956811428,-0.0753468722105026,-0.0971571654081344,-0.1180524335056543,0.7047044569998979,-10.816222783327104,14954.0
29.8,4.400000095367432,84.0,19.759864807128903,30.04180145263672,-79.78282105271383,40.45905067092766,289.8399770355224,-0.0510943420231342,0.0286509152501821,-0.997880756855011,0.0283298511058092,0.1158754872965978,0.0015693532093032,1.296024685894987,0.0255499891936779,-0.0155818499624729,-0.0386438816785812,-0.1095449722744524,0.7203782840073109,-10.823247628211975,14954.0
30.0,4.400000095367432,74.0,20.19683074951172,25.66037368774414,-79.78282115557734,40.45905070301407,290.0435712432861,-0.0477734729647636,0.0207957364618778,-0.9981293082237244,0.031987901777029,0.0723513904065078,0.0675469707813482,1.3551393338966746,-0.0043960800394415,0.197938323020935,-0.0442083328962326,-0.1537554957345128,0.8795957004278898,-10.06541456580162,14955.0
30.2,4.5,78.0,20.582462310791016,21.93894386291504,-79.78282107319546,40.45905056770948,290.1777913665772,-0.0434007309377193,0.0128602599725127,-0.9984171390533448,0.0333808474242687,0.0669198219619472,0.1044831492442866,1.3382474316409971,0.1190420389175415,0.1260588914155959,0.0925209522247314,-0.1035679849795997,0.5477249892801047,-9.733806686997417,14955.0
30.3,4.699999809265137,79.0,20.83662796020508,20.19750595092773,-79.78282103211414,40.45905053247357,290.31954742431634,-0.0369627214968204,0.0018749294104054,-0.9987761974334716,0.0328078456223011,0.0289371620005831,0.1447897928394922,1.114163887657624,-0.0059614814817905,0.0098854135721921,0.0962568968534469,-0.0574719080608338,0.5144663920998573,-8.930857093334199,14955.0
30.5,4.800000190734863,79.0,21.455141067504886,13.94741153717041,-79.78282075793045,40.45905045949183,290.5443551635741,-0.0283049326390028,0.0017975552473217,-0.9985278248786926,0.046236328780651,0.0155259396154935,0.1251704664666454,0.7630173683917923,0.190787672996521,-0.0240999776870012,-0.4085739254951477,-0.0490979917533695,0.7193116787821054,-8.494616798758509,14955.0
30.6,4.900000095367432,85.0,21.481433868408203,15.092467308044435,-79.78282071326242,40.45905034805894,290.60552764892583,-0.0124492282047867,0.0064590759575366,-0.9964863657951356,0.0825729072093963,-0.0107267500848698,0.1229549113901373,0.4636093643478663,0.0769161656498909,-0.096250407397747,-0.9698289036750792,-0.2965447577834129,0.3850450344756246,-6.97337184548378,14955.0
30.81,5.0,86.0,20.721439361572266,21.72424697875977,-79.78282065406627,40.4590502637189,290.6369721984863,-0.0127926189452409,0.0038388960529118,-0.9907550811767578,0.1350036561489105,-0.0246462057166555,0.073325416141758,0.1801146336604052,-0.1864686459302902,0.1289950758218765,-1.0942072868347168,-0.5095975618064403,0.203441589474678,-7.105563942790033,14955.0
30.9,5.0,89.0,20.671358108520508,22.26496696472168,-79.7828206935299,40.45905025853533,290.63463760375976,-0.0204572323709726,-0.0154840555042028,-0.9648064374923706,0.261706531047821,0.0077917588935947,-0.0108619527012892,-0.1977022865470893,0.0514233820140361,0.2130608856678009,-1.43167245388031,-0.3310800945013761,0.3280902669578791,-7.989171783328056,14955.0
31.11,5.0,93.0,20.764009475708008,21.23123550415039,-79.78282071953495,40.45905038953907,290.5935247039795,-0.0170706454664468,-0.0202550739049911,-0.9149247407913208,0.4027543663978577,-0.0309416892707153,-0.1310628864988849,-0.4131001695463833,0.0672194138169288,0.1310196667909622,-1.4548755884170532,-0.2842595201544464,0.181399888806045,-8.471831368803981,14955.0
31.2,5.099999904632568,78.0,20.453500747680664,24.491464614868164,-79.78282082418058,40.45905050644512,290.54755569458007,-0.0142639158293604,-0.0274754427373409,-0.8811437487602234,0.471834123134613,-0.0723082094100345,-0.1931868798305646,-0.4898024449037847,-0.0993634164333343,0.131781980395317,-1.47802472114563,-0.4921006825938821,0.1010735262371599,-8.792317258715629,14955.0
31.3,5.099999904632568,73.0,20.392148971557614,25.04808807373047,-79.7828209440388,40.459050640999045,290.50165153503417,-0.0095685832202434,-0.0307703297585248,-0.8501695394515991,0.5255221724510193,-0.0958580110113334,-0.2275918735761515,-0.5483519210896226,0.1761201620101928,0.1158096864819526,-1.5533530712127686,-0.1348074198234826,0.6114552544802427,-9.056353543996812,14955.0
31.5,5.099999904632568,82.0,20.16928482055664,27.27458381652832,-79.78282122741975,40.4590509000739,290.47077156066894,0.0126673402264714,0.0066228113137185,-0.7513565421104431,0.6597416996955872,-0.1326938711006385,-0.2257397275703107,-0.5029475072273842,0.2408017367124557,-0.2044852375984192,-1.6831682920455933,-0.031676139626652,-0.0278631520271301,-9.78310748577118,14955.0
31.6,5.099999904632568,88.0,19.90385055541992,29.07963752746582,-79.78282143482065,40.45905107015949,290.4111478424072,0.0094957314431667,0.0110238762572407,-0.6971480250358582,0.7167795896530151,-0.1498261544844513,-0.2421471910726066,-0.4724487861917474,-0.1073626428842544,-0.0694900825619697,-1.4377700090408323,-0.2366043654084205,-0.5358096794039011,-10.408082453012469,14955.0
31.8,4.900000095367432,78.0,20.313270568847656,26.28061294555664,-79.78282190637314,40.45905126100247,290.4404409027099,-0.0141261024400591,-0.0153484875336289,-0.5962746739387512,0.8025094866752625,-0.2638319235125028,-0.2291573483902335,-0.3359468732419931,-0.1649030297994613,-0.1161027699708938,-0.9091736078262328,-0.0954199904669076,-0.1653450426086783,-9.923071117401124,14955.0
32.0,4.900000095367432,76.0,20.214359283447266,26.9167537689209,-79.78282262360821,40.45905147340823,290.48783279418944,-0.0038058648351579,0.0519841946661472,-0.5281082391738892,0.8475759625434875,-0.2065477166779172,-0.0680506257763306,-0.3421081941898292,1.2224071025848389,-0.3528719842433929,-0.6385200619697571,0.3204825643077493,0.1496814116835594,-9.387711746692656,14955.0
32.1,4.800000190734863,93.0,19.98648452758789,28.05385780334473,-79.7828227186813,40.45905161703006,290.4485051727295,0.0032489066943526,0.1149536445736885,-0.5092129111289978,0.8529227972030641,-0.1211400417801376,0.0860623480934746,-0.4397518993858085,0.8435947299003601,-0.5730913281440735,-0.2104497402906417,0.4628966909274459,-0.5879317597299815,-9.187048754096027,14955.0
32.2,4.800000190734863,101.0,19.995250701904297,27.79940223693848,-79.78282265534749,40.45905174241653,290.40427375793456,-0.0030088946223258,0.1538714617490768,-0.4997554123401642,0.8523844480514526,0.0469804368681474,0.2129416269955686,-0.4205277408169468,0.2920595705509186,-0.4002582132816314,0.0285356286913156,-0.0829190271254629,-1.044181153178215,-9.643612800836564,14955.0
32.4,4.800000190734863,74.0,19.928890228271484,27.966388702392567,-79.78282179458081,40.45905134938194,290.371780166626,-0.0359192639589309,0.1399262845516204,-0.5076874494552612,0.8493432402610779,0.3522361050319191,0.4988225739530857,-0.1439452127219562,-0.744441032409668,-0.1639250665903091,0.3317620754241943,-0.3955436005443335,-1.1625583264231685,-10.25098881840706,14955.0
32.61,4.800000190734863,79.0,20.01152610778809,27.78349876403809,-79.78282068475708,40.45905151066535,290.23871971130364,-0.0694991424679756,0.0949533134698867,-0.5279471874237059,0.8410859107971191,0.4735095970239538,0.8343267255052854,-0.0633000592849634,-0.2168044596910476,-0.0651076808571815,0.1826914548873901,-0.3164646135270596,-0.5550572149828077,-10.248069888353347,14955.0
32.7,4.800000190734863,89.0,19.98523330688477,28.212894439697266,-79.78281948297614,40.45905148005504,290.2106244659424,-0.0729560330510139,0.0955994948744774,-0.5404894948005676,0.8327120542526245,0.4961996531789156,1.0375810696466587,0.0059510609710516,0.0343771912157535,-0.0148648517206311,0.2210251241922378,-0.204103311561048,-0.0971093058865517,-10.335704448223115,14955.0
32.8,4.900000095367432,92.0,19.83123207092285,29.509033203125,-79.78281822273549,40.4590518902446,290.1112210845946,-0.0704404041171073,0.1014247611165046,-0.5559051632881165,0.8220223784446716,0.4776739756310321,1.2350394744965536,0.0705841642125794,0.0296818111091852,-0.0661042258143425,0.2879316210746765,-0.128069609273225,-0.5706355861946941,-10.43676070690155,14955.0
33.0,5.099999904632568,107.0,19.66220474243164,30.87673759460449,-79.78281461642148,40.45905239857774,289.9889752960205,-0.0751025676727294,0.0992419272661209,-0.5861326456069946,0.8005993962287903,0.3850638317792729,1.6218239403796184,0.3146799118181904,-0.1813869476318359,-0.0914645120501518,0.2458311319351197,-0.2759211348183453,-0.7167624389380217,-11.01910479426384,14954.0
33.11,5.099999904632568,110.0,19.64592742919922,31.775287628173828,-79.78281251357645,40.459052582525786,289.9842259979248,-0.0812050700187683,0.0920270979404449,-0.5984021425247192,0.7917397022247314,0.3259469299160748,1.807783081306792,0.4743349891996464,-0.1632943004369735,-0.1059402823448181,0.4180529713630676,-0.4554964182525874,-0.8594860294461251,-11.132555980682373,14954.0
33.3,5.400000095367432,108.0,19.664709091186523,30.62228202819824,-79.78280732234549,40.45905342705587,289.9352643585205,-0.0752288028597831,0.0855325832962989,-0.6189526319503784,0.7771245241165161,0.2139286536943841,2.1451563443909683,0.787723872380353,0.1330314874649048,0.0479791015386581,0.1565758883953094,-0.7147675882279874,-0.3848465580493212,-11.287200801372528,14954.0
33.5,5.599999904632568,106.0,19.756107330322266,30.272403717041016,-79.78280454265,40.45905374728285,289.96644760131835,-0.0729862973093986,0.0889405161142349,-0.6273165941238403,0.7702184915542603,0.1403916343272072,2.334342265008022,0.9093828315261576,-0.0242123994976282,-0.2139530926942825,0.2254116237163544,-0.3876402845978737,-0.4344286078959704,-11.055969150066378,14954.0
33.6,5.9000000953674325,110.0,19.67222023010254,30.980112075805664,-79.78279786542342,40.45905501439612,289.9736173248292,-0.1024389192461967,0.1002564057707786,-0.62987220287323,0.7633584141731262,-0.0132465010879306,2.69604579868437,1.1989094462289125,-0.0577424466609954,-0.193916156888008,-0.0704948678612709,-0.5286253151670098,-0.4989662639424205,-10.873367621898652,14954.0
33.8,6.099999904632568,105.0,19.48691749572754,32.17287826538086,-79.7827903603999,40.45905676285632,289.99984527587884,-0.1135027334094047,0.0955316126346588,-0.6272006630897522,0.7645981311798096,-0.1607739233070495,2.9908186746961496,1.6132699979246894,-0.0051788273267447,0.1043907701969146,-0.0117177031934261,-0.9616403221338988,-0.8576866219192744,-10.77647341132164,14954.0
33.9,6.4000000953674325,101.0,19.520723342895508,31.727577209472656,-79.78278641422413,40.459057503960096,290.06990409851073,-0.1086224243044853,0.0913080349564552,-0.6260600090026855,0.7667549252510071,-0.1806994336122212,3.178506263584082,1.7594893806692151,0.0223179217427968,0.2161866128444672,-0.3206062316894531,-0.9381661632657052,-0.2400912793725729,-10.846869210004806,14955.0
34.0,6.599999904632568,98.0,19.60836601257324,31.322036743164062,-79.78278204793111,40.459058998459895,290.0601518249512,-0.1050989031791687,0.0909754335880279,-0.6227291822433472,0.7699910402297974,-0.2775195919136197,3.388099829887123,1.8000889311502872,0.0141381584107875,-0.0562819801270961,0.01330610178411,-0.8408820895850659,-0.7321311874687672,-10.919192250967026,14955.0
34.2,7.0,93.0,19.78490447998047,28.713855743408203,-79.78277306753324,40.45906099292825,290.23185325622563,-0.1063737347722053,0.0969406962394714,-0.6157777309417725,0.7746644616127014,-0.3198513479233809,3.7274281854152687,2.0582765758584616,0.008824142627418,-0.0986705347895622,-0.2260434776544571,-1.3171820971369743,-0.53905269138515,-10.697737144231798,14955.0
34.41,7.199999809265138,90.0,20.107934951782227,25.485435485839844,-79.78276321049697,40.45906423366913,290.3226201629638,-0.1031030789017677,0.1040109917521476,-0.6064552664756775,0.7815135717391968,-0.3557882490593877,4.0371190875985885,2.2277812313813845,0.076186865568161,0.0155434925109148,-0.0934357643127441,-1.116847644969821,-0.2368778323754669,-10.65982847571373,14955.0
34.5,7.5,87.0,20.10042190551757,25.64447021484375,-79.78275806867924,40.45906670026464,290.3044259643554,-0.0984388291835784,0.1027370691299438,-0.5994594693183899,0.7876569032669067,-0.4376349857162706,4.205684714521288,2.2046594837018025,-0.0322166755795478,-0.0133165987208485,0.0071174283511936,-1.4346164068579674,-0.6772705636918546,-10.048472843170169,14955.0
34.6,7.699999809265138,86.0,20.072877883911133,26.081817626953125,-79.78275276419468,40.45906808618502,290.3963525390625,-0.0920277684926986,0.1009319424629211,-0.5960190296173096,0.7912679314613342,-0.3576287845528679,4.3673257529941205,2.210199194695688,0.0367941819131374,0.2050019204616546,0.0280459579080343,-1.4052784408628942,-0.5201695469766856,-9.813836942911148,14955.0
34.8,8.100000381469728,82.0,20.3846378326416,22.670507431030277,-79.7827418382122,40.45907239160047,290.4947068786621,-0.0863519012928009,0.0966081321239471,-0.5873985290527344,0.7988575100898743,-0.3850016950133501,4.669996518623296,2.134514072576947,-0.1564346551895141,0.1118528172373771,-0.1559269279241562,-1.4037061245739462,-0.2590947119705379,-9.763625147938727,14955.0
35.0,8.199999809265138,81.0,20.36710929870605,23.40207099914551,-79.78273614874105,40.459073951842896,290.5811841583252,-0.086152009665966,0.0949105322360992,-0.5857148766517639,0.8003174662590027,-0.2861855680872773,4.796225708732015,2.116133265750432,-0.0633195713162422,-0.0550196878612041,-0.127867504954338,-1.4318996442854406,-0.4485906372964382,-9.522255594134329,14955.0
35.11,8.5,78.0,20.392148971557614,23.36231231689453,-79.782724693837,40.45907852785522,290.70538497924804,-0.0933064371347427,0.0914789512753486,-0.5789401531219482,0.8048315644264221,-0.2859864483076023,5.011601836971286,2.080683526525376,0.0346053801476955,-0.0701173618435859,-0.2015700042247772,-1.4031059078872206,-0.4259078259766102,-9.319974676966668,14955.0
35.3,8.600000381469728,77.0,20.566184997558597,21.978702545166016,-79.78271302920037,40.45908334114287,290.88361526489257,-0.1029753237962722,0.086511343717575,-0.5721780061721802,0.8090267777442932,-0.3828595702184028,5.1837827020104585,2.1013543910470145,0.0169714279472827,-0.1329492926597595,0.0856971591711044,-1.4280134385824204,-0.2225681790523231,-9.301940109729768,14955.0
35.4,8.800000190734863,76.0,20.627534866333008,21.70039176940918,-79.78270691250044,40.459085269318685,290.94884849548333,-0.1026213243603706,0.086335003376007,-0.5719247460365295,0.8092696070671082,-0.3249676330181367,5.277254140406766,2.0909688550134207,0.0755709335207939,0.1769668608903885,0.0291225463151931,-1.432339354902506,-0.3280155687779188,-9.189237951636317,14955.0
35.6,9.0,76.0,20.44097900390625,23.720142364501957,-79.78270031657564,40.45908760900493,291.0896356201172,-0.1008972525596618,0.0872972533106803,-0.5702664852142334,0.8105523586273193,-0.3900294035735838,5.391117237893413,2.094544457026779,-0.0491996817290782,0.078926995396614,-0.1893912404775619,-1.3731629012525082,-0.0698980544507503,-8.89897631943226,14956.0
35.7,9.199999809265137,76.0,20.39340209960937,23.52134704589844,-79.78268766925375,40.45909179708814,291.1884915924072,-0.0998832732439041,0.0871912315487861,-0.5660107731819153,0.8136662840843201,-0.4180318790738834,5.595694455982264,1.9374318242095976,0.1470223218202591,0.2553818225860596,-0.121773861348629,-1.2742826838791368,-0.4477737447246909,-8.850353212952614,14956.0
35.91,9.300000190734863,76.0,20.40216636657715,23.31460189819336,-79.7826740582876,40.45909644963507,291.32325531005864,-0.0828644782304763,0.0847382768988609,-0.5612693428993225,0.8191030621528625,-0.4345481966535086,5.838389426038718,1.7814916552961508,-0.1842261105775833,0.0831162482500076,-0.0010208579478785,-1.506298885345459,-0.3884181835502386,-8.888475304841995,14956.0
36.0,9.399999618530272,76.0,20.483549118041992,23.537250518798828,-79.78266701050491,40.45909894873513,291.39134384155267,-0.0753527730703353,0.0823266953229904,-0.5592409372329712,0.8214584589004517,-0.4088251943554389,5.9673248869234605,1.6516037598225877,-0.077888622879982,0.1625670939683914,-0.2115938663482666,-1.254612211883068,-0.6844852969050408,-9.032140808701516,14956.0
36.1,9.5,77.0,20.519859313964844,22.92496490478516,-79.78266032186534,40.45910127475524,291.41317535400384,-0.0686488598585128,0.0820827931165695,-0.5592165589332581,0.8220868110656738,-0.3494070219463111,6.074748743442098,1.5301945438235358,0.2367160469293594,0.0943890064954757,0.0947515591979026,-1.2286151987314224,-0.88501599624753,-9.327157396674156,14956.0
36.3,9.600000381469728,78.0,20.5311279296875,23.012434005737305,-79.78264630523,40.459106290535615,291.50453926086425,-0.063918650150299,0.0793007612228393,-0.5625101923942566,0.8204926252365112,-0.4526267073505216,6.211250455233233,1.41729596189899,-0.1830380856990814,0.0216683112084865,0.1859143376350402,-1.5822048076987267,-0.8027238911390305,-9.35300150513649,14956.0
36.4,9.600000381469728,78.0,20.36335182189941,23.75990104675293,-79.78263944628361,40.45910870900016,291.52170349121087,-0.0622465871274471,0.0774149298667907,-0.5643961429595947,0.819505512714386,-0.4660218068029192,6.266938227447512,1.386686844151907,-0.1408631801605224,-0.1514443159103393,0.0334542244672775,-1.5818598219752311,-0.7895149578899145,-9.456693688631056,14956.0
36.6,9.699999809265137,81.0,20.4484920501709,23.799659729003903,-79.78262520108831,40.459113843556686,291.63841415405267,-0.0589609630405902,0.0824471563100814,-0.5670266151428223,0.8174393177032471,-0.5298822837266282,6.344872380130378,1.3659137880824743,-0.1333822607994079,-0.1213800385594368,-0.1027888283133506,-1.5244699850678445,-0.3392412726581097,-9.379353151917458,14956.0
36.8,9.800000190734863,82.0,20.503582000732425,23.29074668884277,-79.78261822979583,40.459116304327175,291.6549146270752,-0.0597058720886707,0.0875760987401008,-0.5670834183692932,0.8168121576309204,-0.5332513907421532,6.361658237363097,1.334602004364854,0.138707548379898,-0.1595956236124038,0.1303012818098068,-1.4879343889653684,-1.0421818439662458,-9.223130167722704,14956.0
36.9,9.800000190734863,83.0,20.32954788208008,25.04808807373047,-79.78260390013858,40.45912161329485,291.7893560028076,-0.0557563602924346,0.0901174768805503,-0.5644119381904602,0.8186630606651306,-0.5544993238234289,6.403301627983757,1.4303652080720677,-0.1613251864910125,0.1362967044115066,-0.1966796815395355,-1.5711050382256508,-0.5005775007605553,-9.355547382831574,14956.0
37.0,9.800000190734863,83.0,20.32954788208008,24.81748580932617,-79.7825964125511,40.45912426759404,291.8683469390868,-0.0460096821188926,0.0847258269786834,-0.563761830329895,0.8202910423278809,-0.5093104983255481,6.415269232184122,1.4279127337741504,0.1485869437456131,0.2056525200605392,0.128928542137146,-1.7847628828883173,-1.0740671494603158,-9.3436652559042,14956.0
37.2,9.899999618530272,83.0,20.17304039001465,26.81338119506836,-79.7825822956678,40.45912922484946,291.9089353179932,-0.0292064733803272,0.0703054741024971,-0.5643917918205261,0.8219891190528871,-0.4509548571715458,6.456111246691347,1.1519305108929312,-0.0198606289923191,0.0922714248299598,0.0735004767775535,-1.6355644512176517,-0.8842420441657305,-9.981352654695511,14956.0
37.3,10.0,87.0,20.226879119873047,25.962541580200195,-79.78257501759359,40.45913194733113,291.9377362823486,-0.0228709131479263,0.0686744898557663,-0.5660887956619263,0.8211603760719299,-0.4687309152924488,6.4527486197395945,1.0975516778606131,0.0231890920549631,0.1260319799184799,-0.0141245564445853,-1.5767600266635422,-0.6502934841066599,-9.953235733509064,14956.0
37.5,10.199999809265137,87.0,20.48104476928711,23.69628715515137,-79.78256065110232,40.45913701285493,291.9337079620361,-0.0309400949627161,0.0656030550599098,-0.5706411004066467,0.8179900050163269,-0.5043959379020927,6.409055348449442,0.977619878561302,-0.0977267175912857,-0.2433176338672638,-0.0546792224049568,-1.5592514164745808,-0.637324725240469,-9.653157210946084,14956.0
37.7,10.199999809265137,86.0,20.50107765197754,22.98857879638672,-79.7825468087878,40.45914181000303,291.985248336792,-0.0408727005124092,0.0650232285261154,-0.5714550614356995,0.8170315623283386,-0.5122495577350297,6.298894584729153,1.0832480703368383,0.0918572545051574,0.0512041412293911,-0.0679928213357925,-1.801639993786812,-0.4708169272542,-9.425785891413687,14956.0
37.8,10.300000190734863,87.0,20.574949264526367,22.48761749267578,-79.78253963764027,40.45914453012293,291.95518661499017,-0.0416834317147731,0.0659522041678428,-0.5695764422416687,0.8182269930839539,-0.5407826659562612,6.316637628498072,1.0510882950950349,-0.1236778199672699,-0.1077568307518959,-0.2060545086860656,-1.6217637066543102,-0.5047596486657858,-9.237503208518026,14956.0
37.9,10.300000190734863,86.0,20.48855781555176,22.948820114135746,-79.78253277611908,40.459146920830094,291.971275100708,-0.0397504568099975,0.0669789612293243,-0.5674381256103516,0.8197242617607117,-0.4962986749951495,6.2776286327185264,1.0244253128283405,0.1631574928760528,0.0083059221506118,0.074968472123146,-1.258381034731865,-0.7201832062751055,-9.435296387672423,14956.0
38.1,10.199999809265137,86.0,20.33831214904785,24.952667236328125,-79.78251886713001,40.45915181160779,291.96621681213384,-0.0311374552547931,0.0618936456739902,-0.563743531703949,0.8230388760566711,-0.4028321700156661,6.253761221728164,0.9160809059460056,0.0417664386332035,0.1200690791010856,-0.0438407100737094,-1.3454413980245592,-0.6529667580127716,-9.661991769075394,14956.0
38.31,10.199999809265137,85.0,20.305757522583008,25.01628112792969,-79.78251207005715,40.45915415623874,291.978376159668,-0.0290631726384162,0.0579544380307197,-0.5626093149185181,0.8241768479347229,-0.3852380290037663,6.257508483357031,0.8657822320724833,-0.2525514662265777,-0.0763211548328399,-0.1126522198319435,-1.4987830205261707,-0.4742699273675681,-9.535673784613609,14956.0
38.4,10.199999809265137,87.0,20.55116081237793,22.98857879638672,-79.78249831501549,40.45915893621882,291.9771840667724,-0.0290232952684164,0.0475287921726703,-0.5640169978141785,0.8238832354545593,-0.33569439470292,6.187295010759697,0.8740547990269821,-0.0294323004782199,-0.0929837897419929,0.1468773335218429,-1.4272465762495996,-0.5326934058219195,-10.159752373695374,14956.0
38.5,10.199999809265137,89.0,20.318279266357425,25.588808059692383,-79.78249144009193,40.45916138117826,291.9419820404052,-0.0318624675273895,0.0487587340176105,-0.5660380125045776,0.8223188519477844,-0.3649459385021085,6.170426653425808,0.8414446833087064,-0.0111241834238171,-0.2485484331846237,0.204425185918808,-1.1221305312216283,-0.6475273125618697,-10.125688834190369,14956.0
38.71,10.199999809265137,88.0,20.68638229370117,21.41412734985352,-79.78247811345402,40.459166001708006,291.9968812561035,-0.0390774197876453,0.0539795570075511,-0.569936215877533,0.8189822435379028,-0.4420113114939966,6.093766200259067,0.9886353527143614,0.098477303981781,-0.0611832775175571,0.0221456382423639,-1.3992268650233746,-0.5299106793478131,-9.961297874450684,14956.0
38.8,10.100000381469728,88.0,20.67511367797852,22.33653259277344,-79.78247142794021,40.45916837011136,291.94908119201665,-0.0453301146626472,0.0596284717321395,-0.5705034732818604,0.8178725242614746,-0.4913350190564292,6.0646994638122855,0.95523802570759,0.057333517819643,-0.0045785028487443,0.0679768323898315,-1.6279611705243588,-0.5684452557563782,-9.489128193855286,14956.0
39.0,10.100000381469728,83.0,20.67636489868164,21.55725860595703,-79.78245819113867,40.45917309700719,291.94656349182134,-0.0548388250172138,0.0626585111021995,-0.5681025981903076,0.8187344074249268,-0.5323641814788088,6.004190336164192,1.060852255790274,0.0296201258897781,0.1052941605448722,-0.0003740709507837,-1.8334522090852257,-0.6242693544924259,-9.267793539762495,14956.0
39.2,10.0,82.0,20.58746910095215,22.654603958129893,-79.78244514419664,40.45917774085417,291.9641473388672,-0.0364274233579635,0.0596294626593589,-0.5643484592437744,0.8225741386413574,-0.4553093503225574,6.0035977872646376,0.9062232886515982,0.1804694533348083,0.1752872318029403,-0.0719247385859489,-1.7482721641659738,-0.3409462111070752,-9.244647336602211,14956.0
39.31,10.0,82.0,20.65132522583008,22.26496696472168,-79.78243849241363,40.45918008648136,291.95523429870605,-0.0298993270844221,0.0580159649252891,-0.5622576475143433,0.8243826031684875,-0.4486224348092625,6.0119789254713405,0.7992266684155678,-0.1241201311349868,0.1265825778245926,-0.1937399208545684,-1.5751312847435477,-0.4568712813779712,-9.440992745161056,14956.0
39.4,10.0,83.0,20.49231338500977,23.473636627197266,-79.78243202880356,40.459182391872375,291.96045280456536,-0.0252435244619846,0.0553351044654846,-0.5615243911743164,0.8252219557762146,-0.4007429821440767,5.973709700666988,0.7197439752834509,0.0404022857546806,-0.0321372412145137,-0.0174992159008979,-1.7197949083149433,-0.5062412600219249,-9.479448128342629,14956.0
39.61,10.100000381469728,86.0,20.771520614624023,20.388347625732425,-79.78241912137214,40.45918694774085,291.9622800445556,-0.0251701734960079,0.0552363693714141,-0.5627049207687378,0.8244262933731079,-0.3872282290811319,5.9020428887878165,0.6612933462899764,-0.1551792621612548,-0.1436438560485839,-0.0368904583156108,-1.6182502609491352,-0.7794563582539559,-9.64472903430462,14956.0
39.8,10.199999809265137,87.0,20.82285499572754,20.77003288269043,-79.78241279787984,40.45918919753122,291.9707772827148,-0.0307483449578285,0.0545566007494926,-0.5628872513771057,0.8241578340530396,-0.3980900535564228,5.840413706671401,0.6612563897834335,-0.0411683656275272,-0.2198492735624313,0.1087527647614479,-1.7523011881113053,-0.5716638556122781,-9.50145821750164,14956.0
39.91,10.300000190734863,88.0,20.71267509460449,22.09798049926757,-79.78240009724078,40.45919366632294,291.95633865356444,-0.0428733266890049,0.0621374770998954,-0.5608328580856323,0.8244799971580505,-0.390699466726232,5.76828804239017,0.7268311745856152,0.0739243105053901,-0.2010829895734787,0.0324695818126201,-1.7982527017593384,-0.5474549575522543,-9.167520223259926,14956.0
40.1,10.300000190734863,88.0,20.77277374267578,21.30280303955078,-79.78238755509155,40.45919812540989,291.93760658264165,-0.0482367277145385,0.0659879818558693,-0.5584986805915833,0.8254684805870056,-0.3676822532354716,5.7314405706895,0.8327762596456079,0.1355004161596298,0.177077442407608,0.021066840738058,-1.5263500110805035,-0.7453324462473393,-9.508322263956073,14956.0
40.2,10.399999618530272,85.0,20.737716674804688,21.87532997131348,-79.78238136814157,40.45920036096086,291.9343030548096,-0.0493436716496944,0.0685057044029235,-0.5579296946525574,0.8255826830863953,-0.3834939763394809,5.74368063987894,0.8153965722600104,-0.0638242289423942,-0.0165278408676385,-0.1947553008794784,-1.4554555910825733,-0.3799412922933698,-9.265342386960985,14956.0
40.31,10.399999618530272,83.0,20.728952407836918,22.70231437683105,-79.78237497993109,40.45920255741791,291.9195001220703,-0.0526621490716934,0.069958209991455,-0.5572451949119568,0.8257181644439697,-0.3557738121505773,5.72546918909,0.8090449594808675,0.0874440893530845,-0.1046056821942329,-0.0628900080919265,-1.4364348909258844,-0.7052053441107273,-9.177185086011889,14956.0
40.5,10.399999618530272,84.0,20.877944946289062,20.777984619140625,-79.78236255741379,40.459206981782366,291.8944242095946,-0.060246504843235,0.0733593478798866,-0.5533900856971741,0.8274952173233032,-0.3474722327784929,5.728378189029068,0.7806941724267557,0.0468528196215629,-0.0179167184978723,-0.2255296558141708,-1.618796683251858,-0.5997859296575189,-8.808463760018347,14956.0
40.6,10.399999618530272,85.0,20.77652931213379,22.0025577545166,-79.78235640185595,40.4592092283779,291.86847091674804,-0.0610418021678924,0.0773166790604591,-0.5503231287002563,0.8291202783584595,-0.3187796259104933,5.744515113440013,0.7175698651443373,0.1529356986284256,-0.0374372191727161,-0.0426595918834209,-1.5221980494260792,-0.7329994259029627,-8.687386050224305,14956.0
40.81,10.399999618530272,82.0,20.519859313964844,23.88712882995605,-79.7823439882436,40.45921368197693,291.791795501709,-0.0402981638908386,0.08501797914505,-0.5442465543746948,0.8336328268051147,-0.2076953266485719,5.774164217891414,0.624754898101026,0.2419092059135437,0.2185285985469818,-0.0264608822762966,-1.3448977531492712,-0.7363649370521307,-9.252462140321732,14956.0
41.0,10.399999618530272,81.0,20.19933319091797,26.65434646606445,-79.78233158803361,40.45921808217391,291.71146942138665,-0.026917528361082,0.083999715745449,-0.5457429885864258,0.8332971334457397,-0.1390107072512846,5.812940438812634,0.4449917377860052,-0.1810025870800018,-0.0143109681084752,-0.1332330107688903,-1.199116945937276,-0.9067738511413336,-9.619315865635873,14956.0
41.11,10.300000190734863,82.0,20.32203483581543,25.93073463439941,-79.78232537256986,40.45922029256118,291.67437911987304,-0.0366721861064434,0.0783445388078689,-0.5477022528648376,0.832189679145813,-0.1363016676482706,5.8201838508368215,0.4152566710572033,-0.1839031130075454,-0.1776549369096756,0.1697545200586319,-1.3866837103664875,-1.092866897955537,-9.577585456967354,14956.0
41.2,10.199999809265137,82.0,20.345823287963867,25.708086013793945,-79.78231914986522,40.45922249621522,291.63742233276366,-0.0481594949960708,0.0742155089974403,-0.5488603711128235,0.8312190175056458,-0.1627382811881227,5.807345707113634,0.4738454331995324,-0.1938126534223556,-0.3312245309352875,0.1390734016895294,-1.5764388683438302,-0.9721561009436848,-9.580944682359696,14956.0
41.4,10.100000381469728,85.0,20.0340633392334,28.841083526611328,-79.7823067305411,40.45922693432095,291.5522916412353,-0.056075744330883,0.0783390030264854,-0.5490453243255615,0.8302214741706848,-0.207301914986174,5.799824329863442,0.6412420720142901,-0.0381104052066803,-0.1072640493512153,-0.0814561396837234,-1.5905224719643594,-0.7012067256867885,-9.549315923452378,14956.0
41.6,10.0,85.0,20.077884674072266,28.24470138549805,-79.78229413253365,40.45923140832576,291.46403099060063,-0.0531024448573589,0.0837546959519386,-0.54781574010849,0.8307003974914551,-0.2016614553028402,5.83578001821212,0.7144821583389945,0.0738517045974731,0.0597078129649162,-0.1554752141237259,-1.5924399201571942,-0.8858778027445078,-9.65660823762417,14956.0
41.7,9.899999618530272,85.0,19.9414119720459,29.09554100036621,-79.78228782662634,40.45923364243392,291.43179489135736,-0.0526155605912208,0.0866220518946647,-0.5466691851615906,0.8311926126480103,-0.1939816672938988,5.868412772943041,0.7414955393723006,-0.0460181683301925,-0.0221757311373949,-0.0552928894758224,-1.5086132133007049,-0.7038028163462877,-9.88536125421524,14956.0
41.8,9.800000190734863,86.0,19.753604888916016,30.924448013305664,-79.78228132170727,40.459235926062185,291.35848785400384,-0.0513843894004821,0.0859716534614563,-0.5456941127777101,0.8319774270057678,-0.1608308953557796,5.894049631436587,0.7820103535129561,0.0196166094392538,0.1752431094646454,0.0269673243165016,-1.6729793223738672,-0.7001574428379536,-9.909400327205658,14956.0
42.0,9.600000381469728,84.0,19.786157608032227,30.598426818847656,-79.78226847930887,40.45924057155812,291.2594850158692,-0.0451457984745502,0.0780370011925697,-0.5437294244766235,0.8344042897224426,-0.1389803820201523,5.94441882351766,0.786573204190624,-0.1598386615514755,0.0418205372989177,0.0536490529775619,-1.5226444843411446,-1.0653058277070522,-10.15243633747101,14956.0
42.1,9.600000381469728,87.0,19.952680587768555,29.055782318115234,-79.78226204248105,40.45924283469471,291.2401330566406,-0.0434728786349296,0.0695294290781021,-0.5426223874092102,0.835964560508728,-0.1260088379931867,5.977802589091576,0.8015867671051295,-0.1669254004955291,0.1251934319734573,-0.0552840456366539,-1.4387351855635644,-0.6643911941349506,-10.11065681219101,14956.0
42.3,9.5,88.0,19.90760612487793,29.604454040527344,-79.78224897368145,40.45924745550789,291.15451217651366,-0.0430108197033405,0.0664271712303161,-0.5441523194313049,0.8352459669113159,-0.0886205521936067,6.027524822987296,0.7491434641382212,0.0779812783002853,-0.1295070797204971,0.2496827989816665,-1.2930155548453333,-0.7817994837462903,-10.309622358083724,14956.0
42.5,9.399999618530272,88.0,19.94767189025879,29.604454040527344,-79.78223594279528,40.45925220928507,291.0868280029297,-0.0378310121595859,0.0791074931621551,-0.5494515299797058,0.8309115171432495,-0.1570306387757181,6.043338909692313,0.8609888399169365,0.1118208616971969,-0.0878982692956924,0.1402695327997207,-1.4436458234488965,-0.654935076981783,-10.37135375261307,14956.0
42.6,9.199999809265137,88.0,19.868793487548828,29.516984939575195,-79.78222938134337,40.4592544986675,291.0846994018554,-0.034937385469675,0.0789804235100746,-0.551927387714386,0.8294081091880798,-0.2067723650815998,6.05997677864578,0.9083415142474622,-0.1407050341367721,-0.0102754766121506,0.148369699716568,-1.4089174555242063,-0.933259545341134,-10.132843487262727,14956.0
42.71,9.100000381469728,89.0,20.07162475585937,28.06180953979492,-79.78222279578519,40.45925678195224,291.08764053344726,-0.0337772965431213,0.070978432893753,-0.5544073581695557,0.8285249471664429,-0.2222480316374314,6.06652921246812,0.9259826184226329,-0.1406566351652145,0.1779179871082306,0.0675099045038223,-1.3881433215737344,-0.4719550512358546,-10.098295798301695,14956.0
42.9,9.0,89.0,20.12295913696289,26.75771903991699,-79.78220948165016,40.459261474872754,291.02214599609374,-0.0282816439867019,0.0528810247778892,-0.5584588050842285,0.8273618817329407,-0.2538038581879377,6.088595652806461,0.7669574799834352,-0.1674404591321945,0.208443135023117,-0.1746535450220108,-1.3129589456319808,-0.2210537501983344,-9.892039943933488,14956.0
43.1,8.899999618530273,89.0,20.198081970214844,25.95458984375,-79.78219627365476,40.459266190792725,290.97986389160155,-0.023132199421525,0.0357863791286945,-0.5610191226005554,0.8267053961753845,-0.3242232241848247,6.046743970051263,0.5562825880266271,-0.1470162123441696,0.0350519865751266,0.0087091606110334,-1.232162412106991,-0.554350615516305,-9.856629205942154,14955.0
43.21,8.800000190734863,95.0,20.399662017822266,24.491464614868164,-79.78218978357724,40.4592684712605,290.98201538085937,-0.0219065099954605,0.0329590402543544,-0.5615837574005127,0.8264729976654053,-0.3344585812800262,6.010439199631263,0.474523200196294,0.0394692830741405,0.1080641895532608,0.0680747926235199,-1.1169126952439548,-0.4396754606813192,-9.711974353194238,14955.0
43.31,8.699999809265138,98.0,20.198081970214844,25.80350685119629,-79.78218321029706,40.45927092674061,290.95017028808587,-0.0228333454579114,0.0345211029052734,-0.5620613694190979,0.8260593414306641,-0.3726433964946536,5.986030352586676,0.3914958140264656,-0.0255968477576971,-0.1995590627193451,0.0290173925459384,-1.2092995065450671,-0.6122965957224369,-9.598739513754843,14955.0
43.5,8.600000381469728,98.0,20.327043533325195,24.68230628967285,-79.78217027349736,40.459275549374496,290.93529296875,-0.0258881524205207,0.0404137335717678,-0.5607257485389711,0.8266094326972961,-0.4259851444917973,5.92434235589083,0.413157760635151,-0.1280156075954437,-0.0867837592959404,-0.2456113845109939,-1.2616136679053307,-0.2896656547486782,-9.46243565440178,14955.0
43.6,8.600000381469728,98.0,20.270700454711918,25.588808059692383,-79.78216397397642,40.45927785048854,290.9266259765625,-0.025773225352168,0.0431102216243743,-0.5593897104263306,0.8273817300796509,-0.3970362218497143,5.876773118177747,0.4018114121991083,0.1673448532819748,-0.0922234952449798,0.0629334971308708,-1.1062739787250755,-0.7132537440955641,-9.498237571120262,14955.0
43.8,8.399999618530272,95.0,20.41969490051269,24.54712677001953,-79.78215124999566,40.45928237300007,290.91341949462884,-0.0222608912736177,0.0537705458700656,-0.5567461848258972,0.8286416530609131,-0.3471195303376849,5.850940526616329,0.3639777352551401,0.0498747527599334,-0.0084644416347146,-0.0536784194409847,-0.920700895562768,-0.5458138999342919,-9.419949785470962,14955.0
44.0,8.399999618530272,93.0,20.154260635375977,26.9724178314209,-79.78214501316906,40.45928464149575,290.89541984558105,-0.0236169341951608,0.0554771274328231,-0.5556594133377075,0.8292208909988403,-0.3328238804267066,5.829625654029102,0.3368262594237101,0.0982632413506508,0.0517817847430706,0.046815201640129,-0.8294203043729067,-0.8452992224693299,-9.365635583996774,14955.0
44.1,8.300000190734862,93.0,20.02655029296875,28.47530174255371,-79.78213232755144,40.45928907504968,290.8640630340576,-0.0238873939961195,0.0516841858625412,-0.5524667501449585,0.831588089466095,-0.2998088541279287,5.813133943861505,0.331120693892626,-0.122888796031475,0.0218608975410461,-0.1090819016098976,-1.1412216172367335,-0.484047933742404,-9.567245240807534,14955.0
44.3,8.199999809265138,93.0,20.012779235839844,28.29241180419922,-79.7821197695712,40.45929342617313,290.8436658477783,-0.0165343303233385,0.0504062622785568,-0.549285888671875,0.8339490294456482,-0.2481786479542875,5.779010499616108,0.3320485692810572,0.0080715976655483,-0.017824862152338,0.0463235042989254,-1.0267028023302556,-0.9351680034399034,-9.909078730344774,14955.0
44.41,8.100000381469728,94.0,20.26193618774414,25.64447021484375,-79.78211360875136,40.45929565830597,290.82860733032226,-0.0158089231699705,0.0515194721519947,-0.5488696098327637,0.8341690301895142,-0.216529972110365,5.769111838818223,0.3266837737166141,-0.0215428099036216,-0.0510363467037677,-0.1396210491657257,-0.9627609410136938,-0.6799656184762717,-9.938924088478087,14955.0
44.5,8.100000381469728,93.0,20.26944923400879,25.811458587646484,-79.78210736185048,40.45929774100244,290.84030700683587,-0.0171175599098205,0.0536504462361335,-0.5488988161087036,0.8339896202087402,-0.1897627743477572,5.730266008116421,0.3671837897935929,0.1394346803426742,0.0223267152905464,-0.0612235367298126,-0.8736468163132668,-0.5517089896649122,-9.803743479251862,14955.0
44.71,8.0,94.0,20.027803421020508,28.642290115356445,-79.78209513946933,40.45930213534221,290.8208711242676,-0.0216822456568479,0.0588012263178825,-0.5494164228439331,0.8331950306892395,-0.2016856878466984,5.6990163134542415,0.4298481588869601,-0.0129552464932203,-0.1780428886413574,-0.0113303074613213,-1.2423248729109764,-0.758571565747261,-9.73218700826168,14955.0
44.9,8.0,94.0,20.111690521240234,27.457475662231445,-79.78208274209274,40.45930644635831,290.8231103515625,-0.0262549817562103,0.0584573931992054,-0.5503080487251282,0.8324990272521973,-0.217603799365714,5.693728924391909,0.5473356771452704,-0.2849351465702057,-0.0918126106262207,-0.080551877617836,-0.8999275656044483,-0.4243673770129681,-9.738318983316422,14955.0
45.0,7.900000095367432,93.0,20.09666633605957,27.179162979125977,-79.78207653004705,40.459308559234046,290.815139541626,-0.0329363606870174,0.053882498294115,-0.5507684946060181,0.8322656154632568,-0.185073914886983,5.701645078406756,0.5801818230718656,-0.0082299280911684,-0.0278021395206451,0.0090945772826671,-0.6985659769177437,-0.4760359692201019,-9.900944083929064,14955.0
45.2,7.800000190734862,94.0,20.0879020690918,27.9266300201416,-79.78206422990509,40.45931291099304,290.8125283813476,-0.0404439233243465,0.051744095981121,-0.5519203543663025,0.8313066363334656,-0.2185920538669896,5.7222693235900906,0.6874938997083799,0.0210799593478441,-0.0431580655276775,0.1080859676003456,-1.1078610592335465,-0.2326475728489458,-9.783565322756766,14955.0
45.3,7.800000190734862,94.0,19.95393180847168,28.92855262756348,-79.78205799127953,40.4593150637013,290.8094861602783,-0.0433031395077705,0.0494533441960811,-0.5520631074905396,0.831207275390625,-0.2544707313425353,5.7481225638743485,0.722951788839611,-0.1314590722322464,0.0040816250257194,0.1687492281198501,-0.9911599172651768,-0.3517910419777036,-9.861315164566038,14955.0
45.4,7.800000190734862,94.0,20.04783630371093,28.03000259399414,-79.7820517875541,40.45931728640421,290.81160903930663,-0.0434489510953426,0.051050316542387,-0.5517851114273071,0.8312877416610718,-0.2463061102064514,5.772819140127566,0.7555777700489656,0.1436232030391693,-0.1366987526416778,0.1631038933992386,-0.9300147791951896,-0.7137199864536524,-9.87978768825531,14955.0
45.61,7.699999809265138,92.0,20.09541320800781,27.7039794921875,-79.78203929285286,40.45932168648096,290.812188873291,-0.0386176519095897,0.0570838302373886,-0.5507339239120483,0.8318307399749756,-0.2674558467035138,5.811469243771841,0.76898837171239,-0.0159767176955938,-0.0307089854031801,-0.0338869951665401,-0.9079908028990028,-0.7747408711910249,-9.865396521091462,14955.0
45.8,7.699999809265138,92.0,20.151756286621094,26.67820167541504,-79.78203302818709,40.45932395219403,290.8147504425049,-0.03750516846776,0.0563955940306186,-0.5508572459220886,0.8318469524383545,-0.2614451394958614,5.8287996315830695,0.7588987181650944,0.0037428131327033,0.1208111941814422,0.0401986688375473,-0.9703366667032244,-0.5682759057730437,-9.71478861808777,14955.0
45.9,7.599999904632567,91.0,20.27570915222168,25.127605438232425,-79.7820203362281,40.45932851500184,290.82440925598144,-0.0392193607985973,0.0504634790122509,-0.5524740815162659,0.8310762643814087,-0.2718080556424285,5.876353716148508,0.7368395427840387,0.0892566666007042,0.1487216502428054,-0.0618849173188209,-0.984845289811492,-0.4663838607072831,-9.572406578063967,14955.0
46.11,7.599999904632567,91.0,20.180553436279297,26.622539520263672,-79.7820077181171,40.45933317296798,290.8266713714599,-0.0372578278183937,0.050729900598526,-0.5535594820976257,0.8304277062416077,-0.3035190310335853,5.874966501082481,0.6911059078238356,0.2322250306606293,0.1032885983586311,0.0423987470567226,-1.1195668195188049,-0.1646743121556937,-9.448046241402627,14955.0
46.21,7.599999904632567,92.0,20.27570915222168,25.54904937744141,-79.78200140946635,40.459335476898985,290.82517028808587,-0.0321074500679969,0.0539016872644424,-0.5546597838401794,0.8297086358070374,-0.3255532476712771,5.894449597366103,0.6744279490968145,-0.008319822140038,0.0737904384732246,0.0436821021139621,-1.0321784274280073,-0.0956469081155955,-9.592033342123033,14955.0
46.3,7.599999904632567,92.0,20.36710929870605,24.41989707946777,-79.78199530212108,40.459337738369456,290.8318688964844,-0.0297901406884193,0.0574265494942665,-0.5561398863792419,0.8285670280456543,-0.3014302887896981,5.858671024136893,0.630833606367037,0.2118904739618301,0.067570149898529,-0.0843000411987304,-1.0457157549262048,-0.351209499835968,-9.555706930160524,14955.0
46.5,7.699999809265138,91.0,20.32203483581543,25.42182159423828,-79.78198279374763,40.459342330240055,290.82885528564447,-0.0363142155110836,0.0586804933845996,-0.5582115054130554,0.8268240094184875,-0.3520207383859699,5.850071167041558,0.6022755341735168,-0.0763767510652542,-0.0700927078723907,-0.04553934186697,-1.1594889767467975,-0.460183546319604,-9.394964632987977,14955.0
46.7,7.699999809265138,90.0,20.22938346862793,26.04205894470215,-79.78197020954731,40.459346856650654,290.80621124267583,-0.0411180108785629,0.0575654804706573,-0.5567640662193298,0.8276529312133789,-0.3289620351419128,5.868124062442218,0.5985808345796031,0.0556939579546451,-0.0250601433217525,-0.0560602247714996,-1.1583294738829135,-0.1890495452284813,-9.337904579043393,14955.0
46.8,7.699999809265138,89.0,20.20183753967285,26.495309829711918,-79.78196387876919,40.45934915707764,290.81307388305663,-0.0394141413271427,0.056964598596096,-0.5547251701354979,0.8291451334953308,-0.3464898342302353,5.886417324265149,0.6079661852630616,-0.1284758597612381,-0.0029868579003959,-0.120264858007431,-1.0417475420236588,-0.1964705389738083,-9.301983379125597,14955.0
46.9,7.699999809265138,88.0,19.968955993652344,29.44541931152344,-79.78195755797535,40.45935143239245,290.79510665893554,-0.0373365618288517,0.0576655380427837,-0.5523103475570679,0.8308031558990479,-0.2877065751822828,5.900162422013339,0.5491966598824821,0.1463043093681335,-0.0337077863514423,0.025360906496644,-0.9613139744102956,-0.7309268072247506,-9.429338659644127,14955.0
47.11,7.800000190734862,88.0,20.00651741027832,28.83313179016113,-79.7819448994773,40.45935588418792,290.7795598602295,-0.031287882477045,0.057817842811346,-0.5482268333435059,0.8337419033050537,-0.1990791210509028,5.914977706880348,0.5226813160369753,0.122125506401062,0.0557151176035404,-0.0879939496517181,-0.9386060931533576,-0.6564745026826859,-9.967345064878463,14955.0
47.3,7.800000190734862,88.0,19.88131332397461,29.604454040527344,-79.7819385389261,40.45935814023058,290.76119972229014,-0.0280870143324136,0.0591709986329078,-0.5474967956542969,0.8342405557632446,-0.1773252023471152,5.931076260490304,0.4959375967778296,-0.0678155496716499,0.047606561332941,-0.0861036032438278,-1.0710245507955551,-0.21958534989506,-9.618545202612877,14955.0
47.4,7.800000190734862,88.0,19.79366874694824,30.42348670959473,-79.78192565573589,40.45936265530463,290.73789955139165,-0.0259386226534843,0.0557239539921283,-0.5479921102523804,0.8342222571372986,-0.1353868382244893,5.933807001795608,0.5234397083289459,-0.1248751133680343,0.0505524352192878,0.0297832135111093,-0.9553438941389324,-0.6518413882702591,-10.153795230388642,14955.0
47.5,7.900000095367432,90.0,19.976469039916992,28.53096389770508,-79.78191930714787,40.459364955662906,290.7196195220946,-0.0288153197616338,0.0492315180599689,-0.5472590327262878,0.8350170254707336,-0.1613964553114097,5.930248052352827,0.5357019827744917,-0.1725406050682068,-0.050971183925867,-0.100774846971035,-1.182773101106286,-0.4781519669294357,-9.980297816991808,14955.0
47.7,7.900000095367432,91.0,20.04408073425293,28.45939826965332,-79.78190658118822,40.4593694486822,290.7103936767578,-0.0321916565299034,0.0530041567981243,-0.5471164584159851,0.8347562551498413,-0.1379060945286022,5.9184626187243765,0.5913305624566368,0.0843204855918884,-0.1762477606534958,-0.0051812450401484,-1.1693469437956812,-0.3522209950536489,-9.875622131824494,14955.0
47.8,7.900000095367432,91.0,19.84124755859375,30.336017608642567,-79.7819002058854,40.459371761132815,290.6913220977783,-0.0310133602470159,0.0605582445859909,-0.5479699373245239,0.8337265253067017,-0.150301361718153,5.906788074634832,0.6166509645287671,0.2006746679544448,0.0234196670353412,0.0593271553516388,-1.121195926889777,-0.3890986898168921,-9.811546003818512,14955.0
