time,wind_speed,wind_angle,battery_voltage,battery_current,position_x,position_y,position_z,orientation_x,orientation_y,orientation_z,orientation_w,velocity_x,velocity_y,velocity_z,angular_x,angular_y,angular_z,linear_acceleration_x,linear_acceleration_y,linear_acceleration_z,node_ids
0.0,0.1000000014901161,312.0,25.449182510375977,-0.1908425688743592,-79.78280487796219,40.45905095840846,267.0676869969368,0.0030057523399591,0.0125724393874406,0.2651699185371399,0.9641150832176208,-0.0379790271319229,-0.0111947783060877,0.0029382047578726,6.096933066146448e-05,0.0001260697463294,0.0093072885647416,0.1082833898160606,-0.2640109960734844,-9.804403629899024,14932.0
0.19,0.1000000014901161,313.0,25.4654598236084,-0.2067461162805557,-79.78280491086792,40.45905093174354,267.0680715661049,0.0029997953679412,0.0125775737687945,0.2651870250701904,0.9641103744506836,-0.0438642782609805,-0.0118205639555855,0.0032815979533136,-0.0040522348135709,-0.0028328036423772,-0.0092769432812929,0.1091717463266104,-0.2605330356582999,-9.804989520907403,14932.0
0.3,0.1000000014901161,317.0,25.47171974182129,-0.2306014448404312,-79.78280480072588,40.45905094423468,267.0617410759926,0.00297990324907,0.0126222092658281,0.2651840150356293,0.9641106724739076,-0.0390426136841687,-0.01263249874746,0.0019881681420271,-0.0040482589974999,-0.0023011933080852,-0.0102532329037785,0.1160120110586285,-0.2838449525646865,-9.80778098165989,14932.0
0.49,0.1000000014901161,318.0,25.4654598236084,-0.2146978974342346,-79.78280466569427,40.45905101160317,267.0555480341912,0.0029515612404793,0.0126673402264714,0.265199214220047,0.9641059637069702,-0.0246643115625948,-0.0058369493887688,0.0008483270330447,0.0068958634510636,0.0034072957932949,0.0084800412878394,0.1123293067328632,-0.2835987847857177,-9.806482899785044,14932.0
0.6,0.1000000014901161,326.0,25.46170234680176,-0.1828908026218414,-79.7828047178972,40.45905097452588,267.0558822374344,0.0029575258959084,0.0126566514372825,0.2652086913585663,0.9641034603118896,-0.0346205253753155,-0.0075594903286127,0.0012739780841214,0.0054922951385378,-0.0001160192405222,0.0005672814440913,0.1106919036246836,-0.2731653055362403,-9.80683373272419,14932.0
0.79,0.1000000014901161,329.0,25.454191207885746,-0.1908425688743592,-79.78280457150403,40.45905100354185,267.04938467550284,0.0029570742044597,0.0126657132059335,0.2652079164981842,0.9641035199165344,-0.0296877691684264,-0.0128725989864592,0.0004958808577829,-0.0029106724541634,-0.0007545340922661,0.0049615101888775,0.1112766251899302,-0.2818294173292816,-9.807974524497986,14932.0
0.9,0.1000000014901161,340.0,25.466711044311523,-0.1749390214681625,-79.78280449518594,40.45905104091503,267.04210465359694,0.0029248176142573,0.0126741277053952,0.265207976102829,0.9641035199165344,-0.0282822190933381,-0.0061556988652643,-0.0030832000553492,0.0011164951138198,0.0013993415050208,0.0078933304175734,0.1069950928911566,-0.2649429874308408,-9.805791174173356,14932.0
1.1,0.1000000014901161,344.0,25.45919990539551,-0.1669872552156448,-79.78280452235202,40.459051021635645,267.0418742518425,0.0029588362667709,0.0126576153561472,0.2651817798614502,0.9641108512878418,-0.0334555989639984,-0.0070372847946807,-0.0028102768014177,-0.0031039188615977,-0.0001244967716047,-0.0091703832149505,0.1060615209583193,-0.2624589988589287,-9.805646163225177,14932.0
1.19,0.1000000014901161,353.0,25.449182510375977,-0.1749390214681625,-79.78280441296013,40.45905103384619,267.03818684029585,0.0029903943650424,0.0126976873725652,0.2651742398738861,0.9641122817993164,-0.0303028611581261,-0.0141019150671022,0.0016378829308977,-0.0032305028289556,-0.0004634358629118,-0.0120129296556115,0.1153337523154914,-0.2887951870635152,-9.809040471911429,14932.0
1.4,0.1000000014901161,355.0,25.46796417236328,-0.1828908026218414,-79.78280443486382,40.45905100892684,267.03840961265564,0.0029764315113425,0.0126928081735968,0.2651632726192474,0.9641154408454896,-0.0333793962187475,-0.0153484355172121,0.001672714767755,0.0067636640742421,0.001795107149519,0.0140065336599946,0.1210923278331756,-0.287374953199178,-9.808382660150526,14932.0
1.5,0.1000000014901161,0.0,25.46796417236328,-0.1828908026218414,-79.78280434963662,40.459051091218704,267.03326829481125,0.0029438384808599,0.0126889161765575,0.2651762366294861,0.9641119837760924,-0.0271931206726886,-0.003411262926221,0.0007840330463416,0.0081982631236314,0.0012728340225294,0.0112725067883729,0.1077517591416835,-0.2632044823095202,-9.805944955945016,14932.0
1.69,0.1000000014901161,2.0,25.45794677734375,-0.1749390214681625,-79.78280437688417,40.45905107519884,267.0334299128056,0.0029367227107286,0.0127117037773132,0.2651991546154022,0.9641053676605223,-0.0334188937219787,-0.0039259163917221,0.00102798238826,-0.0081661976873874,-0.0025027319788932,-0.0076332190074026,0.1094159680791199,-0.2694305061735213,-9.806437291502952,14932.0
1.79,0.2000000029802322,7.0,25.470468521118164,-0.1828908026218414,-79.78280423608751,40.4590510999899,267.0290697734356,0.0029240271542221,0.0127471107989549,0.2651523649692535,0.9641178846359252,-0.0267805758480694,-0.0102712289357536,0.000630074395654,-0.0077034193091094,-0.0033205144573003,-0.0058219591155648,0.1112894159741699,-0.2790511493571103,-9.806118033528328,14932.0
1.99,0.2000000029802322,6.0,25.45794677734375,-0.1828908026218414,-79.78280414782287,40.45905117155631,267.0249786894321,0.0028853069525212,0.0127480449154973,0.265159398317337,0.9641159772872924,-0.0215293803777899,-0.0025396399756217,0.0001461442210601,0.0067622307687997,0.001450874377042,0.0020844959653913,0.1114011160656809,-0.2755935993790627,-9.806157794594766,14932.0
2.1,0.2000000029802322,10.0,25.460451126098643,-0.1828908026218414,-79.78280419685446,40.45905114294576,267.02515350985533,0.0028684965800493,0.0127429421991109,0.2651498019695282,0.9641187787055968,-0.0307117757996376,-0.0040764990740669,0.0003309834932229,0.0049445498734712,0.0016737350961193,-0.0020324238575994,0.1111771494336426,-0.2758027469739318,-9.806330872178078,14932.0
2.29,0.2000000029802322,14.0,25.45168685913086,-0.198794350028038,-79.78280411435951,40.45905119079558,267.0226931195259,0.002868405310437,0.0127489902079105,0.2651468813419342,0.9641194939613342,-0.0300114307801069,-0.0046555280326462,0.0036278628385045,-0.0038977833464741,9.624106314731762e-05,0.0047349305823445,0.1137875931803137,-0.2821997105330229,-9.807148897647858,14932.0
2.39,0.2000000029802322,18.0,25.454191207885746,-0.1749390214681625,-79.78280404814879,40.45905124219788,267.0188342254162,0.0028424803167581,0.0127732334658503,0.2651366591453552,0.9641221165657043,-0.0270025668246228,-0.0020903862505802,0.0019860946772513,0.0038811636622995,0.0038517739158123,0.0073987166397273,0.1091205831896513,-0.2632468746230006,-9.805351463556288,14932.0
2.59,0.2000000029802322,19.0,25.456695556640625,-0.1749390214681625,-79.78280407682813,40.45905122663629,267.01911344337464,0.002851395169273,0.0127815371379256,0.2651241421699524,0.9641254544258118,-0.0328746883492025,-0.0025492129877608,0.0022578269414526,-0.0075750323012471,-0.0028594243340194,-0.0109164295718073,0.1069060690328478,-0.2620241670124233,-9.805460221767426,14932.0
2.7,0.1000000014901161,20.0,25.46295547485352,-0.1828908026218414,-79.78280398894475,40.459051251710896,267.0170546989441,0.0028617272619158,0.0128300217911601,0.2651021480560303,0.9641307592391968,-0.0309892048591183,-0.0095697021493138,0.005047966945122,-0.0066464114934206,0.0016314203385263,-0.0062576062045991,0.1145664514414966,-0.2822661860659719,-9.806768828630448,14932.0
2.89,0.2000000029802322,16.0,25.45544242858887,-0.1749390214681625,-79.78280401459061,40.45905122964985,267.0176256518364,0.0028483963105827,0.0128437243402004,0.265073299407959,0.9641385674476624,-0.0341060449546037,-0.0107382530044695,0.0050878275102362,0.0064277257770299,0.0020651912782341,0.0028937452007085,0.1104874520748853,-0.2738743535242975,-9.806172412633895,14932.0
2.99,0.2000000029802322,6.0,25.456695556640625,-0.1908425688743592,-79.78280394303334,40.45905127968057,267.0142319123745,0.002836620202288,0.0128547931089997,0.2650917470455169,0.964133322238922,-0.0302752127437859,-0.0083934067570771,0.0034063324611528,-0.0013104362878948,-0.0019339232239872,-0.0035107077565044,0.1122411599569022,-0.282807455509901,-9.80750908613205,14932.0
3.19,0.2000000029802322,11.0,25.470468521118164,-0.1669872552156448,-79.78280396860019,40.45905125904383,267.01464494276047,0.002810226753354,0.0128788137808442,0.2651318609714508,0.9641220569610596,-0.0340363292830912,-0.0091040436754919,0.0035186694414338,0.0038116965442895,0.0012638333719223,0.0089400755241513,0.1163133436627686,-0.2847149268910289,-9.808021886944774,14932.0
3.3,0.2000000029802322,347.0,25.456695556640625,-0.198794350028038,-79.78280391264839,40.459051303503024,267.0109389345646,0.0028049896936863,0.0129353227093815,0.2650917172431946,0.9641324281692504,-0.0327728861749179,-0.008004074763267,0.0017727067225435,0.0056927842088043,0.0031965544912964,0.0134139545261859,0.1089983124285936,-0.2595604426972568,-9.803986723423003,14932.0
3.49,0.3000000119209289,327.0,25.45794677734375,-0.1828908026218414,-79.78280381601304,40.45905138036359,267.00740828323364,0.0027831457555294,0.0129726603627204,0.2651027739048004,0.9641289114952089,-0.0248517375148609,-0.0051809978394241,0.001128809034701,-0.0084556061774492,-0.000743084878195,-0.0122187044471502,0.109303071135655,-0.2670447142794728,-9.805039222240447,14932.0
3.59,0.3000000119209289,260.0,25.452938079833984,-0.1510837078094482,-79.78280386457803,40.45905134549161,267.0077648978233,0.0027950420044362,0.0129582602530717,0.2650960981845856,0.9641309380531312,-0.03269104850763,-0.0067945782431726,0.0013300049291377,-0.0045516937971115,-0.0004944179090671,-0.0013292020885273,0.1136674785800278,-0.287112248763442,-9.806226791739462,14932.0
3.79,0.3000000119209289,247.0,25.45544242858887,-0.1908425688743592,-79.78280377771426,40.459051410152895,267.0041309814453,0.0028042641934007,0.0129806483164429,0.2650713622570038,0.964137315750122,-0.0280545472114823,-0.0062309470819969,0.0005323904353404,0.0037935352884233,-0.0002433404733892,0.00261169555597,0.1079396557621657,-0.2712896649353206,-9.806651884317398,14932.0
3.9,0.3000000119209289,226.0,25.466711044311523,-0.1828908026218414,-79.78280370667571,40.45905144784869,267.00159563827515,0.0027815455105155,0.0130462851375341,0.2650488615036011,0.9641427397727966,-0.0258676765443612,-0.0094870328225177,0.000633023101056,0.00031037707231,0.0033212115522474,-0.0060300799086689,0.1116796993464231,-0.2835218938998878,-9.80736407518387,14932.0
4.09,0.3000000119209289,228.0,25.470468521118164,-0.1431319266557693,-79.78280372910379,40.459051427375535,267.00170987057686,0.002777456305921,0.0130152711644768,0.2650663256645202,0.964138388633728,-0.0299231541746949,-0.0103017136748285,0.0005668985120816,0.0012271051527932,-0.0001376098953187,0.0092028006911277,0.1155216854810714,-0.2872173890098929,-9.8074611389637,14932.0
4.2,0.3000000119209289,215.0,25.456695556640625,-0.1749390214681625,-79.7828036685092,40.45905150206862,266.9991597752571,0.002732690423727,0.013054977171123,0.2650751173496246,0.9641355872154236,-0.0250577923840186,-0.0019008380555409,0.0003085054935289,0.0056675048545002,0.0016452826093882,0.0121473232284188,0.1101321514975279,-0.2604015281237662,-9.805118159651755,14931.0
4.41,0.3000000119209289,213.0,25.46796417236328,-0.1749390214681625,-79.78280369352858,40.45905148884707,266.9992613117695,0.002733333967626,0.0130751654505729,0.2650699019432068,0.9641366600990297,-0.0300922155747179,-0.0021777896581465,0.000554461922014,-0.0072505446150898,-0.002498714486137,-0.0104032829403877,0.1094335279986262,-0.2653063918836415,-9.805875374078749,14931.0
4.5,0.3000000119209289,207.0,25.46295547485352,-0.1828908026218414,-79.78280361065094,40.45905153629312,266.9971241276264,0.0027163249906152,0.0130994971841573,0.2650782763957977,0.9641341567039492,-0.0267893687655504,-0.0060385671304792,0.0004856792315926,-0.0056401356123387,-0.0020142297726124,0.0010947475675493,0.1106473551504314,-0.2748967757262289,-9.806806250810624,14931.0
4.69,0.3000000119209289,197.0,25.470468521118164,-0.1908425688743592,-79.7828036345428,40.45905151893228,266.9972383003235,0.0026981499977409,0.0131057109683752,0.2650976181030273,0.9641287326812744,-0.0303874664195364,-0.0067173750022307,0.0007186897652578,-0.0021817237138748,-5.147395495441742e-05,-0.0076219993643462,0.1069850064441561,-0.2640951228886843,-9.804814689159391,14931.0
4.8,0.2000000029802322,194.0,25.45794677734375,-0.1908425688743592,-79.78280357424944,40.45905156504097,266.9955564956665,0.0026814346201717,0.0131250377744436,0.2650825977325439,0.9641327261924744,-0.0314912938665083,-0.0064624210694215,0.0005632644294579,-0.0036668085958808,0.0002253678103443,-0.008462181314826,0.1129606689792126,-0.2836447037011385,-9.806060730814934,14931.0
4.99,0.2000000029802322,186.0,25.456695556640625,-0.0715659633278846,-79.78280348072417,40.45905164854391,266.994156591177,0.0026471994351595,0.0131488367915153,0.2650876641273498,0.964130997657776,-0.022255515213577,-0.0022793163674367,0.0004023232180349,0.0008436042116954,0.0012747988803312,0.0006542834453284,0.1094930873718112,-0.2687966314516962,-9.804976657032968,14931.0
5.09,0.1000000014901161,181.0,25.45043563842773,-0.1192766055464744,-79.78280352940642,40.45905162100553,266.9943946223259,0.0026367611717432,0.0131413005292415,0.2651150822639465,0.9641236662864684,-0.0302469923062576,-0.0030481166453383,0.0008698876678585,-0.0060466546565294,-0.0024044043384492,-0.0128280911594629,0.1148616810142994,-0.2856975514814258,-9.808869148492814,14931.0
5.29,0.1000000014901161,182.0,25.45168685913086,-0.1510837078094482,-79.78280343559463,40.45905166590489,266.99518039035803,0.0026471319142729,0.0131508475169539,0.2650986313819885,0.9641280174255372,-0.0259268017601297,-0.0086831381831676,0.0040679307472664,0.0066204685717821,0.0069880182854831,0.0108455326408147,0.1112567720655352,-0.2852897447347641,-9.806294034719468,14931.0
5.4,0.1000000014901161,171.0,25.45168685913086,-0.1113248318433761,-79.78280335111495,40.45905171933845,266.9946770589352,0.0026319385506212,0.0131999840959906,0.2650672793388367,0.964136004447937,-0.0215964820902077,-0.0092925606461219,0.0024725712767071,0.0029259552247822,-0.0020252289250493,0.0002858719672076,0.1077086450625211,-0.265645841024816,-9.806151362657546,14931.0
5.59,0.2000000029802322,170.0,25.44417381286621,-0.0715659633278846,-79.78280336929402,40.45905170109731,266.9949731748104,0.0026280174497514,0.0131939994171261,0.2650666534900665,0.9641363024711608,-0.0253787302785185,-0.0098557273196835,0.0024786748579583,-0.0002849647717084,-0.0023426064290106,0.0048198848962783,0.1140405766200274,-0.2870151849836111,-9.806465942859653,14931.0
5.69,0.2000000029802322,167.0,25.44793128967285,-0.1113248318433761,-79.78280328266021,40.45905176975511,266.9969807188511,0.0025852147955447,0.013223061338067,0.2650519907474518,0.9641400575637816,-0.0203984946663022,-0.0066603656077264,0.0056031593376695,0.0067482856102287,-0.0003498471342027,0.0102095454931259,0.1073129073344171,-0.2601675846800208,-9.803422467112542,14931.0
5.89,0.2000000029802322,168.0,25.44542694091797,-0.1033730581402778,-79.78280330032128,40.45905175480196,266.9976076107025,0.0025843719486147,0.0132306050509214,0.2650362253189087,0.964144229888916,-0.025046337830559,-0.0068769877088998,0.0059916207118665,-0.0097979186102747,-0.0011049001477658,-0.0072525981813669,0.1097034409549087,-0.2677952044084668,-9.806272400021554,14931.0
6.0,0.2000000029802322,178.0,25.43916702270508,-0.0715659633278846,-79.78280323197475,40.459051801551816,266.9982007067204,0.0025588725693523,0.0132239386439323,0.2650298774242401,0.9641461968421936,-0.0243986983105117,-0.0083292984176797,0.004398192558658,-0.0013049357803538,0.0013752724044024,0.0040951990522444,0.1081447559874504,-0.27011967362836,-9.805650840997696,14931.0
6.19,0.3000000119209289,174.0,25.43791389465332,-0.1272283792495727,-79.7828032520178,40.459051783560135,266.99870612430567,0.0025369001086801,0.0132361687719821,0.2650489509105682,0.9641408324241638,-0.0281327305813489,-0.0088080508179584,0.0046723530298097,-0.0049207834526896,-0.0010761296143755,-0.0090692685917019,0.1072053459752351,-0.2590754709765315,-9.803628873825074,14931.0
6.29,0.3000000119209289,188.0,25.440418243408203,-0.1033730581402778,-79.78280318311259,40.45905182984206,267.0014657001496,0.0024981836322695,0.0132586099207401,0.2650063931941986,0.9641523361206056,-0.0270170912389187,-0.0092167845453791,0.0067637520920865,-0.0086205415427684,-0.0006805093144066,-0.0123971868306398,0.1145410708710551,-0.2874162308871746,-9.806372387409212,14932.0
6.49,0.4000000059604645,188.0,25.440418243408203,-0.1272283792495727,-79.78280308839878,40.45905190116653,267.0039077322483,0.0025145183317363,0.0132700279355049,0.2650120556354523,0.964150607585907,-0.0202633933682608,-0.0091538894524407,0.0082242539411981,0.0027567367069423,0.0041511179879307,0.0054945568554103,0.1112054170668125,-0.2715710073709488,-9.80603909611702,14932.0
6.59,0.4000000059604645,197.0,25.43916702270508,-0.1272283792495727,-79.78280312398215,40.459051865214576,267.0056739966869,0.0025178478099405,0.0132760638371109,0.265036404132843,0.9641437530517578,-0.027794475771431,-0.0097152659065086,0.0086332041813073,-0.0058367704041302,-0.0006510372040793,-0.0126930214464664,0.1117166098952293,-0.2862414338998497,-9.807407929301265,14932.0
6.79,0.4000000059604645,205.0,25.430402755737305,-0.0715659633278846,-79.78280304724616,40.45905192343745,267.0061661820412,0.0024968169163912,0.0132823353633284,0.2650306820869446,0.9641452431678772,-0.0259345992385758,-0.0110049773764415,0.0050507391116051,0.0055190683342516,0.0017346215900033,0.0126905301585793,0.1163761464133858,-0.2866027370095253,-9.807358227968216,14932.0
6.9,0.4000000059604645,213.0,25.436662673950195,-0.1113248318433761,-79.78280298812835,40.4590520084345,267.00962977814675,0.0024381231050938,0.013321884907782,0.2650434076786041,0.9641414284706116,-0.0193039608580038,-0.0019559418168386,0.0070552839976409,0.0055797309614717,-7.003002247074619e-05,0.0009118790039792,0.1109709802642464,-0.2735419210419059,-9.806598089933397,14932.0
7.09,0.4000000059604645,213.0,25.440418243408203,-0.1033730581402778,-79.7828030082103,40.45905199715271,267.01039474415785,0.0024388567544519,0.0133268218487501,0.2650455832481384,0.9641407132148744,-0.0226022435159863,-0.0021575822833712,0.0071960244455247,0.0013754790415987,0.0015539958840236,0.0073065762408077,0.1130912811588496,-0.285841703619808,-9.807527212500572,14932.0
7.2,0.4000000059604645,220.0,25.452938079833984,-0.1192766055464744,-79.78280296562215,40.45905203452682,267.01235847878456,0.0024138449225574,0.0133282989263534,0.2650436460971832,0.964141309261322,-0.0255419990772988,-0.0063251116437375,0.004702771580851,0.0076503339223563,0.0040172217413783,0.0113597996532917,0.1067461476847529,-0.2598958536051214,-9.80315700352192,14932.0
7.39,0.4000000059604645,222.0,25.46170234680176,-0.0954212844371795,-79.78280298844017,40.45905201767497,267.0129052023888,0.0024100446607917,0.0133537268266081,0.2650335729122162,0.9641436934471128,-0.0299109044520363,-0.0061991052382568,0.0050102653111663,-0.0043625808320939,0.0004724171303678,-0.0124955615028739,0.1069714664854109,-0.2624611002020538,-9.80394053041935,14932.0
7.49,0.4000000059604645,226.0,25.45919990539551,-0.1033730581402778,-79.78280291545919,40.45905208712665,267.0146619002819,0.002386384177953,0.0133803328499197,0.2650302648544311,0.9641443490982056,-0.0230893648553549,-0.0037887512815641,0.0035122993680305,-0.0032933102920651,-0.0015251726144924,0.0044485530816018,0.1122195526678115,-0.2750718632899225,-9.80691968679428,14932.0
7.7,0.4000000059604645,226.0,25.45544242858887,-0.0954212844371795,-79.78280293588669,40.45905207363712,267.0150743048191,0.0023980892729014,0.0133942272514104,0.2650313377380371,0.9641438126564026,-0.0257709977965027,-0.0041847183563333,0.0036783936805171,-0.0003446289338171,0.0004379397432785,-0.0027167310472577,0.1095664516557008,-0.2651861402392387,-9.806172412633895,14932.0
7.81,0.4000000059604645,230.0,25.454191207885746,-0.1113248318433761,-79.7828028603571,40.45905210558449,267.01940857577324,0.002397161675617,0.0134426718577742,0.2650307714939117,0.9641433358192444,-0.0259602740170274,-0.0093709764269475,0.0068294976457683,-0.0076486729085445,-0.0044368468225002,-0.007620277814567,0.1147491495218128,-0.2887495056912303,-9.808529425263403,14932.0
7.99,0.4000000059604645,218.0,25.452938079833984,-0.1113248318433761,-79.78280280375505,40.45905217036415,267.0210575382709,0.0023804842494428,0.0134632429108023,0.2650493085384369,0.9641379714012146,-0.0227127787164422,-0.0076398883383316,0.0043777595242653,0.0117467427626252,0.0034998331684619,0.0077743963338434,0.1123915887158364,-0.2837693590298295,-9.806755964756013,14932.0
8.11,0.5,225.0,25.454191207885746,-0.1828908026218414,-79.78280284663023,40.45905213470019,267.0220958809853,0.0023788823746144,0.0134792933240532,0.2650817036628723,0.964128851890564,-0.0289201549910484,-0.0080559780587663,0.0047512828780314,0.0018088965443894,0.0003277777868788,-0.0001183066415251,0.1074726185481995,-0.2751549485698342,-9.80721146285534,14932.0
8.29,0.5,225.0,25.45794677734375,-0.1908425688743592,-79.78280274074221,40.45905222110007,267.02589058089256,0.0023791776038706,0.0135072208940982,0.2650731801986694,0.9641308188438416,-0.0152487755127229,-0.0068099758113678,0.0074497566957676,0.0022941543720662,0.0021927629131823,0.0076223672367632,0.1136974090151488,-0.2859661762230098,-9.806060146093367,14932.0
8.4,0.5,218.0,25.45919990539551,-0.1590354740619659,-79.78280269509318,40.45905226839261,267.0291253845692,0.002376508899033,0.0135192926973104,0.2650725841522217,0.9641308188438416,-0.017664891927094,-0.0055569835998624,0.0043146334479913,0.006567127071321,0.0034606396220624,0.0077685988508164,0.1066626878175884,-0.2650168085284531,-9.802713199853898,14932.0
8.6,0.5,218.0,25.45794677734375,-0.1908425688743592,-79.78280271176973,40.45905225501311,267.029609582901,0.0023933828342705,0.0135169401764869,0.2650751769542694,0.9641301035881042,-0.0220076114798535,-0.0054126483827533,0.0045532932752765,-0.0059458650648593,0.000269447278697,-0.0108720734715461,0.1075552744232118,-0.2659247897565365,-9.806102830767632,14932.0
8.7,0.6000000238418579,230.0,25.46420669555664,-0.1749390214681625,-79.7828026510996,40.45905227227532,267.03531479048735,0.0024211767595261,0.0135254766792058,0.2650733888149261,0.964130401611328,-0.0233898524051838,-0.0131551915907033,0.0071602230841866,-0.0008917097584344,-0.0010463937651365,0.005028482992202,0.1118764033354818,-0.2716620229370892,-9.80642033457756,14932.0
8.9,0.699999988079071,233.0,25.454191207885746,-0.1749390214681625,-79.78280266688209,40.459052251013645,267.0360852401257,0.0024061680305749,0.0135445119813084,0.2650630176067352,0.9641330242156982,-0.0265705097573377,-0.0134559775975267,0.0074148572998682,-0.0076319840736687,-0.0019377332646399,-0.0121923945844173,0.106613196618855,-0.2597752547822893,-9.80425803422928,14932.0
8.99,0.8000000119209291,217.0,25.454191207885746,-0.1749390214681625,-79.78280262264171,40.45905230391031,267.0405795793533,0.002382198581472,0.0135543532669544,0.2650960981845856,0.9641238451004028,-0.0233755613308729,-0.0077899395019086,0.0058388558306038,-0.0077047040686011,-0.0049891760572791,-0.0094081852585077,0.1155273042898625,-0.2863052050955594,-9.806125050187111,14932.0
9.19,0.8000000119209291,219.0,25.44793128967285,-0.1351801604032516,-79.78280264056768,40.45905228718593,267.0412155907154,0.0023841420188546,0.0135638359934091,0.2650905847549438,0.9641252160072328,-0.0244710632906856,-0.0084231819538817,0.0059067932559628,0.0059233857318758,0.001615194720216,0.0039344644173979,0.1115950974449515,-0.2728996774926782,-9.804323523044587,14932.0
9.3,0.699999988079071,217.0,25.456695556640625,-0.198794350028038,-79.78280258090597,40.45905237188373,267.04783617663384,0.0023572328500449,0.0136123616248369,0.2650708556175232,0.9641299843788148,-0.0177420463866592,-0.0015253874129337,0.0083371083793593,-0.0030731405131518,-0.001129574724473,-0.0041411449201405,0.1120022829249501,-0.274348032809794,-9.80695827841759,14932.0
9.49,0.8000000119209291,224.0,25.45544242858887,-0.1828908026218414,-79.78280252594638,40.45905240566472,267.05414714622503,0.002365804510191,0.013618154451251,0.2650875747203827,0.9641252756118774,-0.0196178983869774,-0.0059673693402299,0.0093961982101598,0.0043315486982464,0.0016871240222826,0.0069115869700908,0.1140827587991953,-0.2846392237208783,-9.80709568798542,14932.0
9.6,0.8000000119209291,225.0,25.46295547485352,-0.1510837078094482,-79.78280256228955,40.459052376005566,267.0561650018692,0.0023491731844842,0.0136353904381394,0.2650722563266754,0.9641292691230774,-0.0242568150672825,-0.006707756403015,0.0096126761910992,0.0080683529376983,0.0040913177654147,0.0091757411137223,0.108042502803728,-0.2623738122358918,-9.805818071365357,14932.0
9.8,0.8000000119209291,225.0,25.45919990539551,-0.198794350028038,-79.78280247490251,40.45905245890921,267.06295039463043,0.0023263448383659,0.0136621426790952,0.2650748789310455,0.9641281962394714,-0.0156583551545007,-0.0032439608591951,0.010535939482696,-0.0037949143443256,-0.0025134049355983,-0.004745727404952,0.1097028379607945,-0.2759785471670329,-9.806622648239136,14932.0
9.9,0.8000000119209291,223.0,25.466711044311523,-0.1908425688743592,-79.78280242664603,40.45905248149805,267.07080390262604,0.0023177466355264,0.0136866150423884,0.2650793790817261,0.964126706123352,-0.0175598353351584,-0.0071277059834083,0.0108876818733521,0.0019975737668573,-0.0015212909784168,0.0051214438863098,0.1092779281083494,-0.2684339761734009,-9.80436503827572,14932.0
10.09,0.8000000119209291,227.0,25.46295547485352,-0.1828908026218414,-79.78280244099199,40.459052467199335,267.07194771575934,0.0023246752098202,0.0136897368356585,0.2650847434997558,0.964125156402588,-0.0205366676967692,-0.0073456548366602,0.0112198163848324,-0.0021351962350308,0.000152922788402,-0.0070778080262243,0.1077815433964133,-0.2568333561345935,-9.804644535183908,14932.0
10.2,0.699999988079071,227.0,25.44417381286621,-0.1749390214681625,-79.78280238910592,40.45905249544625,267.0802000384331,0.0023166392929852,0.013711092993617,0.2650843560695648,0.9641249775886536,-0.0196061609612012,-0.0079303348264828,0.0115780038785724,-0.0081749325618147,-0.0044857552275061,-0.0090111959725618,0.1130244584474712,-0.2847467211261392,-9.807330161333084,14932.0
10.4,0.699999988079071,224.0,25.45794677734375,-0.1669872552156448,-79.78280240328006,40.45905248041216,267.0813957672119,0.0022925527300685,0.01371980458498,0.2650713026523589,0.96412855386734,-0.0202844705674813,-0.0085658420417746,0.0115319368868331,0.0092627527192235,0.0030091137159615,0.0102246580645442,0.1129553425312042,-0.2848654013313353,-9.806144345998764,14932.0
10.5,0.6000000238418579,223.0,25.46420669555664,-0.1908425688743592,-79.7828023150222,40.45905251211291,267.089745364666,0.0022885098587721,0.0137659376487135,0.2650934755802154,0.9641218185424804,-0.014184033431238,-0.0111251218647025,0.0118695212676489,0.0067079323343932,0.0017021496314555,0.0029058496002107,0.1076228371728211,-0.2715028142184019,-9.805559039711952,14932.0
10.69,0.6000000238418579,223.0,25.449182510375977,-0.2067461162805557,-79.78280232305556,40.45905249679354,267.09098388957983,0.0022898451425135,0.0137788373976945,0.2651285827159881,0.9641119241714478,-0.0172639236717168,-0.0110505890401611,0.0122234697822086,-0.0034961940255016,-0.0009853229857981,0.0011178266722708,0.110926148565486,-0.2756811614334583,-9.806076518297196,14932.0
10.8,0.6000000238418579,221.0,25.46420669555664,-0.1749390214681625,-79.78280228626825,40.459052588107,267.0996873002053,0.0022468653041869,0.0138104874640703,0.265164852142334,0.9641015529632568,-0.0151650999101954,0.0010332618479065,0.0121598551788106,-0.0075289094820618,-0.0012182591017335,-0.0017015242483466,0.1075890695024281,-0.2724317906051874,-9.806013368368149,14932.0
10.99,0.5,225.0,25.45544242858887,-0.1828908026218414,-79.78280221671848,40.4590526159618,267.1058799843788,0.0022423942573368,0.0138255469501018,0.2651636600494385,0.9641017317771912,-0.0130905221810622,-0.0055195577984717,0.0095889067930168,0.0012385718291625,0.000382578378776,-0.007537224330008,0.1089822874031961,-0.2618619433231652,-9.80666650235653,14932.0
11.1,0.5,223.0,25.4654598236084,-0.1749390214681625,-79.78280223933218,40.45905259366899,267.1078986148834,0.0022315010428428,0.0138397207483649,0.2651717662811279,0.9640993475914,-0.017039621251489,-0.0059007377979158,0.0100478619941394,0.0002771849103737,-0.0001334580883849,-0.0073982956819236,0.1137503811344504,-0.2818115833215415,-9.808424760103229,14932.0
11.29,0.5,218.0,25.45043563842773,-0.1908425688743592,-79.78280216941647,40.45905264763947,267.11372765111923,0.0022226464934647,0.0138495657593011,0.2651739120483398,0.964098572731018,-0.0117582111887368,-0.0036810057438177,0.0067723812357216,0.0050159026868641,-8.323692600242794e-05,0.0133083937689661,0.1144544955343008,-0.2889129901863634,-9.807773965001108,14932.0
11.4,0.6000000238418579,215.0,25.45544242858887,-0.1749390214681625,-79.78280211446267,40.45905267678949,267.122652671814,0.0022173800971359,0.013877629302442,0.2651565372943878,0.9641029834747314,-0.0114604098435142,-0.0058441324293969,0.0089673405948687,0.006870171520859,-0.0005460013635456,0.0131288804113864,0.105313744302839,-0.2596516775339842,-9.804312413334848,14932.0
11.59,0.6000000238418579,214.0,25.46295547485352,-0.1669872552156448,-79.78280212400848,40.459052666312296,267.12359263706213,0.0022217128425836,0.0138804949820041,0.2651678025722504,0.9640998244285583,-0.0150015036213531,-0.0056188024386164,0.0093268116141463,-0.0065973815508186,-0.0011805563699454,-0.0117872422561049,0.1065883368160575,-0.2630815446004271,-9.80572919368744,14932.0
11.69,0.699999988079071,205.0,25.45794677734375,-0.1431319266557693,-79.78280206497939,40.45905272268266,267.13288911390305,0.0022018323652446,0.0138973202556371,0.2651808857917785,0.9640960693359376,-0.0109385008130803,-0.002618324727106,0.0107157677656228,-0.0066357059404253,-0.0044220029376447,-0.0084483074024319,0.1141360598243773,-0.2878993388079107,-9.807732449769976,14932.0
11.9,0.699999988079071,203.0,25.454191207885746,-0.1749390214681625,-79.78280207373307,40.45905271559088,267.1339805941582,0.0022028912790119,0.0138907600194215,0.2651738822460174,0.96409809589386,-0.0112608394898094,-0.0031215509583959,0.0106384031233102,0.0075015979818999,0.0015828043688088,0.0045082974247634,0.1125146086513996,-0.2788861299678683,-9.80523451924324,14932.0
12.0,0.699999988079071,189.0,25.46170234680176,-0.1510837078094482,-79.78280202651152,40.45905276143441,267.14150574016566,0.0021978919394314,0.013890691101551,0.2652197182178497,0.9640854597091676,-0.0121295216948953,-0.0024088901727449,0.0086663686505964,0.0013290107017382,0.0015334206400439,-0.0006978518213145,0.1093441843707114,-0.2750844713486731,-9.806075348854066,14932.0
12.19,0.699999988079071,202.0,25.44793128967285,-0.1828908026218414,-79.78280203734981,40.45905275387509,267.1424195985794,0.0022017757873982,0.0139081757515668,0.2652363479137421,0.9640806317329408,-0.014301797497586,-0.0024223485897636,0.0089093353445844,-0.0007788062212057,-0.00248614535667,0.0043837893754243,0.1108835643902421,-0.2861622589454055,-9.806566514968871,14932.0
12.3,0.699999988079071,212.0,25.454191207885746,-0.198794350028038,-79.78280198844314,40.459052751763984,267.14970447826386,0.0022085264790803,0.0139208314940333,0.2651925384998321,0.964092493057251,-0.0178241864089613,-0.0111907097818386,0.0064701088260801,0.0027036706451326,0.0001022069991449,0.012418427504599,0.1068235045205801,-0.2642426554486156,-9.80478194475174,14932.0
12.5,0.699999988079071,230.0,25.449182510375977,-0.1749390214681625,-79.78280192345512,40.45905279860348,267.15653135585785,0.002206394681707,0.0139481034129858,0.2652056515216827,0.9640884995460508,-0.0151245103309923,-0.0098713799050222,0.004986184638167,-0.0014924539718776,0.0007945042452774,-0.0067075388506054,0.1076323663070798,-0.2643492392264307,-9.804214180111886,14932.0
12.6,0.699999988079071,207.0,25.45043563842773,-0.1749390214681625,-79.78280194358976,40.45905276795428,267.15759154367447,0.0022001976612955,0.0139549784362316,0.2652056813240051,0.9640884399414062,-0.0188990548390244,-0.0102600114663846,0.0051588766867487,-0.0032337321899831,-0.0038953218609094,-0.0069421092048287,0.1134704548213631,-0.2843131500855088,-9.80631976246834,14932.0
12.8,0.699999988079071,210.0,25.45168685913086,-0.1669872552156448,-79.78280186697359,40.45905283963891,267.16440167236334,0.0021766636054962,0.013950795866549,0.2651938199996948,0.9640917778015136,-0.0114385405638058,-0.0059919172305116,0.0038800457438518,0.0088077187538146,0.005554121453315,0.0016539862845093,0.1115938000939786,-0.2782872837223113,-9.80670333981514,14932.0
12.89,0.699999988079071,227.0,25.45544242858887,-0.1590354740619659,-79.78280182695602,40.45905290198109,267.1716620545388,0.0021644865628331,0.0139855965971946,0.2652057707309723,0.9640880227088928,-0.0122178702616535,-0.0007055293176963,0.0030900064564438,0.0031877316068857,0.0003514603886287,-0.0012546684592962,0.1105197213962674,-0.2730403761193156,-9.806285848617556,14932.0
13.09,0.6000000238418579,226.0,25.45043563842773,-0.1749390214681625,-79.7828018402161,40.45905289526826,267.17201580810547,0.0021479178685694,0.0139732398092746,0.2652193903923035,0.9640844464302064,-0.0150909012801447,-0.0004831059705354,0.0033799356687613,-0.0039838911034166,-0.0042506023310124,-0.0020509767346084,0.1127826852165162,-0.2775572040304542,-9.80790903568268,14932.0
13.19,0.4000000059604645,216.0,25.449182510375977,-0.1192766055464744,-79.78280179328705,40.459052933225045,267.1791060190201,0.0021419131662696,0.0140002714470028,0.2651887238025665,0.964092493057251,-0.0142548344268401,-0.003019785483769,0.0031792125032551,-0.0007850970141589,-0.002334555145353,0.010533470660448,0.1058126305695623,-0.2636364453658462,-9.805358480215071,14932.0
13.4,0.4000000059604645,228.0,25.46170234680176,-0.2067461162805557,-79.78280180625829,40.45905292423712,267.17947115707403,0.0021488941274583,0.0140212019905447,0.2651665508747101,0.9640983343124392,-0.0166420729174702,-0.0028899978279753,0.0034693299490982,-0.0089959846809506,-0.0009588875109329,-0.0095358518883585,0.1083393220882862,-0.2604314585588873,-9.803021932840348,14932.0
13.5,0.4000000059604645,234.0,25.44667816162109,-0.1908425688743592,-79.78280177698682,40.45905294204201,267.18646504688263,0.0021645973902195,0.0140113607048988,0.2651857137680053,0.9640931487083436,-0.0209191848086636,-0.0064105463661578,0.003002856938333,-0.007698459085077,-0.0014069214230403,-0.0129036353901028,0.114991187704727,-0.2874593358300627,-9.807929500937464,14932.0
13.69,0.3000000119209289,242.0,25.44417381286621,-0.2067461162805557,-79.78280179324314,40.45905292756106,267.1868106942177,0.0021701410878449,0.0140024600550532,0.2651845216751098,0.9640936255455016,-0.0210154850627995,-0.0069900920817683,0.0030330660319168,0.0059088612906634,0.0025611298624426,0.0071198823861777,0.1130629587080329,-0.2824424430727959,-9.8068015730381,14932.0
13.8,0.4000000059604645,235.0,25.45919990539551,-0.2067461162805557,-79.78280176178845,40.45905297206991,267.1936508636474,0.0021430025808513,0.0140145281329751,0.2651461064815521,0.9641040563583374,-0.0205162880700597,-0.0053572596926907,0.0024787524119371,0.0030862321145832,0.0012731435708701,0.0037402629386633,0.1101499215513468,-0.2726424000039697,-9.807391557097436,14932.0
14.0,0.3000000119209289,227.0,25.46420669555664,-0.1828908026218414,-79.78280169221763,40.459053012209736,267.20042022275925,0.0021615247242152,0.0140327792614698,0.2651493847370148,0.964102864265442,-0.0180322277055892,-0.0094662841516519,0.0023768779421969,-0.0012788453605026,0.0013519261265173,0.0041833068244159,0.1120053253043443,-0.2829652024246753,-9.807589192986493,14932.0
14.1,0.3000000119209289,230.0,25.449182510375977,-0.1749390214681625,-79.78280171906383,40.45905297954629,267.2010103683472,0.0021592013072222,0.0140315545722842,0.2651259899139404,0.9641093015670776,-0.0206180024839897,-0.0099887590238926,0.0026413239485933,0.0041565331630408,0.0007585871499031,0.0133143179118633,0.1075931716896593,-0.2635775529406965,-9.805019926428796,14932.0
14.29,0.3000000119209289,236.0,25.43916702270508,-0.2226496636867523,-79.78280170088854,40.45905303489116,267.2070845584869,0.0021405683364719,0.014043471775949,0.2651407420635223,0.9641050696372986,-0.0238372102804372,-0.0050254906420658,0.0020441766754366,-0.0069294632412493,0.0005371666047722,-0.0102457012981176,0.1079491848964244,-0.2657672803848982,-9.805181309580805,14932.0
14.4,0.3000000119209289,242.0,25.452938079833984,-0.1749390214681625,-79.78280166985056,40.45905309720704,267.2118659834862,0.0021082654129713,0.0140715017914772,0.2651931941509247,0.9640904068946838,-0.016300908180229,-0.0002160428040572,-0.0011679361968558,-0.0034871930256485,-0.0029124238062649,-0.004445469006896,0.1115252414904534,-0.2822467258013785,-9.805454374551774,14932.0
14.59,0.4000000059604645,248.0,25.44793128967285,-0.198794350028038,-79.7828016862729,40.45905308929105,267.2117936234474,0.0021162002813071,0.0140758594498038,0.2651729881763458,0.9640958309173584,-0.0171749454725369,-0.0005056725776101,-0.0010222900335714,0.0041735237464308,0.0015099161537364,-0.0009495444246567,0.1081388722267002,-0.2645047934353352,-9.805742057561876,14932.0
14.7,0.4000000059604645,264.0,25.45544242858887,-0.198794350028038,-79.78280161492556,40.45905311705406,267.2177879433632,0.0021207807585597,0.0140932295471429,0.2651034295558929,0.9641147255897522,-0.0136086905490677,-0.0090084324206836,0.0004549570340989,-0.0052332333289086,-0.0014851128216832,-0.010793000459671,0.1131912411376834,-0.2862526166997849,-9.807242453098295,14932.0
14.89,0.4000000059604645,263.0,25.45168685913086,-0.1669872552156448,-79.78280162285793,40.45905310380768,267.21786602544785,0.0021076137199997,0.0140996575355529,0.2650968134403229,0.9641164541244508,-0.0136407254499006,-0.0095118168071991,0.0005237241428932,0.0039438335224986,0.0045126094482839,0.0127159776166081,0.1128655238170176,-0.2850614475086332,-9.806691645383836,14932.0
14.99,0.3000000119209289,270.0,25.44167137145996,-0.1749390214681625,-79.78280159638312,40.459053195175365,267.22344305324555,0.0020897113718092,0.0141036361455917,0.2651461064815521,0.964102864265442,-0.0112365405918853,0.0013657388017724,0.0010476836321663,0.0021661142818629,0.004882532171905,0.0006176141905598,0.1104725782200694,-0.2732623875886202,-9.80594787955284,14932.0
15.19,0.4000000059604645,269.0,25.45043563842773,-0.1828908026218414,-79.78280160929076,40.45905319081706,267.2235990386009,0.0020919661037623,0.0140882963314652,0.2651805877685547,0.9640936255455016,-0.01324299008385,0.0015174636141134,0.001347260056853,-0.0036682581994682,-0.0012066438794136,0.0010159567464143,0.1133165725506842,-0.2827960168942809,-9.807915467619896,14932.0
15.3,0.3000000119209289,269.0,25.449182510375977,-0.1828908026218414,-79.7828015842885,40.45905321916382,267.2286960105896,0.0020721899345517,0.0140885822474956,0.2651524543762207,0.9641014337539672,-0.0174568030323034,-0.0020996841006361,0.0014838524019344,-0.0014866638230159,0.0021845542360097,0.0068576755002141,0.1086496539227664,-0.2644782068766653,-9.804111269116405,14932.0
15.49,0.4000000059604645,268.0,25.32272529602051,1.0337306261062622,-79.78280152261841,40.45905328677439,267.23320045280457,0.0020703324116766,0.0141090406104922,0.2651523649692535,0.9641010761260986,-0.0119491524275294,-0.0007398243136287,0.0015453641932474,-0.0074495594017207,0.0018049561185762,-0.0076280538924038,0.1071268014237284,-0.2603439330495894,-9.804186113476751,14932.0
15.61,0.4000000059604645,263.0,25.40536117553711,0.1351801604032516,-79.78280154706657,40.45905327394401,267.23358645248413,0.0020770102273672,0.0140983378514647,0.2650600671768188,0.9641266465187072,-0.0122719633057861,-0.0002353229473817,0.001901444631852,-0.004907154943794,-0.003774500451982,0.0024730749428272,0.1175722217839211,-0.2761295515112579,-9.814441545009611,14932.0
15.79,0.4000000059604645,264.0,25.40911674499512,0.1192766055464744,-79.78280150926558,40.459053347646886,267.23744108486176,0.0020358408801257,0.0141178052872419,0.2651066482067108,0.9641136527061462,-0.0138020041170202,0.0019828555637397,0.0013626704438194,0.0057221353054046,0.0053029116243124,-0.0073998509906232,0.1105160212051123,-0.2924547583423555,-9.804771419763563,14932.0
15.89,0.4000000059604645,262.0,25.40911674499512,0.1351801604032516,-79.78280146449636,40.45905339918339,267.23896320867544,0.0020058210939168,0.0141039239242672,0.2651152014732361,0.9641115665435792,-0.009062100584864,-0.0025009170194474,-0.0028654812981152,0.0033833070192486,0.0044084512628614,0.0167864579707384,0.1075306887086481,-0.2558476983010769,-9.799761525392531,14932.0
16.09,0.4000000059604645,265.0,25.40786552429199,0.1192766055464744,-79.78280147568059,40.459053392168094,267.23871823358536,0.0020128025207668,0.0140811232849955,0.2651219964027405,0.9641100168228148,-0.0146292522719139,-0.0014697394203644,-0.0026490957312314,-0.0065712886862456,-0.0018107091309502,-0.0113995959982275,0.1114519685693085,-0.2895356638357043,-9.80583268940449,14932.0
16.19,0.4000000059604645,265.0,25.410369873046875,0.2226496636867523,-79.78280143858619,40.459053429883866,267.24120023059845,0.0020086569711565,0.0140811214223504,0.2651691734790802,0.964097023010254,-0.0142274829803485,-0.0057641790543807,-0.0013028338750722,-0.0065622646361589,-0.0049894759431481,0.0090458570048213,0.1174958242569118,-0.275151805691421,-9.809601804614068,14932.0
16.39,0.4000000059604645,266.0,25.40410804748535,0.2385532110929489,-79.78280145030519,40.459053419034426,267.2411093931198,0.002005357760936,0.0140920542180538,0.2651103734970093,0.9641131162643432,-0.0164723597844334,-0.0055124275993234,-0.0011065161424486,0.0002634741540532,-0.000638794095721,-0.0034585858229547,0.1029699244536459,-0.2743771957978606,-9.804154538512226,14932.0
16.5,0.4000000059604645,271.0,25.39158821105957,0.278312087059021,-79.78280141577292,40.45905349851456,267.2433989267349,0.0020038881339132,0.0140703041106462,0.2651878297328949,0.9640920758247375,-0.0101638263569684,0.000538053794285,-1.3457940388258635e-05,0.0019024356734007,-0.0024155308492481,0.0009118061279878,0.114935127524659,-0.2888940050080418,-9.804848603010178,14932.0
16.69,0.4000000059604645,271.0,24.947111129760746,2.019750595092773,-79.78280142639989,40.45905349419223,267.2434618096352,0.0019786548800766,0.0141036817803978,0.2652089595794678,0.9640858173370358,-0.0088557585107268,0.0015683908400958,0.0008909296981751,0.0109874261543154,-0.0194089710712432,0.0147599754855036,0.1435018914565444,-0.2857556033693254,-9.82254344701767,14932.0
16.79,0.3000000119209289,278.0,25.34526252746582,0.278312087059021,-79.78280138317348,40.45905350964714,267.2460761885643,0.0018405180890113,0.0141816260293126,0.2651879191398621,0.9640907645225524,-0.0157648805290891,-0.0069628066472541,0.0009196659749531,-0.0123835951089859,-0.0092950416728854,0.0052493424154818,0.1123798394668847,-0.3193108553811908,-9.81794168829918,14932.0
16.99,0.3000000119209289,280.0,23.4221134185791,13.907652854919435,-79.78280132858019,40.4590536095387,267.2477977495193,0.0018479899736121,0.0141846779733896,0.2651670277118683,0.9640964269638062,-0.0075074518764747,-0.0002142126621013,0.0009433550873833,-0.0005441886605694,-0.0080963168293237,-0.0028232031036168,0.1127591136284172,-0.2824568052962422,-9.800364373326303,14932.0
17.09,0.3000000119209289,287.0,25.08358383178711,1.4074640274047852,-79.78280134740268,40.45905360205132,267.24812140274054,0.0017264344496652,0.0142487045377492,0.2652070820331573,0.9640846848487854,-0.0087834906048263,0.0001931806580885,0.0009397596646325,0.0305087380111217,0.0177547875791788,0.0154637051746249,0.1087469552457332,-0.3184828530997038,-9.825971084833146,14932.0
17.29,0.3000000119209289,291.0,25.396596908569336,0.0477106422185897,-79.78280132123636,40.45905367275957,267.250814757824,0.0017690490931272,0.01422914955765,0.2651879191398621,0.9640901684761048,-0.0125663263841427,0.0015966315394186,0.0032477321670267,-0.0061279395595192,-0.0165954604744911,-0.0079978723078966,0.0923885563295334,-0.2567300979606807,-9.795480194091796,14932.0
17.4,0.3000000119209289,292.0,25.39158821105957,0.3021674156188965,-79.78280129650359,40.459053749005406,267.25177069711685,0.001750816241838,0.0142261115834116,0.2652651369571686,0.9640690088272096,-0.0109350864021685,0.003846100174908,0.0031717770384991,-0.0292908567935228,-0.0115611962974071,0.0008831245359033,0.1215904923342168,-0.2946095304004848,-9.799812980890277,14932.0
17.59,0.4000000059604645,293.0,24.91080093383789,3.95203161239624,-79.78280130834908,40.45905374703359,267.2521397094726,0.0018039398128166,0.0142362685874104,0.265201210975647,0.9640863537788392,-0.0099725573747373,0.0026085533649647,0.00285035144607,0.0120240673422813,-0.0068363305181264,0.019324155524373,0.083852754374966,-0.2742091797105968,-9.790434631705285,14932.0
17.7,0.5,287.0,24.774328231811523,5.128894329071045,-79.78280127980052,40.45905381533417,267.252327583313,0.0017966420855373,0.0142389703541994,0.2652586102485657,0.9640705585479736,-0.0098410103239806,-0.0002215547989994,0.0023189314135333,-0.0011932938359677,-0.0098199937492609,0.0165647380053997,0.1013356094062328,-0.2636959225125611,-9.80175951898098,14932.0
17.89,0.5,287.0,24.48635482788086,7.267921447753906,-79.78280129099986,40.45905381086342,267.25265731620794,0.0017499703681096,0.0142942164093256,0.2652492523193359,0.9640723466873168,-0.008321499292282,0.0002237638659869,0.0021354131673598,0.0254283472895622,0.0023713805712759,9.700734517537056e-05,0.1098538697138428,-0.2950169534236193,-9.8192502951622,14932.0
18.01,0.6000000238418579,291.0,24.37116622924805,8.683337211608888,-79.78280128587699,40.45905387567474,267.2519865851403,0.0014685437781736,0.0145497024059295,0.2651845216751098,0.9640868306159972,-0.0151091141476703,0.0081193094497905,0.0070955003161923,-0.0892089009284973,-0.0648738220334053,0.0341426022350788,0.1142929844744503,-0.3455038233473897,-9.816247165203093,14932.0
18.2,0.6000000238418579,290.0,24.01683616638184,11.90380573272705,-79.78280129977408,40.45905386797104,267.2523378353119,0.00131331756711,0.0148375490680336,0.2652498185634613,0.9640646576881408,-0.0174480660028981,-0.0055023995392597,0.0031953689199124,0.0654541850090026,-0.0627452209591865,0.0165941137820482,0.0100432301382534,-0.3451386647298932,-9.734592552781104,14932.0
18.3,0.699999988079071,286.0,23.8465576171875,13.048860549926758,-79.7828012612398,40.45905392531027,267.25072988080984,0.0015713102184236,0.0155029678717255,0.2650194466114044,0.964117169380188,-0.0176290275751834,-0.0078071888439889,0.0061601727250313,0.0129401003941893,-0.0126089099794626,-0.0700135752558708,0.1149609831813723,-0.3234999468550086,-9.88305979013443,14932.0
18.49,0.8000000119209291,283.0,23.474699020385746,16.37270164489746,-79.78280121854924,40.45905397350378,267.2474760632515,0.0022836157586425,0.0162402912974357,0.2650384306907654,0.9640983939170836,0.004362778486544,-0.0142022451172369,0.0099778017330068,0.0619716010987758,0.0916945040225982,-0.0446023717522621,0.1935924297943712,-0.0902587080281228,-9.92133215546608,14932.0
18.6,1.0,284.0,23.30942726135254,18.1141414642334,-79.78280120692195,40.45905395170372,267.24989255476004,0.003430125536397,0.0191434174776077,0.2650430500507355,0.964040458202362,-0.0042525375537561,-0.0064193646647296,0.0130662692093326,-0.0065709073096513,0.0241023376584053,-0.0645478591322898,0.134097083620727,-0.1477685864455998,-9.82451395869255,14932.0
18.8,1.100000023841858,281.0,22.98765182495117,21.764005661010746,-79.78280118954216,40.45905404683414,267.2464906196594,0.004631747957319,0.0203412342816591,0.2650648057460785,0.964004933834076,-0.0043957053934502,-0.0188959281816617,0.0167013676261039,0.0116266328841447,0.032158188521862,0.0227949898689985,0.1483606170304119,-0.5032378742471337,-9.862278785705566,14932.0
18.9,1.2000000476837158,281.0,22.79233169555664,23.75194931030273,-79.78280110110033,40.45905417393557,267.2440454583168,0.0033996705897152,0.0097786718979477,0.2642331719398498,0.96440327167511,0.0159242003440546,0.0191642879879799,0.0694432997575073,-0.2366118431091309,-0.16779825091362,-0.0354534275829792,0.307079393863678,-0.5009957228600979,-10.058141798973084,14932.0
19.09,1.2000000476837158,278.0,22.89124298095703,21.827619552612305,-79.78280108497137,40.4590541929176,267.254624507904,0.0023791072890162,-0.0018107220530509,0.26473069190979,0.964317798614502,0.0204399108070817,0.0281916618536944,0.1401023328398629,-0.2861801385879517,-0.1748510301113128,0.0269366931170225,0.1863073107227683,-0.1371211447846144,-10.435301241874695,14932.0
19.2,1.2999999523162842,282.0,22.95635032653809,20.37244415283203,-79.7828009409714,40.45905429524152,267.2818514924049,-0.0055532357655465,-0.0068032369017601,0.270742654800415,0.9626116752624512,0.0280399750292166,0.0381186102036256,0.2089173791014076,0.2471746653318405,0.0057823765091598,-0.1360146552324295,0.3310965032503009,0.2273084985092282,-10.419124335050585,14932.0
19.39,1.2999999523162842,287.0,23.020204544067383,20.52352905273437,-79.78280095611724,40.45905432885289,267.3020561556816,-0.0030115379486233,-0.0038519750814884,0.2727570831775665,0.9620705842971802,0.0170590342937866,0.0489867842182072,0.1893726857207969,0.0532999001443386,0.0737710297107696,-0.0510893203318119,0.2384881190210581,0.2704985001124442,-9.695743067264557,14932.0
19.49,1.2999999523162842,282.0,22.86495018005371,22.19340133666992,-79.78280099586232,40.45905454574444,267.3111084322929,0.0095837041735649,-0.0075825662352144,0.2669551074504852,0.963631510734558,0.0322621420971116,0.0782576260365196,0.0714007759088757,-0.0246938169002532,0.0971202105283737,0.0432162843644619,0.1910679492540657,0.2046703452989459,-9.583617444634438,14932.0
19.69,1.2999999523162842,281.0,22.85243034362793,21.62882423400879,-79.78280101793351,40.45905461703215,267.31685205507284,0.0119078215211629,-0.0057183401659131,0.2630829811096191,0.9646827578544616,0.0282377505834493,0.0860854176486861,0.0445428051575449,0.1002924814820289,0.0639538764953613,0.0617984980344772,0.3706558407470584,0.3115044204890728,-9.53991009235382,14932.0
19.79,1.399999976158142,282.0,22.71220016479492,23.012434005737305,-79.78280094165093,40.45905468542343,267.3363065342903,0.0083682239055633,0.0014988547191023,0.2584600150585174,0.965984582901001,0.0338390972210828,0.0555856417611114,0.0272782215582529,0.0134610692039132,0.0403747744858264,0.0395705103874206,0.3399722477048636,0.0157388453045859,-9.550427479147912,14932.0
19.99,1.399999976158142,280.0,22.813615798950195,21.764005661010746,-79.7828008389877,40.45905487714805,267.3530142526626,0.010880428366363,-0.0011818466009572,0.2580269277095795,0.9660757780075072,0.0319437522610233,0.0454271911741202,0.059549244051128,-0.026910750195384,0.0215359665453434,0.0052533489651978,0.1461680025234818,0.0220312304981052,-9.7421570956707,14932.0
20.1,1.2999999523162842,279.0,22.6571102142334,23.489540100097656,-79.7828008246384,40.459054976593016,267.3631805996895,0.0143707087263464,-0.0016842097975313,0.2601188719272613,0.9654682278633118,0.0327655136072623,0.0298407268480908,0.0380986003075195,0.0110644977539777,0.0726693049073219,-0.0031062690541148,0.1607328685373067,-0.0634599319752305,-9.696089222431183,14932.0
20.29,1.2999999523162842,281.0,22.539417266845703,24.316524505615234,-79.78280078082071,40.459055084826495,267.3709134082794,0.0156558528542518,-0.0021634057629853,0.2618587911128998,0.9649768471717834,0.0460321205409786,0.0315700905965792,0.057047361903395,0.0787411108613014,-0.0182766988873481,0.0014389054849743,0.2029237454384565,0.0406214111298322,-9.870802856683731,14932.0
20.4,1.2999999523162842,277.0,22.565710067749023,24.69025802612305,-79.7828007738472,40.45905528374864,267.3851663689613,0.0124716246500611,-0.0033716077450662,0.2651075422763824,0.9641323685646056,0.0511396327506444,0.0206998382407587,0.1052584597685687,0.0697481557726859,0.0635310336947441,-0.0835851654410362,0.1539288656786084,-0.022460411558859,-9.998437049388889,14932.0
20.59,1.2999999523162842,275.0,22.54692840576172,24.26086235046387,-79.78280074244242,40.45905531202776,267.39809264945984,0.0145637011155486,-0.0042256847955286,0.2663170099258423,0.9637662172317504,0.0499051215057176,0.012175349594243,0.1505358398024067,0.1117511242628097,0.0899799689650535,0.0237222369760274,0.1672807085327804,-0.0607384779257699,-10.193704816102985,14932.0
20.7,1.399999976158142,273.0,22.74350166320801,22.479665756225582,-79.78280070387757,40.45905533842228,267.41513510751724,0.0146546093747019,-0.0031435899436473,0.2656521201133728,0.9639524221420288,0.0468316948913081,0.011827695825077,0.1821348577641036,0.0529484450817108,0.0288140717893838,0.043052427470684,0.2279298017174005,0.1573034400120377,-10.064181972742082,14932.0
20.89,1.2999999523162842,269.0,22.514375686645508,24.714113235473643,-79.78280061977965,40.45905555523599,267.4388019065857,0.0097270933911204,-0.0062914886511862,0.2623226344585419,0.9649107456207277,0.0331082489123437,0.0183888191324709,0.1732402133186598,-0.0892865359783172,0.0031141319777816,-0.0139969242736697,0.1718626415356993,0.1603679291903972,-9.855543962717055,14932.0
20.99,1.2999999523162842,270.0,23.517269134521484,14.909576416015623,-79.78280064724494,40.459055672557504,267.4463371257782,0.0108373304829001,-0.0081701958552002,0.2611473798751831,0.965203583240509,0.0244320319506424,0.0233527222173943,0.1539853185472992,-0.1130372211337089,0.0219702385365962,-0.0234378706663846,0.1466886696685105,0.1875945387035608,-9.81633019566536,14932.0
21.19,1.2999999523162842,270.0,22.18383407592773,27.38591003417969,-79.78280061989345,40.45905572770242,267.46661337423325,0.0093645919114351,-0.0091571453958749,0.2603009045124054,0.965438723564148,0.0355409698542562,0.0252517568877197,0.0128478516749047,0.136385977268219,-0.0030401179101318,-0.0504276603460311,0.1860844952613115,0.1839622117951512,-9.074370569586756,14932.0
21.3,1.399999976158142,270.0,22.05612564086914,29.42156410217285,-79.78280055144279,40.459055852961136,267.47707905578613,0.0026004773098975,-0.0092271091416478,0.2591540515422821,0.96578848361969,0.0096341023349112,0.033099604944516,0.0910743512261934,0.060769960284233,0.0371514596045017,0.1333489567041397,0.1481012930162251,0.037342833916191,-9.689663717150689,14932.0
21.49,1.399999976158142,270.0,21.83451271057129,32.618175506591804,-79.7828005489618,40.459055979458704,267.48638608264923,0.0048394231125712,-0.0088056847453117,0.2585855722427368,0.9659361839294434,0.0052121972402897,0.0334882475142269,0.2191782757962415,-0.1446998119354248,0.0985241532325744,-0.1059378534555435,-0.0279982752422802,0.3887828670814633,-10.699611761569976,14932.0
21.6,1.399999976158142,271.0,21.527759552001957,33.98588180541992,-79.78280055047583,40.45905601069917,267.51452340888983,0.0094488272443413,-0.0059310076758265,0.2584162950515747,0.9659692645072936,0.0280468055476291,0.0324475558220071,0.3484279875767761,0.1281206607818603,0.0477962121367454,0.1129029691219329,0.2197725887037813,-0.0317058873362839,-11.130994774103163,14932.0
21.8,1.399999976158142,269.0,21.44512367248535,37.04731369018555,-79.78280076789756,40.45905629512533,267.6009292821884,0.0133256800472736,-0.0058897039853036,0.2591385245323181,0.965730369091034,0.0129291600721691,0.0671194678538984,0.6718240046596285,-0.0487055853009224,-0.0702200010418891,-0.0794343426823616,0.2421948517486453,0.160912487693131,-11.463675616979597,14932.0
21.9,1.399999976158142,267.0,20.92427062988281,42.72488021850586,-79.78280083323871,40.45905651255901,267.7635585289001,0.010104370303452,-0.0062591941095888,0.2587554752826691,0.9658697843551636,0.031510979800484,0.0729477536641149,1.0849807339283135,0.12766233086586,0.0026575846131891,0.0827132165431976,0.2104941903613508,0.1315235504228621,-11.691791871786116,14932.0
22.1,1.399999976158142,268.0,21.11458396911621,39.18634033203125,-79.78280086518005,40.459056553504254,267.88730087089544,0.0106988782063126,-0.0054655228741467,0.2575218975543976,0.9661978483200072,0.0166381569742966,0.0801506378004585,1.3871897544975218,-0.0354523994028568,-0.0293182544410228,-0.1184825226664543,0.2035009387135505,0.310928031206131,-12.632698917388913,14932.0
22.19,1.5,268.0,21.112079620361328,39.68730545043945,-79.78280090447677,40.459056594488686,268.04078843402857,0.0119357053190469,-0.0055704158730804,0.2568567991256714,0.9663597345352172,0.022678036832645,0.0900632513180348,1.671307907186875,0.0117805143818259,0.0010675899684429,0.0424607172608375,0.3174774609133601,0.0426536840200424,-12.62445551276207,14933.0
22.4,1.600000023841858,268.0,20.84914779663086,42.74078369140625,-79.78280104173481,40.45905682774416,268.4099339466095,0.0146155282855033,-0.0060465084388852,0.257728636264801,0.9660879373550416,0.0217115943534217,0.118678332755468,2.1560471258755265,0.0132553344592452,0.0359893999993801,-0.049925435334444,0.3095432643592358,0.1273117644432932,-12.358906552791597,14933.0
22.5,1.7000000476837158,267.0,20.97810935974121,40.951637268066406,-79.7828011438615,40.45905713594111,268.60596122550965,0.0176912024617195,-0.0058122323825955,0.2582361996173858,0.9659023284912108,0.0300703884279352,0.1340292228473077,2.3616670698298154,0.0063224579207599,0.0637058243155479,0.0137163493782281,0.2557399998977781,0.2186194812320173,-12.358258681297302,14933.0
22.69,1.7999999523162842,265.0,21.437612533569336,34.955997467041016,-79.78280124908827,40.459057192701714,269.12869729805,0.0302487127482891,-0.0011219265870749,0.2597213387489319,0.965209186077118,0.0393895541775777,0.1352487777950697,2.838338421466521,0.1042946800589561,0.1971648782491684,-0.0636894032359123,0.2368805001676083,0.0478676370810717,-12.096581747531893,14934.0
22.8,2.0999999046325684,262.0,21.574085235595703,32.84082794189453,-79.7828013581853,40.459057548692,269.3557733516693,0.0387143865227699,0.0040382714942097,0.2612889111042023,0.9644755721092224,0.0369066657043138,0.1598107555294997,2.939273460482052,0.1318225264549255,0.129739299416542,0.0748279094696044,0.3427578612416983,0.0595280723087489,-11.60294810771942,14934.0
22.99,2.200000047683716,261.0,21.70555114746093,31.695770263671875,-79.78280140706686,40.45905771212462,269.9287294368744,0.0441569536924362,0.0042150025255978,0.2637053430080414,0.9635829329490662,0.0176302048516335,0.1613733209250235,3.087994136629169,0.0788774788379669,-0.0082748876884579,0.0316480584442615,0.3918574061617256,-0.0848060149792581,-10.692821974754333,14934.0
23.1,2.400000095367432,255.0,21.763145446777344,29.55674362182617,-79.78280135951205,40.459057593850346,270.24063577461243,0.0440546311438083,0.0020005507394671,0.2638656795024872,0.9635508060455322,0.0131759151300091,0.1163231003395412,3.1462241997147817,-0.0610834769904613,0.0141932806000113,-0.0076555167324841,0.2761756348796189,0.060433988738805,-10.423923729658126,14935.0
23.39,2.799999952316284,245.0,21.87332534790039,29.1193962097168,-79.7828011040328,40.45905711840381,271.1752501945496,0.0422099120914936,-0.0031274480279535,0.2611187100410461,0.9643782973289492,0.0035812948851066,-0.042286237609454,3.1807697460108977,-0.0120141841471195,-0.0027840167749673,-0.0432227626442909,0.3521137351915241,0.157809644434601,-9.812247669696808,14936.0
23.6,2.799999952316284,241.0,22.02231979370117,27.664220809936523,-79.78280093905542,40.45905660377908,271.806903503418,0.0372708514332771,-0.0036985862534493,0.2593379318714142,0.9650601148605348,-0.0312769578109989,-0.1467922154337737,3.1390242698133286,0.0726706907153129,0.0235330145806074,-0.0395194292068481,0.3332771857827902,0.1172348374407738,-9.57502613067627,14936.0
23.8,3.0,234.0,21.8282527923584,30.049753189086918,-79.78280096329381,40.459055783680405,272.4283758621216,0.0319541804492473,-0.0016947865951806,0.2580440938472748,0.9656031727790833,-0.0969238588273898,-0.2224230526954178,3.0480415708283624,0.1024518758058548,-0.1315920203924179,-0.0043535763397812,0.419139673858881,-0.0874027817230671,-9.467610440254212,14937.0
23.9,3.0999999046325684,231.0,21.89085388183593,28.483253479003903,-79.78280089615545,40.45905536219952,272.72966208267206,0.0292086694389581,-0.0002034082863247,0.2579856216907501,0.9657071232795716,-0.1263179430155161,-0.2614594320612911,3.0267339338452746,0.1463711559772491,0.0572088472545146,0.0350728556513786,0.3872563418000937,0.087721665110439,-9.55520523905754,14937.0
24.0,3.299999952316284,224.0,22.057376861572266,28.212894439697266,-79.78280125585445,40.45905500439065,272.9955769996643,0.0272714495658874,0.0024488451890647,0.257297933101654,0.9659441709518432,-0.1920596900096924,-0.2594192120307033,2.960959867047656,-0.1114450618624687,-0.0905886515974998,-0.0217415243387222,0.2743975331448018,0.3014769207313657,-9.580024915337566,14937.0
24.19,3.299999952316284,219.0,21.94719696044922,27.966388702392567,-79.78280118827163,40.45905411728072,273.5770069580078,0.0236467570066452,0.0081473225727677,0.257851630449295,0.9658607244491576,-0.2070780519255144,-0.3003692133309747,2.89867290122074,0.120184913277626,-0.0171336159110069,0.1272396892309188,0.5103492213785649,-0.0684097187966108,-9.6029717284441,14938.0
24.3,3.299999952316284,216.0,21.95721244812012,27.266632080078125,-79.78280107253701,40.45905332948775,274.00286545562744,0.0220800153911113,0.0072420574724674,0.2575187087059021,0.965993881225586,-0.2508739698763946,-0.3053223934149866,2.9308051419903385,-0.1063245758414268,0.0254317950457334,-0.1065559983253479,0.3671076406538487,0.2414136637374759,-9.488042365908624,14939.0
24.49,3.299999952316284,215.0,21.884593963623047,28.18903923034668,-79.78280097559713,40.459052297738815,274.6789356689453,0.0158064179122447,0.0042995158582925,0.2569023072719574,0.9662986397743224,-0.2201530397303504,-0.344941162588223,2.9108472871053253,0.1068851798772812,-0.1039429157972335,-0.0251326709985733,0.4738874463737011,-0.0587788110086694,-9.449790465831756,14939.0
24.6,3.400000095367432,209.0,21.91714859008789,28.60253143310547,-79.78280091204864,40.459051395841854,275.2522875289917,0.0095492089167237,0.002104687038809,0.2559129297733307,0.9666504263877868,-0.2387280325991488,-0.3543053740404279,2.862085998339293,-0.212745726108551,-0.0317149385809898,-0.0080299293622374,0.4649018839001656,0.0412350946851074,-9.518778254985811,14940.0
24.79,3.5,208.0,21.914644241333008,28.419639587402344,-79.78280097511436,40.45905079046216,275.63064827728266,0.0077061001211404,-0.0001603112468728,0.255459725856781,0.9667890071868896,-0.217768325728388,-0.3680721700533064,2.9045935928926747,0.053596194833517,-0.0741102322936058,-0.0211425703018903,0.4026939778402448,-0.0347241012845188,-9.706147602796555,14940.0
24.89,3.400000095367432,208.0,22.0423526763916,26.82928466796875,-79.7828009646441,40.459050369122174,275.9197384338379,0.0058626811951398,-0.0006991021800786,0.2550593614578247,0.9669074416160583,-0.200804682083873,-0.3562964788065552,2.891013288450577,0.0925906375050544,-0.0546095110476017,0.0863764435052871,0.406162655800581,-0.0380314988759346,-9.694735592007635,14940.0
25.1,3.5,208.0,21.929668426513672,27.990243911743164,-79.78280091259255,40.45904930150069,276.59543576049805,0.0037718415260314,0.0011074655922129,0.2545578181743622,0.9670495390892028,-0.2283376565141364,-0.330276714992351,2.913400325354172,-0.118655115365982,-0.0625834092497825,-0.0282435733824968,0.3496970078721643,0.191251168102026,-9.57720831155777,14941.0
25.2,3.5,210.0,21.944692611694336,28.196990966796875,-79.78280093613702,40.45904892964128,276.8851086120605,0.0033969946671277,0.0019089878769591,0.2554408609867096,0.9668169021606444,-0.2170694010277133,-0.3019083312646854,2.8870302572392483,-0.0190668068826198,-0.0782125368714332,0.0088938660919666,0.3846966135129333,-0.0414633736386895,-9.574357209205628,14941.0
25.39,3.5,208.0,21.803211212158203,29.1193962097168,-79.78280073074801,40.459048170024346,277.5290400009156,0.0029665997717529,0.0026433209422975,0.2567190229892731,0.9664779901504515,-0.2120950105458603,-0.2662762544143263,2.879295989069884,0.0400629267096519,0.0301904827356338,0.0107489135116338,0.3501891607046128,0.0838474461995065,-9.544351052641868,14942.0
25.5,3.5,209.0,21.87958526611328,28.276508331298828,-79.78280074818824,40.459047443034095,278.165431640625,0.0010450705885887,0.0034210700541734,0.2559989094734192,0.9666705131530762,-0.1715143278161378,-0.2221389600919162,2.91463613607112,0.0576842613518238,-0.0915721654891967,0.0293939933180809,0.2916891202703118,0.2917336687445641,-9.654505578875543,14943.0
25.69,3.5,210.0,21.92716407775879,27.34615135192871,-79.78280077757024,40.45904719897455,278.45636524963385,-0.0012192104477435,0.0037429947406053,0.2554560005664825,0.9668126702308656,-0.1623957593843803,-0.198453041969589,2.904204199407463,0.1216858178377151,0.0648738890886306,0.0018864918965846,0.3383917818590999,0.1109235173184424,-9.688045207858089,14943.0
25.8,3.5,207.0,21.86080551147461,27.60855865478516,-79.78280053146709,40.45904687766514,278.79352249908453,-0.0029706456698477,0.0032396337483078,0.2546769082546234,0.9670162796974182,-0.158570620746921,-0.1966615247381189,2.9192560686577207,-0.2158342152833938,-0.1109822392463684,-0.0402868129312992,0.2671257530339062,0.2443158378638328,-9.58174984395504,14943.0
25.99,3.400000095367432,209.0,21.753129959106445,29.38975715637207,-79.78280037287995,40.459046478899495,279.41082634735113,-0.0060990187339484,0.0014026775024831,0.2548497319221497,0.9669604897499084,-0.0921389714785138,-0.1777167632938488,2.9195747219712302,0.1542336791753769,0.0527668967843055,0.0653879791498184,0.2859800633601844,0.0148621238395571,-9.756584515571594,14944.0
26.1,3.299999952316284,211.0,21.684267044067383,29.071685791015625,-79.78280039978729,40.45904624820199,279.9973131637573,-0.0039984514005482,0.0016268818872049,0.2544656991958618,0.9670722484588624,-0.0695928940235915,-0.0936697971029429,2.942951186210973,0.0537104420363903,-0.0356872417032718,0.0510749034583568,0.240784192699939,0.3318190363794565,-9.829267745018006,14944.0
26.3,3.2000000476837163,211.0,21.78067398071289,28.45939826965332,-79.78280031063152,40.45904622010107,280.31315293121344,-0.0029260828159749,0.0004557907232083,0.2535666227340698,0.9673134088516236,-0.0649074496178851,-0.0574801485154823,2.962827116097184,-0.0595967583358287,0.0837582275271415,-0.0717049986124038,0.3033377605676651,0.2079437262564897,-9.896952774524689,14945.0
26.4,3.2000000476837163,212.0,21.71932411193848,29.62830924987793,-79.78280034293648,40.45904618505599,280.60943856048584,-0.0022622987162321,-0.0020429044961929,0.2530790567398071,0.9674408435821532,-0.0492581570257875,-0.0183755445335519,2.9616265382370304,-0.0904862955212593,-0.0793779268860817,0.0541078746318817,0.3173515995964408,-0.0380474302545189,-9.836476192474368,14945.0
26.59,3.0999999046325684,215.0,21.743112564086918,29.02397537231445,-79.78280020895245,40.45904626978357,281.20620503234863,-0.0029145607259124,-0.0040346896275877,0.250648021697998,0.9680655598640442,-0.0032667374641802,0.0277526836801873,2.9769055487231824,-0.1021910235285759,0.0297145135700702,0.0203651394695043,0.1284224978741258,0.2336011989042163,-9.933739947080614,14946.0
26.7,3.0999999046325684,214.0,21.818235397338867,29.31818962097168,-79.78280025394794,40.459046314658224,281.5047937850952,-0.0016834490234032,-0.0025259999092668,0.2500419318675995,0.9682302474975586,0.0218563159213863,0.0490195080396096,2.9920733780515563,0.1158377379179,0.0186530891805887,0.0323856249451637,0.2400674336962402,-0.1356682487390935,-9.953571363687516,14946.0
26.79,3.0,211.0,21.78818702697754,28.42759132385254,-79.7828002131182,40.45904645256885,281.8104988555908,0.0010264434386044,-0.0013530802680179,0.2492143511772156,0.9684468507766724,0.0055818808481173,0.0853465416361807,2.973759206530004,-0.0898716747760772,0.1059377118945121,-0.0559292957186698,0.2073754134401679,0.1673528302833438,-9.754462561011314,14946.0
27.0,2.900000095367432,207.0,21.683013916015625,29.42156410217285,-79.78280008053645,40.45904679025049,282.39460053253174,0.0063125095330178,-0.0064107491634786,0.2468232810497284,0.969018816947937,0.0472054451764098,0.1416471936281678,2.9025774216031546,-0.0435061044991016,0.0651943236589431,0.011095106601715,0.2490492685697973,0.0569634652510285,-9.501795017123223,14947.0
27.2,2.900000095367432,205.0,21.680509567260746,28.849035263061523,-79.78280021218255,40.45904702563613,282.9680916290283,0.0077536492608487,0.0010794582776725,0.2471228837966919,0.9689525365829468,0.0624203600136783,0.1908856741565504,2.82911519533198,0.2249281406402588,-0.0684523582458496,-0.0160207469016313,0.2207282612845302,-0.1333788445405662,-9.468989798426628,14947.0
27.29,3.0,206.0,21.577842712402344,30.31216239929199,-79.78280009652661,40.459047335225726,283.2750240783692,0.0073251058347523,0.0088381813839077,0.2477761656045913,0.9687493443489076,0.0305134365885468,0.2001136389826329,2.81573999570976,0.1851219832897186,0.1334504038095474,0.0061628008261322,0.16198340523988,0.0324400418065488,-9.495157257914544,14948.0
27.49,2.900000095367432,203.0,21.73434829711914,28.849035263061523,-79.78280017993904,40.45904779391624,283.85235371398926,0.0095406314358115,0.0128930751234292,0.2503101229667664,0.9680328965187072,0.0166599873946836,0.2454422518308958,2.8339905412759707,-0.0695269703865051,0.061351541429758,0.0599772259593009,0.2395579767599702,-0.0371546472189948,-9.764893993735312,14948.0
27.59,2.900000095367432,198.0,21.640443801879886,29.99409103393555,-79.78280019776683,40.45904797090762,284.13588871765137,0.0102545907720923,0.0052640405483543,0.2507583200931549,0.9679811000823976,0.0320450270484797,0.2516742439260554,2.8267154006589497,-0.1756988316774368,-0.1063228026032447,0.011754180304706,0.3011786213703453,-0.1818926263600588,-9.747128983139993,14949.0
27.79,2.799999952316284,197.0,21.510231018066406,31.10733985900879,-79.7828002074813,40.45904842996325,284.70114483642584,0.0136229693889617,-0.0103034544736146,0.2494235336780548,0.9682438969612122,0.1361981841917564,0.243080024168547,2.838429719172832,-0.0502211935818195,-0.0850616842508316,0.0330800227820873,0.2661631734296679,-0.0054985114652663,-9.884705196619032,14949.0
27.9,2.799999952316284,194.0,21.600378036499023,30.002042770385746,-79.78280018462482,40.45904892966596,285.27050747680664,0.013824132271111,-0.0077628842554986,0.2483698427677154,0.968535542488098,0.1553909725413052,0.2574125606951389,2.852206446703492,0.0551875308156013,-0.1083541139960289,-0.0269301310181617,0.2487223543971777,0.2129563797824085,-9.906303641796113,14950.0
28.09,2.799999952316284,194.0,21.646705627441406,29.31818962097168,-79.7828002257669,40.45904911046385,285.5579544525146,0.0130605939775705,-0.0015865277964621,0.2483088076114654,0.968591570854187,0.1294417823157666,0.2599999248262531,2.883442968711916,0.2153542190790176,0.0830112919211387,-0.0043780752457678,0.2261009571142495,0.0351294869184494,-10.03508505821228,14950.0
28.19,3.0,196.0,21.86330986022949,26.04205894470215,-79.78280027355748,40.45904928170585,285.8481918792725,0.0148095898330211,0.0039298301562666,0.2489561289548874,0.968393623828888,0.082535778656836,0.2541756934282825,2.9011686460382418,0.0263678971678018,0.0112413335591554,-0.0032970753964036,0.2312855005078017,-0.0152883493155241,-9.993834121227264,14950.0
28.39,3.0999999046325684,196.0,22.07991409301757,24.17339324951172,-79.78280043947899,40.45904968060329,286.41693844604487,0.0196756720542907,0.0079600941389799,0.2486584782600403,0.9683586359024048,0.0566227794916041,0.2751343489522578,2.7881038290198257,-0.0650115311145782,-0.0558630973100662,0.0355166234076023,0.2393742645531893,-0.2312233372963965,-9.122410708665848,14951.0
28.5,3.299999952316284,205.0,22.36162567138672,20.99268341064453,-79.7828004477838,40.459049952941214,286.6909977416992,0.0206108018755912,-0.0006154731381684,0.2471573948860168,0.9687559604644777,0.0776570523836664,0.2668945636557201,2.6643974458489006,-0.0079290084540843,-0.0165973957628011,0.0644615888595581,0.2519429459609092,-0.1926576975546777,-8.728182073831556,14951.0
28.69,3.2000000476837163,204.0,22.190093994140625,23.1953239440918,-79.78280043738837,40.45905023181056,287.1977287750244,0.016818368807435,-0.0048721386119723,0.2456522434949875,0.9691998958587646,0.1379915490681185,0.2036059577438408,2.3668665864174083,0.153674229979515,-0.1125670298933982,-0.0070802355185151,0.1677127629518509,0.081150765158236,-8.256394216418267,14952.0
28.79,3.0,202.0,22.17882537841797,23.219179153442383,-79.78280052186331,40.4590505459954,287.66089215087885,0.013252455741167,-0.0023720997851341,0.2473429888486862,0.9688344597816468,0.0762026709374546,0.1360904032033983,2.1028167873867583,0.0397503040730953,-0.002207476645708,-0.0271783620119094,0.1617987976782024,-0.1008555164560675,-8.285800448656083,14952.0
29.0,2.900000095367432,207.0,22.09368705749512,24.268814086914062,-79.78280054872816,40.45905069082061,287.8774944763184,0.0156414899975061,-0.0032362062484025,0.2495623379945755,0.968226969242096,0.0693982457261961,0.126748270754848,2.006066703314462,0.0001553774054627,-0.0374176576733589,-0.027810301631689,0.1026556548848748,0.0093335723038762,-8.540502238869669,14952.0
29.1,2.900000095367432,238.0,22.08617401123047,24.61074066162109,-79.78280054396542,40.45905076710656,288.0730720977783,0.015266534872353,-0.0041033774614334,0.2515192031860352,0.9677232503890992,0.071707811952049,0.1258638878888009,1.9019012293991908,-0.0083190035074949,-0.0892119407653808,-0.0498743802309036,0.1706491250172257,0.0431178524438291,-8.708002747893334,14953.0
29.29,2.900000095367432,243.0,21.982254028320312,25.06399154663086,-79.78280052925774,40.45905096859136,288.44956745910645,0.0127095533534884,-0.0058302134275436,0.2492991536855697,0.9683256149291992,0.0682242475657659,0.1065594442059211,1.7497886055446308,-0.0199049264192581,-0.058780875056982,0.054907601326704,0.1707947572320699,0.1284620305337012,-8.912112674117088,14953.0
29.39,2.700000047683716,266.0,21.95721244812012,24.761823654174805,-79.78280052759614,40.45905103392644,288.62091221618647,0.0095949340611696,-0.0059507712721824,0.2450601011514664,0.9694421887397766,0.0545849069498802,0.1035197169214811,1.6761357469710023,-0.0678853169083595,-0.0798278823494911,0.1090182438492775,0.1438033976498991,0.0590523190889507,-9.022831456661224,14953.0
29.6,2.5999999046325684,268.0,21.83576393127441,26.535070419311523,-79.78280057476059,40.45905123980644,288.9768349151612,0.0085230050608515,-0.0065446030348539,0.2340765595436096,0.9721587896347046,0.0347192097100709,0.0936039364188465,1.6149671392681493,0.113844983279705,-0.0121951419860124,0.1260732412338256,0.272263463884592,-0.2002468718402088,-9.314982324242592,14953.0
29.71,2.400000095367432,246.0,21.829504013061523,26.19314384460449,-79.78280080670487,40.45905137184118,289.34633412170416,0.0069953766651451,-0.00618895329535,0.233896791934967,0.9722166061401368,-0.0174143789778969,0.1156530263009742,1.6463791470182076,-0.0640183761715889,0.0104877147823572,-0.1172417104244232,0.2228957693092525,0.1163787228427827,-9.462363733649257,14954.0
29.89,2.200000047683716,201.0,21.99352264404297,24.58688545227051,-79.78280090005137,40.459051432474695,289.51053013610834,0.007746126037091,0.0001265496539417,0.2382685244083404,0.9711685180664062,-0.023003349762481,0.1193434141945033,1.6392526600747408,0.0530958659946918,0.00601327419281,-0.085422858595848,0.1261697484087199,0.0221519572287798,-9.7061569583416,14954.0
29.99,1.8999999761581416,199.0,21.96597671508789,25.517242431640625,-79.78280075259504,40.45905168393951,289.77260365295416,0.0107061397284269,0.0077384910546243,0.2439186722040176,0.9697057604789734,-0.0272604443506502,0.1385586084225517,1.7293250968287566,0.0781564861536026,0.0226990394294262,-0.084934577345848,0.1882988541014492,-0.1193973296508193,-9.639817373156546,14954.0
30.2,1.7000000476837158,204.0,22.141263961791992,21.87532997131348,-79.78280091615396,40.45905184567794,290.1127277832031,0.0148756625130772,0.0134787783026695,0.2556152641773224,0.9665701985359192,-0.035504799666481,0.1683181985303159,1.6750646708784531,-0.0587638095021247,-0.0284115672111511,-0.1119398772716522,0.2755734630301595,0.0175205330271273,-9.597360155582429,14955.0
30.29,1.7999999523162842,212.0,23.08656311035156,8.611771583557129,-79.78280100178628,40.459052129408185,290.4174972991944,0.0132316667586565,0.007137066219002,0.2599643170833588,0.9655011892318726,0.0255711681100516,0.1784199618387212,1.5298165000528088,-0.0053616887889802,-0.1316519230604171,-0.042278729379177,0.3007240003533661,0.2400092173554003,-9.47433824658394,14955.0
30.49,1.7000000476837158,212.0,22.60828018188477,18.14594841003418,-79.78280116629952,40.45905234864728,290.53705372619635,0.0037083553615957,-0.0001569536398164,0.2538403868675232,0.9672389626502992,0.0400698011093633,0.181287822233111,1.2342912493445417,-0.1767880320549011,-0.2629129588603973,0.3882869780063629,0.3722175589576364,0.2302556779235601,-7.245615867376327,14955.0
30.6,1.600000023841858,203.0,22.382909774780277,20.56328773498535,-79.78280117982943,40.45905249356596,290.6477333526612,-0.0007722453447058,-0.0081399120390415,0.2199791669845581,0.9754703044891356,0.0893325940184539,0.1537931854932839,0.9856998662063088,-0.0882904157042503,-0.0361058115959167,0.821071445941925,0.0582606243621558,0.4302461676299572,-7.335933714509013,14955.0
30.79,1.600000023841858,210.0,22.22264862060547,22.137739181518555,-79.78280121447659,40.45905291591453,290.77858891296387,0.0087682623416185,0.0016964623937383,0.1107247099280357,0.9938109517097472,0.0824632632304935,0.1874629512505544,0.6586895915765718,0.0067982440814375,0.0674584135413169,1.350266933441162,0.3063436679542065,-0.0305691817612387,-8.25987857222557,14955.0
30.9,1.600000023841858,202.0,22.21138000488281,21.811716079711918,-79.78280119728758,40.45905309935815,290.8391205291748,0.0124730709940195,0.0010423969943076,0.0429642498493194,0.9989982843399048,0.0643013356473091,0.2088363578785595,0.551919326361902,-0.0694658607244491,0.0984885245561599,1.3377950191497805,0.2541977419517934,0.0351121554058045,-8.6522928160429,14955.0
31.09,1.600000023841858,200.0,22.052370071411133,23.9825496673584,-79.7828012476252,40.45905352544451,290.9001747589112,0.0149252451956272,-0.0045500267297029,-0.107671357691288,0.9940641522407532,0.0049359979658401,0.2154369964717664,0.4274945691408373,-0.0046566305682063,0.0085651678964495,1.525065541267395,0.2903305745311081,-0.1079886992834508,-9.179206468462942,14955.0
31.2,1.600000023841858,220.0,22.05362129211425,23.322553634643555,-79.78280124322332,40.45905372402661,290.9331146697998,0.0157744884490966,-0.0071483105421066,-0.1641819477081298,0.9862781167030334,-0.0477909458372452,0.1970544741287268,0.3625349738623669,-0.0133372964337468,0.0335377380251884,1.5869134664535522,0.1874183182418346,-0.1162230772711336,-9.419114803075791,14955.0
31.39,1.600000023841858,230.0,22.07240104675293,24.252910614013672,-79.78280145120361,40.45905409990418,290.98431172180176,0.0211290214210748,-0.0079049253836274,-0.3135505318641662,0.9493035078048706,-0.1307007718049462,0.1242894591013949,0.3470976255080237,0.114904835820198,0.0636712238192558,1.404544711112976,0.1500187046639621,-0.1923473565839231,-9.60709635436535,14955.0
31.5,1.600000023841858,222.0,21.944692611694336,25.024232864379893,-79.78280190154503,40.4590541548827,291.03300442504883,0.0234839022159576,-0.0042161154560744,-0.3762733638286591,0.9262014031410216,-0.1725294970486077,0.0598268979803885,0.3882076702094204,0.1300148069858551,-0.0072784372605383,1.2264821529388428,0.1302609264291823,-0.3776879581063986,-9.66485456585884,14956.0
31.69,1.600000023841858,215.0,21.408815383911133,30.94035148620605,-79.78280225487735,40.45905439591354,291.11416592407227,0.024277027696371,0.00023762267665,-0.4514337182044983,0.8919743895530701,-0.2295065308267333,-0.0346311954176197,0.4291314681522314,-0.0684033036231994,-0.1261528432369232,0.5708039999008179,0.0912440460920334,-0.8090865388512611,-10.028126871585846,14956.0
31.8,1.600000023841858,222.0,21.73810386657715,27.87891960144043,-79.78280247115893,40.45905462984963,291.12555661010737,0.0273676477372646,0.003036173293367,-0.4717310667037964,0.8813125491142273,-0.20598196455202,-0.0831945872065543,0.5119932308844983,0.2495891153812408,0.0824979916214943,0.3581846952438354,0.109159841760993,0.0366914426721632,-10.4394855093956,14956.0
31.99,1.7000000476837158,219.0,21.96472549438477,24.793630599975582,-79.78280304844641,40.459054942559206,291.13503231811524,0.0201623570173978,0.0462359450757503,-0.4791039228439331,0.8763077855110168,-0.1711598992389862,-0.0389936706233981,0.5523462391587425,0.0599748641252517,-0.5401214361190796,-0.0564885176718235,0.5741105499118567,-0.5667964505776764,-10.349571704864502,14956.0
32.1,1.7000000476837158,206.0,21.895862579345703,25.5649528503418,-79.78280314418322,40.45905508182221,291.2534710388184,-0.041934099048376,0.0515996254980564,-0.4686031937599182,0.8809030652046204,-0.0849292910840341,0.0525570113113927,0.6134684225928315,-0.2209570705890655,-0.5132632851600647,-0.0541437081992626,0.2309087936393917,-0.5538939479738474,-10.14615175008774,14956.0
32.29,1.7999999523162842,199.0,21.9209041595459,25.437725067138672,-79.7828030575957,40.45905519109272,291.2338940124512,-0.067214511334896,0.0493873991072177,-0.4597635269165039,0.8841156959533691,-0.0539064655184554,0.1562857269776592,0.6158230411782557,-0.1539033204317093,-0.3657837510108948,-0.0222629457712173,0.0442149225762114,-0.1734493748657405,-10.216389673948289,14956.0
32.4,1.8999999761581416,174.0,21.988513946533203,25.46953201293945,-79.78280275788308,40.459055367121145,291.29498066711426,-0.0847789049148559,0.0502001866698265,-0.4535166025161743,0.8857850432395935,-0.0282430698860314,0.3038018610945011,0.6839972430364764,-0.0637219175696373,-0.263813316822052,-0.0691688060760498,-0.0242916338774375,-0.1544879143126309,-10.249525845050814,14956.0
32.6,2.0,164.0,22.02482414245605,25.07989501953125,-79.78280166996055,40.45905589866054,291.32499089050293,-0.0986067876219749,0.0654744505882263,-0.4432125389575958,0.8885677456855774,0.022843401904878,0.6647303246508205,0.7513680647864021,0.2267825603485107,-0.1540981829166412,-0.0002001862740144,-0.0423180584097281,-0.1945119410008192,-10.043320276737212,14956.0
32.69,2.200000047683716,157.0,21.829504013061523,26.16133689880371,-79.78280077004369,40.45905637627239,291.3821293334961,-0.1011884436011314,0.0759142860770225,-0.4406744837760925,0.8887091875076294,0.0303154205474293,0.8886117094494269,0.7842585868368852,0.2049199491739273,-0.1697779148817062,-0.1085857972502708,0.0059196160594001,-0.3481949678063393,-9.844964010715485,14956.0
32.89,2.200000047683716,152.0,22.033588409423828,23.767852783203125,-79.78279834916505,40.45905748559539,291.38878788757324,-0.1152209043502807,0.0850924029946327,-0.4376924932003021,0.8876423239707947,0.0755222139107336,1.349814346643841,0.8804790012895243,0.0541726350784301,-0.2033856660127639,0.13115194439888,-0.044329135143198,-0.4844851227477193,-10.119115394353868,14956.0
33.0,2.400000095367432,133.0,22.012304306030277,24.38809013366699,-79.78279482596399,40.45905885449055,291.3745647888184,-0.1314050853252411,0.0884685590863227,-0.4388100206851959,0.8845065236091614,0.1558233347202605,1.8369123263653704,0.9996322755663112,0.0489005111157894,-0.1020862236618995,0.0359543114900589,-0.0558368895202875,-0.3410738265886903,-10.078417603969577,14956.0
33.19,2.5,125.0,21.859554290771484,25.80350685119629,-79.78279263338283,40.45905991140615,291.41380276489264,-0.1380722820758819,0.0890060290694236,-0.4397527873516083,0.8829674720764159,0.164309535627339,2.1016898984818884,1.0983997827140284,-0.1273130476474762,-0.0508302859961986,-0.0214635021984577,-0.2473534481227398,0.1190500598587095,-10.02982256412506,14956.0
33.31,2.799999952316284,116.0,21.823244094848643,26.89289855957031,-79.78279011491709,40.45906053978288,291.34406437683106,-0.1412332206964492,0.0890762880444526,-0.4448119997978209,0.8799210786819458,0.2486813515924252,2.351893116429512,1.1680089418695072,-0.0555945746600627,-0.0607991926372051,0.0151805616915225,-0.2040764326415956,-0.0234193594940006,-10.096432875394822,14956.0
33.49,2.900000095367432,111.0,21.888351440429688,26.455551147460927,-79.78278409437561,40.45906272528127,291.32016339111334,-0.1511968970298767,0.0884342640638351,-0.4535556435585022,0.873845636844635,0.2860495294323524,2.8928071266091018,1.3434599924690331,-0.1518811881542205,-0.0855450332164764,0.1522524654865265,-0.3598883027583361,-0.2608087866939605,-10.150498570203784,14956.0
33.6,3.2000000476837163,100.0,21.90337562561035,25.00832939147949,-79.78278068947833,40.45906424947111,291.34690060424805,-0.159166932106018,0.0839856192469596,-0.4542615115642548,0.8725014328956604,0.2622044245720463,3.1940677547982936,1.4429772724276524,-0.2012510001659393,-0.0865866020321846,-0.0046432260423898,-0.3743708692118526,0.0008732953621074,-10.032742663621905,14956.0
33.8,3.400000095367432,96.0,22.00979995727539,23.799659729003903,-79.7827726758453,40.45906689861194,291.3007732849121,-0.1699312925338745,0.0777225345373153,-0.4554680585861206,0.8704203367233276,0.3585327645783272,3.7270294460351767,1.6406730449215587,-0.1334458291530609,-0.0620361790060997,-0.0188448820263147,-0.5986607426404953,-0.1171968031302094,-9.996378829479216,14956.0
33.9,3.700000047683716,86.0,21.99352264404297,24.181344985961918,-79.78276333251577,40.45906977940707,291.24855961608887,-0.1676492989063263,0.0680621117353439,-0.4547620713710785,0.8720393776893616,0.4352146963079863,4.2786782230327045,1.7444029251107631,-0.1394723951816558,-0.0059776264242827,-0.062902808189392,-0.6345754375308752,-0.1202255512028932,-9.88255926847458,14956.0
34.09,3.900000095367432,81.0,22.24142837524414,21.54135513305664,-79.78275847156915,40.45907194820123,291.25591053771967,-0.1630363315343856,0.0683368518948555,-0.4535641968250274,0.873515248298645,0.4156833978315401,4.562909477088678,1.7702827051869208,0.1851236075162888,0.0965898782014846,-0.0800915732979774,-0.6563909605890513,0.1827107249200344,-9.729408996105192,14956.0
34.19,4.300000190734863,73.0,22.24894142150879,21.764005661010746,-79.78275336737845,40.45907427542584,291.2578960876465,-0.1594523191452026,0.0709520131349563,-0.4534209072589874,0.8740425705909729,0.3766818243284125,4.840995034406675,1.76454792387472,-0.072007305920124,0.1101365014910698,-0.1127202436327934,-0.6992566792666912,0.0780158078949898,-9.661961948275566,14956.0
34.39,4.5,70.0,22.117475509643555,22.38424301147461,-79.78274166486847,40.45907765090797,291.1718079071045,-0.1553321182727813,0.0730020701885223,-0.4605281054973602,0.8708941340446472,0.4034360720229697,5.319234469301469,1.7367816713839668,0.0340052358806133,0.0500618778169155,-0.04982191324234,-0.8878104536980391,0.0551650078967213,-9.282816790938377,14956.0
34.5,5.0,65.0,22.126239776611328,23.10785484313965,-79.78272899936081,40.459081720451216,291.0793606262207,-0.1553488373756408,0.0677132681012153,-0.4658998548984528,0.8684578537940979,0.3908663443955321,5.782267475376828,1.7102107815703476,-0.0942864567041397,-0.0155536131933331,0.067273810505867,-1.045746014267206,-0.0248958865134045,-9.259946576356889,14956.0
34.7,5.300000190734863,63.0,22.113719940185547,23.36231231689453,-79.78272273848452,40.45908449576812,291.0449692230225,-0.1535596996545791,0.066133789718151,-0.4660765826702118,0.8688028454780579,0.371623309253536,5.995978793487521,1.7246145436123124,0.0420388504862785,0.0108682857826352,0.0269094798713922,-0.8867564930766821,-0.1057495263218879,-9.528441363573076,14956.0
34.79,5.800000190734862,61.0,21.954710006713867,24.467607498168945,-79.78271515001427,40.45908579363376,290.9883343200684,-0.1518006324768066,0.0671508014202117,-0.47349151968956,0.8650162816047668,0.4780089229897028,6.195120310690532,1.7367178950380424,-0.113202579319477,0.0040361261926591,-0.1164781004190445,-1.1331744597852231,0.3426010462269187,-9.503308276534082,14955.0
35.0,6.099999904632568,61.0,22.06864547729492,23.720142364501957,-79.78270003914116,40.45908972192528,290.90290036010737,-0.1504944860935211,0.0791516453027725,-0.4847438037395477,0.8579685091972351,0.4902260091494634,6.593838605564473,1.8327969762007013,-0.0395479314029216,-0.021701531484723,0.0752434283494949,-1.1524911021441222,0.1364070809818804,-9.60896220088005,14955.0
35.1,6.599999904632568,60.0,21.858301162719727,25.92278289794922,-79.78269282952971,40.459092700767634,290.85777439880366,-0.1498181670904159,0.0824734047055244,-0.4865453243255615,0.8567534685134888,0.3200296892270053,6.792914275474822,1.918422325597128,0.025992227718234,-0.0021374626085162,0.203770324587822,-1.3561980821192263,-0.0249899855721742,-9.637981347441674,14955.0
35.29,6.9000000953674325,60.0,21.88083839416504,24.69025802612305,-79.7826759283378,40.45909671683585,290.76757969665533,-0.1412491053342819,0.0798350796103477,-0.4942932426929474,0.8540194630622864,0.4548247825502986,7.156214630429576,2.09565936960957,-0.1043721437454223,0.0683454126119613,-0.0729206800460815,-1.6037509202957154,-0.0449980063643306,-10.034957588911055,14955.0
35.39,7.400000095367432,58.0,22.10245132446289,23.4179744720459,-79.78265855841136,40.45910122400008,290.65836682128906,-0.142118826508522,0.078820452094078,-0.4976295828819275,0.8520296812057495,0.5542087477254906,7.534773152868482,2.1822770053063434,-0.0218954589217901,-0.0643956735730171,-0.1329405754804611,-1.5690443332493311,-0.0789923385903239,-10.1864647936821,14955.0
35.59,7.699999809265138,59.0,22.06614112854004,22.73412132263184,-79.78265014320462,40.45910438351445,290.6275993804932,-0.1464199125766754,0.0809925496578216,-0.4957512617111206,0.8521926403045654,0.451768162176801,7.703547827406008,2.284788552931772,-0.0080700553953647,-0.1488152146339416,0.2048148363828659,-1.5722655643522745,-0.2061987709254026,-10.043724904060364,14955.0
35.7,8.100000381469728,59.0,22.043603897094727,23.871225357055664,-79.78264154306315,40.459107629040616,290.59733166503906,-0.1489706486463546,0.0833334922790527,-0.4948813021183014,0.8520305156707764,0.4702594772938912,7.853670645994897,2.4190995856127486,-0.016002032905817,-0.1080779656767845,0.0800354704260826,-1.6933738258481026,-0.0282354552112519,-9.834016853570937,14955.0
35.89,8.300000190734862,59.0,22.06363677978516,23.282794952392567,-79.78262192230244,40.45911267953919,290.46202244567866,-0.149403303861618,0.0880472287535667,-0.50080806016922,0.8480080366134644,0.5312499834595225,8.218375343477787,2.5986229798234297,0.0194389037787914,0.0311362575739622,0.0579863004386425,-1.6872060365974904,-0.0341520882770419,-9.733171094655992,14955.0
35.99,8.800000190734863,57.0,21.97348976135254,24.133634567260746,-79.78260173530266,40.45911789793038,290.32859005737305,-0.1485207080841064,0.087719015777111,-0.50743567943573,0.8442488312721252,0.5343873953610563,8.57067347356405,2.7293873363687253,-0.0786103010177612,-0.0236796271055936,0.0255569703876972,-1.9198978838324547,-0.1701354653947055,-9.745129235386846,14955.0
36.19,8.899999618530273,56.0,21.76064109802246,26.240854263305664,-79.78259199285615,40.45912132154778,290.29176869201666,-0.148867055773735,0.0839415118098259,-0.507415771484375,0.8445836901664734,0.5194836310137436,8.753739686284689,2.766853401961081,-0.104217804968357,-0.0180452074855566,0.0968748182058334,-1.6111681133508684,-0.0477697053551673,-9.863223695755003,14955.0
36.3,9.100000381469728,56.0,21.940937042236328,24.316524505615234,-79.78258109033972,40.45912455590917,290.1926342468262,-0.1477423906326294,0.0817327573895454,-0.5088596940040588,0.8441290259361267,0.576049936893515,8.939618764631378,2.7978297490598982,-0.1126007288694381,0.1422322392463684,-0.1961223036050796,-1.6872034053504468,0.2070718333125114,-10.076379264593124,14955.0
36.49,9.300000190734863,55.0,21.76815414428711,26.12952995300293,-79.78255995000616,40.459131642757455,290.0657001953125,-0.1468320488929748,0.0788587555289268,-0.5099430084228516,0.8439075350761414,0.6070005194772591,9.29145114113448,2.8498274268022725,-0.0025967010296881,0.016847925260663,0.1128742471337318,-1.6226777726411818,0.0740994844632223,-10.153574205636977,14955.0
36.59,9.5,57.0,21.811975479125977,26.06591415405273,-79.78254941713439,40.45913532434584,290.03260578918463,-0.1476242691278457,0.0812549069523811,-0.5106310248374939,0.8431256413459778,0.5467867713846888,9.451543095050932,2.9424687305673314,-0.0282350238412618,-0.1342893540859222,0.2895985245704651,-1.7057447800040246,-0.1758037745207548,-10.14470514893532,14955.0
36.79,9.5,57.0,21.640443801879886,27.5369930267334,-79.78252713908319,40.45914312746672,289.9009396057129,-0.1501938253641128,0.0885437354445457,-0.511906623840332,0.8411620259284973,0.5194542106599227,9.768303188532697,3.2055451513832747,0.0597006604075431,-0.1002162992954254,-0.0045226197689771,-1.976048841923476,-0.0735465342923998,-9.85332669854164,14954.0
36.89,9.699999809265137,57.0,21.66548538208008,27.57675170898437,-79.78251602127426,40.4591470373664,289.8743568878174,-0.1499901264905929,0.0907185897231102,-0.5126200318336487,0.8405318856239319,0.4885042155969617,9.911053031026892,3.3609688069131094,0.0884662121534347,0.0030928775668144,0.1631737947463989,-2.003710703551769,0.1243939672876149,-9.917905687093736,14954.0
37.09,9.800000190734863,57.0,21.75813674926757,26.82928466796875,-79.78249249014604,40.459155269884974,289.7648998718262,-0.1489551663398742,0.0921486690640449,-0.5138962268829346,0.8397807478904724,0.4518961473974074,10.237130946288085,3.5771479106144395,-0.0783880203962326,-0.1266179084777832,-0.0156456306576728,-1.7664489649236204,0.2372514146380126,-10.08080209851265,14954.0
37.2,10.100000381469728,55.0,21.362489700317383,30.638185501098643,-79.78248077075943,40.45915937205945,289.7479397277832,-0.153699591755867,0.0938878953456878,-0.5129985809326172,0.8392818570137024,0.46957305787252,10.405455759550998,3.635629840792944,-0.0682007819414138,-0.1346440315246582,0.0049256365746259,-1.5234981778264047,-0.1295012086629867,-9.978084061145784,14954.0
37.4,10.199999809265137,54.0,21.39754676818848,30.70975112915039,-79.78245616669923,40.45916800371915,289.64541592407227,-0.162478506565094,0.096936248242855,-0.5131823420524597,0.8371667265892029,0.509530798711882,10.653447671191945,4.041022621343705,-0.0077441735193133,-0.0643239021301269,-0.0410408973693847,-1.7028743818402292,0.20824438277632,-10.323210117816926,14954.0
37.5,10.399999618530272,54.0,21.46014976501465,29.66011619567871,-79.78243069461044,40.45917692031279,289.58251347351074,-0.1655701547861099,0.0930658429861068,-0.5150042176246643,0.8358803391456604,0.4835489386059845,10.94443698802775,4.362188623859131,-0.0794326066970825,-0.0539171658456325,0.2736266851425171,-2.0569012163579465,0.175033915489912,-10.29116386771202,14954.0
37.69,10.600000381469728,54.0,21.66548538208008,27.74374008178711,-79.78241795443967,40.45918137335357,289.58273854064936,-0.1661220043897628,0.0898899957537651,-0.5151706337928772,0.8360159397125244,0.4770645706187253,11.106365570770464,4.485219806471753,0.0397569648921489,-0.0151474019512534,-0.1482425332069397,-2.018318071514368,0.1106490544974804,-10.275041924715044,14954.0
37.79,10.800000190734863,53.0,21.550296783447266,28.41168785095215,-79.78239120505516,40.459190587789365,289.5421997528076,-0.1576118767261505,0.0863604992628097,-0.5163002610206604,0.8373377323150635,0.4555106188655909,11.369635658168557,4.638383458121696,-0.0599048174917697,0.2449657171964645,0.1031430959701538,-2.186324364691973,-0.0959947078116238,-10.301971861124038,14954.0
38.0,11.0,54.0,21.86581420898437,24.51531982421875,-79.78237717987551,40.45919557217952,289.5058685760498,-0.1396500766277313,0.0788610652089119,-0.5184738636016846,0.8399187922477722,0.4715582567576492,11.558288123115895,4.479207191896338,0.1510485559701919,0.4382707476615906,0.1211756095290184,-2.561784168183804,0.0546000389568507,-10.169732401371002,14954.0
38.09,11.300000190734863,54.0,22.02231979370117,22.6227970123291,-79.78236384851611,40.45920026248918,289.52150692749024,-0.1173998489975929,0.070829376578331,-0.5203639864921571,0.8428652286529541,0.4341326843014951,11.776171763281994,4.130114840906517,0.0371565446257591,0.4968015551567078,-0.1581683307886123,-2.317405637204647,-0.1510089854523539,-10.368116734027865,14954.0
38.3,11.5,54.0,21.86205673217773,24.777727127075195,-79.78233610258866,40.45921010612082,289.5152393798828,-0.0901069417595863,0.0593587011098861,-0.522984504699707,0.8454848527908325,0.3802686877812435,12.142078603678373,3.1661113809082764,-0.0690528228878974,0.1160624846816062,0.0125211402773857,-2.4661357069015506,-0.3347010558843613,-9.697565059661867,14954.0
38.4,11.899999618530272,65.0,22.038597106933597,22.408098220825195,-79.78230850453704,40.45921997400581,289.55042614746094,-0.0795975625514984,0.0551397390663623,-0.5249562859535217,0.8456032276153564,0.368333342603231,12.178425220328718,2.7827161966972738,0.1513339132070541,0.1666536927223205,0.2524777054786682,-2.5927583312988283,-0.5064761353656649,-9.853127893209455,14954.0
38.59,12.100000381469728,66.0,22.246437072753903,20.52352905273437,-79.7822951640928,40.45922465809755,289.57756008911133,-0.0708658695220947,0.0562995336949825,-0.5252536535263062,0.8461188673973083,0.3574942435629366,12.113395208865516,2.6583581729265022,0.1659609228372574,0.098870612680912,-0.0154333701357245,-2.77644393324852,-0.202205195724964,-9.62611383855343,14954.0
38.7,12.5,66.0,22.386667251586918,18.74233055114746,-79.78228190230881,40.45922929026445,289.605071685791,-0.0615361966192722,0.0578144043684005,-0.524466872215271,0.8472339510917664,0.359418784401495,12.070194976543656,2.4840539201519904,0.0018232548609375,0.1200990453362464,-0.2739278972148895,-2.7539198738336563,0.3164500685781241,-9.354817650318148,14954.0
38.9,12.699999809265137,67.0,22.177574157714844,20.96087646484375,-79.7822546973785,40.459238785967,289.6420399169922,-0.049512218683958,0.0493362173438072,-0.5237321257591248,0.8490107655525208,0.4533583355275529,11.951220810740908,2.0338880321826007,-0.0169066246598958,0.1968445479869842,0.2356643080711365,-2.696963900327684,-0.4671971718594432,-9.30234941482544,14954.0
39.0,13.100000381469728,71.0,22.58073425292969,17.215591430664062,-79.78224084008836,40.459243596341054,289.6802326660156,-0.0379511080682277,0.0372517295181751,-0.5243661999702454,0.8498306274414062,0.494675437710405,11.87633695472018,1.86065431270578,-0.1482467800378799,0.3428022265434265,-0.1360038816928863,-2.732305933535099,0.2318266968615353,-9.516927026510238,14954.0
39.19,13.199999809265137,76.0,22.37790298461914,18.6787166595459,-79.78221530208958,40.45925225396317,289.71791615295416,-0.0198389254510402,0.0185588933527469,-0.523310661315918,0.8517088294029236,0.5967380782735591,11.599175009991956,1.0464751546589142,-0.0821322724223136,0.1540080904960632,-0.1535971164703369,-2.4383915457129484,0.0753559551760554,-9.670008886456491,14954.0
39.29,13.600000381469728,76.0,22.5932559967041,17.326915740966793,-79.78220200450595,40.45925675909198,289.749229095459,-0.0121155884116888,0.0100371269509196,-0.5221923589706421,0.8526827096939087,0.669541277069356,11.463920486393532,0.8697542909175695,0.0056853499263525,0.1620715260505676,-0.345310777425766,-2.1846769116818905,0.5164371230453253,-10.13837495326996,14954.0
39.49,13.800000190734863,75.0,22.598262786865234,17.207639694213867,-79.7821769443153,40.459265095924025,289.82330479431147,-0.0149286678060889,-0.0004476477624848,-0.5177567005157471,0.855397641658783,0.7905089961970269,11.091668139624838,0.4415119796248694,-0.4128583669662476,0.040860965847969,-0.4298983514308929,-2.087826993763447,1.0725074777752162,-9.488748709559443,14954.0
39.6,13.899999618530272,81.0,22.740997314453125,15.56162166595459,-79.7821649791885,40.45926899906471,289.8419910888672,-0.0250472519546747,0.000927196117118,-0.5152080059051514,0.8566986322402954,0.8769025752886019,10.884392756648412,0.389904571177374,-0.0115415081381797,-0.3370030224323273,-0.1340218931436538,-2.398852381110192,0.1575217786990106,-8.846978784799576,14954.0
39.79,13.899999618530272,79.0,22.64959716796875,17.024747848510742,-79.78214122235623,40.45927689141799,289.88556065368647,-0.0277571100741624,0.0018454544479027,-0.5119640231132507,0.85855633020401,0.9288020403569924,10.528297045188449,0.5510523599606927,-0.0546736121177673,-0.050022654235363,0.051817387342453,-2.2524518421292306,-0.0846855532005429,-9.024019610881806,14954.0
39.9,13.899999618530272,79.0,22.541921615600582,17.605226516723633,-79.78212983631992,40.45928060599402,289.8830162506104,-0.0207996498793363,-0.0018759815720841,-0.5119245052337646,0.8587766289710999,0.945739867783626,10.380773859254656,0.4318987254498367,-0.0986699238419532,0.3485847413539886,0.042163111269474,-1.8197067207098008,-0.1383681914303451,-9.2710036611557,14954.0
40.09,13.899999618530272,79.0,22.391674041748047,19.48979759216309,-79.78210728178853,40.45928822532535,289.8901077728272,-0.0244292933493852,0.0079111801460385,-0.5144709944725037,0.8571232557296753,0.8616247858596656,10.05782681302213,0.2106536598227462,-0.0054973368532955,0.2044098377227783,-0.1162634491920471,-2.340332131236792,0.2701517054066062,-9.166831421256068,14954.0
40.2,13.699999809265137,80.0,22.54317283630371,18.87751197814941,-79.78208534057316,40.45929569439581,289.9034515838623,-0.033388651907444,0.0245953481644392,-0.5197879672050476,0.8532881736755371,0.7209061563877971,9.808919754173068,0.3721050717041413,0.1790103018283844,-0.2239877134561538,-0.1805760413408279,-2.329588457196951,0.272822402883321,-9.283359412550928,14954.0
40.39,13.600000381469728,78.0,22.322813034057614,20.086181640625,-79.782074776804,40.45929922145496,289.879729888916,-0.0489280000329017,0.0345205590128898,-0.5218948125839233,0.8509055972099304,0.6226247000688399,9.689900520313715,0.5312016904564488,0.0117340059950947,-0.2442348897457123,-0.0039818012155592,-2.2209245324134828,0.0423638265766203,-8.944609159827232,14954.0
40.49,13.399999618530272,79.0,22.34409713745117,20.475818634033203,-79.78206401064999,40.45930308835303,289.9088684539795,-0.0609866641461849,0.0455440953373909,-0.5253471732139587,0.8474766612052917,0.5583000004091816,9.584618101571683,0.8595017330804341,0.1280269622802734,-0.2141481339931488,0.179227277636528,-2.25578402414918,-0.373906344473362,-8.995648335814476,14954.0
40.69,13.300000190734863,79.0,22.256452560424805,21.01653861999512,-79.78204331859881,40.45931001175744,289.83716168212885,-0.0946011617779731,0.0604601874947547,-0.5263699889183044,0.8428106307983398,0.3888722299796557,9.446829651859453,1.3465362512430716,-0.0998198315501213,-0.3156377077102661,0.1751657724380493,-2.1662821559607983,-0.30594856062904,-8.94555173099041,14954.0
40.79,13.100000381469728,71.0,21.84077262878418,25.93073463439941,-79.78203281464562,40.45931387649126,289.8640991668701,-0.113119974732399,0.0694139078259468,-0.5245542526245117,0.8409687876701355,0.3577160990345604,9.394258600692392,1.7002443973734054,-0.0624565556645393,-0.4847611486911774,0.1117480173707008,-2.192132403999567,-0.3140124009177089,-8.762922136187552,14954.0
40.99,13.0,64.0,21.56532096862793,29.42951583862305,-79.78201229282259,40.459321188687895,289.8164860229492,-0.143601655960083,0.0947583615779876,-0.5211314558982849,0.8359554409980774,0.3375900395188884,9.331533868510167,2.442766453473964,0.1185499057173729,-0.3064596652984619,0.1783401817083358,-2.380738437920809,-0.223973191883415,-9.07280410051346,14954.0
41.1,13.0,65.0,21.26482963562012,31.60830116271973,-79.78199135120845,40.45932835864513,289.7073494415283,-0.1701150238513946,0.111760176718235,-0.5180789232254028,0.8307616114616394,0.3545401013178054,9.33494170033307,3.1395838291904727,0.1279384046792984,-0.2336255013942718,0.1071136593818664,-2.3968397694826127,0.2476697276718915,-9.045315170288086,14954.0
41.29,13.0,64.0,21.07451820373535,34.932144165039055,-79.78198110235009,40.459332227243685,289.7073017578125,-0.1850873976945877,0.1195788532495498,-0.5165882110595703,0.827393651008606,0.3456992746070795,9.34404683151894,3.521605369917318,-0.0357839614152908,-0.3295599520206451,-0.3099295496940613,-2.6448766109347344,0.2924389525875449,-9.480627511739732,14954.0
41.4,13.199999809265137,55.0,20.96558952331543,35.194549560546875,-79.78197025964964,40.45933591397646,289.65832676696783,-0.2017488330602646,0.1247291788458824,-0.5129337310791016,0.8250085711479187,0.3550472804353651,9.37852683630741,3.92506270407737,-0.1350280195474624,-0.3539940714836121,0.1393067240715026,-2.683545709848404,0.2270032373070717,-9.678655164241787,14954.0
41.59,13.199999809265137,52.0,20.93553924560547,36.18852233886719,-79.78194858396319,40.459343726407056,289.5784527282715,-0.2215323597192764,0.1201954036951065,-0.5059029459953308,0.8249477744102478,0.4626094031520234,9.462721866609504,4.757607175341601,-0.1112508028745651,-0.0689952298998832,0.0649836212396621,-2.636967959403992,-0.0754588661715388,-10.325499887466432,14954.0
41.7,13.300000190734863,52.0,20.98186492919922,35.44900894165039,-79.78193706682647,40.45934770031531,289.5426956634521,-0.2218934744596481,0.1188637986779213,-0.5032773017883301,0.8266478776931763,0.5571488349144239,9.631443897679986,4.97631305023353,-0.0222474280744791,-0.0929881185293197,-0.2329154312610626,-2.780138204097748,0.0288978168368339,-10.279460080862046,14954.0
41.89,13.399999618530272,51.0,21.142127990722656,33.01576614379883,-79.78191373077479,40.45935600664172,289.47671665954584,-0.2054539024829864,0.1152536794543266,-0.5003750920295715,0.8331447839736938,0.6571237613390222,9.991493183758172,5.230546103407708,-0.0111462567001581,0.3177704215049744,0.0375516489148139,-2.9229839283227923,0.1057833122648298,-10.591499083042144,14954.0
42.01,13.5,50.0,21.147136688232425,33.03961944580078,-79.78188942318589,40.459364642380855,289.4232346038818,-0.1834263950586319,0.1131617575883865,-0.5016616582870483,0.8377856612205505,0.7371206929981695,10.46483578002244,5.088815110544296,0.1435172855854034,0.1121971234679222,0.2997184097766876,-2.7838991332054137,0.0915921381488442,-10.66096751332283,14954.0
42.2,13.600000381469728,51.0,21.302391052246094,30.16903114318848,-79.7818768424044,40.45936905051343,289.4304481964112,-0.1726752072572708,0.1135855913162231,-0.5045340657234192,0.8382882475852966,0.7154613083051551,10.638026760819605,5.082277457514887,0.0608648359775543,0.185118168592453,0.0822846144437789,-3.081833481788636,0.1074431175179779,-10.576296322345732,14954.0
42.3,13.899999618530272,50.0,21.57909393310547,28.610483169555664,-79.78186433214276,40.45937350316775,289.39667668151856,-0.1604357957839965,0.1110779047012329,-0.5087614059448242,0.8385009765625,0.6762977615834568,10.784830598813748,4.998762990370096,0.1376290172338485,0.4094205796718597,-0.2537349760532379,-2.962295343875885,0.3489399396255612,-10.593978302478789,14954.0
42.49,14.100000381469728,49.0,21.6917781829834,26.527118682861328,-79.78183860318266,40.459382503772105,289.3924175720215,-0.1452435851097107,0.0981209352612495,-0.5145606398582458,0.8393473625183105,0.5716776797799583,11.132223300274577,4.6005954707358,-0.0556438341736793,-0.0273073371499776,0.0423826910555362,-2.896714434921741,0.3542239222303033,-9.750788170695303,14954.0
42.59,14.300000190734863,52.0,21.74060821533203,25.01628112792969,-79.7818125756824,40.4593913727694,289.45427479553217,-0.1391363441944122,0.0782609432935714,-0.5147420763969421,0.842352032661438,0.6302795325439128,11.314904242728216,4.3316947865597495,-0.2634557783603668,-0.0903031453490257,0.1499080806970596,-2.901669657826424,0.2786968629062176,-9.820624390840528,14954.0
42.79,14.300000190734863,55.0,21.54403686523437,27.902774810791016,-79.78179955199292,40.45939588485472,289.4036499481201,-0.1402463912963867,0.0691819861531257,-0.5128779411315918,0.8440978527069092,0.7047822144903351,11.422914757251688,4.060087971164628,-0.2077006697654724,-0.0887636244297027,0.1707315444946289,-2.912019229531288,-0.0376703944802284,-9.206866722106934,14954.0
42.9,14.5,55.0,21.680509567260746,27.05988693237305,-79.78178646551919,40.459400308480575,289.4294868927002,-0.1412215679883957,0.0646803751587867,-0.5109907388687134,0.8454356789588928,0.827693967737222,11.475823147363618,3.9537361321041535,-0.0253099296241998,0.0586218535900116,-0.1189474985003471,-2.9409866282343864,0.5471303274482489,-9.01117912530899,14954.0
43.09,14.600000381469728,55.0,21.87958526611328,24.197248458862305,-79.78176013884915,40.45940962022177,289.3798634033203,-0.136813536286354,0.0577173195779323,-0.5097106099128723,0.8474349379539491,0.8779483506443575,11.51546272314094,3.74805880383405,0.0160882081836462,0.1747243702411651,-0.159643292427063,-2.743917919099331,0.3537295766919851,-9.30180562376976,14954.0
43.19,14.699999809265137,59.0,21.843276977539062,24.865196228027344,-79.78174708313789,40.45941406425344,289.38865818786616,-0.1332581639289856,0.0573495663702488,-0.5103957056999207,0.847614049911499,0.9170612463811324,11.558726502867794,3.52039779605568,0.1000310629606247,0.0515996925532817,-0.1041055545210838,-2.696527405679226,0.4601298981159926,-8.826298352479936,14954.0
43.39,14.699999809265137,60.0,21.48644256591797,28.4912052154541,-79.78172053888167,40.45942282496948,289.39488377380366,-0.141258105635643,0.0613173805177211,-0.5125286579132079,0.8447489738464355,0.8538071876434749,11.592839855022993,3.2990456517266766,-0.0426275767385959,-0.1890289038419723,0.0803519263863563,-2.556950859725476,0.233863318618387,-8.334027698636055,14954.0
43.5,14.699999809265137,61.0,21.74186134338379,25.07194328308105,-79.78169416408903,40.45943184316268,289.4159275512696,-0.1318413317203521,0.0585273914039135,-0.5225744247436523,0.840302586555481,0.6187885543697795,11.583699153247863,3.469705813887359,0.2428685277700424,0.1015741303563118,-0.1879954189062118,-2.5944587016105647,0.0388816269300878,-8.911745468974113,14954.0
43.69,14.600000381469728,61.0,21.68802261352539,26.61458778381348,-79.78168117547959,40.459436370741294,289.40009274291987,-0.1194713860750198,0.0672889873385429,-0.5284023284912109,0.837848424911499,0.4037619064964226,11.678098553702332,3.2277797636842527,0.3190020024776459,0.0001128287403844,0.0339487046003341,-2.3184578436613084,-0.1951554636284709,-9.140809557437898,14954.0
43.8,14.399999618530272,63.0,21.17092514038086,33.548534393310554,-79.78166806319055,40.45944076983898,289.44406857299805,-0.1170929744839668,0.0772752463817596,-0.5330204963684082,0.8343901634216309,0.2054356265211673,11.723031896274495,3.054132691148599,0.1621187329292297,-0.0945754423737526,0.193194180727005,-2.440425938218832,-0.4680345296859741,-8.494827298521995,14954.0
44.0,14.300000190734863,62.0,21.32743263244629,30.39963150024414,-79.78164180829968,40.45944982698869,289.44123997497564,-0.0992524847388267,0.0840520933270454,-0.535784125328064,0.8342779278755188,-0.0001569393440938,11.674702243272163,3.1755941992885286,0.1096963211894035,0.3144666254520416,-0.1477883756160736,-2.816480988264084,0.147104689925909,-9.677547701597216,14954.0
44.1,14.0,63.0,21.447628021240234,29.16710662841797,-79.78162881951033,40.45945431880563,289.42341580200195,-0.0912162810564041,0.0766615122556686,-0.5352575182914734,0.8362427949905396,-0.0074550236931636,11.719166938673634,2.9475518575901307,-0.2471509426832199,0.2083851099014282,-0.3505902886390686,-2.739928363859653,-0.0594450418464839,-9.874257391691208,14954.0
44.29,13.899999618530272,63.0,21.5352725982666,27.664220809936523,-79.78160284876778,40.45946350007343,289.42878689575195,-0.0963633060455322,0.0579792037606239,-0.5295517444610596,0.8407899141311646,0.1802559488386808,11.76383749190848,2.6441933754088147,-0.1269206702709198,0.0602628886699676,-0.2108958214521408,-2.281146760582924,0.142471374515444,-10.090889714956283,14954.0
44.4,13.800000190734863,69.0,21.604135513305664,26.33627510070801,-79.78157686444295,40.45947257419361,289.41705097961426,-0.1047324687242508,0.0661597996950149,-0.5252604484558105,0.8418761491775513,0.338689277029896,11.69112052932744,2.8046366797027864,-0.0052465610206127,-0.0925409197807312,-0.061285376548767,-2.3917654095590115,0.374973461329937,-9.61772951602936,14954.0
44.6,13.600000381469728,70.0,21.709306716918945,25.708086013793945,-79.78156397936462,40.459477025782974,289.4161373596192,-0.0911055505275726,0.0622017681598663,-0.5254101753234863,0.8436675667762756,0.3700513418219454,11.57937435011631,2.9446530752998266,0.1613661795854568,0.586638867855072,-0.1263926923274994,-2.8483708253502846,0.1059178164973855,-9.642247475981712,14954.0
44.69,13.199999809265137,71.0,21.685518264770508,25.64447021484375,-79.78155119242044,40.4594814388624,289.4187160949707,-0.0552207492291927,0.0449803173542022,-0.5266079902648926,0.8471195101737976,0.3737600607490477,11.533692014776037,2.6457943290724977,0.1150027140974998,0.8680728077888489,0.1564743518829345,-2.8353081455826765,-0.2738465609773993,-10.013093680143356,14954.0
44.89,13.100000381469728,71.0,21.932172775268555,24.11773109436035,-79.78152593290321,40.459490194631584,289.42492070007324,0.0260043162852525,0.0055516473948955,-0.5261094570159912,0.8500010967254639,0.4508107570079451,11.494819339395583,0.6476259345118535,-0.0685587599873542,0.6461676359176636,-0.0867591053247451,-1.987851885259152,0.0346104368939995,-10.26132903456688,14954.0
45.0,12.899999618530272,92.0,21.954710006713867,23.64857482910156,-79.78151343145656,40.459494521347104,289.4039761047364,0.0499001815915107,-0.0070549971424043,-0.5257284641265869,0.8491582870483398,0.5072519377986809,11.26600094065201,-0.2266552256648267,-0.0607566051185131,0.4298129081726074,0.0392929278314113,-2.1126723977923394,-0.1857190442830325,-10.475066986083984,14954.0
45.19,12.800000190734863,103.0,21.95721244812012,23.33050537109375,-79.7814897529697,40.45950245720871,289.46227040100104,0.0789830386638641,-0.0279358103871345,-0.5240733027458191,0.8475427031517029,0.5657646611957757,10.582342078780744,-1.0438561930887036,-0.0768168643116951,0.1404697746038437,0.0656347721815109,-1.947039197087288,-0.6373005323857069,-10.936787692308426,14954.0
45.3,12.600000381469728,104.0,22.017311096191406,20.78593635559082,-79.78146738206883,40.45950989762861,289.52462353515625,0.0748601406812667,-0.0364608131349086,-0.5205110311508179,0.8497852683067322,0.6259586768959855,9.859819361079651,-1.1229116633402905,-0.0766433775424957,0.2657495141029358,-0.4021807610988617,-1.6654817301034928,-0.4174381341040135,-10.817621437311171,14954.0
45.49,12.600000381469728,104.0,22.49434280395508,18.19365882873535,-79.78145685742739,40.45951344215636,289.5611359100342,0.0744621604681015,-0.0381478108465671,-0.5188362598419191,0.8507696986198425,0.6373207027504612,9.504751917277485,-1.0303269568158506,0.1890745162963867,-0.4677764773368835,0.083940289914608,-2.005170460939408,-0.3946980200707912,-10.732378388643266,14954.0
45.6,12.5,107.0,22.640832901000977,16.921375274658207,-79.78144667459145,40.45951677757623,289.6159759979248,0.0699952393770217,-0.0294380094856023,-0.5178957581520081,0.8520670533180237,0.648820226089658,9.164407802230125,-1.0024759367752587,-0.0951121300458908,-0.282799482345581,-0.2820185124874115,-2.055079223960638,0.0808486285619437,-10.03747773885727,14954.0
45.79,12.399999618530272,105.0,22.448017120361328,17.73245620727539,-79.78142748068286,40.4595232821809,289.6868282775879,0.0703692510724067,-0.0187308304011821,-0.5175266265869141,0.8525629639625549,0.6641954272283567,8.503713989964774,-0.7793655191867674,0.0805535688996315,-0.0558503083884716,0.1892487108707428,-2.1918337574601177,-0.7133069537580013,-9.365744926929477,14954.0
45.89,12.199999809265137,106.0,22.52439308166504,17.263301849365234,-79.78141836733839,40.45952623806675,289.71994747924805,0.0809934884309768,-0.0212547183036804,-0.5175557136535645,0.8515424728393555,0.6761115146108714,8.177459543152722,-0.8099603106191753,0.0392009280622005,0.6428050994873047,-0.3185746669769287,-1.9186245064437388,-0.0664176455140113,-9.68460412144661,14954.0
46.09,12.0,106.0,22.46805000305176,18.225465774536133,-79.78140119089186,40.459532268322576,289.757810256958,0.1056634560227394,-0.0252847112715244,-0.5162841081619263,0.84949791431427,0.6275435508252729,7.513432079821651,-1.2002341336360876,-0.1103354319930076,0.1229853257536888,0.0591588616371154,-1.4180867667496204,-0.0948225420713424,-9.788103346824649,14954.0
46.19,11.600000381469728,112.0,22.42047119140625,18.925222396850582,-79.78138525609882,40.4595378531206,289.7950245361328,0.1217440292239189,-0.0329862423241138,-0.5187083482742311,0.8455957174301147,0.6746924516185504,6.83519807218451,-1.4489355747355066,0.0572890825569629,0.0702229812741279,0.3460586369037628,-1.1549899828433992,-0.6484693720936775,-9.814240400791167,14954.0
46.39,11.399999618530272,114.0,22.15002822875977,21.68448829650879,-79.78137776219288,40.45954016618956,289.798789642334,0.1306188851594925,-0.0442069470882415,-0.5199945569038391,0.8429650664329529,0.6574513317467178,6.4653192103831065,-1.5391114481706176,-0.1608735620975494,0.4886449873447418,-0.1487839668989181,-1.1823186993598938,-0.162636630591005,-9.862460049390792,14954.0
46.5,10.899999618530272,115.0,22.23892402648925,19.97485542297364,-79.78137097699367,40.45954254483875,289.8201405029297,0.1390935033559799,-0.0593490600585937,-0.5219488739967346,0.8394642472267151,0.6400071354627934,6.070031336146117,-1.6431853171461157,-0.0873235687613487,0.2462452203035354,-0.1828274875879288,-0.7235995882004499,-0.0479078458249569,-10.260614504814148,14954.0
46.69,10.600000381469728,115.0,22.191347122192383,21.032442092895508,-79.78135784320685,40.45954637123441,289.81922497558594,0.1410999447107315,-0.0721543133258819,-0.5249956846237183,0.8362202048301697,0.6052623886093693,5.259976153301398,-1.7644440086833093,-0.0135507117956876,-0.3416695296764374,-0.1073247641324997,-0.7065662835538388,0.1505895208194852,-10.044810147285462,14954.0
46.8,10.100000381469728,122.0,21.99101829528809,23.529298782348643,-79.78134653996844,40.45955002713521,289.834527633667,0.1212715208530426,-0.0704669281840324,-0.5314849615097046,0.8353749513626099,0.4687230040471455,4.6110530653514505,-1.5492387971078103,-0.1639968603849411,-0.1883328557014465,0.006641914602369,-0.7176490230113268,-0.0229014606401324,-9.867769321203234,14954.0
46.99,9.800000190734863,121.0,22.539417266845703,18.26522445678711,-79.78134168498093,40.459551919995945,289.8678719024658,0.1129498779773712,-0.0727659538388252,-0.5345039367675781,0.8344178199768066,0.3673323536312066,4.314244117571461,-1.3763375089228915,0.0364712812006473,0.0804747119545936,0.2766290605068207,-0.8926207387447358,-0.4105240208655596,-10.081376295089722,14954.0
47.09,9.0,122.0,22.603271484375,17.462095260620114,-79.78133685320023,40.45955330508219,289.85250439453125,0.1130455136299133,-0.0736844986677169,-0.5350376963615417,0.8339819908142091,0.2998726943046547,3.996278394994429,-1.3020890827143177,-0.0185865312814712,-0.1484771966934204,-0.0297298412770032,-0.7709897361695767,-0.0656531312037259,-9.777267286777496,14954.0
47.29,8.600000381469728,122.0,22.299022674560547,20.284975051879886,-79.78132880700855,40.4595560554329,289.84812702941895,0.1223982870578766,-0.0723480507731437,-0.5304509401321411,0.8357071280479431,0.2166242396548111,3.3508782179012933,-1.2691599551081127,-0.0443301871418952,-0.1819794028997421,-0.1244808733463287,-0.5788336383551359,-0.3860271474346519,-9.404693230390553,14954.0
47.39,7.800000190734862,120.0,22.297771453857425,20.022565841674805,-79.78132504292033,40.4595571869239,289.81521572875977,0.1228478029370308,-0.0754877999424934,-0.5241035223007202,0.839360237121582,0.2195517848111381,3.030806832290045,-1.2730762827768305,0.0071925506927073,-0.1680347621440887,0.0163692571222782,-0.4870264323055745,-0.5244813568890095,-9.498255697488784,14954.0
