time,wind_speed,wind_angle,battery_voltage,battery_current,position_x,position_y,position_z,orientation_x,orientation_y,orientation_z,orientation_w,velocity_x,velocity_y,velocity_z,angular_x,angular_y,angular_z,linear_acceleration_x,linear_acceleration_y,linear_acceleration_z,node_ids
0.0,2.0999999046325684,91.0,24.150806427001957,-0.1749390214681625,-79.78282512495737,40.459079641891066,266.23437402486803,0.0011056388029828,0.0057435031048953,-0.069442518055439,0.9975688457489014,-0.0786931131080798,-0.0248123250081981,0.0220654495015755,-0.0081749055534601,-0.0052800988778471,-0.0015034415991976,-0.0069627581897657,-0.1815584579855204,-9.810312241315842,14931.0
0.1,2.0,88.0,24.15957069396973,-0.1669872552156448,-79.78282507011949,40.45907973772035,266.24725494623186,0.0010911205317825,0.00579475145787,-0.0695064067840576,0.997564136981964,-0.0711822371913414,-0.0178328501958852,0.0190754266242826,0.0027877334505319,0.0014007793506607,0.0047649452462792,-0.0094843984907493,-0.1712788153253495,-9.810003508329393,14931.0
0.3,1.8999999761581416,84.0,24.15581512451172,-0.2067461162805557,-79.78282500193686,40.45907977593721,266.2594411158562,0.0010883602080866,0.0058758086524903,-0.0695427656173706,0.9975610971450806,-0.064047731704663,-0.0174398767371471,0.0181140593433478,-0.0072554149664938,0.0007028908003121,-0.0090431738644838,-0.0129922996193636,-0.1633166800439358,-9.80900129556656,14931.0
0.4,2.0,84.0,24.157066345214844,-0.1669872552156448,-79.78282517078068,40.45907975800753,266.2632781648636,0.0011225184425711,0.0058246687985956,-0.0695829764008522,0.9975585341453552,-0.0771123003400102,-0.0214378239053644,0.0188738268869678,-0.0112311905249953,-0.0026970540639013,-0.013451125472784,-0.0073497570713516,-0.1943459714390337,-9.810791712999343,14931.0
0.6,1.8999999761581416,84.0,24.15456199645996,-0.1908425688743592,-79.78282507133241,40.459079822195385,266.2735867881775,0.0010901584755629,0.0058980821631848,-0.0696493461728096,0.9975535869598388,-0.0657521596849858,-0.0163037477880482,0.0154625939560354,0.0073100384324789,0.0047277524136006,0.0054685245268046,-0.0063459700142266,-0.1819217710755765,-9.809800609946253,14931.0
0.7,1.8999999761581416,83.0,24.15957069396973,-0.1431319266557693,-79.78282502990955,40.45907984084757,266.2867235326767,0.0011013983748853,0.0059681432321667,-0.0696665868163108,0.9975519180297852,-0.0597142125497412,-0.0170342642442843,0.0147928752450871,-0.0007895388407632,0.0009521213942207,-0.0032472212333232,-0.0055713709699921,-0.1888842152059078,-9.81111330986023,14931.0
0.9,1.8999999761581416,83.0,24.15205764770508,-0.1590354740619659,-79.78282510571816,40.45907983233064,266.28829995632174,0.0011022376129403,0.0059391632676124,-0.0696793720126152,0.9975511431694032,-0.0653635654913884,-0.0189668301095805,0.015232592333028,0.0038632780779153,0.0012502669123932,0.0082670925185084,-0.0066244859149446,-0.1983396928198636,-9.81147349834442,14931.0
1.0,1.7999999523162842,81.0,24.15957069396973,-0.1510837078094482,-79.78282506510904,40.45907986751315,266.3015442276001,0.001057805493474,0.0060080741532146,-0.0697107762098312,0.9975485801696776,-0.0606769314299424,-0.0173776461299365,0.0145660386790104,0.0069636320695281,0.0060759834013879,0.0078428583219647,-0.0152940275100991,-0.1644564120098948,-9.808434700369835,14931.0
1.2,1.7000000476837158,83.0,24.157066345214844,-0.1590354740619659,-79.7828251432718,40.45907985938271,266.3031059885025,0.0010608269367367,0.0059800553135573,-0.069721907377243,0.9975480437278748,-0.0683626014198076,-0.018924724905805,0.0151553281237187,-0.0111036337912082,-0.0036233365535736,-0.0050476333126425,-0.0089599494991125,-0.1770599939860403,-9.8106595659256,14931.0
1.3,1.7000000476837158,84.0,24.157066345214844,-0.1510837078094482,-79.78282507033734,40.45907987448845,266.3148430967331,0.0010663649300113,0.0060489829629659,-0.0697013959288597,0.997549057006836,-0.060523521835464,-0.0196711790257831,0.0134118617511174,-0.0029671499505639,0.0005864505073986,0.0034010221716016,-0.010497265291633,-0.1764278917014599,-9.809659107327462,14931.0
1.5,1.7000000476837158,85.0,24.16082191467285,-0.1431319266557693,-79.78282514742068,40.4590798638497,266.3162807607651,0.0010731412330642,0.0060452176257967,-0.0697401762008667,0.9975463151931764,-0.0664703862360404,-0.0216877164930869,0.0138607917346185,0.0002041638508671,-0.0007139450754038,-0.0069281789474189,-0.0073690106277354,-0.1645779610052705,-9.808704257011414,14931.0
1.61,1.7999999523162842,83.0,24.15581512451172,-0.1669872552156448,-79.78282512020554,40.459079865210406,266.3279266738892,0.0010707546025514,0.0060842777602374,-0.0698097050189971,0.9975412487983704,-0.0649748778234479,-0.0226016737949703,0.0135161540138073,-0.0096528530120849,-0.005467768292874,-0.0093265241011977,-0.0038692239383817,-0.1957388147525488,-9.809862590432168,14931.0
1.81,1.7999999523162842,85.0,24.15331077575684,-0.1510837078094482,-79.7828250075671,40.45907990808696,266.3377873086929,0.001057437271811,0.0061418036930263,-0.0698149651288986,0.9975405931472778,-0.0544342108546685,-0.0170548662559728,0.0125929257344436,0.0115653239190578,0.0054951277561485,0.0123405652120709,-0.0036242470156867,-0.1904783123731612,-9.81077767968178,14931.0
1.9,1.7999999523162842,86.0,24.15456199645996,-0.1669872552156448,-79.78282515614292,40.45907988943209,266.3405561828613,0.0010741496225818,0.0061175231821835,-0.0698246955871582,0.99753999710083,-0.0666996148560197,-0.0209084866610958,0.0135325042357411,0.0047863600775599,0.0008347441907972,-0.001618426060304,-0.0090641778311692,-0.1785624177753925,-9.811551851034164,14931.0
2.1,1.8999999761581416,83.0,24.15831756591797,-0.1669872552156448,-79.7828250718524,40.459079957578616,266.3443956756592,0.0010259381961077,0.0061600087210536,-0.0698783546686172,0.99753600358963,-0.0626084800655062,-0.0123030239901872,0.0064241195977381,0.0002305472735315,0.000615535012912,0.0051058209501206,-0.0046821893396554,-0.1943683187663555,-9.81132497906685,14931.0
2.2,1.7999999523162842,84.0,24.15831756591797,-0.1669872552156448,-79.78282491587271,40.4590799712222,266.3480132007599,0.0010140580125153,0.0062541337683796,-0.0698720589280128,0.9975358843803406,-0.0443980117494013,-0.0101995203929219,-0.0007747721354897,0.0079502230510115,0.0010220574913546,0.0063356766477227,-0.009364821788622,-0.1631590244919061,-9.807397989034651,14931.0
2.4,1.8999999761581416,86.0,24.15581512451172,-0.1431319266557693,-79.78282497370839,40.45907996719376,266.3480166578293,0.0010240246774628,0.0062518971972167,-0.0698976665735244,0.9975340366363524,-0.051628372580786,-0.0117616125662849,-0.000276028838394,-0.0134716229513287,-0.0068941684439778,-0.009735987521708,-0.0110432147921528,-0.1735158321261406,-9.810750782489777,14931.0
2.5,1.8999999761581416,86.0,24.157066345214844,-0.1431319266557693,-79.78282498877903,40.4590799534251,266.3523610019684,0.0010294212261214,0.0062559931538999,-0.0699090883135795,0.9975332021713256,-0.055707824208466,-0.0155957756857107,-0.0029424744158297,-0.0003018878633156,-0.0012755386997014,0.0028929496183991,-0.0068650851346319,-0.1821616896428168,-9.811073548793791,14931.0
2.7,1.8999999761581416,84.0,24.157066345214844,-0.1510837078094482,-79.78282505959406,40.45907994590068,266.35215989589693,0.0010245203739032,0.0062523996457457,-0.0699416175484657,0.9975310564041138,-0.0613880499226265,-0.0175243137251312,-0.0024353006071814,-0.003222722094506,-0.0029425343964248,-0.0063370601274073,-0.0092949412803864,-0.1652941901050508,-9.80862239599228,14931.0
2.81,2.0,83.0,24.15957069396973,-0.1510837078094482,-79.78282504105195,40.45907994011807,266.3564771795273,0.0010315411491319,0.0062878457829356,-0.0699311941862106,0.997531533241272,-0.060520801308604,-0.0172194115691083,-0.0045150567393875,-0.00667739007622,-0.0030854621436446,-0.009397555142641,-0.0071606773033272,-0.1955019111558795,-9.81032627463341,14931.0
3.0,2.0,82.0,24.15957069396973,-0.1590354740619659,-79.78282511704609,40.45907993164519,266.35612181663515,0.0010361891472712,0.0062674870714545,-0.0699487179517746,0.9975304007530212,-0.0645953802665825,-0.0195283197396972,-0.0041008165172161,0.0060675232671201,0.0077872779220342,0.0046198163181543,-0.0103946820599958,-0.1815324744209648,-9.809963747262955,14931.0
3.1,2.0,81.0,24.157066345214844,-0.1669872552156448,-79.78282501087129,40.4590799419565,266.36128512859347,0.000987997627817,0.0063477545045316,-0.0699749067425727,0.9975281357765198,-0.05581296978453,-0.0146883647410705,-0.0039304608807119,-0.0050225765444338,-0.0019522375660017,-0.0098209669813513,-0.007664611361688,-0.1922829823940992,-9.81082796573639,14931.0
3.3,1.8999999761581416,82.0,24.15581512451172,-0.1510837078094482,-79.78282490467264,40.45907993932528,266.36370054721834,0.0009736754000186,0.0063799582421779,-0.0699458196759224,0.9975299835205078,-0.0479528508313816,-0.0130318110088909,-0.0075714940043677,0.0053459699265658,0.0036948141641914,0.0079773943871259,-0.0069199775846209,-0.1924488971382379,-9.8105367743969,14931.0
3.4,1.8999999761581416,85.0,24.15205764770508,-0.1510837078094482,-79.78282503585321,40.45907992678207,266.36239997386934,0.0009665511315688,0.0063646435737609,-0.0699481666088104,0.9975298643112184,-0.0588226649684024,-0.016290183278751,-0.0068182797407242,0.0061149927787482,0.0024653144646435,0.0041840993799269,-0.010427799912868,-0.1740870685502887,-9.80932230770588,14931.0
3.6,1.7999999523162842,85.0,24.15205764770508,-0.1669872552156448,-79.78282495493578,40.45907991618732,266.3626643800736,0.0009368715109303,0.006391585804522,-0.0699673518538475,0.9975283741950988,-0.055274242970342,-0.014796970987405,-0.0111927278805892,-0.0002928068279288,-0.0011108764447271,-2.600491643534042e-05,-0.0069713040324859,-0.190309309568256,-9.811155409812928,14931.0
3.71,1.7000000476837158,86.0,24.15957069396973,-0.1510837078094482,-79.78282484304644,40.45907985991143,266.36588171958925,0.0008995692478492,0.0064536510035395,-0.0699416920542717,0.9975298047065736,-0.0410992627488347,-0.018530690389523,-0.0095200842870781,0.0067328563891351,0.0038246817421168,0.0075851734727621,-0.0089584077527979,-0.1649392275698483,-9.80793710231781,14931.0
3.9,1.600000023841858,82.0,24.15831756591797,-0.1510837078094482,-79.78282489805297,40.45907984808589,266.3650086307526,0.0009106100187636,0.0064416443929076,-0.0699626728892326,0.9975284337997437,-0.0478338831091803,-0.0198959781657815,-0.0090532559051366,-0.0107874069362878,-0.00272095692344,-0.0105184623971581,-0.0100979906832799,-0.1671388587355614,-9.808588482141497,14931.0
4.01,1.600000023841858,82.0,24.15831756591797,-0.1510837078094482,-79.78282484756495,40.45907983741171,266.3677713060379,0.00088154891273,0.0064729610458016,-0.0700230002403259,0.997524082660675,-0.0466734053906114,-0.015778640386879,-0.0079951843744959,-0.0033931150101125,-0.0043980022892355,-0.0025089769624173,-0.0102849748183507,-0.1830405444279313,-9.80946614921093,14931.0
4.2,1.5,82.0,24.15831756591797,-0.1590354740619659,-79.78282490724321,40.459079828651646,266.367049612999,0.0008989783818833,0.0064649684354662,-0.0700466558337211,0.9975224137306212,-0.0509115796147378,-0.017501162110144,-0.0076554299342371,0.0009254082106053,0.0041709737852215,-0.0012266769772395,-0.0076640511938603,-0.1707947937771678,-9.809729858636857,14931.0
4.3,1.5,81.0,24.15957069396973,-0.1431319266557693,-79.78282482523234,40.45907980270961,266.36881498336794,0.0008983287843875,0.0065181353129446,-0.0700400471687316,0.9975225329399108,-0.0473415344365164,-0.0156016711478797,-0.007047937599938,-0.003070939797908,-0.0007537940982729,-0.0039373580366373,-0.0050880597671493,-0.1932315286807716,-9.811598628759382,14931.0
4.5,1.5,78.0,24.150806427001957,-0.1272283792495727,-79.78282488601809,40.45907979438648,266.36819426059725,0.0008955827797763,0.0064956750720739,-0.0700525715947151,0.9975218176841736,-0.0517594259107807,-0.0172674415533712,-0.006658690016111,0.0039762202650308,2.313251570740249e-05,0.0060918512754142,-0.0045807253016391,-0.1954017958603799,-9.811355384588245,14931.0
4.6,1.5,79.0,24.15456199645996,-0.1828908026218414,-79.78282484265712,40.459079763624814,266.3691976451874,0.0008899728418327,0.0065635228529572,-0.0700917690992355,0.9975185990333556,-0.0505014774550614,-0.0169298014567238,-0.0064493581434412,0.0089962230995297,-0.0016882285708561,0.006683855317533,-0.0116905746550764,-0.1623327763751149,-9.808940484523774,14931.0
4.8,1.399999976158142,74.0,24.157066345214844,-0.1590354740619659,-79.78282472591899,40.459079716653264,266.37215749263765,0.000884388340637,0.0066381329670548,-0.0700977742671966,0.997517704963684,-0.0435486472560797,-0.0171563929616807,-0.0041432959056171,-0.0099992034956812,-0.0004471864958759,-0.0104241007938981,-0.0103391335112974,-0.1615382494032383,-9.807470494508744,14931.0
4.9,1.399999976158142,74.0,24.15581512451172,-0.1590354740619659,-79.78282484313496,40.45907969484328,266.371512093544,0.0009031434892676,0.0066187689080834,-0.0701423436403274,0.9975146651268004,-0.0532444899672514,-0.0201600246569179,-0.0034315828233661,-0.0089486353099346,-0.0054553700610995,-0.0055698356591165,-0.0048726498271571,-0.1925883349590003,-9.81059173822403,14931.0
5.1,1.2999999523162842,71.0,24.149553298950195,-0.1749390214681625,-79.78282468280395,40.45907962775257,266.3746700668335,0.0009136670269072,0.00670399190858,-0.0701172947883606,0.9975157976150512,-0.0387919089139034,-0.0221866176111785,-0.0017934046031078,0.0076905614696443,0.0053563299588859,0.0065254233777523,-0.0041084167428198,-0.1855594701133668,-9.810535604953769,14931.0
5.21,1.2999999523162842,71.0,24.15581512451172,-0.1749390214681625,-79.78282455109355,40.459079566102034,266.3764999294281,0.0009006832842715,0.0067642568610608,-0.0701263695955276,0.99751478433609,-0.0296568816229875,-0.0210042205970427,-0.00023935718636,0.0065435320138931,0.0028963233344256,0.0043201316148042,-0.0078805740462848,-0.1813309282064438,-9.810014033317566,14931.0
5.4,1.2999999523162842,69.0,24.15581512451172,-0.1590354740619659,-79.78282459258104,40.4590795506361,266.37653974533083,0.000889737973921,0.006734128575772,-0.0701320543885231,0.9975146651268004,-0.0349407075100378,-0.0223994196572421,0.0001244468942479,-0.0016785614425316,0.0001936218031914,0.0007329236832447,-0.0067775898892432,-0.1893373926915229,-9.809535731077196,14931.0
5.5,1.2999999523162842,68.0,24.15581512451172,-0.1590354740619659,-79.78282452602453,40.459079505896455,266.37769392967226,0.0008919638930819,0.0067773610353469,-0.0701461806893348,0.9975133538246156,-0.0348850392191634,-0.0193200868338186,0.0009405641823515,0.0044111087918281,1.849807085818611e-05,0.0069263465702533,-0.0083967421471606,-0.1649264185130596,-9.80806632578373,14931.0
5.71,1.2000000476837158,65.0,24.150806427001957,-0.1590354740619659,-79.78282457318866,40.45907949286853,266.37786523342135,0.0008901834371499,0.0067625986412167,-0.0701570361852645,0.997512698173523,-0.0408707037400043,-0.0204432621334373,0.0014535553002552,-0.0099536478519439,-0.0026217938866466,-0.0097146080806851,-0.0107459124270826,-0.1661552839726209,-9.808076850771904,14931.0
5.8,1.100000023841858,65.0,24.140789031982425,-0.055662415921688,-79.78282449181867,40.45907943911868,266.3764269733429,0.0008757279720157,0.0068074567243456,-0.070123940706253,0.9975146651268004,-0.0385457946306455,-0.0189286350252208,-0.0005259126455338,-0.0096417898312211,-0.0051410822197794,-0.0070162368938326,-0.0088409649417735,-0.1872786246053874,-9.809968425035477,14931.0
6.0,1.100000023841858,69.0,24.15331077575684,-0.1908425688743592,-79.78282454182742,40.459079426466495,266.3764455699921,0.0008773012668825,0.0068070334382355,-0.070143423974514,0.9975132942199708,-0.0420444579989766,-0.0206645077546894,-0.0002141912217717,-3.4243705158587545e-05,0.0031362588051706,0.0037746992893517,-0.0080254348169546,-0.1721970839984715,-9.809671386480332,14931.0
6.11,1.0,67.0,24.147050857543945,-0.1749390214681625,-79.78282446540463,40.45907930693941,266.37629202842714,0.0008968694601207,0.0068809548392891,-0.0701870620250701,0.9975097775459292,-0.0402742956117994,-0.0275885584135635,0.0007895277052159,-0.0034215254709124,-6.28720736131072e-05,-0.0105432895943522,-0.0068630346120335,-0.1967358563840389,-9.812145928144457,14931.0
6.31,1.0,69.0,24.14204216003418,-0.1510837078094482,-79.7828242862476,40.45907928344612,266.3756138467789,0.0008527555619366,0.0069295056164264,-0.070119060575962,0.9975142478942872,-0.0270403859311549,-0.0182986370432805,0.0008481034115449,0.0092537179589271,0.0026817538309842,0.0085976757109165,-0.0051878775627119,-0.1962534062750637,-9.81068178534508,14931.0
6.41,0.8999999761581421,71.0,24.14830207824707,0.0159035474061965,-79.78282436794505,40.45907925636507,266.37594405651095,0.0008420413942076,0.006935806479305,-0.0701217800378799,0.997514009475708,-0.0358537944189436,-0.0211464448108343,0.0014990839993182,0.0061252871528267,0.003364912001416,0.0073600732721388,-0.0101701546891126,-0.1759700181707739,-9.81002338886261,14931.0
6.61,0.8999999761581421,73.0,24.143293380737305,-0.0238553211092948,-79.78282426559592,40.45907917887716,266.37453404903414,0.0008148972992785,0.0069757155142724,-0.0701002851128578,0.9975152611732484,-0.0333770738507358,-0.0230832751931196,0.001482190023969,-0.0011392716551199,-0.0020862391684204,0.0042320401407778,-0.0077921988634625,-0.1884933471120894,-9.811216220855712,14931.0
6.7,0.8999999761581421,75.0,24.150806427001957,-0.055662415921688,-79.78282419227214,40.459079111720975,266.3709400081635,0.0007850769907236,0.0070306588895618,-0.0700850114226341,0.9975160360336304,-0.0314599213861594,-0.0198578908952732,-0.00138115090065,0.0031453331466764,0.0024507441557943,0.0080760205164551,-0.0083883973024785,-0.1637916566804051,-9.808762144446373,14931.0
6.9,0.8999999761581421,74.0,24.143293380737305,-0.1113248318433761,-79.78282423540685,40.45907909758572,266.3708771848679,0.0007894386071711,0.0070415833033621,-0.0701299011707305,0.997512698173523,-0.0368652155243701,-0.0209944342145122,-0.0008895808079186,-0.0062152575701475,-0.0051541496068239,-0.0090069007128477,-0.0118290862860158,-0.168265726827085,-9.808159296512605,14931.0
7.01,0.8999999761581421,75.0,24.13452911376953,-0.0954212844371795,-79.78282411759494,40.45907901378217,266.36607591152193,0.0007685476448386,0.0070943841710686,-0.0701789408922195,0.997508943080902,-0.030945050569718,-0.0205473945539839,-0.0033294807436794,-0.0089001357555389,-0.0055696163326501,-0.0060908114537596,-0.0053486428741598,-0.1915828148648143,-9.810203483104708,14931.0
7.2,0.8999999761581421,76.0,24.147050857543945,-0.0954212844371795,-79.7828241585343,40.45907899882082,266.3658030414581,0.0007886927342042,0.0070962402969598,-0.0701923742890358,0.9975079894065856,-0.0332758011334671,-0.0221695841181231,-0.0029715465906045,0.0078254798427224,0.0070915170945227,0.00538438744843,-0.009689220059663,-0.1802162844501436,-9.810532096624376,14931.0
7.3,0.8999999761581421,77.0,24.150806427001957,-0.0954212844371795,-79.78282403326226,40.459078927784326,266.3603985691071,0.0007588962907902,0.0071407770738005,-0.0701930448412895,0.997507631778717,-0.0292800012396781,-0.018304192859444,-0.0046972053141245,-0.0025840231683105,0.0007569034351035,-0.0046545900404453,-0.0075743775180308,-0.1863958412222564,-9.80998421251774,14931.0
7.5,1.0,80.0,24.13578224182129,-0.1749390214681625,-79.78282407274136,40.459078914941614,266.35998801231386,0.0007339958101511,0.0071139722131192,-0.0701895952224731,0.9975080490112304,-0.032444699089208,-0.0194745446876466,-0.0044637441394192,0.0070188376121222,0.0025086784735322,0.0076753930188715,-0.0062228878377936,-0.1953162620589137,-9.810667752027513,14931.0
7.61,1.0,83.0,24.130773544311523,-0.1510837078094482,-79.78282394646162,40.45907882866304,266.3557663345337,0.0007571268943138,0.0071520050987601,-0.0702172741293907,0.9975058436393738,-0.0270534039455425,-0.0198288799086768,-0.0026705563765855,0.0081164753064513,0.0036059177946299,0.0113225392997264,-0.0123556132090743,-0.1625438608601689,-9.808550475239754,14931.0
7.8,1.100000023841858,88.0,24.150806427001957,-0.0636141896247863,-79.78282384578355,40.459078762316295,266.3485745573044,0.0007470228010788,0.0071773496456444,-0.0702014863491058,0.9975067973136902,-0.0287791134369341,-0.0161525232677197,-0.0050762897686098,-0.0100014172494411,-0.0044644377194345,-0.0058964351192116,-0.0081053007021546,-0.1738213674165308,-9.809458547830582,14931.0
7.9,1.100000023841858,86.0,24.150806427001957,-0.055662415921688,-79.78282392549089,40.45907873893788,266.3477009916306,0.0007396131986752,0.0071649546734988,-0.0702585205435752,0.997502863407135,-0.0357014797989522,-0.0185647177932703,-0.0045017151609089,-0.0026891990564763,-0.0043131588026881,0.0012253700988367,-0.0116716751293279,-0.1770259887725115,-9.809610575437548,14931.0
8.11,1.2000000476837158,84.0,24.149553298950195,-0.0715659633278846,-79.78282379874875,40.4590786329819,266.3418239736557,0.000742099888157,0.0072198528796434,-0.0703211724758148,0.9974980354309082,-0.030548055765545,-0.0218090836755881,-0.003544883453933,0.0002004549314733,-0.0009302736725658,-0.0047519290819764,-0.008662136644707,-0.1645958681032061,-9.809169110655787,14931.0
8.2,1.2999999523162842,85.0,24.147050857543945,-0.0954212844371795,-79.78282361950036,40.45907855727553,266.33230666160586,0.0007151092868298,0.0072731985710561,-0.0703079104423523,0.9974985718727112,-0.0181981398515442,-0.0145524500060202,-0.0063369780419503,-0.0073219463229179,0.0001352930121356,-0.0058793839998543,-0.0095713998063001,-0.1985681179538369,-9.809842709898948,14931.0
8.3,1.399999976158142,85.0,24.149553298950195,-0.055662415921688,-79.78282364466777,40.459078546021104,266.33171335697176,0.0007202513515949,0.0072591230273246,-0.0703649595379829,0.9974946975708008,-0.0202204312939827,-0.0159372501831278,-0.0061621866546622,0.0084914360195398,0.0034254745114594,0.0080942846834659,-0.0050930664455518,-0.1935924115218222,-9.810702835321427,14931.0
8.5,1.399999976158142,87.0,24.150806427001957,-0.0636141896247863,-79.78282356767157,40.459078429626594,266.3225360298157,0.0007314361282624,0.0072906869463622,-0.0704270452260971,0.9974900484085084,-0.0229591273168238,-0.0198943881372214,-0.007078408819065,0.0074440455064177,0.0076209339313209,0.0054490971378982,-0.0128872176166623,-0.1706169287860393,-9.808829972147942,14931.0
8.7,1.399999976158142,93.0,24.150806427001957,-0.0715659633278846,-79.7828236010468,40.4590784148166,266.321888961792,0.0007250352064147,0.0072743240743875,-0.0704352632164955,0.99748957157135,-0.0279817265817531,-0.0206827952382506,-0.0066156657201196,-0.0048602600581943,-0.0046220105141401,-0.0009400981944054,-0.009373638293473,-0.1836730669811368,-9.80947258114815,14931.0
8.81,1.5,95.0,24.144546508789062,-0.055662415921688,-79.78282349614395,40.45907833219236,266.3115805768967,0.000722759286873,0.0072904690168797,-0.0704175308346748,0.9974907040596008,-0.0260967164057055,-0.015910245668895,-0.0075412508762283,-0.0010590318124741,-0.0017047870205715,0.0029563426505774,-0.0091275504569057,-0.1696321480348706,-9.810004677772524,14931.0
9.0,1.5,97.0,24.150806427001957,-0.0954212844371795,-79.78282353165406,40.45907832108124,266.31088487148287,0.000717768096365,0.0073034693486988,-0.0704540908336639,0.997488021850586,-0.0302296253503664,-0.0168583528023544,-0.0071483619335006,-0.0052251727320253,-0.0050185993313789,-0.0058931186795234,-0.0131920676864683,-0.1627892794646322,-9.808653386235235,14931.0
9.1,1.5,97.0,24.15331077575684,-0.1669872552156448,-79.78282340181572,40.459078200822,266.30231753826143,0.000711417698767,0.007337141316384,-0.0704577043652534,0.9974875450134276,-0.0268219439787912,-0.0179929611593261,-0.0049358098646554,-0.0091762272641062,-0.0026838292833417,-0.0070564257912337,-0.004858114014496,-0.1944065997563302,-9.812316666841507,14931.0
9.3,1.399999976158142,92.0,24.157066345214844,-0.1590354740619659,-79.78282323152429,40.45907811251498,266.2909152889252,0.0006877947598695,0.0073733157478272,-0.0704022347927093,0.9974912405014038,-0.0171446230809017,-0.0136016151026594,-0.0076319153273396,0.0101302489638328,0.0083602340891957,0.0059745842590928,-0.0050337366212625,-0.1879195890761912,-9.809524621367457,14931.0
9.41,1.5,96.0,24.149553298950195,-0.1510837078094482,-79.78282328674163,40.45907809207698,266.2895409846306,0.0007095726323314,0.0073586502112448,-0.0703891813755035,0.9974923133850098,-0.0245966512532291,-0.0155459068545934,-0.0068668617182814,0.0045237340964376,0.0027919178828597,0.001223906641826,-0.0062386233574943,-0.1777206928096711,-9.81132848739624,14931.0
9.6,1.5,96.0,24.15331077575684,-0.1669872552156448,-79.78282314186988,40.45907796680378,266.27851329088213,0.0006926125497557,0.0073987049981951,-0.0704105943441391,0.9974904656410216,-0.0197737030365538,-0.0188406515263482,-0.0079008950873889,0.0012935518752783,7.536878456448903e-06,0.0049566207453608,-0.0080520128103671,-0.1964175303094088,-9.811546003818512,14931.0
9.7,1.5,99.0,24.15331077575684,-0.1590354740619659,-79.78282304331897,40.45907787006573,266.2664786362648,0.0006766838487237,0.0074228015728294,-0.070358470082283,0.9974940419197084,-0.0210069806043566,-0.0130132088448217,-0.008815852686918,0.0059620691463351,0.0047594541683793,0.0057396301999688,-0.0112146078748628,-0.163610740173608,-9.808365118503572,14931.0
9.91,1.7000000476837158,103.0,24.15205764770508,-0.1510837078094482,-79.78282307303229,40.45907786099971,266.2656547212601,0.0006753017078153,0.0073993932455778,-0.0703753754496574,0.9974929690361024,-0.0259445776901768,-0.0136344469046984,-0.0084544945977988,-0.00934683624655,-0.0052410918287932,-0.0054600154981017,-0.0102595759753603,-0.1763779162801802,-9.809415278434754,14931.0
10.01,1.7000000476837158,102.0,24.15205764770508,-0.1590354740619659,-79.78282294401616,40.459077714185455,266.252919831276,0.0006679332000203,0.0074309376068413,-0.0704379081726074,0.9974883198738098,-0.0207577487628061,-0.018744822617046,-0.0091139917731711,0.0035065016709268,0.0014258699957281,0.0032714591361582,-0.0100481831410434,-0.175940709002316,-9.810922690629962,14931.0
10.2,1.7000000476837158,99.0,24.140789031982425,-0.1431319266557693,-79.78282297348353,40.45907769986447,266.2520658159256,0.0006631956202909,0.0074249692261219,-0.0704662054777145,0.9974863529205322,-0.0246240339978601,-0.019686884549878,-0.0085532883547086,-0.0062982593663036,-0.0024894326925277,-0.0109703112393617,-0.0110877095907926,-0.1637270449474454,-9.808866809606553,14931.0
10.3,1.7000000476837158,97.0,24.15205764770508,-0.1510837078094482,-79.78282285488667,40.45907758979792,266.2388735795021,0.0006368507165461,0.0074283005669713,-0.0704093053936958,0.9974903464317322,-0.0248308949456104,-0.0153945585257258,-0.0093487136584141,-0.0101296557113528,-0.0049705151468515,-0.009139297530055,-0.0047169166043749,-0.1916858172230422,-9.81182082295418,14931.0
10.5,1.7999999523162842,91.0,24.157066345214844,-0.1510837078094482,-79.78282288735399,40.45907757866964,266.2379858875275,0.0006424798630177,0.0074264579452574,-0.0704283043742179,0.9974890351295472,-0.0266435805084728,-0.016670899452444,-0.0090928770073433,0.0052373637445271,0.0037034836132079,-0.000558859668672,-0.0069371532095829,-0.1760489373095333,-9.811109801530838,14931.0
10.6,1.8999999761581416,92.0,24.15456199645996,-0.1590354740619659,-79.78282274764166,40.45907747754082,266.2255479478836,0.0006360888946801,0.0074482033960521,-0.0704039707779884,0.9974905252456664,-0.0240936781894618,-0.0118385890434152,-0.0092327646436494,-0.0071008899249136,-0.0025872159749269,-0.0104312589392066,-0.0071490439708577,-0.1951730235479772,-9.809862005710604,14931.0
10.81,1.8999999761581416,89.0,24.147050857543945,-0.1431319266557693,-79.78282261153358,40.459077363935904,266.2157279038429,0.0006200110074132,0.0074669714085757,-0.0703963637351989,0.9974910020828248,-0.0204984200445645,-0.0108252328203518,-0.0070100774021024,0.0094038611277937,0.0057252221740782,0.010464902035892,-0.0038550981160369,-0.1906060192175209,-9.811549512147904,14931.0
10.91,1.8999999761581416,84.0,24.15581512451172,-0.1510837078094482,-79.78282267305508,40.4590773494716,266.2144812130928,0.0006100507453083,0.0074579268693923,-0.0704556405544281,0.9974868893623352,-0.027708795878948,-0.0124760194937214,-0.0062596163271618,0.0013589777518063,0.0017366112442687,-0.003012316301465,-0.0091934275638777,-0.1801960932835936,-9.810668921470642,14931.0
11.1,1.7999999523162842,86.0,24.15205764770508,-0.1669872552156448,-79.78282245347167,40.45907723771262,266.2050834679604,0.0005851027090102,0.0075062033720314,-0.070461168885231,0.997486174106598,-0.0132885040732915,-0.0083819594519482,-0.0037211635917828,0.0022693006321787,0.0004544677212834,0.0062833479605615,-0.0030399365827906,-0.1946473588608204,-9.811508581638336,14931.0
11.21,1.7999999523162842,85.0,24.14579772949219,-0.1510837078094482,-79.78282232686234,40.45907711222687,266.1944173359871,0.0005834304611198,0.0075082369148731,-0.0704660862684249,0.9974857568740844,-0.0153430896992592,-0.0081463224592677,-0.0025141198772189,0.0114203486591577,0.006674728821963,0.0085450243204832,-0.0100968783418647,-0.1678804866783321,-9.809893580675128,14931.0
11.4,1.7000000476837158,80.0,24.150806427001957,-0.1590354740619659,-79.78282234897152,40.459077106869366,266.19421706438067,0.0005773748271167,0.0075031761080026,-0.070500910282135,0.9974833130836488,-0.0196914437827864,-0.0086719445226219,-0.002054295161804,-0.0041559655219316,-0.0049200542271137,0.0015060255536809,-0.0098021752468775,-0.1878354622609912,-9.810953096151351,14931.0
11.51,1.600000023841858,80.0,24.15456199645996,-0.1510837078094482,-79.78282222852718,40.459076964350345,266.184155561924,0.0005732859135605,0.0075238337740302,-0.0705438256263732,0.9974801540374756,-0.0192031304679675,-0.0116076628965352,-0.0015165792599342,0.0077307866886258,0.0044532353058457,0.0078692194074392,-0.0106459478801116,-0.1657597381062806,-9.80761492073536,14931.0
11.7,1.600000023841858,83.0,24.15331077575684,-0.1510837078094482,-79.78282225565097,40.45907695646896,266.18406472444536,0.0005710704135708,0.0075091994367539,-0.0705446377396583,0.9974802136421204,-0.0240772167061869,-0.0121089687317942,-0.0009509499369325,-0.0065889097750186,-0.0034622808452695,-0.0068322215229272,-0.011709095025435,-0.1688018251396715,-9.809659692049028,14931.0
11.8,1.600000023841858,85.0,24.15581512451172,-0.1431319266557693,-79.7828221427237,40.459076787243006,266.17173478841784,0.0005761275533586,0.007533541880548,-0.0706143528223037,0.9974750876426696,-0.023236592355858,-0.0177427052311676,-0.0039562363100039,-0.0028696975205093,-0.0018910946091637,0.0044669439084827,-0.0134805295639671,-0.1780974362231791,-9.809935095906258,14931.0
12.0,1.600000023841858,88.0,24.15581512451172,-0.1510837078094482,-79.78282217444051,40.45907677409057,266.17138657808306,0.0005886264843866,0.0075379717163741,-0.0706325247883796,0.9974738359451294,-0.0266109935520376,-0.0185550881016886,-0.0036284216145189,-0.0076033673249185,0.0002655230346135,-0.0082897944375872,-0.0121873835613951,-0.1627476728707552,-9.807389218211174,14931.0
12.1,1.600000023841858,90.0,24.143293380737305,-0.1749390214681625,-79.78282194375616,40.45907664478624,266.16140315771105,0.0005652094841934,0.0075947865843772,-0.0706449225544929,0.9974725246429444,-0.0123767341052236,-0.0118579172073304,-0.0019269121372078,-0.0053346962668001,-0.0054927845485508,-0.004961825441569,-0.006386020015343,-0.1946877046488225,-9.81203950881958,14931.0
12.3,1.399999976158142,95.0,24.15331077575684,-0.1431319266557693,-79.78282179640307,40.45907651101653,266.1513572716713,0.0005471187760122,0.0076339445076882,-0.0706242248415947,0.9974736571311952,-0.0126457713090849,-0.0103845508506636,-0.001807913923285,0.0017595776589587,0.0024248750414699,0.0018081947928294,-0.0101212162349838,-0.1705004412867129,-9.808669758439065,14931.0
12.41,1.399999976158142,97.0,24.15331077575684,-0.1510837078094482,-79.78282183670365,40.459076495274175,266.1511139059067,0.0005345914978533,0.0076208189129829,-0.0706677958369255,0.9974707365036012,-0.0195150520028071,-0.0115812674044895,-0.0010253679804732,-0.00907180365175,-0.00472321966663,-0.0095993019640445,-0.0067303119529969,-0.1935473514162004,-9.811006890535356,14931.0
12.6,1.399999976158142,101.0,24.14830207824707,-0.1669872552156448,-79.78282168128892,40.45907637100044,266.1415777587891,0.0005232655094005,0.0076287812553346,-0.0706670060753822,0.9974706768989564,-0.0162197112112477,-0.0087017685564233,-0.0010322008157728,0.0091937892138957,0.0061734304763376,0.0076446998864412,-0.0062475066713523,-0.1850044231675565,-9.811549512147904,14931.0
12.71,1.399999976158142,98.0,24.149553298950195,-0.1590354740619659,-79.78282153756544,40.45907622513626,266.13205555915835,0.0005223278421908,0.0076696332544088,-0.0706739723682403,0.9974698424339294,-0.0152078739659759,-0.0083665520606719,-0.0008219029009461,-0.0004813243867829,-0.0013414123095571,-0.0022357294801622,-0.0077540480653988,-0.1826429885812104,-9.810705174207689,14931.0
12.9,1.399999976158142,98.0,24.15331077575684,-0.1669872552156448,-79.78282155838015,40.459076219410015,266.1320102000237,0.0005133111262694,0.0076644141227006,-0.0707112252712249,0.997467279434204,-0.0174150853888986,-0.0089931956514222,-0.0006588075333155,0.0012626951793208,0.0004079805803485,0.006377883721143,-0.0033065384961082,-0.1943414033018052,-9.810978823900223,14931.0
13.01,1.5,96.0,24.15205764770508,-0.1351801604032516,-79.78282142210553,40.45907608570955,266.122713842392,0.0004963196115568,0.0077024772763252,-0.0707077756524086,0.9974672198295592,-0.0185162744894357,-0.0058237121183277,-0.0006760459207104,0.0051704859361052,0.0069124228321015,0.0071907937526702,-0.0116793370374944,-0.1659653590992093,-9.8086691737175,14931.0
13.2,1.600000023841858,97.0,24.149553298950195,-0.1669872552156448,-79.78282144734602,40.45907608303644,266.12270913362505,0.0004867731186095,0.0077029149979352,-0.0707169398665428,0.9974665641784668,-0.0225782327307664,-0.0061205962911828,-0.0001098060749012,-0.0080668339505791,-0.0022784715984016,-0.0003228266141377,-0.007487625736976,-0.1847448250651359,-9.810787035226822,14931.0
13.32,1.5,100.0,24.15456199645996,-0.1590354740619659,-79.78282127544816,40.45907592375198,266.1134521150589,0.0004871716664638,0.0077423709444701,-0.070804513990879,0.9974601268768308,-0.0172648248141107,-0.0072299117736243,-0.0003962914019613,0.0057095615193247,-0.0018059452995657,0.0087427180260419,-0.0076307785953395,-0.165263565313071,-9.809577831029891,14931.0
13.5,1.600000023841858,102.0,24.15581512451172,-0.2226496636867523,-79.78282129903656,40.45907591956894,266.1134696984291,0.000491592567414,0.0077164033427834,-0.0708154663443565,0.9974595308303832,-0.0211973489389859,-0.0075883283147931,0.0001457228199585,-0.008648470044136,-0.0036609075032174,-0.0106395743787288,-0.0127076806873083,-0.16689895844087,-9.809826337695124,14931.0
13.6,1.5,102.0,24.150806427001957,-0.198794350028038,-79.78282114877841,40.45907576556439,266.1034151697159,0.0004955216427333,0.0077358544804155,-0.07078767567873,0.9974613189697266,-0.020360263751871,-0.0083018915931862,-0.0020015176601752,-0.0041951988823711,-0.0048275110311806,-0.0003257438074797,-0.0109222402400337,-0.1842425857856869,-9.810467777252198,14931.0
13.8,1.7000000476837158,99.0,24.14830207824707,-0.1908425688743592,-79.78282090908299,40.45907561964359,266.0972561621666,0.000500610738527,0.0078178569674491,-0.0708222016692161,0.9974582195281982,-0.0054364352763163,-0.00593018554822,0.0025683014296259,-0.0021770363673567,0.0037139463238418,0.0009552327101118,-0.0088981351791881,-0.1675418415293097,-9.809115316271782,14931.0
13.91,1.7000000476837158,97.0,24.15456199645996,-0.1590354740619659,-79.78282092953229,40.459075610049645,266.097864189148,0.0004936651675961,0.0078173661604523,-0.070866473019123,0.99745512008667,-0.0112461338016549,-0.0068110969699998,0.0033808986643017,-0.0094704972580075,-0.0047865831293165,-0.0066927131265401,-0.0053484630037564,-0.1953358502313494,-9.811425551176072,14931.0
14.1,1.7000000476837158,96.0,24.14830207824707,-0.2146978974342346,-79.78282076506363,40.45907543573647,266.09169636011126,0.0005009788437746,0.0078170876950025,-0.0708847194910049,0.99745374917984,-0.0103294311692071,-0.0109456952903803,0.0052013707602902,0.0115132667124271,0.0025445448700338,0.0099980067461729,-0.0074160978442523,-0.1827634412236512,-9.811217390298845,14931.0
14.21,1.7000000476837158,95.0,24.15205764770508,-0.1590354740619659,-79.78282060595326,40.45907526440987,266.0859464788437,0.0005143534508533,0.0078324433416128,-0.0708638280630111,0.9974551796913148,-0.0132541935735014,-0.0104770657874797,0.0067509439788889,-0.0040806285105645,-8.420243102591486e-05,-0.0071715242229402,-0.0080747952527599,-0.1885518740862608,-9.810230380296709,14931.0
14.4,1.7000000476837158,98.0,24.14830207824707,-0.1908425688743592,-79.78282062408428,40.459075256303045,266.0866557145119,0.0005056121735833,0.0078370468690991,-0.0709037333726883,0.9974523186683656,-0.0145173853400143,-0.0113700703668096,0.0069962245301923,0.007750891149044,0.0042027789168059,0.0088910404592752,-0.0050889385625487,-0.1935356021672487,-9.812026644945147,14931.0
14.51,1.7000000476837158,99.0,24.143293380737305,-0.1908425688743592,-79.78282046550515,40.459075089821056,266.0798168563843,0.0005178314168006,0.0078768553212285,-0.0708977729082107,0.997452437877655,-0.0141959790161403,-0.0110171575460443,0.0056343113868142,0.0065060658380389,0.0050996169447898,0.002801623661071,-0.0092971431225305,-0.1742491095140576,-9.81147349834442,14931.0
14.7,1.600000023841858,99.0,24.150806427001957,-0.1749390214681625,-79.78282048575278,40.459075081780256,266.0804287576676,0.0005154444370418,0.0078743016347289,-0.0708882510662078,0.9974530935287476,-0.0168252452280678,-0.0115832745158621,0.0060489065097256,0.0004715374670922,0.0017412001034244,0.0059644752182066,-0.00683716696396,-0.1943297271430492,-9.811912039518354,14931.0
14.8,1.600000023841858,102.0,24.15456199645996,-0.1590354740619659,-79.78282028344167,40.4590749127521,266.075259783268,0.0005206953501328,0.0079257190227508,-0.0708717852830886,0.9974538683891296,-0.0097813400555555,-0.01009853362949,0.0074322569417706,0.0071383253671228,0.0028488070238381,0.0093972226604819,-0.0100121747993398,-0.161668496131897,-9.8080920535326,14931.0
15.0,1.600000023841858,103.0,24.15456199645996,-0.1431319266557693,-79.78282029875055,40.45907490509617,266.07605282306673,0.0005199505249038,0.007913720794022,-0.0708696618676185,0.9974541068077089,-0.0138437924411073,-0.0103432905700437,0.0080020421658307,-0.0104251001030206,-0.0034814456012099,-0.0090502938255667,-0.011264559313422,-0.1707316803932189,-9.80951643526554,14931.0
15.1,1.600000023841858,101.0,24.149553298950195,-0.1510837078094482,-79.78282011385085,40.45907472620436,266.0711601161957,0.0005171179655008,0.007922226563096,-0.0708206221461296,0.9974575638771056,-0.0116227335281066,-0.0100497231174261,0.0088185254095737,0.0003662900417111,-0.0071270018815994,0.0039716060273349,-0.0053153468639357,-0.17394066888839,-9.810817440748217,14931.0
15.3,1.5,101.0,24.150806427001957,-0.1510837078094482,-79.78281993180984,40.45907457416868,266.06542847394945,0.0004968963330611,0.007946953177452,-0.0707431957125663,0.997462809085846,-0.0124840767947041,-0.0039272402205861,0.0091961718697925,-0.0038206859026104,-0.0001803988561732,-0.009168236516416,-0.0082986482523847,-0.1630490785650909,-9.809057428836825,14931.0
15.4,1.399999976158142,100.0,24.15205764770508,-0.1510837078094482,-79.78281996625181,40.4590745694368,266.0673566246033,0.0004731105582322,0.0079449629411101,-0.0707308650016784,0.9974637627601624,-0.0173119684156529,-0.0049602403332731,0.0097959963197405,-0.007594421505928,-0.0037350370548665,-0.0072592729702591,-0.0059904958476545,-0.1931181292422116,-9.810763646364212,14931.0
15.6,1.399999976158142,107.0,24.15331077575684,-0.1669872552156448,-79.78281977952079,40.45907437608818,266.06201849222185,0.0004851234843954,0.0079684266820549,-0.0707398727536201,0.9974628686904908,-0.0131587646110902,-0.0082032556109812,0.0098179311367241,0.0031227937433868,0.0019970312714576,0.0042577581480145,-0.0081355937331682,-0.1788478349894285,-9.810488827228548,14931.0
15.71,1.399999976158142,110.0,24.15205764770508,-0.1669872552156448,-79.78281960403764,40.45907417186975,266.0578399085999,0.0004897401086054,0.0079886531457304,-0.0707737654447555,0.9974603652954102,-0.0121804166503914,-0.0112356525395757,0.0101051213519673,-0.0065202736295759,-0.0028185111004859,-0.0079632047563791,-0.0067361511744093,-0.1960283981077373,-9.810834982395171,14931.0
15.9,1.2999999523162842,114.0,24.15205764770508,-0.1590354740619659,-79.78281962044488,40.45907416300931,266.05888126134874,0.0004731187073048,0.0079604079946875,-0.0707871466875076,0.9974596500396729,-0.0127837698305559,-0.0119878677387117,0.0103000745230782,0.0092088766396045,0.0068494617007672,0.0093553615733981,-0.0038720002237823,-0.1928235209360718,-9.812140080928804,14931.0
16.01,1.2999999523162842,112.0,24.15205764770508,-0.1431319266557693,-79.78281940792948,40.459073947744976,266.0549160027504,0.0004743459285236,0.0079825725406408,-0.0708516985177993,0.997454822063446,-0.006720196904825,-0.0139222574214679,0.0104542388984284,0.0084281647577881,0.0030971944797784,0.006173871923238,-0.0098585163673851,-0.1763705707155168,-9.811689845323563,14931.0
16.2,1.2999999523162842,112.0,24.15456199645996,-0.1669872552156448,-79.78281941981467,40.45907393630295,266.0559984827042,0.000468772748718,0.0079688774421811,-0.0708274766802787,0.997456669807434,-0.0094404725263415,-0.0142302301449627,0.0109324637322573,-0.0001368795783491,-0.0022965031675994,0.003793527605012,-0.0076886192068923,-0.1922433492355048,-9.811409178972244,14931.0
16.31,1.2999999523162842,113.0,24.149553298950195,-0.1510837078094482,-79.7828191834312,40.4590737590794,266.0521544003487,0.000462842232082,0.0079938396811485,-0.0707670003175735,0.9974607825279236,-0.0033136849763463,-0.007318018475752,0.0108388807283715,0.0055721122771501,0.003267312888056,0.0091117983683943,-0.0118820652575232,-0.1635849393345415,-9.808949840068818,14931.0
16.5,1.2999999523162842,110.0,24.130773544311523,0.1431319266557693,-79.7828191905688,40.45907375301768,266.0532759809494,0.0004604220157489,0.0079809986054897,-0.0708387494087219,0.9974557161331176,-0.0062194238737634,-0.0083153591919982,0.0115187703679597,-0.004678928758949,-0.0022443432826548,-0.0020143026486039,-0.0163900880841538,-0.1699691486544907,-9.81322415471077,14931.0
16.6,1.2000000476837158,110.0,24.12952041625977,0.1351801604032516,-79.78281902892017,40.459073553889006,266.0482910656929,0.0004613246128428,0.0079854307696223,-0.0708567425608635,0.9974544644355774,-0.0108125217554609,-0.0085714457973216,0.0090023764570512,-0.0066434652544558,0.0014555547386407,0.000119453165098,-0.0038084834162145,-0.2041390161216259,-9.80814000070095,14931.0
16.81,1.2000000476837158,108.0,24.130773544311523,0.1510837078094482,-79.78281881155384,40.45907335147801,266.0442437911034,0.0004841668705921,0.0080353552475571,-0.0708745196461677,0.9974527955055236,-0.0042017844605446,-0.0084815262720322,0.0094049461289927,-0.0033495253883302,0.0036175281275063,-0.0044010072015225,-0.0158381885848939,-0.1708127191476524,-9.808644030690196,14931.0
16.91,1.2000000476837158,107.0,24.123260498046875,0.1590354740619659,-79.78281882860337,40.45907333778384,266.0462127709389,0.0004898828919976,0.0080230059102177,-0.0708823353052139,0.9974523186683656,-0.0090021475221702,-0.0090761366005721,0.0102081548237089,-0.0092069972306489,-0.0038734308909624,-0.0126739293336868,-0.0011744463827926,-0.1924413140304386,-9.811415026187897,14931.0
17.1,1.2000000476837158,106.0,24.12952041625977,0.1828908026218414,-79.78281862383483,40.45907311447844,266.04045943260195,0.0005182577879168,0.008046306669712,-0.0709957331418991,0.9974440932273864,-0.0047956012515955,-0.0123806733658428,0.0069050421939197,0.0107559999451041,0.0011586890323087,0.004342486616224,-0.0052566771354759,-0.1823517424240708,-9.80912291765213,14931.0
17.21,1.2000000476837158,103.0,24.11950492858887,0.2146978974342346,-79.78281842115126,40.45907287326806,266.0377548122406,0.0005432978505268,0.0080930888652801,-0.0710435658693313,0.9974402785301208,-0.0039444682971694,-0.0153439663482568,0.0081835876358378,-0.0005795764736831,0.0037844830658286,-0.0037759139668196,-0.0063399172323988,-0.184390392433852,-9.811813806295396,14931.0
17.4,1.2999999523162842,100.0,24.12075614929199,0.278312087059021,-79.78281842937317,40.45907285989702,266.0385945224762,0.0005376125336624,0.0080743469297885,-0.0710784047842025,0.9974378943443298,-0.0057478265574281,-0.0162129931753066,0.0085205074214444,0.0034450707025825,0.0009259383659809,0.0034817776177078,-0.0032057045755209,-0.1920405970327556,-9.815308102369311,14931.0
17.5,1.2999999523162842,99.0,24.05815505981445,13.025005340576172,-79.78281826471056,40.45907267103821,266.03412256479265,0.0005485409055836,0.0080575123429298,-0.0710847750306129,0.997437596321106,-0.0080194576949735,-0.0113339650043558,0.0060780310457219,0.0215745195746421,0.0140297226607799,0.0080603063106536,-0.0090756832557963,-0.1701735088415444,-9.809443345069884,14931.0
17.7,1.2999999523162842,100.0,24.09822082519531,0.4452993273735046,-79.78281827915576,40.45907266332579,266.0348006272316,0.0005101347342133,0.0081646535545587,-0.0710642039775848,0.9974382519721984,-0.0134025833861927,-0.0114810103588954,0.0068337423617124,-0.0104692671447992,0.0154682360589504,-0.0089845415204763,-0.034348061364144,-0.1684304904006421,-9.814293025732043,14931.0
17.8,1.2000000476837158,103.0,24.12576484680176,0.1113248318433761,-79.78281809242758,40.459072413645,266.0308264279366,0.0005589002976194,0.0082556279376149,-0.0711548253893852,0.997430980205536,-0.010922252901387,-0.0158284814657545,0.0054828512062948,-0.0056182011030614,-0.0057670385576784,-0.0161971729248762,-0.0446308606071397,-0.141994205173105,-9.818397771120072,14931.0
18.0,1.2000000476837158,102.0,23.94546890258789,2.154930830001831,-79.78281810799997,40.45907239991721,266.0313529157639,0.0005403482937254,0.0082481801509857,-0.0712106600403785,0.9974270462989808,-0.0110608113627266,-0.0180142761750816,0.0061603000812387,0.0080615850165486,-0.0011493632337078,-0.0025113490410149,-0.0271569499885663,-0.179915061481297,-9.818184932470324,14931.0
18.11,1.2000000476837158,102.0,24.09321212768555,0.3419262766838074,-79.78281790383998,40.459072220240905,266.0297821545601,0.0005177368293516,0.0084110088646411,-0.0711277201771736,0.9974316358566284,-0.0117587225524251,-0.0079961362053124,0.008318627230915,0.0067105866037309,0.0024114216212183,0.0073858159594237,0.002960302530555,-0.1894709832966328,-9.810601093769074,14931.0
18.3,1.2000000476837158,104.0,24.12200927734375,0.0795177370309829,-79.78281769256208,40.45907197766008,266.02724412918093,0.0005441709654405,0.0084161022678017,-0.0711787566542625,0.9974279403686525,-0.0049482015594787,-0.0138909504730482,0.0094376330400817,0.0051697292365133,0.0228938851505518,-0.0063432273454964,-0.0353127948450855,-0.1879894450306892,-9.805242705345156,14931.0
18.41,1.2000000476837158,105.0,24.06817054748535,1.2166213989257812,-79.78281771347167,40.45907195668008,266.0290776872635,0.0006157575407996,0.0083212554454803,-0.0712019205093383,0.9974270462989808,-0.0094656262412619,-0.012161249837427,0.0094237691158894,-0.0081142522394657,-0.0186425261199474,-0.000831636833027,-0.0054122935852501,-0.199976054392755,-9.800808176994323,14931.0
18.6,1.2999999523162842,105.0,23.85782623291016,4.508656024932861,-79.78281754068908,40.45907174330321,266.025360622406,0.0006124879582785,0.0083490405231714,-0.0712926909327507,0.9974203109741212,-0.0084416745118169,-0.0139751656292619,0.0071028193868989,0.0143719594925642,-0.0050383768975734,0.0201331172138452,-0.0285006447136402,-0.1920158560015261,-9.809328154921532,14931.0
18.7,1.2999999523162842,106.0,23.798980712890625,5.359495639801025,-79.7828175711283,40.4590717218132,266.0269914650917,0.0006351309712044,0.008381800726056,-0.0713012740015983,0.9974194169044496,-0.010617458516672,-0.0151216403376504,0.0090748635923126,0.0149515466764569,0.0341942012310028,-0.0040965457446873,-0.0102520648157224,-0.1900369389541447,-9.815746643543244,14931.0
18.9,1.399999976158142,105.0,23.65249061584473,7.84044885635376,-79.78281737662941,40.45907147636093,266.0236592078209,0.0006855647661723,0.0084770442917943,-0.0715167298913002,0.9974032044410706,-0.0082330804812478,-0.0198572105436278,0.0058082702848292,-0.0195188354700803,-0.0263701453804969,-0.0084905214607715,0.0040613075421424,-0.1959586700610816,-9.833940839767456,14931.0
19.0,1.5,105.0,23.57486343383789,9.216106414794922,-79.78281719684941,40.459071210286375,266.0213882112503,0.000615983386524,0.008872652426362,-0.0717588365077972,0.997382402420044,-0.001489238823507,-0.0275369909351017,0.0035442000862287,0.0450649969279766,0.0726222619414329,-0.061792004853487,-0.0315330061828717,-0.2116881004348397,-9.816617878675464,14931.0
19.2,1.600000023841858,103.0,23.38329887390137,12.30139446258545,-79.78281720784496,40.4590711877719,266.0220210337639,0.0009741433314047,0.0091217961162328,-0.0717510506510734,0.9973804354667664,-0.0035642148069859,-0.0218406120249911,0.0070415943271262,0.0193126779049634,-0.0484834797680378,0.0277490466833114,0.0265752433938905,-0.2065899496525526,-9.835692665576936,14931.0
19.31,1.600000023841858,101.0,23.28188323974609,13.812231063842772,-79.78281692737075,40.45907103923415,266.01421485185625,0.0020437533967196,0.0093704555183649,-0.0717648193240165,0.9973755478858948,-0.0027353074603629,-0.0122423692993921,0.0054949136415266,-0.0356389880180358,0.049794502556324,0.0611006505787372,-0.0639390382077545,-0.103780695721507,-9.795838628411293,14931.0
19.5,1.7000000476837158,99.0,23.04399299621582,17.374626159667972,-79.78281692488908,40.4590710228968,266.0148894572258,0.0033557047136127,0.0092337867245078,-0.0717953518033027,0.9973710179328918,0.003557169481589,-0.0207124285533692,0.0096048941217995,0.0282200593501329,0.011421550065279,-0.0222543198615312,-0.0374226872390136,-0.2888554499298334,-9.876337831020356,14931.0
19.6,1.7999999523162842,100.0,22.94758605957031,19.02064323425293,-79.78281673938292,40.45907079801202,266.0155544662476,0.0068883853964507,0.0093653798103332,-0.0722249373793602,0.9973206520080566,0.0052328846037609,-0.0199423057446804,0.017217845263775,-0.0119172306731343,0.0330004878342151,0.0812998637557029,0.0888094299472868,-0.2856647339835763,-9.869472030401232,14931.0
19.8,1.8999999761581416,98.0,22.70594024658203,22.78183174133301,-79.78281655382443,40.45907053810578,266.01546535730364,0.0075169657357037,0.0082131410017609,-0.0720394700765609,0.99733966588974,0.0092909842793285,-0.0233923612639821,0.0246503563527942,-0.0326332189142704,0.0139832394197583,-0.102894090116024,0.0332801953330636,-0.2392014793306589,-9.848880475759506,14931.0
19.9,1.8999999761581416,98.0,22.565710067749023,24.81748580932617,-79.78281657722762,40.459070489060906,266.02982095718386,0.0089820697903633,-0.0016285373130813,-0.0716855004429817,0.9973855018615724,-0.0194913519528117,-0.046651484641433,0.1563663277958014,-0.1047107279300689,0.1242802962660789,-0.0096726221963763,0.0905701636243611,-0.105314164571464,-10.164474585056306,14931.0
20.11,2.0,100.0,22.87747001647949,19.27510070800781,-79.78281641081524,40.45907027305986,266.0356989884377,0.0135339684784412,-0.0109910489991307,-0.0704131126403808,0.9973655939102172,-0.0339654993880646,-0.0547189631921,0.2533603348383169,-0.0371106453239917,0.2148850262165069,0.0605568625032901,0.1532405296247452,-0.0980175155214965,-10.98412558078766,14931.0
20.2,2.0,104.0,22.883729934692383,19.00473976135254,-79.78281646699077,40.45906983999443,266.0805266284943,0.005365855526179,-0.0034561771899461,-0.071427583694458,0.9974254369735718,-0.0735540288142136,-0.0593547119399324,0.304389423741065,0.1346484869718551,-0.1396602988243103,0.0416276901960372,0.1660912752337754,0.0056796015612781,-10.61292094230652,14931.0
20.4,2.0,105.0,22.82363319396973,20.491722106933597,-79.78281659269955,40.45906979566311,266.11050716876986,0.0001054002277669,0.0007513509481213,-0.0723607167601585,0.9973783493041992,-0.1115158202772968,-0.05638224776682,0.2991788172849863,-0.01625288836658,-0.1262562125921249,-0.0299985855817794,0.1739368133805692,-0.0510030785668641,-9.83371162891388,14931.0
20.5,2.0,104.0,22.700931549072266,21.350513458251957,-79.78281673464902,40.45906975554556,266.1389760756493,-0.0033360684756189,0.0016334168612957,-0.0730663985013961,0.9973202347755432,-0.1148982365093797,-0.0641500523962895,0.2680834768392276,0.0097466446459293,0.054644089192152,-0.0059787342324852,-0.0315619499003514,-0.1382302428223192,-9.588325622677804,14931.0
20.6,2.0,99.0,22.69967842102051,21.97075080871582,-79.78281689529416,40.45906939493543,266.1640589618683,0.0002654473646543,0.0026138967368751,-0.0738477110862732,0.9972661137580872,-0.1023461346377308,-0.0403665629663874,0.1631659656598909,0.1362282335758209,-0.0004642875574063,0.0090811699628829,0.1083805084135383,-0.1078614583890885,-9.570475242733956,14931.0
20.81,2.0,101.0,22.66337013244629,22.026412963867188,-79.7828173778648,40.459069307586006,266.174222984314,0.001404341077432,0.0110059697180986,-0.0738522484898567,0.9972074627876282,-0.1474861239266366,-0.001549070131811,0.1660909795884385,0.1005601733922958,0.0322936922311782,-0.0549555942416191,0.0965305137634277,-0.2725160270556808,-9.844484539031985,14931.0
20.9,1.8999999761581416,101.0,22.68089866638184,22.074125289916992,-79.78281755604573,40.45906932978126,266.19143990516665,0.0033114720135927,0.0108742481097579,-0.0736779198050499,0.997217297554016,-0.1493372014649921,-0.0005459906431806,0.1665501382820653,-0.0284347720444202,0.0672499313950538,0.0306676030158996,0.0632848078664392,-0.2785447622090578,-9.866845461130143,14931.0
21.1,1.8999999761581416,101.0,22.633319854736328,21.469789505004886,-79.78281729016572,40.45906905034249,266.21590683698656,0.0049697561189532,0.0075493692420423,-0.0740537419915199,0.9972133636474608,-0.1126255888785802,-0.0121570853219806,0.1767803742499801,-0.0562091954052448,-0.005325264763087,0.032242938876152,0.0755202345270663,-0.2845698428526521,-9.831246442794802,14931.0
21.3,1.8999999761581416,104.0,22.645841598510746,20.8177433013916,-79.78281745273175,40.459068897636655,266.25910905838015,0.0045647365041077,0.0105365496128797,-0.0741181597113609,0.997183322906494,-0.1127413659943559,0.014773339090552,0.2178504872944196,0.0192377679049968,0.0082157449796795,-0.0561717897653579,0.1449620234314352,-0.14194768326357,-9.942142395973208,14931.0
21.4,1.8999999761581416,104.0,22.54317283630371,23.65652656555176,-79.78281757492094,40.45906892667529,266.28099677801134,0.0035486915148794,0.0116237252950668,-0.073483221232891,0.9972224235534668,-0.116861205124331,0.0188037747093412,0.2112426779004772,-0.0343213453888893,0.0795119926333427,-0.0358817726373672,0.1377839723601937,-0.0308270690962672,-9.808182685375217,14931.0
21.51,1.8999999761581416,105.0,22.58323860168457,22.614845275878903,-79.78281762272242,40.45906867656985,266.33088973999025,0.0045592626556754,0.0113295558840036,-0.0735155791044235,0.9972193241119384,-0.0799191935795508,0.0109977050138745,0.2398043414506578,0.060144305229187,0.0221445653587579,0.0246028881520032,0.0739132734853774,-0.1114674088731408,-9.978350694179538,14931.0
21.7,1.8999999761581416,106.0,22.644588470458984,21.883281707763672,-79.78281749710042,40.459068445737095,266.3914392375946,0.0082379607483744,0.0159333925694227,-0.0767239928245544,0.9968910813331604,-0.0299600019955871,0.0207411831622794,0.3033803768187717,0.0722330063581466,-0.0284073743969202,0.0032162216957658,0.0946103886421769,-0.148407961204648,-10.129822815656665,14931.0
21.8,1.8999999761581416,105.0,22.62956428527832,22.0105094909668,-79.78281752958459,40.459068463303645,266.42174784183504,0.0088879000395536,0.0146981319412589,-0.0776256844401359,0.9968346953392028,-0.0350687219216438,0.0163153879961811,0.2959692057860633,-0.026872269809246,-0.0201613176614046,-0.0348331853747367,0.0926567882113158,-0.2480385956168175,-9.7863930362463,14931.0
22.0,1.8999999761581416,105.0,23.37578582763672,10.520196914672852,-79.78281754875636,40.45906847297864,266.4512759828568,0.0104890139773488,0.0132631789892911,-0.0775948837399482,0.9968416094779968,-0.0180288440947574,0.0086757400061568,0.2941364585269121,-0.039446547627449,-0.0184116419404745,0.0326481647789478,0.0776991172134876,-0.28001235852018,-9.833597023487092,14931.0
22.21,1.7999999523162842,102.0,22.302780151367188,25.827362060546875,-79.7828174168007,40.45906840533881,266.5042667770386,0.0092379171401262,0.0105472458526492,-0.0762578025460243,0.996989607810974,-0.012879979124101,0.0182142305570399,0.140942489833565,-0.0884963423013687,-0.0333739891648292,-0.0135711105540394,0.0981081656366586,-0.2330269657820463,-8.901711646914482,14931.0
22.31,1.8999999761581416,103.0,22.306535720825195,25.95458984375,-79.78281733568933,40.45906833058305,266.5603161239624,0.0029618931002914,-0.0068309605121612,-0.0776763409376144,0.99695086479187,-0.0160038848526509,0.0082970481530372,0.2232678437301636,-0.1108900979161262,-0.0289719551801681,0.0766587480902671,0.0009626435581594,-0.3052833667583764,-9.48620867908001,14931.0
22.41,1.8999999761581416,107.0,22.206371307373047,27.76759529113769,-79.78281736787694,40.459068337160616,266.5877383136749,0.0032407492399215,-0.0075924540869891,-0.0784168988466262,0.9968864917755128,-0.0247171784552718,0.0044949557902047,0.3277354804800589,0.0999585911631584,-0.0132095506414771,-0.0830918028950691,0.0707851867005229,-0.0018106177356094,-10.70609164595604,14931.0
22.61,1.8999999761581416,112.0,21.94719696044922,31.70372200012207,-79.78281715426847,40.45906808412281,266.6287452363968,0.0040849680081009,-0.0028019677847623,-0.078819453716278,0.99687659740448,-0.019177514883886,-0.0083534008800213,0.4803628656994003,0.2081313580274582,0.0793046802282333,-0.0121957818046212,0.1684371598809957,-0.0526981407031416,-11.17331107378006,14931.0
22.81,1.8999999761581416,113.0,21.88334274291992,32.45119094848633,-79.78281736018212,40.45906785170281,266.75614730358126,0.0047097862698137,0.007782760541886,-0.0795560181140899,0.9967889785766602,-0.0679406186985421,0.0017887221462097,0.8438029710558659,-0.0151982186362147,-0.0225172266364097,0.0517239794135093,0.1098591596167534,-0.0668065675813704,-11.727924156188966,14931.0
22.9,1.8999999761581416,115.0,21.954710006713867,31.00396728515625,-79.78281742241688,40.45906785357909,266.85062388420107,0.0033370607998222,0.0083619831129908,-0.0801773592829704,0.9967399835586548,-0.0669988374557378,0.004904226612931,1.0489445053105189,-0.0102076111361384,0.054645612835884,0.0648831725120544,0.0889337746426463,-0.2726234696432948,-11.828276410102848,14931.0
23.0,2.0,112.0,22.054872512817383,29.64421272277832,-79.78281743084116,40.459067657762425,267.10106114387514,0.0025549267884343,0.0062979818321764,-0.0791144743561744,0.9968424439430236,-0.0690615112884356,0.0070561004160108,1.4452059304143845,0.0529205650091171,0.0584225207567215,-0.0564392171800136,0.0798269646707922,-0.0948605489730835,-11.792262239456177,14932.0
23.2,2.0,114.0,21.636688232421875,36.4429817199707,-79.7828175076919,40.45906746328552,267.42334393501284,0.0102288266643881,0.0085068419575691,-0.0765171945095062,0.9969795346260072,-0.0713269655930494,0.0251158630040867,1.8443244893933544,0.0610727667808532,0.1039988026022911,0.0182266253978014,0.0954425662010908,-0.3505327942594886,-11.74370228290558,14932.0
23.3,2.0999999046325684,117.0,21.803211212158203,33.4531135559082,-79.78281755746312,40.45906747070097,267.6209259414673,0.0128042306751012,0.009719924069941,-0.0753289237618446,0.997029185295105,-0.0702322575775173,0.0357621865528327,2.102293760025668,0.0985027626156807,0.0397178195416927,0.0092113427817821,0.2015839473344385,-0.2146600756980478,-12.316031259298324,14932.0
23.51,2.200000047683716,117.0,21.6091423034668,36.27599334716797,-79.78281759253686,40.45906746827345,267.8433766746521,0.0139227183535695,0.0118630640208721,-0.0745595097541809,0.9970488548278807,-0.0760647769368836,0.0441912650280774,2.3483062436216207,0.0116961887106299,-0.0511555150151252,-0.0457676760852336,0.2614195831865073,-0.0333968381490558,-12.331653850078585,14932.0
23.7,2.299999952316284,118.0,21.955961227416992,29.62035751342773,-79.78281756265626,40.45906717261944,268.35371116638186,0.0133958719670772,0.0070279124192893,-0.0746957510709762,0.9970916509628296,-0.085102387273388,0.0221466331189269,2.8102358862602266,-0.1207371354103088,0.0203489288687706,-0.0024461559951305,0.1448720768094062,-0.1391671951767057,-12.06221649169922,14933.0
23.8,2.400000095367432,119.0,22.14752578735352,26.996273040771484,-79.78281744792932,40.45906690304352,268.6405017757416,0.0139772649854421,0.0041350075043737,-0.0747998729348182,0.997092068195343,-0.0470547412615155,0.0062697253529701,2.9633690083078124,0.0022376098204404,-0.0187228471040725,-0.0919117033481598,0.2313316021487117,-0.0662599397124722,-11.593998359441755,14933.0
23.9,2.5,119.0,22.17381858825684,26.471454620361328,-79.78281745590034,40.459066745119216,269.2524803066254,0.0152157908305525,0.0156556218862533,-0.0742572695016861,0.9970001578330994,-0.0489920976047256,-0.0187602893460506,3.1261479235100267,0.1300475895404815,0.0533677749335765,-0.0516963265836238,0.1917363225482404,-0.1148846313357353,-10.531974427700042,14934.0
24.11,2.5999999046325684,119.0,22.16880989074707,26.240854263305664,-79.7828172365671,40.459066240059705,269.9020390892029,0.0191944390535354,0.016971793025732,-0.0759621486067771,0.9967815279960632,-0.0533231043152773,-0.0567406996394177,3.1894289770103814,0.1294952929019928,-0.0003131561097688,0.11357132345438,0.0150017489539459,-0.0954071905463934,-10.289385144710543,14934.0
24.3,2.799999952316284,114.0,22.141263961791992,26.479406356811523,-79.78281687077394,40.45906578284559,270.2633786582947,0.0212035067379474,0.015151647850871,-0.0772233381867408,0.9966732263565063,-0.044087610229487,-0.0760916296875757,3.2168949798330337,0.0161670166999101,0.1288178116083145,-0.0517306663095951,0.1187961627915501,-0.077438039034605,-9.90399749994278,14935.0
24.4,2.900000095367432,115.0,22.12248420715332,26.12952995300293,-79.78281681349901,40.45906559360514,270.58429292678835,0.0223554093390703,0.0135569022968411,-0.0770925655961036,0.9966810941696168,-0.0301368772089359,-0.0796216911758723,3.2151176435979902,-0.1506854146718979,-0.0286227781325578,-0.0667749568819999,0.0588311938382685,-0.180585700571537,-9.788206842541696,14935.0
24.5,3.2000000476837163,113.0,22.24768829345703,24.89700508117676,-79.78281631521929,40.459064825169385,271.26493648529055,0.0203360356390476,0.005406554788351,-0.0777042135596275,0.9967544078826904,0.0354261700801772,-0.1317329213099283,3.175197806907096,-0.0330460108816623,0.0241231098771095,-0.023429499939084,0.2193260989710688,-0.1016944274492562,-9.531094830036164,14936.0
24.71,3.299999952316284,113.0,22.218891143798828,24.793630599975582,-79.78281617060087,40.45906415571751,271.8689303779602,0.0130479428917169,0.0018311850726604,-0.0779258757829666,0.9968721270561218,0.0603998863961657,-0.2002796419207811,3.042137488155124,-0.0039355014450848,-0.0580732338130474,-0.0630270540714263,0.0847207095846533,0.0716200229153037,-9.360902262926102,14936.0
24.8,3.5,117.0,22.19510269165039,25.25483322143555,-79.78281612708706,40.459063871793774,272.1698170089722,0.0119095472618937,0.0061513036489486,-0.0786555707454681,0.9968117475509644,0.0569042464198932,-0.2352424136041535,2.9954404988680863,0.0094861276447772,0.0471963249146938,-0.0378632023930549,0.1063361116871238,-0.0011009804578498,-9.355497681498528,14937.0
25.0,3.5999999046325684,116.0,22.11997985839844,26.28061294555664,-79.78281609261839,40.459063580229646,272.4665332221985,0.0123857194557786,0.0090896962210536,-0.0794106349349021,0.9967235922813416,0.0192988836621019,-0.2506048669248121,2.957519057906954,-0.1053875163197517,0.0001589347957633,0.0148989902809262,0.0557060854788869,-0.2114664909616112,-9.37102613210678,14937.0
25.2,3.5999999046325684,114.0,22.191347122192383,25.350255966186523,-79.78281601261276,40.45906346245887,272.96072343826296,0.0122140599414706,0.0088516855612397,-0.0792503580451011,0.996740698814392,0.0125485099812434,-0.2061793927535285,2.83116969828081,0.0942377895116806,0.0265537332743406,0.1177916452288627,0.2953900788724423,-0.2217505738511681,-9.47142516374588,14937.0
25.3,3.700000047683716,115.0,22.047361373901367,27.03603172302246,-79.78281571474925,40.45906299304885,273.33888153076174,0.0090358667075634,0.0093802725896239,-0.0801025032997131,0.9967015981674194,-0.0069072533534755,-0.1918680564845881,2.8110904143291515,-0.092014342546463,-0.0872607380151748,-0.1369266957044601,0.1055929579865187,0.1652913578599691,-9.367373961210252,14938.0
25.4,3.700000047683716,118.0,22.033588409423828,26.59868431091309,-79.78281565897323,40.45906252460392,273.8954906845093,0.0029557265806943,0.0085800439119338,-0.0818498209118843,0.9966034293174744,0.0297941248261598,-0.2209999217823593,2.7814714646786927,0.0800513103604316,-0.0263582039624452,0.0888121128082275,0.1617291427217424,-0.4821268310397864,-9.774923138022425,14938.0
25.61,3.799999952316284,117.0,22.06614112854004,26.66229820251465,-79.78281550681878,40.45906157386491,274.6389055633545,0.003966060001403,0.0034584910608828,-0.0843055695295333,0.9964261054992676,-0.0046622712280902,-0.2261744999900217,2.8622924688730498,-0.1302289515733719,0.0501598455011844,0.0275058690458536,0.1633120753616094,-0.2141154806502163,-9.850735212564471,14939.0
25.7,3.799999952316284,119.0,22.081167221069336,27.083742141723643,-79.78281516760867,40.45906099843718,275.02012065887453,0.0040413276292383,0.0020901628304272,-0.0846812203526496,0.9963977932929992,0.0221152936299783,-0.2104154193305454,2.890979035123977,0.0497053004801273,-0.0704481601715087,0.0737181603908538,0.2004528400115668,-0.5024236860126258,-9.813545751571656,14940.0
25.9,3.700000047683716,122.0,22.10871124267578,25.350255966186523,-79.78281517673005,40.45906079543453,275.3093204879761,0.0026843866799026,0.0058644702658057,-0.0836574807763099,0.9964737296104432,0.0065114693969072,-0.1975977726666752,2.8958005141941463,0.107726365327835,0.0523662343621254,0.0219918675720691,0.2551967204734683,-0.0938932550512254,-9.853934808969498,14940.0
26.1,3.700000047683716,124.0,22.0423526763916,27.56879997253418,-79.78281481208762,40.459060143734106,275.96478847503664,-0.0009930008091032,0.0110183861106634,-0.0808381214737892,0.9966658353805542,-0.0479830213492983,-0.1899247126743292,2.9083056487149173,0.0498525127768516,-0.0214445348829031,0.0752669349312782,0.1999759082123636,-0.5714264586567879,-9.763460841178894,14940.0
26.21,3.700000047683716,123.0,22.09493827819824,27.25072860717773,-79.78281476747543,40.45905948169985,276.608754196167,0.0002396930067334,0.0086512798443436,-0.0794584676623344,0.9968006610870358,-0.072557435492974,-0.1754284027064114,2.9375818527952164,-0.0044370717369019,0.0972703471779823,-0.051105760037899,0.220015156790614,-0.3157230038568377,-9.83869345664978,14941.0
26.31,3.5999999046325684,122.0,22.124988555908203,25.81941032409668,-79.78281481174187,40.45905934569235,276.9022274398804,0.0021214112639427,0.0097114574164152,-0.0780378282070159,0.9969009160995485,-0.0860611327298284,-0.1402000263569758,2.9266000523978515,-0.1138133481144905,-0.0703486278653144,-0.0996332243084907,0.147258873693645,0.0355038960138335,-9.669456324577332,14941.0
26.51,3.5,123.0,22.087427139282227,26.65434646606445,-79.78281485881394,40.45905923081851,277.1942882919312,0.0022917815949767,0.0100163724273443,-0.0767402872443199,0.9969982504844666,-0.0758180206563436,-0.11088919958518,2.914701322457348,0.0123394755646586,-0.0285927392542362,-0.0219489000737667,0.1738205999694764,-0.2519998284056783,-9.664554018974307,14942.0
26.7,3.400000095367432,126.0,21.97974967956543,27.560848236083984,-79.78281485574408,40.45905866914494,277.8401461029053,0.0053079114295542,0.0099424589425325,-0.0756250768899917,0.9970726370811462,-0.0770952532860179,-0.1039398303155345,2.928942424162416,0.1363228410482406,0.063771903514862,0.0533634759485721,0.1927317196503281,-0.250504220277071,-9.74152735054493,14942.0
26.8,3.400000095367432,129.0,22.087427139282227,26.1772403717041,-79.78281480258431,40.459058494502976,278.1669416809082,0.0075014200992882,0.0108148623257875,-0.077326163649559,0.9969189763069152,-0.075407405804028,-0.0616434513269328,2.9397501825557764,0.1197227835655212,0.0525872409343719,0.1552221179008484,0.32704694095999,-0.2281936025060713,-9.768032779097558,14943.0
26.9,3.400000095367432,129.0,22.04861259460449,26.43964767456055,-79.78281487167699,40.459058370744536,278.7560110473633,0.0056391637772321,0.0114291869103908,-0.0814171209931373,0.9965986609458924,-0.0890267033873465,-0.0223982901560596,2.946465511096992,-0.0382412932813167,-0.0388768129050731,0.0917999818921089,0.2189109466597438,-0.311106627099216,-9.826326595544815,14943.0
27.11,3.299999952316284,129.0,21.91965103149414,27.680124282836918,-79.78281488549712,40.45905811995338,279.3875885391236,0.0059016500599682,0.0121408319100737,-0.0848493203520774,0.9963023662567142,-0.107522493759542,-0.0281157343835921,3.0086792532893685,0.0125785423442721,0.0627871751785278,0.0396357849240303,0.1677902202866971,-0.3408798452094197,-9.979653453826904,14944.0
27.2,3.299999952316284,129.0,21.970985412597656,28.1572322845459,-79.78281473015475,40.45905798672312,279.7115297698975,0.0050701270811259,0.0118053648620843,-0.0876075401902198,0.9960722923278807,-0.0942585371737343,0.0024194478436804,3.017955140290025,-0.0521312914788723,-0.1090348958969116,-0.0525779947638511,0.1141998949740082,-0.14123977730982,-9.956037719249728,14944.0
27.41,3.299999952316284,126.0,22.04610824584961,25.93073463439941,-79.78281474566847,40.45905796066408,280.01408199310305,0.0051010414026677,0.0122315380722284,-0.0894214212894439,0.9959057569503784,-0.0789446503524562,-0.0069149193361923,3.0316895849262617,0.0530321151018142,0.0515162460505962,-0.0066212718375027,0.1547118078544736,0.027641030922532,-9.930088945627212,14945.0
27.6,3.2000000476837163,124.0,21.968481063842773,27.83916091918945,-79.78281485389275,40.45905766083053,280.6498136901856,0.0050587952136993,0.0089374221861362,-0.0879988595843315,0.9960677027702332,-0.0963759191372508,-0.0187780865088975,3.0205729006547792,-0.0850657969713211,0.157637745141983,-0.0539901703596115,0.0770108085684478,-0.133728215675801,-9.689959586262702,14945.0
27.7,3.2000000476837163,123.0,22.103702545166016,24.300621032714844,-79.78281478149938,40.459057481255655,281.27609256744387,0.0087153920903801,-0.0023991779889911,-0.0809403732419014,0.9966779947280884,-0.0227082500131162,0.0139997282261268,3.019271407449117,0.0521400347352027,0.0530174821615219,0.0391417145729064,0.0110241782222874,-0.1572891691513359,-9.736466000676156,14946.0
27.8,3.299999952316284,125.0,22.021068572998047,27.00422477722168,-79.78281482002525,40.4590574696722,281.5771837615967,0.0084409480914473,-0.0013763394672423,-0.0781079977750778,0.9969083070755004,-0.027262807181478,0.0343316406865231,3.001520026369209,0.0997951477766037,-0.0580016151070594,0.0604473836719989,0.2178188877739012,-0.1715652558021247,-9.71244505405426,14946.0
28.0,3.2000000476837163,125.0,22.073654174804688,26.54302215576172,-79.78281487245103,40.45905746353371,281.8772268676758,0.0072260489687323,0.0037108976393938,-0.0762576088309288,0.9970551133155824,-0.0414003400309191,0.0321497412132022,3.0008799114308977,0.205407828092575,0.0061987512744963,0.1096765324473381,0.1981058041937648,-0.2519422698765993,-9.800700588226318,14946.0
28.21,3.0999999046325684,121.0,22.0135555267334,25.41386985778809,-79.78281472663305,40.45905753486918,282.5136022949219,0.007027602288872,0.0123345851898193,-0.0749382004141807,0.9970871806144714,-0.0997634907410508,0.0584472835388889,3.0347276477206626,-0.0203716531395912,0.0142311500385403,0.0233901441097259,0.150792784653604,-0.0551405226811766,-9.961515390872956,14947.0
28.3,3.0,117.0,22.02607536315918,25.42182159423828,-79.78281460436867,40.45905750328465,282.836464920044,0.0067419433034956,0.014099720865488,-0.0757884457707405,0.9970015287399292,-0.1017673486642265,0.0807594066872273,3.0511793942851284,-0.142354354262352,-0.1011547744274139,-0.0363861694931984,0.0911483892984688,-0.0807683937996626,-10.046529228687287,14947.0
28.4,2.900000095367432,109.0,21.924659729003903,26.42374420166016,-79.78281456804795,40.45905757562173,283.4508982086182,0.0066337822936475,0.0120638674125075,-0.0791733935475349,0.9967658519744872,-0.06224509935578,0.0876077201746648,3.0835798745798133,-0.025547582656145,-0.0462861284613609,0.0400897152721881,0.2380100543238223,-0.042040676549077,-9.965928869247437,14948.0
28.61,2.900000095367432,108.0,22.018564224243164,25.946638107299805,-79.78281437490143,40.45905754814454,283.77052787780764,0.0036974016111344,0.0082187801599502,-0.0816791728138923,0.9966179728507996,-0.0591077221805776,0.0961296120604264,3.0606046842861248,-0.1787436604499817,0.0221396721899509,-0.027131974697113,0.0851579534076154,0.1121105386409908,-9.767415897846224,14948.0
28.7,2.900000095367432,106.0,21.992271423339844,26.10567283630371,-79.78281417815202,40.459057582315225,284.3946009063721,0.0052398513071239,-4.118965807720088e-05,-0.0837631523609161,0.9964719414711,0.0102849267042288,0.0819956301788017,3.0225105134520605,-0.0555292628705501,0.0202727653086185,0.0304092466831207,0.0795070580206811,-0.1262159322760999,-9.732206304073337,14949.0
28.9,2.799999952316284,106.0,21.90087127685547,28.38783264160156,-79.78281413323347,40.45905763557019,284.6967096710205,0.0090705025941133,-0.0009628268890082,-0.0840256735682487,0.9964218735694884,0.033695425788607,0.0917017051216666,3.0147641531651312,0.1349439620971679,0.0775643959641456,0.127511128783226,0.204712372161448,-0.2340990527719259,-9.738063459992407,14949.0
29.11,2.799999952316284,109.0,22.103702545166016,24.42784881591797,-79.78281393313716,40.45905767964211,285.3168421173096,0.0113558284938335,0.0017334733856841,-0.08334631472826,0.996454417705536,0.0049002520181156,0.1311862353820154,3.031390550308574,-0.0767076388001442,-0.0806832313537597,-0.1096749380230903,0.0719880914362147,0.1327032809983939,-9.91848690032959,14950.0
29.2,2.799999952316284,107.0,21.98350715637207,26.24880599975586,-79.78281388932821,40.45905772544136,285.62110809326174,0.0120390197262167,0.0051303966902196,-0.0830994397401809,0.9964553713798524,0.0291604013727436,0.1198175425278838,3.0441726236868423,0.1768918633460998,0.0126360785216093,0.0851048082113266,0.1899175461195409,-0.2539125257357955,-9.925390123128892,14950.0
29.3,2.700000047683716,105.0,22.001035690307614,26.19314384460449,-79.7828136588587,40.45905792524486,286.23007110595705,0.009607789106667,0.0056372522376477,-0.0839966014027595,0.9964038133621216,-0.0116287165639692,0.1351856414168001,3.001089881549772,-0.1266935020685196,-0.0058376700617372,-0.0696816518902778,0.0943263692781329,0.1539008721336722,-9.686645384430886,14951.0
29.51,2.5999999046325684,104.0,21.99978256225586,25.723989486694336,-79.78281344514113,40.45905802003928,286.8442869567872,0.0084389969706535,-0.0040458189323544,-0.0846022367477417,0.9963708519935608,0.0328226752145462,0.1260320156628843,2.999214329766688,0.0434798076748848,-0.0001667324249865,0.0238262508064508,0.1137260603718459,-0.2348679068125785,-9.751088717579842,14951.0
29.61,2.5999999046325684,104.0,22.03734397888184,24.920860290527344,-79.78281340588092,40.459058079888976,287.14438346862795,0.0103446766734123,-0.0047572287730872,-0.0854962766170501,0.9962735176086426,0.0472863064471081,0.1184032024173034,2.9993878342578437,0.1445864588022232,0.0552020780742168,0.1542488634586334,0.1916962508484721,-0.2219583692774177,-9.821197417974473,14952.0
29.81,2.5999999046325684,106.0,22.01981544494629,24.88109970092773,-79.78281332816123,40.459058039774106,287.4607172393799,0.0125441253185272,0.0002836141502484,-0.087435282766819,0.9960912466049194,0.0220005429148468,0.127001069289819,2.9996177881080617,0.104101113975048,0.0500104092061519,0.0046223034150898,0.2802217071130872,0.1592034196481108,-9.758064445853234,14952.0
30.0,2.799999952316284,110.0,22.0035400390625,26.360130310058597,-79.78281331359621,40.45905814795874,288.0595636749268,0.0112753687426447,0.0067696413025259,-0.0902061462402343,0.9958363175392152,-0.0298616517838229,0.1189531206099899,2.981758276616496,0.1157872229814529,0.0158502496778965,0.1353762745857238,0.1648001552000642,-0.5777844285964966,-9.719837104082108,14953.0
30.1,2.900000095367432,113.0,22.007295608520508,25.98639678955078,-79.78281315696593,40.45905820207039,288.67055229187014,0.0125257745385169,0.0041810483671724,-0.0867387503385543,0.996143639087677,-0.0761686504325235,0.1134327292001961,2.973409519245983,-0.0950853824615478,-0.0183604229241609,-0.2090768665075302,0.2157169233821332,-0.2207887251488864,-9.727992800474167,14953.0
30.2,3.0,115.0,21.93592834472656,26.11362648010254,-79.78281311455066,40.45905814141124,288.9839525604248,0.0124046895653009,0.0059509966522455,-0.0838390588760376,0.99638432264328,-0.0735221748355707,0.1064938690239307,2.986978198945174,-0.0332348309457302,-0.0446403436362743,-0.0396851263940334,0.1239635573979467,-0.284751216173172,-9.841919950246812,14953.0
30.4,3.0,115.0,22.038597106933597,24.88109970092773,-79.78281319971535,40.459058199677465,289.5827227020264,0.0122705064713954,0.0125223826617002,-0.0805488675832748,0.9965964555740356,-0.0984651371687444,0.0876651441045057,2.987215270548994,0.0483310744166374,-0.0477656237781047,-0.0695299357175827,0.1365954800974577,-0.3723525565490127,-9.820816179513931,14954.0
30.6,3.0,117.0,22.002286911010746,25.27868843078613,-79.7828130926467,40.45905822219813,289.8869791412354,0.0130375474691391,0.0137996785342693,-0.0793169811367988,0.9966686964035034,-0.1087931764674532,0.0840791738692152,2.9741448482202446,-0.0045578959397971,-0.0188555661588907,-0.0087783522903919,0.1922509323433041,-0.3764768535643816,-9.761469279527663,14954.0
30.7,3.0,118.0,21.99978256225586,25.159412384033203,-79.78281312245403,40.45905824311171,290.1846533203125,0.0125131774693727,0.013822965323925,-0.0782136544585228,0.9967622756958008,-0.106791002166484,0.0918766346947387,2.972221972030212,0.0554855279624462,-0.020853504538536,0.0011564207961782,0.2552464035339654,-0.2958205435797572,-9.76263229072094,14955.0
30.9,3.0,120.0,22.01105117797852,24.91290855407715,-79.78281319270583,40.45905823953039,290.79779724121096,0.013116905465722,0.0141227468848228,-0.0781962648034095,0.9967516660690308,-0.0960420344302938,0.0760397634619025,2.9997071967089064,0.0878712385892868,0.0822160169482231,0.0215804893523454,0.2517243697308004,-0.3373232397437096,-9.953945585489272,14955.0
31.0,3.0,122.0,21.96722984313965,25.859169006347656,-79.78281321175935,40.459058256161626,291.09889701843264,0.0157927423715591,0.0130848893895745,-0.0788058936595916,0.9966790080070496,-0.1012553495390232,0.0875247743425528,3.0095284072079385,0.0585619807243347,-0.0148550951853394,0.0465340502560138,0.2980128839984537,-0.3352964120730758,-9.893526306152344,14956.0
31.1,3.0,125.0,22.021068572998047,24.61869239807129,-79.78281308838099,40.45905822378912,291.7014856719971,0.0168011095374822,0.010011289268732,-0.0796965137124061,0.9966272711753844,-0.0766098402347369,0.1008551871512636,2.999162345165447,0.0178287383168935,0.0094925705343484,0.0108843334019184,0.2819450277462602,-0.1812974528968334,-9.787046754956243,14956.0
31.3,3.0,128.0,22.038597106933597,24.03026008605957,-79.78281308959106,40.45905815576873,292.30690483093264,0.0125145921483635,0.0078983390703797,-0.0798683911561966,0.996695637702942,-0.0691381323200686,0.0903503249546329,2.9862385362182184,-0.0157721973955631,-0.0256061796098947,0.0481480211019516,0.3132005881145596,-0.2073805297538638,-9.806354845762254,14957.0
31.4,3.0,136.0,22.064889907836918,24.730016708374023,-79.7828130905048,40.459058163189006,292.60508827209475,0.0086997412145137,0.007666406687349,-0.0810184553265571,0.996645212173462,-0.0547229519881708,0.080612231585914,2.971080627505022,0.0011897541116923,-0.088011585175991,0.0854907855391502,0.2747590007074177,-0.141042506871745,-9.66831027030945,14957.0
31.61,2.900000095367432,137.0,22.04610824584961,25.11965370178223,-79.78281308772182,40.45905811500759,292.9102526092529,0.0068054324947297,0.0070919431746006,-0.083502247929573,0.996459186077118,-0.0580773288560488,0.0650985659872825,2.96525303303823,0.0122202588245272,-0.0642123445868492,0.1113289445638656,0.2776042741164565,-0.1959704193100333,-9.718541945815089,14957.0
31.8,2.900000095367432,141.0,21.922155380249023,25.58085632324219,-79.78281304803943,40.459058062000615,293.5130796813965,0.0147132202982902,0.0058442503213882,-0.0890881866216659,0.9958980083465576,-0.0392129386058726,0.0713755182508821,2.9639075073503576,0.1033484637737274,0.1063414365053176,0.0928995385766029,0.2771856865659356,-0.2818515819311142,-9.757859793305398,14958.0
31.9,2.799999952316284,141.0,21.99978256225586,25.03218460083008,-79.7828130594459,40.45905808519976,293.80956176757815,0.0188107322901487,0.0045654093846678,-0.0921372696757316,0.9955581426620485,-0.0510497148441844,0.1047401529284701,2.961436253659892,0.0798437744379043,0.1302249282598495,0.1814845204353332,0.3637033186107874,-0.3711815419793129,-9.788486339449882,14958.0
32.0,2.700000047683716,150.0,22.00979995727539,25.04808807373047,-79.78281309556705,40.45905799351754,294.41491989135744,0.0165855325758457,0.0042039495892822,-0.0945886671543121,0.9953694343566896,-0.0856708453298259,0.112091512803604,2.9629743047447583,-0.0873221829533577,-0.1072379499673843,-0.0763874053955078,0.1695434896275401,-0.1248541614320129,-9.695020351409912,14959.0
32.2,2.700000047683716,150.0,21.99602699279785,24.45965576171875,-79.7828130630075,40.45905796011443,295.01846031188967,0.0154415313154459,0.010173000395298,-0.0910644829273224,0.9956733584403992,-0.0683653819891778,0.0839127997760355,2.9915238142336835,0.0974531099200248,-0.0392341986298561,-0.0045984229072928,0.2370146572217345,-0.2820452344045043,-9.88680785536766,14960.0
32.4,2.5999999046325684,151.0,21.98726272583008,24.491464614868164,-79.78281309743859,40.45905796186108,295.3182726287842,0.0156691763550043,0.0107819903641939,-0.0887796804308891,0.9958696961402892,-0.0884426643668032,0.0809023299369436,2.9948136613808227,0.1048216596245765,0.0188569109886884,0.0028103413060307,0.3248964081332087,-0.2806336069107056,-9.849837080240247,14960.0
32.5,2.5999999046325684,152.0,22.032337188720703,23.68833541870117,-79.78281313126269,40.45905796389973,295.6183615112305,0.0156938042491674,0.0098890447989106,-0.0872604772448539,0.996012806892395,-0.0908233434132861,0.0826829468842539,3.0042410319123083,0.0705809891223907,0.0167877357453107,0.074091762304306,0.3496657618135214,-0.4201376108452678,-9.90872088074684,14960.0
32.61,2.5999999046325684,151.0,21.937179565429688,25.42182159423828,-79.78281314496883,40.45905795971615,296.2235765838623,0.0147245824337005,0.0090426886454224,-0.086408294737339,0.9961099624633788,-0.0936718670158314,0.0880682444095054,3.004912508210145,0.0402304790914058,-0.0185113064944744,0.1159350574016571,0.2910057817585766,-0.2995251932367682,-9.85571587085724,14961.0
32.81,2.5999999046325684,150.0,21.952205657958984,25.46953201293945,-79.78281312695428,40.459057969548674,296.8259783172608,0.0127281416207551,0.0092876683920621,-0.0873673111200332,0.9960516095161438,-0.0792141300443916,0.0896026897588546,3.009573979034432,0.0872441381216049,-0.0128339333459734,0.0897271633148193,0.2246130051836372,-0.2192020283639431,-9.844180483818056,14961.0
32.91,2.700000047683716,148.0,22.111215591430664,22.88520622253418,-79.78281315802741,40.45905798685839,297.1278410339356,0.0128587670624256,0.0098655167967081,-0.0883580297231674,0.9959569573402404,-0.0907077028479087,0.0832735436082379,3.0179274266084817,0.053993571549654,-0.0277435984462499,0.1368402987718582,0.2792246106639504,-0.3089946493506432,-9.87746283531189,14962.0
33.1,2.5999999046325684,147.0,22.04610824584961,24.03821182250977,-79.78281317287053,40.45905792984176,297.4269018554688,0.0137710506096482,0.0134065654128789,-0.0892859026789665,0.9958205819129944,-0.081692285422825,0.0765577657027879,2.968832003242869,0.1341297775506973,-0.023641949519515,-0.0046373517252504,0.2047888975962996,-0.1788518549501896,-9.480598860383036,14962.0
33.3,2.5999999046325684,144.0,22.044857025146484,23.89508056640625,-79.78281316977906,40.45905790290027,298.0215673828125,0.0181274693459272,0.0120106572285294,-0.0884630978107452,0.9958420991897584,-0.0958891646866132,0.0861716528616262,2.9028713512688404,0.00560540612787,0.0742181688547134,0.093934915959835,0.2720636901073158,-0.2942049761675298,-9.51379642724991,14963.0
33.4,2.5,145.0,21.99853134155273,24.714113235473643,-79.78281317342568,40.45905790746495,298.31132415771486,0.0184838213026523,0.0077553470619022,-0.0877658948302269,0.9959394931793212,-0.0728453781224122,0.0983488771053543,2.8855610967204184,-0.0003721180546563,0.0531070604920387,0.0811140611767768,0.3243299591168761,-0.2946676005609334,-9.575792700648307,14963.0
33.5,2.400000095367432,147.0,21.970985412597656,24.61074066162109,-79.78281312960969,40.45905791854922,298.9049520874024,0.0153550701215863,0.0025210652966052,-0.0855871438980102,0.99620920419693,-0.034295908293393,0.0857527297669243,2.897860221210463,-0.0460662953555584,0.0344624631106853,0.0422486253082752,0.3054005120694637,-0.0489145170897245,-9.76774568080902,14963.0
33.71,2.400000095367432,148.0,21.981002807617188,24.14953804016113,-79.78281302959009,40.45905780920516,299.48977951049807,0.0130513058975338,0.0027523634489625,-0.0837597250938415,0.9963967204093932,-0.0319329252120273,0.064372022782349,2.9237745175493304,-0.0400505028665065,0.0049227755516767,-0.1529534310102462,0.2728156785853207,0.0676575475931167,-9.795642746686935,14964.0
33.81,2.400000095367432,149.0,22.05111694335937,23.78375625610352,-79.7828130340192,40.45905779613592,299.78289703369137,0.0124091366305947,0.0029887999407947,-0.0833010450005531,0.99644273519516,-0.0317824685897049,0.0629204330807894,2.9371597953218265,-0.0235179960727691,-0.0069912867620587,-0.0684724822640419,0.2476196608878672,0.0143606839841231,-9.892432876825334,14964.0
34.0,2.299999952316284,153.0,21.9497013092041,25.41386985778809,-79.78281303732324,40.459057785416654,300.0766706848145,0.0126317469403147,0.004446277860552,-0.0832488387823104,0.9964388608932496,-0.0239128332272298,0.0607772322295013,2.940450192843023,0.0317066609859466,0.0282939653843641,-0.007611698936671,0.2739100032672286,-0.087768607288599,-9.872210866212844,14965.0
34.2,2.299999952316284,156.0,21.950952529907227,24.49941635131836,-79.78281299306683,40.459057776438655,300.66415313720705,0.014383009634912,0.007106184028089,-0.0842020511627197,0.996319591999054,-0.0433780299743654,0.0790502098915434,2.96669022816052,-0.0373433679342269,0.104654811322689,-0.0705702453851699,0.2939649845100939,0.0613142231013625,-9.935552583932877,14965.0
34.31,2.299999952316284,158.0,21.952205657958984,24.403993606567383,-79.78281298662073,40.45905773413271,301.2517042541504,0.0138018047437071,0.00626250077039,-0.0852091610431671,0.9962478280067444,-0.0573351125799181,0.0974256978275688,2.974058623184554,-0.1700799912214279,-0.0252697132527828,-0.0487426184117794,0.3608701233565808,0.0317105057230219,-9.956106716394425,14966.0
34.4,2.200000047683716,161.0,21.942188262939453,25.000377655029297,-79.78281297019733,40.45905774212628,301.5501890563965,0.0127695994451642,0.0043426337651908,-0.0852826014161109,0.9962655305862428,-0.0404670430159708,0.0931076881946976,2.991786916936383,-0.1070385426282882,-0.0241287220269441,-0.1138872280716896,0.2405152390524745,0.1565695413574576,-9.968796343803406,14966.0
34.61,2.200000047683716,164.0,21.968481063842773,24.78567886352539,-79.78281288562205,40.45905777258788,302.13360504150387,0.0133603271096944,0.0036375655326992,-0.0848403200507164,0.9962984323501588,-0.0191197819234929,0.1038341143294283,2.9496259279463555,-0.0127195753157138,-0.0027914680540561,-0.0256185941398143,0.2555425467342138,0.1337158908415585,-9.780747549533844,14967.0
34.71,2.200000047683716,167.0,22.04986572265625,23.322553634643555,-79.78281280597761,40.45905776022503,302.4245481872559,0.0143700065091252,0.0040521030314266,-0.0848151296377182,0.9962849020957948,-0.0127087782534777,0.1068203127168883,2.9265737380366565,0.0213220436125993,0.0159212872385978,0.0250833611935377,0.2510027319565415,-0.1538529980555177,-9.618864460587504,14967.0
34.9,2.200000047683716,168.0,21.97974967956543,23.60086441040039,-79.78281278448105,40.45905778434204,302.7160635375977,0.0166458431631326,0.0040900986641645,-0.0849552080035209,0.996237337589264,-0.0176714405165453,0.1088057819176867,2.902769090236472,0.0120480312034487,0.0277514718472957,0.0044481363147497,0.2717208605445921,-0.1717821692302823,-9.605072633028032,14967.0
35.1,2.0999999046325684,166.0,22.0035400390625,24.03821182250977,-79.78281267602982,40.459057768748906,303.29550842285164,0.0214850157499313,0.0040917918086051,-0.0856839641928672,0.9960823059082032,-0.0026838134685456,0.1256435791734751,2.8805099674216166,0.0553545504808425,-0.0084798065945506,-0.0141983022913336,0.3033234166167676,-0.1558798074536025,-9.662270681262015,14968.0
35.2,2.200000047683716,166.0,21.954710006713867,25.47748374938965,-79.78281264855711,40.45905777703126,303.58380035400387,0.019470989704132,0.0042388150468468,-0.0862487778067588,0.996074378490448,-0.0071853387447163,0.1307897936035759,2.8788341683101137,0.0234821457415819,-0.0922987759113311,0.0702365934848785,0.3124726463109255,-0.3148910181596875,-9.746599810123444,14968.0
35.3,2.200000047683716,161.0,21.91714859008789,24.809534072875977,-79.78281258884934,40.45905774997382,304.167555847168,0.0150312315672636,0.0030225662048906,-0.0867720395326614,0.996110200881958,-0.0164736866092247,0.0797027736269212,2.9251789651635653,-0.0777397826313972,-0.0354244858026504,-0.0242985282093286,0.1558435547165572,-0.1378236329276115,-9.978983362913134,14969.0
35.5,2.0999999046325684,158.0,22.04110145568848,23.489540100097656,-79.78281247198954,40.45905769530179,304.75006011962887,0.01532659586519,0.003854636568576,-0.0863791480660438,0.9961370825767516,-0.0071991232482839,0.0858935486853883,2.9265040734969783,0.0132967140525579,-0.0221280232071876,-0.0166978575289249,0.2638356344215572,-0.0704993309453129,-9.896058150529864,14969.0
35.7,2.0999999046325684,153.0,21.954710006713867,25.19917106628418,-79.7828124535379,40.45905768556696,305.0420370483398,0.0125639177858829,0.0047824429348111,-0.0865210592746734,0.9961593747138976,-0.016344199534883,0.0813764301324887,2.913033505669957,-0.0103347804397344,-0.0435406193137168,-0.0517381802201271,0.2831203546375036,-0.0764979986194521,-9.695559464693073,14970.0
35.8,2.0999999046325684,151.0,21.96347427368164,24.61869239807129,-79.78281248565851,40.4590576563281,305.326678314209,0.0104982480406761,0.0052246749401092,-0.0871302261948585,0.9961279630661012,-0.037800450833842,0.0674228406755211,2.9097682772911417,0.004221255891025,-0.0072080851532518,-0.0627837404608726,0.2087901107221842,-0.0874823221284896,-9.783276470303536,14970.0
35.9,2.0,145.0,21.945945739746094,25.135557174682607,-79.78281248820933,40.45905765718908,305.9089193725586,0.0121329175308346,0.0080687617883086,-0.0887498632073402,0.9959474205970764,-0.0448961103598868,0.0604950618818394,2.911296137310321,0.0405731610953807,0.0185391586273908,0.0693923383951187,0.2416722385771573,-0.1735925220139324,-9.817806032896042,14970.0
36.1,2.0,142.0,21.938432693481445,23.92688751220703,-79.78281235097181,40.4590575825761,306.49109176635744,0.0131301060318946,0.0052799698896706,-0.0896158441901207,0.995875895023346,-0.0205290843101507,0.0730997612887372,2.9276488069655264,0.0576055161654949,0.0121887670829892,0.0891056135296821,0.2794918832369149,-0.2040219987183808,-9.800556746721268,14971.0
36.21,2.0,138.0,21.885847091674805,25.914831161499023,-79.78281225649485,40.459057513986735,306.7747259521485,0.0123227266594767,0.0039914757944643,-0.0897618532180786,0.995879054069519,-0.0048394296755928,0.0709662729534311,2.9257093662472977,0.052351601421833,-0.0222666412591934,0.0043257139623165,0.2715245768241584,-0.1954267196170986,-9.90719592690468,14971.0
36.41,2.0999999046325684,136.0,21.945945739746094,24.55507850646973,-79.78281223508536,40.4590575090066,307.0682707214356,0.0106008248403668,0.0035012774169445,-0.0896387547254562,0.9959117770195008,-0.0033697482773696,0.0667842346207928,2.945968412330364,0.0592204928398132,-0.0283952578902244,0.0262286514043808,0.2728291819989681,-0.22725715264678,-10.002428358793258,14972.0
36.6,2.0999999046325684,133.0,21.902122497558597,25.23097801208496,-79.78281223107669,40.45905748443119,307.64997009277346,0.0150540936738252,0.0059425933286547,-0.0892291963100433,0.9958796501159668,-0.0188390385923492,0.0626736602231447,2.9585954641972165,0.1038463339209556,0.0697633773088455,0.0324730351567268,0.3129263902455568,-0.1567563233524561,-9.90763212919235,14972.0
36.71,2.200000047683716,133.0,21.96347427368164,24.69820976257324,-79.78281222487476,40.45905748336087,307.94541076660164,0.0153414821252226,0.0075659919530153,-0.0893134549260139,0.9958567619323728,-0.0342529927164629,0.085698745668708,2.9485377663945656,0.0506034716963768,-0.0541279204189777,-0.031467966735363,0.2977370598725974,-0.1825059992820024,-9.752322480082512,14972.0
36.8,2.0999999046325684,134.0,21.99978256225586,23.27484130859375,-79.78281217670231,40.45905749862442,308.52244094848635,0.0131964022293686,0.0080240964889526,-0.0897659882903099,0.9958431720733644,-0.0287282214871762,0.0695740992051291,2.9037407085704943,0.028609313070774,-0.0477435663342475,0.0181385073810815,0.2068669432215392,-0.2676215969212353,-9.63487706065178,14973.0
37.01,2.200000047683716,133.0,22.004791259765625,23.99845314025879,-79.78281215615974,40.459057491510094,308.8120603942872,0.0124580608680844,0.0069223847240209,-0.0896403416991233,0.9958722591400146,-0.0321572117872677,0.0601988794931957,2.8883280302510927,-0.0533532388508319,-0.0179981682449579,0.0231087263673544,0.1884366839379072,-0.214648582264781,-9.671751356720923,14973.0
37.1,2.299999952316284,129.0,21.95721244812012,24.865196228027344,-79.7828121158002,40.459057429790285,309.38893035888674,0.0137039702385664,0.0029292905237525,-0.0872601494193077,0.9960870146751404,-0.0024840570134388,0.0489352563976481,2.8743409372257838,0.0033739688806235,0.0101160062476992,-0.0251922458410263,0.146559025933966,-0.1937612498737872,-9.65216610789299,14974.0
37.31,2.299999952316284,127.0,21.950952529907227,24.82543754577637,-79.78281207684479,40.459057373944894,309.6789656066895,0.0138993607833981,0.0024179792962968,-0.0844394564628601,0.9963287711143494,-0.0027896382694413,0.047770620847109,2.884831442886332,-0.043677419424057,-0.0670567601919174,-0.0663155391812324,0.1622731530480086,-0.1443802346102893,-9.6890830886364,14974.0
37.5,2.400000095367432,126.0,21.89210700988769,25.40591812133789,-79.78281205358115,40.45905730954554,310.25401977539065,0.0102695245295763,0.0019837415311485,-0.0811973288655281,0.9966431856155396,-0.0211177347148689,0.0306515077855282,2.8732231215920643,-0.0443186722695827,-0.0371969677507877,-0.0090681938454508,0.199572559967637,0.0428462218679487,-9.793610254526136,14975.0
37.6,2.400000095367432,124.0,21.875829696655277,25.07194328308105,-79.78281190980437,40.45905734903882,310.5513868713379,0.00732456240803,0.003532879287377,-0.081193521618843,0.9966652393341064,0.0084773063374221,0.0390632646194513,2.8909583937251813,0.1338791847229004,-0.0298677310347557,0.0434132069349288,0.2713385805487633,-0.1211962255463004,-9.78717773258686,14975.0
37.8,2.299999952316284,122.0,21.87958526611328,25.07194328308105,-79.78281191244473,40.459057256856326,311.12707809448244,0.0025375222321599,0.0062215607613325,-0.0855672881007194,0.996309757232666,-0.0280438631542885,0.0008866851019594,2.929167349226764,-0.0162133574485778,-0.0342417135834693,0.0892146378755569,0.1165652033407241,-0.273774640224874,-9.985111244916917,14976.0
37.9,2.299999952316284,121.0,21.875829696655277,25.07989501953125,-79.78281188168495,40.459057240310976,311.7145223999024,0.0057064094580709,0.0085071520879864,-0.0911143496632576,0.995787799358368,-0.0258474368537465,0.0277837767872526,2.9522942361545264,-0.0308594834059476,0.0812784805893898,-0.0448395274579525,0.1746211020648479,-0.1496268224436789,-9.89686038851738,14976.0
38.1,2.200000047683716,122.0,21.94719696044922,24.11773109436035,-79.78281185586712,40.459057233740936,312.0021276855469,0.0073552853427827,0.0087612960487604,-0.0936155691742897,0.9955427646636964,-0.0392873465214579,0.0461450161281267,2.9561938493234514,-0.1391823887825012,0.0020767273381352,-0.0352185629308223,0.1974604908563196,0.0754667644808068,-9.914794968366625,14977.0
38.21,2.0999999046325684,122.0,21.914644241333008,24.777727127075195,-79.7828118170903,40.459057242149946,312.2974501037598,0.0090591823682189,0.0070317890495061,-0.0952873229980468,0.9953837990760804,-0.0322968888403837,0.057659336116128,2.9500077447263937,-0.1008238047361374,0.0544084869325161,-0.0736590102314949,0.1771534398011863,0.0922274015843868,-9.788447163105012,14977.0
38.4,2.0,125.0,21.95345687866211,23.89508056640625,-79.78281174645349,40.45905733672428,312.87515930175783,0.0108563657850027,0.0011697763111442,-0.09576927870512,0.9953436851501464,-0.0034069036367836,0.0835364593529969,2.9409146553993635,-0.0681311786174774,0.0515498407185077,-0.0502638109028339,0.2135133088007568,0.0225255120825022,-9.843609795570377,14977.0
38.5,2.0999999046325684,127.0,21.91714859008789,25.11170196533203,-79.78281170645668,40.4590573557742,313.1699858093262,0.0122272660955786,0.0009344068821519,-0.095509335398674,0.995353102684021,0.0060902401885929,0.0903106211939413,2.953530706650648,-0.0228343103080988,0.0453206300735473,-0.0599915571510791,0.2048800776153803,0.133920625615865,-9.890642459392549,14978.0
38.6,1.8999999761581416,136.0,21.96096992492676,24.197248458862305,-79.78281167925259,40.45905741007908,313.7515058898926,0.0125140380114316,0.0015467591583728,-0.0949021354317665,0.9954067468643188,-0.0115184852947001,0.11199877986925,2.9586597697538464,-0.0375057943165302,0.0076470770873129,-0.0790647566318512,0.2734856415912509,-0.0332811820507049,-9.869213583469392,14978.0
38.8,2.0,140.0,22.0035400390625,22.92496490478516,-79.78281157631682,40.45905749647629,314.337592163086,0.0119210537523031,0.0029718137811869,-0.0949142500758171,0.9954096674919128,-0.0231001041423617,0.1141316691100132,2.953882632763936,-0.0173534601926803,0.0058035310357809,-0.0489402823150157,0.2787751425057649,-0.0261015047226101,-9.85484229683876,14979.0
39.0,2.0999999046325684,148.0,22.05988121032715,22.304725646972656,-79.78281156659195,40.459057540925,314.6322622680664,0.0123118637129664,0.0038357460871338,-0.0937915071845054,0.9955083727836608,-0.0340216058408479,0.1222210804528378,2.937920975305603,0.0031538072507828,0.0044086198322474,0.0349799655377864,0.289381151162088,-0.2469246644899249,-9.701671559214592,14979.0
39.1,2.0999999046325684,152.0,22.02732849121093,22.439905166625977,-79.78281151149368,40.459057578131656,314.91954711914065,0.0138491755351424,0.0049090879037976,-0.0914480313658714,0.9957014918327332,-0.0358705647874578,0.1304135393040691,2.9118228592837143,0.0262196790426969,0.0144742028787732,-0.0256222244352102,0.3599088776484132,-0.1709904745034873,-9.591456221938136,14979.0
39.21,2.299999952316284,162.0,21.908382415771484,24.88905143737793,-79.78281145458487,40.459057686904586,315.50043395996096,0.0172249861061573,0.009277606382966,-0.0861995816230773,0.9960858225822448,-0.0513164941581569,0.1750966257952352,2.8614401679122734,-0.0180666726082563,0.0429704524576664,-0.058968149125576,0.4352368758246303,-0.0450050275912508,-9.460796095132828,14980.0
39.41,2.5,166.0,21.97348976135254,24.24495887756348,-79.78281142323094,40.459057772836935,315.7864065551758,0.0189151242375373,0.0096783665940165,-0.085107535123825,0.996145248413086,-0.0488353628069434,0.1975488884353899,2.8485718445195536,0.0010492071742191,0.0519328191876411,0.0015168244717642,0.4379154853150249,-0.0858130973763764,-9.61817215025425,14980.0
39.51,2.700000047683716,175.0,21.928415298461918,24.51531982421875,-79.78281139726535,40.45905792738658,316.36048797607424,0.0277686920017004,0.0004008621908724,-0.0860842317342758,0.995900809764862,-0.0227664057489392,0.2358316775635514,2.8102584694698702,-0.0861721113324165,0.1312757283449173,-0.0193572025746107,0.4882188988476992,-0.0146653204935137,-9.539721812009812,14981.0
39.7,2.799999952316284,178.0,21.884593963623047,24.75387191772461,-79.78281134593206,40.45905802104518,316.64186767578127,0.0305052753537893,5.29437602381222e-05,-0.0881167203187942,0.9956430196762084,-0.0013836755144963,0.266908612677392,2.8038270971319137,-0.0793760195374488,0.061272632330656,-0.099761962890625,0.5189152826741338,0.1808204662799835,-9.672807948589323,14981.0
39.9,2.900000095367432,185.0,21.87708282470703,25.437725067138672,-79.78281120362263,40.45905815874349,317.2139387512207,0.0286183413118124,-0.0013191514881327,-0.0915183797478675,0.9953912496566772,-0.0200941921597526,0.2700923429147335,2.8450390906260035,-0.0578468032181263,-0.061350405216217,0.0323707275092601,0.5293318780884146,0.0022997213364578,-9.865336879491808,14982.0
40.01,3.0999999046325684,188.0,21.83701705932617,25.86712074279785,-79.78281118372631,40.45905824025933,317.49952606201174,0.0269467495381832,0.0001814670249586,-0.0928985998034477,0.99531090259552,-0.0232587036994417,0.2487107249499717,2.8476756389396365,-0.0120322406291961,-0.029934711754322,0.1039794534444809,0.4245825545489788,-0.1792189504578709,-9.850115407705308,14982.0
40.2,3.2000000476837163,191.0,21.8570499420166,25.75579643249512,-79.78281108363413,40.459058472223866,318.07181457519533,0.0291782021522522,0.0015735931228846,-0.0949036031961441,0.9950575828552246,-0.0453319383297978,0.2401387507671492,2.875170679095528,0.0862725600600242,0.0243563298135995,0.1288952678442001,0.398825533054769,-0.2285207359492779,-9.938032972812652,14983.0
40.3,3.2000000476837163,192.0,21.803211212158203,26.02615547180176,-79.7828111449242,40.45905862518789,318.63623336791994,0.0330456383526325,0.0062537332996726,-0.0954073444008827,0.9948700666427612,-0.1048537859353841,0.2445340270465777,2.8657119438867515,-0.0740008056163787,-0.0163768455386161,-0.1039725989103317,0.482183402851224,-0.1266299608256668,-9.903556619882584,14983.0
40.5,3.2000000476837163,190.0,21.82699966430664,26.88494682312012,-79.78281118726223,40.45905868273484,318.9238806152344,0.0308079980313777,0.006411490496248,-0.0953352153301239,0.9949477314949036,-0.1170952385753772,0.2370320263047015,2.8704250148119828,-0.1256388425827026,-0.1252205371856689,-0.0247405506670475,0.3856658260524273,-0.1118528500199318,-9.816758211851118,14983.0
40.61,3.2000000476837163,189.0,21.86581420898437,24.865196228027344,-79.78281119910893,40.45905878493773,319.2040396118164,0.0297061782330274,0.0047196233645081,-0.0955225676298141,0.9949727654457092,-0.1027774406065159,0.2084924320702044,2.8794860218344507,-0.0104796765372157,-0.0214079637080431,-0.0341985821723938,0.3696266577020288,-0.2360906509682537,-9.899334930181505,14984.0
40.8,3.2000000476837163,187.0,21.855796813964844,25.501338958740234,-79.78281123241675,40.4590589145448,319.7667532348633,0.0333265215158462,0.0080975545570254,-0.0938805341720581,0.9949926137924194,-0.0648431901821989,0.1862445508795908,2.8624613180276706,0.2692946791648865,0.0295590963214635,0.0630914196372032,0.4914823395386338,-0.2761476596072316,-9.737721982598304,14984.0
40.91,3.0999999046325684,185.0,21.8570499420166,26.169288635253903,-79.78281127663938,40.45905892472622,320.05411437988283,0.0303582996129989,0.0129459109157323,-0.0920710116624832,0.9952053427696228,-0.1116045466555042,0.1869688059965475,2.871710834510929,-0.0341170355677604,-0.0629349574446678,-0.1504077464342117,0.453810556344688,0.1367383988387882,-9.818402448892591,14985.0
41.0,3.0,182.0,21.80571556091309,26.376033782958984,-79.78281134889103,40.459058954481456,320.6201239013672,0.0236499924212694,0.0095952730625867,-0.0896749943494796,0.9956440329551696,-0.1171466600622848,0.1280423769479569,2.868373694785271,-0.1665059626102447,-0.1199358031153678,-0.0619550943374633,0.3718347856029868,-0.2853240971267223,-9.76240951180458,14985.0
41.21,3.0,177.0,21.791942596435547,25.994348526000977,-79.78281136361042,40.459058961436895,321.1869078063965,0.0171443000435829,0.0010421151528134,-0.0915397778153419,0.9956533312797546,-0.0542398010498531,0.1045873996257954,2.8804261459689933,0.0215137284249067,-0.0380380563437938,-0.0386200025677681,0.5069224971905351,-0.4142648867145181,-9.870554934740069,14986.0
41.3,2.900000095367432,174.0,21.885847091674805,24.24495887756348,-79.78281140122492,40.45905895735961,321.4754095458985,0.0179825387895107,0.0036424221470952,-0.0928103774785995,0.9955148100852966,-0.0440199192101402,0.0861610851862887,2.8820367477584807,0.0942130461335182,-0.001592079992406,0.0432372316718101,0.3144517095386982,-0.1878640222549438,-9.819941436052323,14986.0
41.5,2.900000095367432,174.0,21.81447982788086,25.92278289794922,-79.78281144840689,40.45905895178688,321.7632131958008,0.0211130566895008,0.0068441559560596,-0.0931694656610488,0.9954029321670532,-0.0632959502584844,0.0871556260620744,2.8711707714631283,0.1333846300840377,0.0387995988130569,-0.0046291914768517,0.3707328412681818,-0.1771788569167256,-9.743085048794748,14986.0
41.7,2.799999952316284,172.0,21.83701705932617,25.326400756835927,-79.78281152913478,40.45905888678098,322.33043579101565,0.0257100686430931,0.011252399533987,-0.0911605507135391,0.9954407215118408,-0.0874538826885518,0.084409963023109,2.8651001096908435,0.1544770896434784,0.0450484976172447,0.0738846957683563,0.4122816938906908,-0.4727296976745129,-9.846485456228256,14987.0
41.8,2.799999952316284,170.0,21.77316093444824,26.209047317504893,-79.78281155539692,40.45905888767953,322.61114028930666,0.0247429851442575,0.0119546623900532,-0.0896593853831291,0.9955933094024658,-0.0966777776662262,0.0891899541332458,2.87363700635711,0.057559635490179,0.0085830986499786,0.0023957495577633,0.3534077605605125,-0.1712291139923036,-9.839962302446368,14987.0
41.9,2.700000047683716,168.0,21.82073974609375,25.95458984375,-79.7828115978152,40.45905878350456,323.1869764709473,0.0185938216745853,0.012406101450324,-0.0890795513987541,0.9957736730575562,-0.0770997302952478,0.0513425399251003,2.8895429232381247,-0.0649880617856979,0.0042594638653099,-0.0347423590719699,0.3151064149662852,-0.0389094697264954,-9.921341511011123,14988.0
42.11,2.700000047683716,166.0,21.855796813964844,25.86712074279785,-79.78281164416923,40.45905871721364,323.7531614685059,0.011784354224801,0.0098273884505033,-0.0890889316797256,0.9959055185317992,-0.0615153417734214,0.0136230337672072,2.8835467824116354,-0.1528792530298233,-0.0885816738009452,-0.019636096432805,0.2035359854623676,-0.0216446199081838,-9.811985714435576,14988.0
42.31,2.700000047683716,166.0,21.93342399597168,23.89508056640625,-79.78281158995702,40.459058744982826,324.02956298828127,0.0120092993602156,0.0036324341781437,-0.0877467691898346,0.9960638880729676,-0.0459242563764494,0.0149700526002156,2.8787386692240444,-0.1370571106672287,-0.0305438470095396,-0.0168443992733955,0.1860203951597213,-0.2677744467929006,-9.824432097673416,14989.0
42.4,2.700000047683716,165.0,21.82449531555176,25.76374816894531,-79.7828115822901,40.45905869951101,324.3175268554688,0.0133813414722681,0.0002137017727363,-0.0867871046066284,0.9961370229721068,-0.0045753346711975,0.025583866396339,2.8757831110854046,-0.0233128368854522,0.0172132775187492,0.0501093603670597,0.2929926656372845,-0.2382498084381223,-9.71681350886822,14989.0
42.5,2.5999999046325684,163.0,21.79820251464844,26.04205894470215,-79.78281153976496,40.45905855061355,324.88949493408205,0.0129853654652833,0.0026674910914152,-0.0888697355985641,0.9959551095962524,0.0032192452775212,0.0196875022108901,2.865860996394116,-0.0409224890172481,0.0197565015405416,-0.0341049432754516,0.3005760657973588,0.073851567087695,-9.7696892952919,14989.0
42.7,2.5,161.0,21.76815414428711,25.87507247924805,-79.78281145027138,40.45905851561624,325.45878890991213,0.0154498675838112,0.005262556951493,-0.0911148637533188,0.9957066774368286,-0.0074495922699591,0.0455859510119167,2.875022906398364,-0.0360212288796901,0.003425256581977,0.0057866279967129,0.3191197976097465,-0.0689616868179291,-9.843426192998889,14990.0
42.81,2.400000095367432,159.0,21.793193817138672,25.7876033782959,-79.78281142316196,40.45905847964094,325.7461882019043,0.0150223560631275,0.005813050083816,-0.091568499803543,0.9956685900688172,-0.0071017033981656,0.0571113204917409,2.8747176900160434,-0.0437909364700317,-0.1102617532014846,0.0089228488504886,0.2887504558637738,-0.1871705059334636,-9.80256643474102,14990.0
43.01,2.400000095367432,160.0,21.66924095153809,27.823257446289062,-79.78281138788542,40.45905844566349,326.0340986633301,0.0137388836592435,0.0057740383781492,-0.0915225371718406,0.9956915378570556,0.0037877813677451,0.0550293635736358,2.887906007476427,-0.0109729850664734,-0.0854157283902168,-0.0155631564557552,0.3176253223791718,-0.2637466836534441,-9.93141041636467,14991.0
43.2,2.299999952316284,162.0,21.75062561035156,27.43362045288086,-79.78281123235675,40.45905841013477,326.6126165771485,0.0114534571766853,0.0003332334163133,-0.0909754186868667,0.9957872629165648,0.022003008129225,0.0506087744976969,2.9548778869124988,0.0112486938014626,-0.0420148745179176,0.059163924306631,0.3432156616821885,-0.0449128928314894,-10.092452090978624,14991.0
43.31,2.299999952316284,164.0,21.74436378479004,26.58278083801269,-79.78281114448504,40.459058352248576,326.89651016235354,0.0113248648121953,-0.0019951967988163,-0.0908305495977401,0.995799958705902,0.0327166345250855,0.0435287678031565,2.963901049463129,0.0290402304381132,0.0451990365982055,0.106466144323349,0.3559232327342033,-0.1599993353337049,-10.106226961612702,14991.0
43.4,2.400000095367432,169.0,21.783178329467773,26.41579246520996,-79.7828110804786,40.459058322076814,327.49710754394533,0.0154474731534719,-0.0026957639493048,-0.0910028591752052,0.9957272410392758,0.0474698814789146,0.0752079237978606,3.034594642346319,0.1276326477527618,0.0863160267472267,0.1308970749378204,0.3880797759443521,-0.2317248822189868,-10.10356647849083,14992.0
43.61,2.400000095367432,176.0,21.872074127197266,24.34037971496582,-79.78281104532381,40.45905834704944,327.7832556152344,0.0165848843753337,0.0004140802484471,-0.0918512418866157,0.9956344962120056,0.0338731822082857,0.0952514546672514,3.0176035814001585,0.0998312830924987,0.0077793593518435,0.0519641116261482,0.3705748202651739,-0.079983204100281,-9.9683741748333,14992.0
43.71,2.400000095367432,181.0,21.811975479125977,25.19917106628418,-79.7828110078467,40.45905842681646,328.3749723815918,0.0178635008633136,0.0035846489481627,-0.0934139564633369,0.9954606890678406,-0.002384065369221,0.1166525511417057,2.997200697879524,0.0487510077655315,-0.0235464610159397,0.0521172434091568,0.3899729947373271,-0.2368613505363464,-9.795225255489347,14993.0
43.91,2.400000095367432,183.0,21.765649795532227,25.81941032409668,-79.78281098739656,40.45905844042033,328.6752005004883,0.0175943356007337,0.0022771151270717,-0.0946881920099258,0.9953489303588868,-0.0143830433701608,0.1246038226527098,3.0072575726080344,-0.0368368104100227,-0.0157614592462778,0.0993050187826156,0.3366925809904933,-0.3195147039368749,-9.887151671648024,14993.0
44.1,2.5999999046325684,187.0,21.97974967956543,22.424001693725582,-79.78281091860089,40.45905849049117,329.277663269043,0.0217577684670686,0.0012420250568538,-0.0979828089475631,0.9949495196342468,-0.013074605840198,0.1301346661778609,3.052562779342718,-0.0328597947955131,0.0546605847775936,-0.0138726700097322,0.367245817668736,-0.0090324224252253,-10.026955089569093,14994.0
44.2,2.5999999046325684,188.0,21.908382415771484,23.77580451965332,-79.78281091032181,40.45905850182344,329.5827627563477,0.0245953928679227,0.0034688548184931,-0.0988858565688133,0.9947887659072876,-0.0260175255037661,0.1461868913438783,3.0363168519366264,0.0168430712074041,0.0443465001881122,-0.0903389379382133,0.4709201671555638,0.0443518250808119,-9.72480665266514,14994.0
44.41,2.700000047683716,190.0,21.914644241333008,23.664478302001957,-79.78281091276196,40.459058576615696,330.18198303222664,0.0204783771187067,0.0056968498975038,-0.0965373888611793,0.9951024055480956,-0.0612022896644642,0.1479681821286878,2.985491700948734,-0.0231763515621423,-0.08748060464859,0.0073458873666822,0.4173174256458879,-0.215645203627646,-9.626905551552774,14995.0
44.5,2.700000047683716,190.0,21.92716407775879,24.08592414855957,-79.78281095608988,40.459058698604935,330.7896032714844,0.0159250386059284,0.0069964486174285,-0.0945487171411514,0.9953683614730836,-0.0563113686246809,0.1145588457802659,2.984846081502284,0.0353971645236015,0.0174695439636707,-0.0807739123702049,0.3536462538689375,-0.0798549216706305,-9.655458675026894,14995.0
44.7,2.700000047683716,188.0,21.89085388183593,24.63459587097168,-79.7828109666456,40.45905871361514,331.08795837402346,0.0164937600493431,0.009506625123322,-0.0949609503149986,0.9952989816665648,-0.0593432787195415,0.1044878170502803,2.975816458707252,0.0546379052102565,0.0290040709078311,0.0256145484745502,0.3404875701293349,-0.1607661428488791,-9.709311531186104,14996.0
44.81,2.5999999046325684,184.0,21.93467712402344,23.338457107543945,-79.78281090257357,40.459058765238325,331.3996878051758,0.0168791599571704,0.0106024648994207,-0.0961066931486129,0.9951714277267456,-0.0642218220581571,0.1106474787610316,2.9990837889097244,0.0261706598103046,0.0255774613469839,0.0427433252334594,0.3227319516241551,-0.1516592871956527,-9.734811238646508,14996.0
44.9,2.5999999046325684,180.0,21.848285675048828,25.04808807373047,-79.78281088616744,40.45905879009607,331.99660400390627,0.0174446906894445,0.0050287991762161,-0.0974862575531006,0.995071291923523,-0.0513304758576499,0.1034962216577681,2.957394105676279,-0.0293982345610857,-0.0082374103367328,0.0295590348541736,0.2841023396886885,-0.0283040686324238,-9.586797160506247,14996.0
45.1,2.5,177.0,21.88334274291992,23.88712882995605,-79.78281094458697,40.45905881731132,332.30393127441414,0.0181858465075492,0.0026327795349061,-0.0974811986088752,0.9950677752494812,-0.0206560089370013,0.0978444250197902,2.9682244250322856,0.0594284981489181,-0.0218231361359357,0.0154986372217535,0.3039790173992515,-0.1223030303791165,-9.648775892257689,14997.0
45.2,2.299999952316284,171.0,21.87708282470703,23.64857482910156,-79.78281088330183,40.4590588487434,332.9061575317383,0.015571529045701,0.0006943487096577,-0.0961284860968589,0.9952468872070312,0.010818834975957,0.0867343676807246,2.974001937505056,0.0561756454408168,-0.0350787416100502,0.0587884187698364,0.329150184430182,-0.099756020642817,-9.688676122426989,14997.0
45.4,2.299999952316284,169.0,21.864561080932614,24.42784881591797,-79.78281085607466,40.45905883175468,333.2031011962892,0.0133377443999052,0.0022520071361213,-0.0942706614732742,0.9954547882080078,0.0183426290778601,0.0749508529936635,2.9630173878172155,0.0881988108158111,-0.0163029916584491,-0.0376715585589408,0.3233947700634599,-0.0768909223750233,-9.717854313254357,14998.0
45.6,2.0999999046325684,163.0,21.845781326293945,24.51531982421875,-79.78281083433322,40.45905879011968,333.80770782470705,0.0079661309719085,0.003123695263639,-0.091062992811203,0.9958084225654602,-0.0089141464594584,0.0519794650941981,2.9853736661906782,-0.0102252447977662,-0.094752162694931,0.0026948382146656,0.2209538724459708,-0.1845542241074144,-9.745354353189471,14998.0
45.7,2.0999999046325684,159.0,21.86330986022949,24.197248458862305,-79.7828108177812,40.45905878194471,334.10613922119137,0.0054439315572381,0.0019788967911154,-0.089800551533699,0.9959429502487184,-0.0073435017798801,0.0446673705251137,2.9863987826087888,-0.0356250330805778,-0.0426345691084861,-0.0458339564502239,0.2073885879479348,-0.0656145943980664,-9.825940679311753,14999.0
45.9,1.8999999761581416,157.0,22.052370071411133,20.412202835083008,-79.78281073689139,40.45905872803919,334.7113638305664,0.0105685535818338,0.0019719945266842,-0.0885386317968368,0.9960147738456726,0.0185732075782626,0.0362080753129388,3.0008545087132603,0.0639400631189346,0.0909314006567001,0.0117022423073649,0.258947088047862,-0.0205814590584486,-9.803148232698437,14999.0
46.0,1.7999999523162842,153.0,22.170061111450195,18.82980155944824,-79.78281065474069,40.45905875566774,335.3032064819336,0.016384195536375,4.791708852280863e-05,-0.0899477675557136,0.9958117604255676,0.0144602743182468,0.0859330147160361,2.9026211975615728,0.000584757712204,0.038828544318676,0.0563002154231071,0.2638361460529268,-0.080677615776658,-9.579064217805865,15000.0
46.2,1.7000000476837158,153.0,22.17506980895996,18.686668395996094,-79.78281062644518,40.45905875567311,335.58780578613283,0.0164422839879989,-0.0008391021983698,-0.0912349373102188,0.9956933259963988,0.0114089065551793,0.093055913020025,2.7828774020373013,-0.0161384232342243,0.0481807738542556,-0.0433794856071472,0.3010288412868977,0.0708493598923087,-8.793801282048225,15000.0
46.3,1.600000023841858,153.0,22.2426815032959,17.724504470825195,-79.78281056865524,40.45905879763231,335.876181640625,0.015397684648633,-0.0015253118472173,-0.0910423472523689,0.9957268834114076,0.0138040158305798,0.0951589686151833,2.7168723484397925,-0.0292151384055614,-0.074228748679161,0.0591264143586158,0.3034574457630515,-0.103243208695203,-8.758743715882302,15000.0
46.5,1.5,158.0,22.217639923095703,18.2811279296875,-79.78281053474049,40.45905880672087,336.3937216186524,0.0125106191262602,-0.0014859136426821,-0.094544418156147,0.9954409003257751,0.0092745969960521,0.078515617174459,2.4404675364338697,-0.018843425437808,-0.0957101583480835,0.0501225441694259,0.1854639960452914,-0.095818194989115,-8.277678081393242,15001.0
46.6,1.399999976158142,158.0,22.281494140625,18.02667236328125,-79.78281046756706,40.45905884159258,336.6408682250977,0.0125987129285931,-0.0010927986586466,-0.0965024083852768,0.99525249004364,0.0005939819643721,0.0678452212949363,2.317758203090193,-0.0282799769192934,-0.0320345759391784,0.0434921570122242,0.2017991979606449,-0.1223716620728373,-8.327193472981453,15001.0
46.7,1.399999976158142,160.0,22.20136260986328,19.22739028930664,-79.78281041634284,40.45905887283788,337.0865087890625,0.0119452672079205,-0.0020306033547967,-0.0979835763573646,0.9951143264770508,-0.0083118252269145,0.0684371515560443,2.0551007934760817,-0.0162226147949695,-0.0815227553248405,0.0114927813410758,0.1956077457591892,-0.1279506275709718,-8.383809138536453,15002.0
46.9,1.2999999523162842,164.0,22.191347122192383,18.925222396850582,-79.78281043595469,40.45905891267147,337.469916381836,0.0114333853125572,0.0008861301466822,-0.0961520448327064,0.9953006505966188,-0.0188136828127361,0.070537389478633,1.7741677557306048,0.0188349690288305,-0.0572643764317035,-0.0512234382331371,0.1604235325567424,-0.1058463799674064,-8.36976061820984,15002.0
47.0,1.100000023841858,167.0,22.21263122558593,18.16185188293457,-79.78281037980709,40.45905894857057,337.65589813232424,0.0100048277527093,0.0010080460924655,-0.0946724787354469,0.9954577088356018,-0.0249657032328398,0.0693350531199504,1.685395709201476,-0.0392684414982795,-0.0722347944974899,0.0295025557279586,0.2599700036086142,-0.120664448691532,-8.587303352952004,15002.0
47.2,1.100000023841858,165.0,22.18258285522461,18.69462013244629,-79.78281038998766,40.4590589835668,337.8186026000977,0.0082844113931059,0.0004207882157061,-0.0931515991687774,0.9956174492836,-0.021983691796904,0.0740754147745792,1.563834578265825,-0.0276517234742641,-0.0620182827115058,-0.0260222982615232,0.1763750474900007,0.0041112115862779,-8.497571981549264,15002.0
