time,wind_speed,wind_angle,battery_voltage,battery_current,position_x,position_y,position_z,orientation_x,orientation_y,orientation_z,orientation_w,velocity_x,velocity_y,velocity_z,angular_x,angular_y,angular_z,linear_acceleration_x,linear_acceleration_y,linear_acceleration_z,node_ids
0.0,1.600000023841858,154.0,24.571495056152344,0.0715659633278846,-79.78278656393029,40.45904514348923,270.4084118485451,-0.0062842229381203,0.0022422214969992,-0.9752772450447084,0.220884457230568,0.0032198241632901,0.0167672962593038,0.0381010240980214,0.0085165640339255,0.0013462126953527,0.011209538206458,-0.0644967346731573,0.0995771780703216,-9.809831015467646,14935.0
0.19,1.600000023841858,153.0,24.57024383544922,0.0795177370309829,-79.78278660092737,40.45904509940657,270.42607401609416,-0.0062665320001542,0.0022486136294901,-0.9752843379974364,0.2208532840013504,0.0027751863198126,0.0194438444725812,0.0389816140646278,0.0043754409998655,0.0013969012070447,0.0081303725019097,-0.0650195671152323,0.1286694605089724,-9.808591405749322,14935.0
0.29,1.600000023841858,154.0,24.55897521972656,0.0795177370309829,-79.782786592956,40.45904508292993,270.4299431920052,-0.0062616765499114,0.0022335338871926,-0.975273370742798,0.220902070403099,0.0022900987788028,0.0192873979744829,0.0386380581461511,0.0040389681234955,0.0011731823906302,-0.0017854912439361,-0.0619952090224251,0.1263797274045646,-9.80855105996132,14935.0
0.5,1.600000023841858,153.0,24.566486358642567,0.0636141896247863,-79.78278658497692,40.45904506577481,270.4337894201279,-0.0062737753614783,0.0022319720592349,-0.9752779006958008,0.2208816558122635,0.002284499397905,0.0202496630360133,0.0385328947708211,-0.0068461336195468,-0.0031954678706824,-0.0012937657302245,-0.0725596841750666,0.1040604210365563,-9.808663326501849,14935.0
0.6,1.600000023841858,154.0,24.56398200988769,0.0636141896247863,-79.78278661780331,40.45904502107916,270.4529261469841,-0.0062749315984547,0.0022179128136485,-0.9752667546272278,0.2209312617778778,0.0013323102269022,0.0214711885520487,0.0393232143818469,-0.0083984564989805,0.001161387306638,-0.0079722888767719,-0.0683456004224717,0.1221717421151697,-9.808311324119568,14935.0
0.79,1.600000023841858,155.0,24.571495056152344,0.0715659633278846,-79.78278665128606,40.45904498985318,270.4724198460579,-0.0062655727379024,0.0022264465223997,-0.975257396697998,0.2209725230932236,0.0004521391596274,0.0196468416916973,0.0394686275732657,-0.0041846334934234,0.002141990000382,-0.0071854200214147,-0.0661631454527378,0.096344745894894,-9.809818151593207,14935.0
0.9,1.5,155.0,24.57274627685547,0.0874695107340812,-79.78278664200059,40.45904497282474,270.47634135484697,-0.006285473704338,0.0022340714931488,-0.9752643704414368,0.2209412604570388,0.0021408382977981,0.0206980928134097,0.0392679112964591,-0.001505582476966,-0.0022338982671499,0.0093177687376737,-0.0718606541119516,0.0922939776163548,-9.809851480722427,14935.0
1.09,1.5,157.0,24.567739486694336,0.0795177370309829,-79.78278669570392,40.459044946887005,270.4971515417099,-0.0062791020609438,0.0022511379793286,-0.9752520918846128,0.2209953218698501,0.002698567625049,0.0177751314937855,0.0398205493169543,-0.0057316301390528,-0.002494994783774,-0.0011615854455158,-0.0625410694442689,0.1244608174078166,-9.80855222940445,14935.0
1.2,1.5,153.0,24.55647087097168,0.0874695107340812,-79.78278673356499,40.45904493202818,270.5151936888695,-0.0062679308466613,0.0022529945708811,-0.9752611517906188,0.2209555655717849,0.0021487646320396,0.0165070631767128,0.0405721005541087,0.005848528817296,-4.158281808486208e-05,0.0068416530266404,-0.0614954776503145,0.1093844479322433,-9.810660735368732,14935.0
1.4,1.5,154.0,24.566486358642567,0.0954212844371795,-79.78278672573944,40.459044918133394,270.51923565864564,-0.0062563740648329,0.0022471279371529,-0.975240170955658,0.2210486978292464,0.0002550466510167,0.0167190058021007,0.0404309969072538,-0.0104667022824287,-0.0039986381307244,-0.0105048920959234,-0.0690488286036998,0.1243390856869518,-9.808690808415411,14935.0
1.49,1.5,155.0,24.56273078918457,0.0874695107340812,-79.7827867323261,40.45904486878504,270.54446266889573,-0.0062484750524163,0.0022673446219414,-0.9752309322357178,0.2210893034934997,-0.001670690050428,0.0207066660458313,0.0444272241173097,0.0015592359704896,0.0017388742417097,-0.0060611302033066,-0.0612402512552216,0.1314087622705847,-9.809019421935082,14935.0
1.69,1.5,158.0,24.56273078918457,0.0874695107340812,-79.78278674382128,40.459044823085634,270.569357919693,-0.006266342010349,0.0022830825764685,-0.9752402305603028,0.2210477441549301,-0.0015226729411643,0.0233036482314242,0.0462887441682309,0.0073068644851446,0.0021677624899894,0.0039424360729753,-0.0718428977625444,0.098800804875791,-9.808863301277162,14935.0
1.79,1.399999976158142,159.0,24.55897521972656,0.0795177370309829,-79.78278672876327,40.45904480490635,270.5739611268044,-0.0062718894332647,0.0022850225213915,-0.9752276539802552,0.2211029976606369,-0.0031838878341071,0.0238042888643223,0.0461833756699304,-0.0067939613945782,-0.0019956820178776,-0.0052837133407592,-0.0682917969021946,0.1215006370749324,-9.808920603990558,14935.0
2.0,1.399999976158142,157.0,24.55647087097168,0.0795177370309829,-79.78278671364801,40.4590447859026,270.5785460948944,-0.0062751863151788,0.0022830420639365,-0.9752381443977356,0.22105672955513,-0.000752491003994,0.024778763958146,0.0459209405929088,0.0037245748098939,-6.385068263625726e-05,0.0099865654483437,-0.0653298487002029,0.0933096389751881,-9.810624482631685,14935.0
2.09,1.399999976158142,157.0,24.57024383544922,0.0715659633278846,-79.78278671438376,40.45904471795628,270.60492609739305,-0.0062602316029369,0.0022904193028807,-0.975223958492279,0.2211198359727859,-0.0014429681735668,0.0295297004163385,0.047953712527019,-0.0008267613593488,-0.0021437313407659,0.0056357346475124,-0.0727702661650255,0.0951581357046961,-9.810159044265747,14935.0
2.29,1.399999976158142,158.0,24.57399940490723,0.0954212844371795,-79.78278677131959,40.45904469288167,270.63241230249406,-0.0062571885064244,0.0022665767464786,-0.9752148389816284,0.2211601436138153,0.0012122201091512,0.0225116705420294,0.0494822291561616,-0.0074500953778624,-0.0016635019565001,-0.0054418328218162,-0.0618922158004716,0.1225289613101631,-9.8090124052763,14935.0
2.39,1.399999976158142,157.0,24.557722091674805,0.0715659633278846,-79.78278676136831,40.45904467348393,270.63732706308366,-0.0062761395238339,0.002265116199851,-0.9752184748649596,0.2211436480283736,0.0034187245031822,0.0230550421653527,0.0490993883722729,0.0064506158232688,0.0043665189296007,0.0094896350055933,-0.0635117255151271,0.102904508728534,-9.81032627463341,14935.0
2.59,1.2999999523162842,157.0,24.55897521972656,0.0874695107340812,-79.78278675400341,40.45904467459612,270.6631357550621,-0.0063071274198591,0.0022386114578694,-0.9752107858657836,0.2211771458387375,-0.0033585938697047,0.0187366381415155,0.0465386841751508,0.0026342500932514,-0.0019711276981979,0.0075774821452796,-0.0669291444076225,0.1273975723329931,-9.808405464291573,14935.0
2.71,1.2999999523162842,156.0,24.571495056152344,0.0874695107340812,-79.78278678249434,40.45904465898796,270.6847757577896,-0.0062802843749523,0.0022458997555077,-0.9752184748649596,0.2211435884237289,-0.0041097396851273,0.0172454575792427,0.0455885624057784,-0.0005247375229373,-0.0015215488383546,-0.0040692226029932,-0.062063863556832,0.1302383872400969,-9.809137535691262,14935.0
2.89,1.2999999523162842,158.0,24.56022644042969,0.0954212844371795,-79.7827867689472,40.45904464598742,270.6893113136292,-0.0062973303720355,0.0022477861493825,-0.9751980900764464,0.2212330400943756,-0.0033270426002168,0.0183463188763996,0.0454763805344018,-0.0040863426402211,-0.0043517472222447,0.0045956601388752,-0.0725734022911638,0.0976108142640441,-9.810734410285953,14935.0
3.0,1.2999999523162842,158.0,24.566486358642567,0.0715659633278846,-79.78278680405819,40.459044618242935,270.7160892963409,-0.0062879272736608,0.0022736808750778,-0.9751887917518616,0.221274048089981,-0.0001074208784692,0.0159744296485035,0.0442121093389172,-0.0048532183282077,-0.002723861252889,-0.0059136934578418,-0.0709972761757671,0.1114189957547932,-9.807491544485092,14935.0
3.2,1.2000000476837158,155.0,24.56899070739746,0.0795177370309829,-79.78278681393567,40.45904457902339,270.741960811615,-0.0063126543536782,0.0023020640946924,-0.9751986265182496,0.221229687333107,-8.860808451322837e-05,0.0187014904274705,0.0406272786874126,-0.0102955047041177,-0.0034397456329315,-0.0093035837635397,-0.0629848731122911,0.1079716053139418,-9.810297038555143,14935.0
3.3,1.100000023841858,154.0,24.56273078918457,0.0795177370309829,-79.78278680494395,40.459044563106055,270.74599890708924,-0.0063221352174878,0.0023083861451596,-0.9751859307289124,0.2212852537631988,0.0023884783163575,0.0196023095667634,0.0403513724465317,0.0079763429239392,0.0016847201623022,0.0114851659163832,-0.0659137068875134,0.0954736752156168,-9.810308732986451,14935.0
3.5,1.100000023841858,153.0,24.567739486694336,0.0795177370309829,-79.78278679578675,40.459044546492,270.75001363754274,-0.0063185221515595,0.0023091847542673,-0.9751937985420228,0.2212507873773574,0.0005096561022892,0.0197611793744206,0.0401829680988123,-0.0039914203807711,0.0003944190102629,-0.0084165846928954,-0.064692118470557,0.129344950960949,-9.80922875225544,14935.0
3.6,1.100000023841858,155.0,24.55647087097168,0.0715659633278846,-79.78278680209056,40.45904452600784,270.7757105112076,-0.006330375559628,0.0023109202738851,-0.9751815199851992,0.2213045507669448,1.421981119502101e-06,0.0184769085266646,0.0374223142938675,0.0015534844715148,0.0045495345257222,-0.0057592988014221,-0.0628802993148565,0.1304925492592156,-9.808391430974009,14935.0
3.79,1.0,154.0,24.567739486694336,0.0874695107340812,-79.782786831501,40.45904453280868,270.7991356134415,-0.0063268286176025,0.0023198467679321,-0.9751842617988586,0.2212925553321838,0.0006571306985368,0.0137042431749029,0.0389552050234953,-0.0032723390031605,-0.0041052121669054,0.0022165495902299,-0.0726898578135296,0.0998372238501906,-9.808507790565493,14935.0
3.89,1.0,150.0,24.561479568481445,0.0954212844371795,-79.78278681805084,40.45904450944101,270.806843060255,-0.0063281999900937,0.0023082483094185,-0.9751742482185364,0.2213367074728012,0.0002388024445707,0.0146400450609055,0.0384062709439324,-0.0074893306009471,-0.0004831090918742,-0.0032314579002559,-0.0696903092740103,0.1178031593933701,-9.8072962474823,14935.0
4.09,1.0,150.0,24.55521774291992,0.0874695107340812,-79.78278681939867,40.4590445050642,270.8286749303341,-0.0063506360165774,0.0023064545821398,-0.9751641750335692,0.2213803231716156,0.0004873787999664,0.0149619918665505,0.036327415083849,0.0084474831819534,-0.0001879924384411,0.0093371141701936,-0.0642588489269837,0.0976812823489308,-9.810550807714463,14935.0
4.2,1.0,147.0,24.557722091674805,0.0954212844371795,-79.78278685717541,40.45904449064873,270.85438858270646,-0.0063337436877191,0.0023224393371492,-0.9751787185668944,0.2213166207075119,0.0062126565450879,0.0117501889974059,0.0343283330417713,0.0005616192938759,-0.0029684994369745,0.0088028656318783,-0.0710727098258212,0.0930482592992484,-9.808641691803931,14935.0
4.39,0.8999999761581421,146.0,24.56899070739746,0.0954212844371795,-79.78278685701449,40.45904447899978,270.85780363082887,-0.0063259177841246,0.0023203559685498,-0.9751673340797424,0.221366748213768,0.0061198783901123,0.0117579900563067,0.0340072482480817,0.0078991064801812,0.0030385870486497,0.0012401139829307,-0.0621765275252983,0.1240986098069697,-9.808369796276091,14935.0
4.49,0.8999999761581421,146.0,24.561479568481445,0.0874695107340812,-79.78278684360156,40.45904446406152,270.8837109088898,-0.0063403993844985,0.0023188989143818,-0.9751546382904052,0.2214225530624389,0.0036227626733071,0.0134895641919487,0.0335827410719771,0.0059842225164175,0.0029501747339963,0.0047974954359233,-0.0649711357243359,0.1056223950628191,-9.810493505001068,14935.0
4.7,0.8999999761581421,147.0,24.56022644042969,0.0874695107340812,-79.78278683886415,40.45904445181997,270.8870571732521,-0.0063295708969235,0.0023301877081394,-0.9751585125923156,0.2214055508375168,0.001605731026541,0.0138758486957712,0.0334330815396372,-0.0068460688926279,0.0005614377441816,-0.0074432720430195,-0.0684511563694104,0.1266511935275048,-9.808104917407038,14935.0
4.81,0.8999999761581421,146.0,24.57274627685547,0.0874695107340812,-79.78278682083574,40.45904445399604,270.9122542023659,-0.0063428934663534,0.0023357223253697,-0.9751530885696412,0.221429094672203,-0.000696416977991,0.0121607046336387,0.0330109261599577,-0.0011157942935824,0.0048605445772409,-0.0061348443850874,-0.0625999801419675,0.1319827304407954,-9.809374932646753,14935.0
5.0,0.8999999761581421,146.0,24.557722091674805,0.0795177370309829,-79.78278681379092,40.45904444348825,270.91553552746774,-0.0063418932259082,0.0023308643139898,-0.9751574397087096,0.2214100062847136,0.0003831862626508,0.0135352712151349,0.0328242186233745,0.0008499114774167,-0.001436302321963,0.0039871037006378,-0.0714744455181062,0.0954270710796117,-9.809995906949045,14935.0
5.09,0.8000000119209291,146.0,24.56398200988769,0.0715659633278846,-79.78278678652553,40.45904443269062,270.9406172811985,-0.0063422475941479,0.0023615797981619,-0.9751487970352172,0.2214476764202118,-0.0022424297069215,0.0148208210746259,0.0326321879404803,-0.0097818551585078,-0.0050531551241874,-0.003655057400465,-0.0714962035557255,0.1092181860096752,-9.808591405749322,14935.0
5.29,0.8999999761581421,144.0,24.56899070739746,0.0874695107340812,-79.78278678678272,40.45904443735943,270.9623893082142,-0.0063316132873296,0.0023756111040711,-0.9751556515693665,0.2214176654815673,0.0018348687049798,0.013350008474483,0.0324945665245906,0.0102792661637067,0.0050962157547473,0.0073210322298109,-0.0628945427667349,0.1048761898465454,-9.809992983341218,14935.0
5.4,0.8999999761581421,145.0,24.571495056152344,0.0874695107340812,-79.78278677399382,40.45904441379851,270.9688289642334,-0.0063089267350733,0.0023971425835043,-0.9751427173614502,0.221475064754486,0.0025334764970432,0.0151383616041611,0.0319483819506588,0.0065926830284297,-0.0017835403559729,0.0104442033916711,-0.0678492174949497,0.0936503032408654,-9.808978491425515,14935.0
5.59,0.8999999761581421,147.0,24.5539665222168,0.0795177370309829,-79.78278670632983,40.45904440821504,270.993906635046,-0.006301300600171,0.002408773638308,-0.9751260280609132,0.2215488106012344,-0.0033992872898785,0.0178449378858399,0.03225129343359,-0.0019128019921481,-0.0049315970391035,0.0045599322766065,-0.0615595594793558,0.1313408980239182,-9.808802490234378,14935.0
5.7,0.8000000119209291,146.0,24.571495056152344,0.0874695107340812,-79.78278670006222,40.45904442950007,271.01493780612947,-0.0062846797518432,0.0024048273917287,-0.9751322865486144,0.221521720290184,-0.0017489836495235,0.0127109610676899,0.0321098197955887,0.0052779139950871,0.0040262551046907,0.0013586920686066,-0.0614650218794122,0.1204777123779058,-9.808985508084298,14936.0
5.89,0.8000000119209291,147.0,24.5539665222168,0.0636141896247863,-79.7827866906984,40.459044419726574,271.0181284725666,-0.0062909903936088,0.0024064637254923,-0.9751099348068236,0.221619725227356,-0.0025832040283876,0.01376414563834,0.0319379466578602,-0.0065517737530171,0.0014186698244884,-0.0038600543048232,-0.0703784945793449,0.1116391616966575,-9.807478680610656,14936.0
6.0,0.8000000119209291,148.0,24.55521774291992,0.0715659633278846,-79.78278664744286,40.459044420350295,271.0423711717129,-0.0062730591744184,0.0024350185412913,-0.9751000404357908,0.221663549542427,-0.0031841792238642,0.0148641701513143,0.0319219108647814,-0.0082612885162234,-0.000191647952306,-0.0053879600018262,-0.0672237390093505,0.1251840357575565,-9.80894457757473,14936.0
6.2,0.8000000119209291,145.0,24.56398200988769,0.055662415921688,-79.78278663704464,40.45904440841472,271.04553179740907,-0.0062845065258443,0.0024398509413003,-0.9751084446907043,0.2216262072324752,-0.0006264777568283,0.016213894196154,0.0316113331434169,0.0042296266183257,0.001021499861963,0.010927515104413,-0.0667223539715632,0.0941755476593971,-9.81026195526123,14936.0
6.3,0.8000000119209291,146.0,24.56398200988769,0.0477106422185897,-79.78278658753835,40.45904439539164,271.0697547525168,-0.0062898183241486,0.0024471448268741,-0.975099802017212,0.22166408598423,6.631244315123513e-05,0.0200278864560117,0.0319231023321811,-0.0004437855095602,-0.0009472602396272,0.0083019798621535,-0.07265161793679,0.0922244414314627,-9.80929891884327,14936.0
6.5,0.8000000119209291,145.0,24.57024383544922,0.0715659633278846,-79.78278657643106,40.4590443791254,271.0729138284922,-0.0062718377448618,0.0024480475112795,-0.9751074314117432,0.2216309010982513,-0.0005575036653425,0.0202353063431882,0.0316225907830824,-0.0007388383965007,0.0018026611069217,-0.0041116559877991,-0.0623732406506314,0.1296372021082788,-9.808493757247923,14936.0
6.6,0.8000000119209291,149.0,24.567739486694336,0.0795177370309829,-79.78278652838645,40.45904438887097,271.0969051003456,-0.0062787495553493,0.002468500752002,-0.97510427236557,0.2216444909572601,-0.0004419923264004,0.0194403744545275,0.0320119307492823,0.0052353204227983,-0.0001653507497394,-0.0012253910535946,-0.0621513251122087,0.1248446779791265,-9.809570229649545,14936.0
6.79,0.8000000119209291,150.0,24.55021095275879,0.0715659633278846,-79.78278647270109,40.459044396521,271.1197915405035,-0.0062546613626182,0.0024656851310282,-0.9750965237617492,0.2216789871454239,-0.0003361356726472,0.0197452527865785,0.0321021828420069,0.0065710446797311,0.0021003340370953,0.0044490760192275,-0.0722066676663234,0.1032879216223955,-9.809230506420135,14936.0
6.9,0.8000000119209291,150.0,24.561479568481445,0.0874695107340812,-79.78278646100459,40.459044380325615,271.1229819983244,-0.0062760594300925,0.0024730733130127,-0.9751001000404358,0.2216628193855285,-0.0015474104234849,0.0207080464453882,0.0320532992108235,-0.0086161689832806,-0.0031629155855625,-0.0036603237967938,-0.0700733978301286,0.1150609979778528,-9.808287935256956,14936.0
7.09,0.699999988079071,147.0,24.552715301513672,0.0715659633278846,-79.78278643370196,40.45904439328536,271.1440155684948,-0.0062852264381945,0.0024746672715991,-0.9750863313674928,0.221723198890686,0.0033482227471878,0.0207894194365318,0.03529187438441,0.0085932649672031,0.0025136724580079,0.0088675105944275,-0.0635472016688436,0.1011318156681954,-9.810650210380556,14936.0
7.2,0.699999988079071,146.0,24.56398200988769,0.0715659633278846,-79.78278637104347,40.459044407993886,271.1665353059769,-0.006289817392826,0.0024615016300231,-0.97509503364563,0.2216848134994506,0.0008892872199452,0.0198843818186546,0.0344512669098515,0.0042992983944714,-0.0012172709684818,0.0095515083521604,-0.0702296920772641,0.0918557379394769,-9.809710562825202,14936.0
7.39,0.6000000238418579,147.0,24.56022644042969,0.0874695107340812,-79.782786360647,40.45904439193485,271.16995558440686,-0.0062799509614706,0.0024583584163337,-0.9750803709030152,0.2217497676610946,5.991437119296282e-05,0.020108216445726,0.0342161931834464,0.0003770542098209,0.004455235786736,-0.0064023286104202,-0.0622132416442036,0.1292813624907285,-9.808300214409831,14936.0
7.5,0.6000000238418579,146.0,24.56523513793945,0.0795177370309829,-79.78278631763284,40.45904444375235,271.19454952627416,-0.0062921680510044,0.0024374469649046,-0.975075364112854,0.2217713296413421,0.0008454845450732,0.0122868719571902,0.0376072614201568,0.0053396993316709,0.003653444815427,0.0013100942596793,-0.0608730780892074,0.1151272451039403,-9.809350374341012,14936.0
7.7,0.6000000238418579,149.0,24.56022644042969,0.0874695107340812,-79.78278625327304,40.459044463909066,271.21759606450803,-0.006294909864664,0.0024314797483384,-0.9750884175300598,0.2217141389846801,0.0003301048482351,0.0141357272270922,0.0386749313668113,0.0060464269481599,0.004121879581362,0.0103087499737739,-0.0691063597239554,0.1196386277955025,-9.808900723457336,14936.0
7.8,0.6000000238418579,147.0,24.55647087097168,0.0954212844371795,-79.78278624471034,40.45904445272174,271.2214462414384,-0.0062964158132672,0.0024136058054864,-0.9750755429267884,0.221770703792572,-0.0013768853875246,0.0145134628004555,0.0385313880212983,-0.0059099909849464,-8.702977356733754e-05,-0.0120730819180607,-0.0636757581867277,0.1302669106889516,-9.80960648238659,14936.0
8.0,0.6000000238418579,146.0,24.55521774291992,0.0636141896247863,-79.78278623607035,40.45904444036748,271.2252737537026,-0.0063002533279359,0.0024150311946868,-0.9750821590423584,0.2217414677143097,0.0006124170920489,0.0159927718080122,0.0382925106040167,-0.0016227376181632,-0.0011433090548962,0.0078459894284605,-0.0707754565682262,0.0923571914993226,-9.809521113038064,14936.0
8.09,0.6000000238418579,146.0,24.55647087097168,0.0874695107340812,-79.78278615962753,40.4590444814131,271.2463437013328,-0.006292219273746,0.002403910504654,-0.9750756025314332,0.2217708677053451,-0.0029245411546097,0.0139729985429926,0.0361472751585728,-0.0020476665813475,-0.0040179849602282,0.0007805861532688,-0.0717976732039824,0.0982846510503441,-9.80966553926468,14936.0
8.29,0.6000000238418579,143.0,24.56398200988769,0.0795177370309829,-79.78278608074031,40.45904445719517,271.2676742367446,-0.0062909969128668,0.0024360434617847,-0.9750624895095824,0.2218280136585236,0.0001509379069933,0.0234637251100597,0.0350370079077323,-0.0087369075044989,-0.000199001195142,-0.006863554008305,-0.0614429943216964,0.1216469088289886,-9.808670927882195,14936.0
8.4,0.6000000238418579,145.0,24.56398200988769,0.1033730581402778,-79.78278606909333,40.45904443739701,271.27114087454976,-0.0062815202400088,0.0024503988679498,-0.9750714302062988,0.2217888236045837,0.0019743142836476,0.0242840599095012,0.0346396649344674,0.0052967458032071,0.0059959166683256,0.0042257541790604,-0.0614020957890898,0.1111154704447835,-9.809622854590415,14936.0
8.59,0.6000000238418579,142.0,24.57274627685547,0.0795177370309829,-79.78278595762144,40.45904447039539,271.29210164044053,-0.0062978463247418,0.0024362276308238,-0.9750590920448304,0.2218429744243621,-0.0028650578738552,0.0238336225376187,0.0338283194096423,0.0088121108710765,0.0044697886332869,0.0077749877236783,-0.0686855155136436,0.117492288518697,-9.808586143255232,14936.0
8.7,0.699999988079071,141.0,24.56022644042969,0.0874695107340812,-79.78278588771715,40.459044513179066,271.3106346644461,-0.0063030519522726,0.0024328818544745,-0.9750651121139526,0.221816599369049,-0.0052932485852368,0.0214023701874044,0.0361707472289095,-0.0089683607220649,-0.0021059946157038,-0.0082504553720355,-0.0668512713722884,0.1236385070253163,-9.808061648011208,14936.0
8.89,0.699999988079071,137.0,24.56523513793945,0.0795177370309829,-79.78278587186962,40.45904449704594,271.3142144048586,-0.0063108713366091,0.0024435287341475,-0.9750524163246156,0.2218718528747558,-0.002797235472984,0.0226560614107887,0.0358393031946931,0.0079943165183067,0.001607162412256,0.008693192154169,-0.0654590767342597,0.0958464717585593,-9.809818151593207,14936.0
9.0,0.8000000119209291,135.0,24.5539665222168,0.0715659633278846,-79.78278581129508,40.459044545988505,271.3343695729971,-0.0063079367391765,0.0023971295449882,-0.975041925907135,0.2219183295965194,-0.001119314301777,0.0161519049054212,0.034265251186909,0.0049003679305315,-0.0047731189988553,0.0065891202539205,-0.0675352448550984,0.0931170919910073,-9.810304055213928,14936.0
9.2,0.8000000119209291,134.0,24.55521774291992,0.0795177370309829,-79.78278572056834,40.45904459958378,271.3547011308372,-0.0062971208244562,0.0023806202225387,-0.9750576615333556,0.2218497842550277,-0.0040836674598254,0.0127853880671764,0.0335097649353854,0.0033467393368482,-0.0022340980358421,0.0075420155189931,-0.0638696756120771,0.1316321441810578,-9.80968775868416,14936.0
9.3,0.8999999761581421,133.0,24.561479568481445,0.0795177370309829,-79.78278570864872,40.45904459113826,271.3580249503255,-0.0062867947854101,0.0023653944954276,-0.9750429391860962,0.2219148129224776,-0.0047144360021127,0.0129136248184593,0.0332345550715672,0.0031843218021094,0.0040193349123001,-0.0054815150797367,-0.0617775098746642,0.1292175456136465,-9.808873826265335,14936.0
9.49,0.8999999761581421,131.0,24.55897521972656,0.0954212844371795,-79.7827856965847,40.45904458169007,271.3613308995961,-0.0063025821000337,0.0023681134916841,-0.975046455860138,0.2218991219997406,-0.004250245746843,0.0142375653653798,0.0331711683134218,-0.0045045507140457,-0.0062784822657704,0.0032203004229813,-0.0723614178830757,0.0998976146243512,-9.80973687529564,14936.0
9.59,0.8999999761581421,131.0,24.557722091674805,0.0795177370309829,-79.78278560066936,40.45904462216993,271.38159507066007,-0.0062929783016443,0.002352942014113,-0.9750385880470276,0.2219342291355133,-0.0055403804326467,0.015154421293514,0.0328037621623639,-0.0078288540244102,-0.0006366682937368,-0.0053543061949312,-0.0694625191111117,0.1149656244087964,-9.807635970711706,14936.0
9.8,1.0,129.0,24.571495056152344,0.0874695107340812,-79.78278552435305,40.4590446749171,271.39809951484204,-0.0062889638356864,0.0023407533299177,-0.9750444889068604,0.2219082415103912,-0.0037465386986659,0.0151942517113211,0.0326035641444509,0.0083770854398608,0.0013446093071252,0.0084568848833441,-0.0643367630755528,0.1008155452553182,-9.810419830083848,14936.0
9.9,1.0,128.0,24.55647087097168,0.0954212844371795,-79.7827854974587,40.459044653015866,271.40456356406213,-0.0062823905609548,0.0023540160618722,-0.9750339388847352,0.2219547927379608,-0.0034328746176869,0.0167930160170093,0.0322916970676545,0.004939601290971,-0.004037944599986,0.008816996589303,-0.0699606379307806,0.0911262064240873,-9.809120578765867,14936.0
10.09,1.100000023841858,129.0,24.557722091674805,0.0795177370309829,-79.78278537900208,40.45904467725417,271.4264024078846,-0.0062844748608768,0.002357232151553,-0.9750224947929382,0.2220048159360885,-0.0058368082921287,0.0213613743584125,0.0355670662569386,-0.0013357516145333,-0.0054764710366725,0.0026976314838975,-0.0614723857166245,0.1295556243136525,-9.80978716135025,14936.0
10.2,1.100000023841858,131.0,24.552715301513672,0.0874695107340812,-79.78278530427673,40.459044757459225,271.4428404003382,-0.0062816138379275,0.0023449840955436,-0.9750322699546814,0.2219622135162352,-0.0068111624759184,0.0149142728679937,0.0342447570913301,0.0012246462283656,0.0040661371313035,0.0014136938843876,-0.0617538880370557,0.1209843187965452,-9.809670801758768,14936.0
10.39,1.100000023841858,134.0,24.56398200988769,0.0954212844371795,-79.78278528823141,40.459044747867175,271.4462368667126,-0.0062872758135199,0.0023356662131845,-0.9750174283981324,0.2220273166894912,-0.0077227823785744,0.0158211600461379,0.0341787217580618,-0.0084620928391814,-0.0026549592148512,-0.003087991150096,-0.0714947463199496,0.1114635807741433,-9.808721798658372,14936.0
10.5,1.100000023841858,136.0,24.557722091674805,0.0795177370309829,-79.78278519304868,40.459044782278326,271.46631478071214,-0.0062646721489727,0.002313794568181,-0.9750028252601624,0.2220923155546188,-0.0056885366730103,0.0188642798462257,0.0334193622421211,-0.0083658192306756,0.0002517139946576,-0.0069453692995011,-0.0611477282037958,0.1064718949981034,-9.8103297829628,14936.0
10.7,1.100000023841858,138.0,24.56899070739746,0.0874695107340812,-79.7827851006881,40.45904483172331,271.48587444722654,-0.0062678977847099,0.0023117675445973,-0.9750125408172609,0.2220493406057357,-0.0050150817940388,0.0177617068184871,0.0329340227931529,-0.0038451079744845,-0.0030600049067288,-0.0061221146024763,-0.0665452838363126,0.0935896931961178,-9.811013907194136,14936.0
10.79,1.0,138.0,24.55897521972656,0.0795177370309829,-79.78278508641084,40.45904481854994,271.48913957476617,-0.0062732454389333,0.0023031763266772,-0.9750002026557922,0.2221037894487381,-0.0035815737639561,0.0189346609783548,0.0327844083314111,-0.0034653267357498,-0.0024361060932278,0.0052482997998595,-0.0727469869377091,0.0949728611949831,-9.810308732986451,14936.0
11.0,1.0,141.0,24.5539665222168,0.0715659633278846,-79.78278507227623,40.45904480452524,271.49239300489427,-0.0062531996518373,0.0023019444197416,-0.9750097393989564,0.2220624387264252,-0.0032813016943741,0.0190612726209405,0.0326101646893932,0.0050573549233376,0.0019521111389622,-0.0020484924316406,-0.0621625490253791,0.1238208396546542,-9.809676064252852,14936.0
11.1,1.0,144.0,24.55647087097168,0.0715659633278846,-79.78278498486353,40.45904487682475,271.5118587642908,-0.0062553011812269,0.0022952430881559,-0.9749975204467772,0.2221158295869827,-0.0035872555445341,0.0151418855922492,0.0321166303117872,0.0054002441465854,-0.0006851108046248,0.0081579107791185,-0.0641588661074638,0.1019853629730642,-9.811149562597276,14936.0
11.3,1.100000023841858,149.0,24.55647087097168,0.0795177370309829,-79.78278489544246,40.45904495309205,271.5314592599869,-0.0062600541859865,0.0022935150191187,-0.974984645843506,0.222172349691391,-0.0052193755824692,0.0122268015243426,0.0319621385862992,-0.000197476678295,-0.0037408245261758,0.007348665036261,-0.0662127371504902,0.129262139769271,-9.809117655158042,14936.0
11.4,1.100000023841858,152.0,24.56523513793945,0.0715659633278846,-79.78278488261631,40.459044945382985,271.5346348911524,-0.0062458189204335,0.0023069526068866,-0.9749897718429564,0.2221502214670181,-0.0057266043538914,0.0122088659560601,0.0318556279554442,-0.0005444459384307,0.0015043532475829,-0.0047413730062544,-0.0617101663956418,0.1274295949749648,-9.809663785099984,14936.0
11.6,1.0,158.0,24.55647087097168,0.0636141896247863,-79.78278482081865,40.45904498175335,271.5541020810604,-0.0062267938628792,0.0023160537239164,-0.9749786257743835,0.2221996039152145,0.0009339967103541,0.0152888363331669,0.031794145080548,0.0075027835555374,0.0024678783956915,0.0042012156918644,-0.0716366966161877,0.1022443489450961,-9.808960949778555,14936.0
11.71,1.0,160.0,24.55647087097168,0.0795177370309829,-79.78278474399603,40.459045070577815,271.5697626054287,-0.006240680348128,0.0023063828703016,-0.974982976913452,0.2221801728010177,-0.004136476355408,0.0114904130137916,0.0316625824182544,-0.0093396818265318,-0.0017868420109152,-0.0047231977805495,-0.0692832242930308,0.1195176635216921,-9.80795055091381,14936.0
11.9,1.0,164.0,24.57024383544922,0.1272283792495727,-79.78278473441297,40.459045062271855,271.57290171384807,-0.0062534674070775,0.0023287935182452,-0.974967896938324,0.2222459316253662,-0.0016586235188543,0.0122518398019848,0.0314086169218224,0.0062259235419332,-0.0004933472955599,0.009363348595798,-0.0662017142353579,0.0982112502213567,-9.810604602098463,14936.0
12.0,1.0,165.0,24.56022644042969,0.0795177370309829,-79.78278465085472,40.45904511206359,271.59174500703807,-0.0062402333132922,0.0023518197704106,-0.974955916404724,0.2222984135150909,-0.0008594595527298,0.0162907469874596,0.0315051852558392,0.0028404165059328,-0.0023604813031852,0.0082228472456336,-0.0688601142866537,0.0910575381852686,-9.810836151838306,14936.0
12.2,1.0,166.0,24.55897521972656,0.0795177370309829,-79.78278456656635,40.45904519617307,271.6105758428574,-0.0062418752349913,0.0023596887476742,-0.9749649167060852,0.2222588509321212,-0.0040704666686135,0.0126215171982701,0.0315169368625684,-0.0009181956993415,-0.004338739439845,0.0047821388579905,-0.0621160179795697,0.1297529678419232,-9.810232719182968,14936.0
12.3,1.0,167.0,24.56523513793945,0.0715659633278846,-79.78278455525741,40.45904518763094,271.61370025873185,-0.0062240362167358,0.002357562072575,-0.9749487638473512,0.2223301231861114,-0.0038409912587297,0.0128306298690187,0.0311616455259034,0.0028725636657327,0.0041157333180308,-0.0042237886227667,-0.0624291729228571,0.1247658136580139,-9.8079423648119,14936.0
12.49,1.0,167.0,24.566486358642567,0.0874695107340812,-79.78278454394703,40.45904517818703,271.6168037235737,-0.006228354293853,0.0023589602205902,-0.9749492406845092,0.2223279476165771,-0.0038016127766883,0.0138909489264776,0.0311642310030198,-0.0034909553360193,-0.0023438192438334,-0.0005925706936977,-0.0730695156985893,0.1026594647113233,-9.809154492616656,14936.0
12.6,1.0,166.0,24.5539665222168,0.0795177370309829,-79.78278445921735,40.459045212933134,271.6357824981213,-0.0062082107178866,0.0024052071385085,-0.974932849407196,0.2223998010158538,-0.001680262544171,0.0205071858537531,0.0315346240573068,-0.0076783583499491,-0.0007954257307574,-0.0031506011728197,-0.0729627537634223,0.1093257747776806,-9.808141754865646,14936.0
12.8,0.8999999761581421,165.0,24.5539665222168,0.0795177370309829,-79.7827843986333,40.45904527916072,271.6539964556694,-0.0061928215436637,0.0024072262458503,-0.9749224185943604,0.2224462330341339,-0.0001586331235757,0.018294138255853,0.0315730187151915,-0.0084386030212044,-0.0018278764327988,-0.0064124627970159,-0.0627277966216206,0.1094724028464406,-9.810901640653611,14936.0
12.9,0.8999999761581421,162.0,24.557722091674805,0.0874695107340812,-79.78278438978249,40.4590452633808,271.657127904892,-0.0062031890265643,0.0023999565746635,-0.9749283194541932,0.2224201560020446,0.0025839923540048,0.0193802562720664,0.0313747411750125,0.0056958151981234,0.0011946074664592,0.007598387543112,-0.065002966504544,0.0973080107197165,-9.8120862865448,14936.0
13.09,0.8000000119209291,163.0,24.5539665222168,0.0795177370309829,-79.78278433087793,40.45904533862287,271.67325629591943,-0.0061916834674775,0.0024158051237463,-0.9749202728271484,0.2224551737308502,0.0037841307061629,0.0173569950011669,0.0282977358111666,0.0034887343645095,0.000683206715621,0.0099044358357787,-0.0647660400671884,0.1304883465729654,-9.80989533483982,14936.0
13.2,0.8000000119209291,162.0,24.5539665222168,0.1033730581402778,-79.7827842855128,40.45904545927985,271.6884764313698,-0.0061780232936143,0.0024178342428058,-0.9749256372451782,0.2224321216344833,0.0013064750425902,0.0083576960980184,0.0296342801837476,-0.0029029911383986,0.0017060136888176,-0.0069888955913484,-0.0614158413140103,0.1289942185208201,-9.809461471438407,14936.0
13.39,0.8000000119209291,161.0,24.5539665222168,0.0874695107340812,-79.78278428243767,40.4590454513228,271.6914292752743,-0.0061933202669024,0.0024137815926224,-0.9749028086662292,0.2225316911935806,0.0023235642459455,0.0096976955297434,0.0296007374920386,0.0008172402740456,-0.0012384796282276,0.0063795624300837,-0.0723518384993076,0.0963864347152412,-9.811295742988587,14936.0
13.49,0.8000000119209291,161.0,24.55521774291992,0.0874695107340812,-79.78278421027973,40.459045533806965,271.70755328536035,-0.0061859437264502,0.0024118509609252,-0.974889636039734,0.2225898653268814,0.0002727331007429,0.0116366809402149,0.0271320539246786,-0.0074767577461898,-0.0022669131867587,-0.001450867857784,-0.0718059872137382,0.1050796912238002,-9.808420082330702,14936.0
13.7,0.8000000119209291,161.0,24.561479568481445,0.0477106422185897,-79.78278413864675,40.45904562562553,271.72308786511417,-0.0061766300350427,0.0024224093649536,-0.9748972058296204,0.2225565165281296,-0.002128602984261,0.0106084058723192,0.0256836787593814,-0.0058322963304817,-0.001478879712522,-0.0046366518363356,-0.0607949172612279,0.1131098643410951,-9.810135655403135,14936.0
13.8,0.8000000119209291,163.0,24.561479568481445,0.0795177370309829,-79.78278413178816,40.4590456171596,271.7256364405156,-0.0061717736534774,0.0024271714501082,-0.9748803377151488,0.2226309031248092,0.0005823317808367,0.0116574273675573,0.0254986804331713,0.0049939271993935,0.0038700918667018,0.0090549299493432,-0.0642792776366695,0.0980286252312362,-9.811786909103397,14936.0
13.99,0.8999999761581421,163.0,24.551462173461918,0.0874695107340812,-79.78278412505534,40.45904560760942,271.7281734228134,-0.0061599141918122,0.0024177161976695,-0.9748848080635072,0.2226112931966781,-0.0010421824776863,0.0119906596805146,0.0253633472548958,-0.0064609572291374,0.0009833180811256,-0.0061924210749566,-0.0650490681454539,0.1285961693152785,-9.809747985005378,14936.0
14.11,0.8000000119209291,163.0,24.5539665222168,0.0795177370309829,-79.78278407836841,40.45904573894595,271.74262886047364,-0.0061681466177105,0.0024103098548948,-0.9748710989952089,0.2226716428995132,-0.0013337907422852,0.0039366854066381,0.023383111110573,0.0015437919646501,0.0003483121108729,-0.0049279783852398,-0.0610970538575202,0.1303553589619696,-9.810734410285953,14936.0
14.29,0.8000000119209291,160.0,24.55897521972656,0.0715659633278846,-79.78278402435903,40.459045807585774,271.7549564421177,-0.006170860491693,0.0024158060550689,-0.9748732447624208,0.2226618081331253,0.0032996374187791,0.0113595924066251,0.0230126922011411,-0.0005395971238613,-0.0055091329850256,0.0030458215624094,-0.0715598651161417,0.0952608091570437,-9.810618635416027,14936.0
14.4,0.8000000119209291,160.0,24.55897521972656,0.0874695107340812,-79.78278401907596,40.45904578576185,271.7595208466053,-0.006160891149193,0.0023982243146747,-0.974859356880188,0.222723051905632,0.0036511622716255,0.0128381280090802,0.0228100362720211,-0.0067309685982763,-0.0039936760440468,0.0007504579261876,-0.0718602977972477,0.1039280729647726,-9.809270267486571,14936.0
14.59,0.8999999761581421,160.0,24.545202255249023,0.0397588685154914,-79.78278396149534,40.45904587397546,271.7736140072346,-0.0061520710587501,0.0023838211782276,-0.9748517274856568,0.2227571904659271,0.0031078362138454,0.0121435459446848,0.0225075203377094,-0.0108759766444563,-0.0032327000517398,-0.0025239142123609,-0.0611992887686938,0.1129233929794281,-9.811688675880433,14936.0
14.71,0.8000000119209291,159.0,24.561479568481445,0.0795177370309829,-79.78278391035873,40.4590459989792,271.78457366228105,-0.0061654127202928,0.0023900028318166,-0.9748536348342896,0.2227482199668884,0.0021499385270864,0.0046573729222466,0.0218232865438081,0.0087046911939978,0.0013033336726948,0.0061978939920663,-0.064628781247884,0.0986138949729502,-9.811547173261642,14936.0
14.89,0.8000000119209291,158.0,24.55521774291992,0.0954212844371795,-79.78278390877198,40.45904599480636,271.7867554605008,-0.0061553390696644,0.002379227662459,-0.9748361706733704,0.2228250652551651,0.0004390846535715,0.0049665617492606,0.0218289550635003,-0.0041948119178414,-0.0018068891949951,-0.0083752823993563,-0.0658054877165705,0.1279408060759306,-9.809847387671471,14936.0
14.99,0.8000000119209291,156.0,24.567739486694336,0.0795177370309829,-79.7827838510663,40.45904606859058,271.7998680353165,-0.0061503751203417,0.0023629157803952,-0.9748235940933228,0.2228801399469376,0.0033410550911125,0.0090681944943589,0.0216312336233051,0.0041208229959011,0.0001091874510166,-0.0082138245925307,-0.0621548014646396,0.1308692744001746,-9.809773128032685,14936.0
15.19,0.8000000119209291,155.0,24.5539665222168,0.1272283792495727,-79.7827837714131,40.45904615056265,271.81307487487794,-0.0061608608812093,0.0023528202436864,-0.974834144115448,0.2228342443704605,0.0014689597856588,0.0111597363290294,0.0215405452006425,0.0068629393354058,0.0053378143347799,-0.0018576877191662,-0.0721900670556351,0.0968897794838994,-9.810478302240371,14936.0
15.3,0.8000000119209291,154.0,24.55021095275879,0.0795177370309829,-79.78278376652423,40.45904614075803,271.81522207260133,-0.0061593479476869,0.0023774513974785,-0.9748110175132751,0.2229348868131637,0.0010908743654624,0.0121278987331519,0.0215381588923111,-0.0040065282955765,0.00016951856378,-0.0034070229157805,-0.0723032563598826,0.1072006773389876,-9.808690223693848,14936.0
15.49,0.8000000119209291,153.0,24.56022644042969,0.0795177370309829,-79.78278376198394,40.45904612995181,271.8173546075821,-0.0061414563097059,0.0023727705702185,-0.9748135805130004,0.2229241728782653,0.003106958487018,0.0126594951001209,0.021271988697557,0.008855378255248,0.0052649253048002,0.0046907947398722,-0.0620153270987793,0.1092559005506336,-9.810727393627166,14936.0
15.6,0.8999999761581421,151.0,24.552715301513672,0.0795177370309829,-79.78278370814112,40.45904624213645,271.8302191376686,-0.0061316508799791,0.0023705305065959,-0.9747993350028992,0.2229868471622467,0.0032609908815697,0.0076348610978547,0.0209966830198471,0.0084013156592845,0.0023259480949491,0.0095708323642611,-0.0649846665468067,0.0977758062444627,-9.811738961935044,14936.0
15.79,0.8999999761581421,150.0,24.551462173461918,0.0636141896247863,-79.78278363437677,40.45904632218689,271.84272836446763,-0.0061233676970005,0.0023589513730257,-0.9747825860977172,0.2230603545904159,0.0023313152916926,0.0098843703769866,0.021018221149321,0.0024922208394855,-0.0030152534600347,0.0077807521447539,-0.0643554102117195,0.1283791279792785,-9.809619346261025,14936.0
15.89,0.8999999761581421,149.0,24.5539665222168,0.0874695107340812,-79.78278363091022,40.45904631334738,271.84481887817384,-0.0061192247085273,0.0023613746743649,-0.9747868776321412,0.2230415642261505,0.0014816563257341,0.0100382502407418,0.020855363397899,-0.0022362966556102,0.0003385841846466,-0.006178384181112,-0.0618552458658814,0.1313772147148847,-9.80992632508278,14936.0
16.1,0.8999999761581421,149.0,24.56273078918457,0.0795177370309829,-79.78278355815075,40.459046420371536,271.8549778342247,-0.0061201313510537,0.0023506823927164,-0.974767804145813,0.2231252193450928,-0.0001976093243507,0.0090650234296687,0.0209409203711728,-0.0008018371881917,-0.000844836293254,0.0035220887511968,-0.0722779077664017,0.0937739170342683,-9.809860836267472,14936.0
16.2,1.0,151.0,24.55647087097168,0.0795177370309829,-79.78278349806355,40.45904650909507,271.86719702482225,-0.0061054611578583,0.002337438520044,-0.9747812151908876,0.2230672985315323,0.0012594038029473,0.0093007281624323,0.0208936693473905,-0.0079520232975482,0.0001457244507037,2.431442953820806e-05,-0.0726527051534503,0.1016691291052848,-9.808874995708466,14936.0
16.4,1.0,151.0,24.566486358642567,0.1033730581402778,-79.78278349491531,40.45904650091365,271.86926810741426,-0.0061010583303868,0.0023453547619283,-0.9747671484947203,0.2231286466121673,0.0027806726481731,0.0095878427883085,0.020648634949675,0.004051340278238,0.0034305844455957,0.001349797588773,-0.0617923152074217,0.1168050214089453,-9.81054145216942,14936.0
16.5,1.0,151.0,24.5539665222168,0.0954212844371795,-79.78278343580911,40.459046593038174,271.8816045999527,-0.0061016115359962,0.0023345027584582,-0.9747581481933594,0.2231679707765579,0.004097238925942,0.0097148642685293,0.0208725170469347,0.0063790460117161,0.0043010814115405,0.0067745386622846,-0.063103809133172,0.1057415412180125,-9.811381112337113,14936.0
16.7,1.0,150.0,24.557722091674805,0.0874695107340812,-79.78278336327944,40.45904667939887,271.8936638712883,-0.0060975095257163,0.0023255553096532,-0.974765956401825,0.2231340855360031,0.0027951579918175,0.0112433857777008,0.0208607188822192,0.0068291388452053,0.0027939304709434,0.0108819669112563,-0.0675806841161102,0.1237180565670132,-9.809395397901538,14936.0
16.79,1.100000023841858,149.0,24.55021095275879,0.1033730581402778,-79.78278335892956,40.45904666978749,271.89574043750764,-0.0060846614651381,0.0023106855805963,-0.9747481346130372,0.2232122123241424,0.0011579260325364,0.0114015364388256,0.0207442938894127,-0.0084727872163057,-4.2762640077853575e-05,-0.0118989693000912,-0.0668441268056631,0.1279203865025192,-9.808903062343598,14936.0
17.0,1.0,152.0,24.55897521972656,0.0954212844371795,-79.78278335526345,40.45904665908003,271.8978018045425,-0.0060866591520607,0.0023130502086132,-0.9747496843338012,0.2232056111097336,0.0040260278049504,0.0124326186221114,0.0206149612520941,0.0064365132711827,-0.0012998449383303,0.008859016932547,-0.066189700034447,0.0941772470064461,-9.810951926708222,14936.0
17.1,1.100000023841858,152.0,24.561479568481445,0.0795177370309829,-79.78278327271431,40.45904675123139,271.9097909808159,-0.0060948655009269,0.0022848837543278,-0.9747314453125,0.2232855558395385,0.0019635807859312,0.0133704368622915,0.0207042522039356,0.0016040098853409,0.0003704993869177,0.0099872462451457,-0.0691502138413489,0.0919672004878521,-9.810583552122118,14936.0
17.29,1.100000023841858,154.0,24.552715301513672,0.0795177370309829,-79.7827832212193,40.45904685708162,271.9217610836029,-0.0060867560096085,0.0022844630293548,-0.9747348427772522,0.2232706695795059,0.0018088738916032,0.0109286717785354,0.0244431717596307,-0.0016414757119491,-0.0001786863722372,-0.0044557442888617,-0.0619321870012208,0.1307654040958732,-9.809729858636857,14936.0
17.4,1.100000023841858,155.0,24.56398200988769,0.0874695107340812,-79.78278321434526,40.45904683579928,271.92662065029145,-0.0061220545321702,0.0022795563563704,-0.9747222065925598,0.2233250141143798,0.003944828842758,0.0122048474266658,0.0241450741413234,0.0043798731639981,0.0038228756748139,-0.0026791042182594,-0.0612983305519446,0.125153237376362,-9.809338679909708,14936.0
17.6,1.100000023841858,156.0,24.56273078918457,0.0795177370309829,-79.7827831600773,40.45904693713367,271.9385453939438,-0.0061279074288904,0.0022725765593349,-0.974706768989563,0.2233922034502029,0.0056865385406177,0.0113106211928586,0.0229157099563629,0.0060821897350251,0.0011632263194769,0.0030583364423364,-0.0714854867057874,0.1077342723123729,-9.808888444304468,14936.0
17.7,1.100000023841858,154.0,24.5539665222168,0.1033730581402778,-79.78278308103476,40.45904705257005,271.9484524011612,-0.0061278133653104,0.0022684370633214,-0.9747084975242616,0.2233846634626388,9.50141480213562e-05,0.011379290121478,0.0226180178242861,-0.0076773073524236,-0.0012920177541673,-0.0059055453166365,-0.0675446049682796,0.1217783524096012,-9.809293071627616,14936.0
17.89,1.100000023841858,154.0,24.55521774291992,0.0954212844371795,-79.78278307626748,40.45904704258347,271.9506985425949,-0.0061392122879624,0.0022606565617024,-0.9746954441070556,0.223441332578659,0.002879344712984,0.0122233619186776,0.0224882622083842,0.0064513119868934,0.0005109455669298,0.0103865228593349,-0.064481075098738,0.0957660725433379,-9.811755334138873,14936.0
18.0,1.100000023841858,155.0,24.552715301513672,0.1192766055464744,-79.78278302272403,40.45904715585131,271.96232812404634,-0.006131200119853,0.0022446543443948,-0.974686861038208,0.2234792411327362,0.0025593114580386,0.0089476879550764,0.0222048871886089,0.0036374216433614,-0.0024314408656209,0.0076730917207896,-0.0704691858077421,0.0918398316856473,-9.81058822989464,14936.0
18.21,1.100000023841858,156.0,24.56398200988769,0.0874695107340812,-79.7827829697997,40.459047247383225,271.97399007081987,-0.0061351954936981,0.0022392857354134,-0.9746910333633424,0.2234610319137572,0.0042839768830588,0.0116661249240775,0.0219732096721342,-0.0026253557298332,-0.0027932119555771,0.0038381936028599,-0.0622242417186498,0.1305443519353866,-9.80988480985165,14936.0
18.3,1.100000023841858,156.0,24.56523513793945,0.0874695107340812,-79.78278296826706,40.45904723630272,271.9761726140976,-0.0061193783767521,0.0022213861811906,-0.9746772050857544,0.2235217988491058,0.005038902975542,0.0115574775711782,0.0217616131550405,0.0053481482900679,0.0048006339929997,-0.0025828415527939,-0.0627892974531278,0.123059468222782,-9.810178924798969,14936.0
18.5,1.100000023841858,155.0,24.551462173461918,0.0715659633278846,-79.78278296713216,40.459047224618345,271.9783368587494,-0.0061354045756161,0.0022191721946001,-0.9746785163879396,0.2235158085823059,0.0047118177470903,0.01234793560453,0.0216522695303261,-0.0041749845258891,-0.0035480186343193,-0.0005151843652129,-0.0716670838650316,0.1054398522991687,-9.80869373202324,14936.0
18.59,1.2000000476837158,155.0,24.55021095275879,0.0795177370309829,-79.78278291345659,40.45904736864194,271.9895998120308,-0.0061452193185687,0.0022003368940204,-0.9746676087379456,0.2235632091760635,0.0018572201980197,0.0061355756183987,0.021174296526672,-0.007919936440885,-0.0024645191151648,-0.0042063267901539,-0.070200318954885,0.1154046954866498,-9.809398906230928,14936.0
18.8,1.2000000476837158,152.0,24.56523513793945,0.1113248318433761,-79.78278284578906,40.45904747387649,272.0006389498711,-0.0061448165215551,0.0022087714169174,-0.9746687412261964,0.2235583066940308,0.0027676546018004,0.0108648684059263,0.0243286575375645,0.0073762345127761,0.0033313250169157,0.0071935891173779,-0.0636008133273571,0.1024672923143953,-9.81142204284668,14937.0
18.91,1.2000000476837158,152.0,24.561479568481445,0.0874695107340812,-79.78278283799024,40.459047454231296,272.0054607272148,-0.0061382893472909,0.002201787661761,-0.9746593236923218,0.2235994637012481,0.0037511242270427,0.0117957012873769,0.0239866488099011,0.0039120018482208,-0.0008754286100156,0.0105600804090499,-0.0673418573336675,0.0931661903299391,-9.810071336030962,14937.0
19.09,1.2000000476837158,151.0,24.552715301513672,0.0795177370309829,-79.78278277245197,40.45904756380831,272.0185369133949,-0.00614600116387,0.0022081283386796,-0.9746437668800354,0.2236672639846801,0.0016942419177525,0.0123877034653008,0.0256794998293829,-0.0009169470868073,-0.0036206159275025,0.0052365381270647,-0.0729034547740593,0.0936260007508099,-9.809750908613202,14937.0
19.2,1.2999999523162842,150.0,24.55521774291992,0.1033730581402778,-79.78278273649633,40.45904770127047,272.02767305374147,-0.0061399200931191,0.002196486108005,-0.9746508002281188,0.2236366122961045,0.0010160923812862,0.00744462897726,0.0240495647572777,0.0033180634491145,0.0037040868774056,-0.0007212294731289,-0.0621829092130065,0.124825994297862,-9.80814117014408,14937.0
19.4,1.2999999523162842,151.0,24.56523513793945,0.0954212844371795,-79.78278273299254,40.45904769460218,272.0300713658333,-0.0061553157866001,0.0021828452590852,-0.9746336936950684,0.2237108051776886,0.0008643794802233,0.008288514668719,0.0240485392907074,-0.0064249946735799,-0.0021287214476615,0.0010591667378321,-0.0714394444506615,0.1053230907116085,-9.809059767723085,14937.0
19.5,1.2999999523162842,150.0,24.56273078918457,0.1192766055464744,-79.7827826936589,40.45904779364833,272.04377071857454,-0.0061136689037084,0.0021560473833233,-0.9746195673942566,0.2237737327814102,0.0033518431922247,0.0111924157486892,0.0265565217504714,-0.0078030815348029,-0.0039607696235179,-0.0085282269865274,-0.0671107232943177,0.1208277230523526,-9.80970588505268,14937.0
19.7,1.399999976158142,151.0,24.566486358642567,0.0954212844371795,-79.78278265692886,40.45904795984101,272.05562858581544,-0.0061112395487725,0.0021287624258548,-0.9746270775794984,0.2237412929534912,-0.000318860841406,0.0006767619176789,0.0237257208003603,-0.0062478901818394,0.0010889902478083,-0.007420137990266,-0.0651729286182671,0.0978209942579269,-9.811661778688432,14937.0
19.8,1.399999976158142,150.0,24.55521774291992,0.0874695107340812,-79.78278265696822,40.45904795869984,272.05799280405046,-0.0061134113930165,0.0021321550011634,-0.974609911441803,0.223815992474556,0.0020190727215594,0.001422538969259,0.0235937482560275,0.0003215156029909,0.0007764652837067,0.0068379198201,-0.0697287501487881,0.092044630413875,-9.8105905687809,14937.0
20.0,1.399999976158142,153.0,24.56523513793945,0.0795177370309829,-79.78278265762387,40.45904795703693,272.06035088300706,-0.0061017521657049,0.0021306804846972,-0.9746208786964417,0.2237685620784759,0.0013654689405305,0.0009893823838248,0.0235134986902411,-0.0011012782342731,0.0031910992693156,-0.0061351316981017,-0.0621282012015581,0.1294617673661559,-9.809616422653198,14937.0
20.1,1.399999976158142,155.0,24.547706604003903,0.0795177370309829,-79.78278262433506,40.45904807669553,272.0742336988449,-0.0060910871252417,0.0021241409704089,-0.9746115803718568,0.2238097041845321,0.0039800206729975,0.0027224238368511,0.0252138868939514,0.0067610582336783,0.001747075584717,0.0010813232511281,-0.0613803423196077,0.1189794364571571,-9.810656057596209,14937.0
20.3,1.399999976158142,158.0,24.557722091674805,0.0874695107340812,-79.7827825894321,40.45904821707608,272.0844533920288,-0.0060929181054234,0.0021073501557111,-0.974613606929779,0.2238008826971054,0.0016731432396931,0.0013708863334345,0.0241192196607212,-0.0099880574271082,-0.0004991074674762,-0.001737912534736,-0.0706409203587099,0.1131982029788196,-9.808987262248994,14937.0
20.39,1.2999999523162842,161.0,24.557722091674805,0.1033730581402778,-79.7827825937152,40.45904821215768,272.08925412893296,-0.0060830865986645,0.0020806367974728,-0.9746010899543762,0.2238559573888778,0.0025657599211295,0.0014967442407958,0.0239118377017165,-0.0062193027697503,0.0001265923929167,-0.006658230908215,-0.0663019985519349,0.1285040665324777,-9.810268971920014,14937.0
20.49,1.399999976158142,163.0,24.55521774291992,0.0795177370309829,-79.78278253687107,40.45904834083774,272.1018314838409,-0.006092719733715,0.0020886480342596,-0.9745832085609436,0.2239333242177963,0.0017330809192599,0.0053580829980502,0.0266126293260396,0.0046636154875159,-0.0029875447507947,0.0108245536684989,-0.0707337129302322,0.0914736863505095,-9.81066190481186,14937.0
20.7,1.399999976158142,164.0,24.552715301513672,0.0874695107340812,-79.78278250529833,40.45904845564127,272.1171816468239,-0.0060752741992473,0.0020851134322583,-0.9745879173278807,0.2239136546850204,0.0040728798283926,0.0092679660605585,0.0283205386911598,-0.0015151406405493,-0.0052692461758852,0.0026087001897394,-0.0721753622218966,0.0991098393592983,-9.809477258920673,14937.0
20.89,1.399999976158142,168.0,24.55021095275879,0.0795177370309829,-79.78278250481205,40.45904844664986,272.12000249624253,-0.0060572689399123,0.0020925910212099,-0.9745734333992004,0.2239768654108047,0.0052736258597024,0.009021691803714,0.0280909102070537,0.00745121948421,0.0036134743131697,0.0028629987500607,-0.0599208270432427,0.1178876425232738,-9.809862590432168,14937.0
21.0,1.399999976158142,170.0,24.55897521972656,0.0636141896247863,-79.78278250494277,40.45904843722742,272.1228062987328,-0.0060688043013215,0.0021053624805063,-0.9745769500732422,0.2239611148834228,0.0043515706814767,0.0093061011211433,0.0280911791300631,-0.0093624144792556,-0.0012066819472238,-0.0009915301343426,-0.0691517624398693,0.1151989831309765,-9.808603684902192,14937.0
21.09,1.399999976158142,173.0,24.561479568481445,0.0795177370309829,-79.78278245240912,40.459048584649295,272.1379737734795,-0.0060326657257974,0.002089454093948,-0.974564492702484,0.2240163534879684,0.0005220015414783,0.0068535438644591,0.0287690832989578,-0.0081584798172116,0.0016219449462369,-0.0070110415108501,-0.0635366081586107,0.0988295658677816,-9.810840829610823,14937.0
21.29,1.5,174.0,24.54895782470703,0.0954212844371795,-79.78278242139434,40.45904871970028,272.1537513613701,-0.0060351667925715,0.0020898836664855,-0.9745516180992126,0.2240725010633468,0.0027647468221203,0.0066016898475401,0.0293783658161755,-0.0027788379229605,0.006707860622555,-0.0090810405090451,-0.0624704871559515,0.1310928664449602,-9.809638642072676,14937.0
21.41,1.5,175.0,24.551462173461918,0.0795177370309829,-79.78278242112309,40.45904871256072,272.15668605566026,-0.00604834780097,0.0020864533726125,-0.9745526313781738,0.2240674793720245,0.0040643704497756,0.0073306314188408,0.0293180714101359,-0.0027225706726312,-0.0022058601025491,0.0030953735113143,-0.0730532668344676,0.0962628940120339,-9.81099870443344,14937.0
21.61,1.5,175.0,24.547706604003903,0.0954212844371795,-79.78278236624097,40.45904882981996,272.17295109033586,-0.0060370252467691,0.002084145322442,-0.9745392203330994,0.2241262048482895,0.0023950383429846,0.0115136873164671,0.0300359987494283,-0.0070734717883169,6.274112820392476e-05,-0.0007370364619418,-0.073134145704098,0.1049891598802059,-9.809108884334565,14937.0
21.79,1.5,174.0,24.56273078918457,0.0795177370309829,-79.7827823413666,40.459048975413616,272.188499557972,-0.0060362522490322,0.0020574058871716,-0.9745456576347352,0.2240984588861464,0.004405446707926,0.0092327127212368,0.0343168827277676,0.0062795858830213,0.0029491786845028,0.0034705372527241,-0.061391063737683,0.1141612576693296,-9.810953096151351,14937.0
21.9,1.5,174.0,24.545202255249023,0.0954212844371795,-79.7827823395135,40.4590489569944,272.1953496813774,-0.0060323881916701,0.0020404935348778,-0.9745332598686218,0.2241529226303101,0.0059446842334681,0.0094495356967261,0.0340558439148016,0.0074266972951591,0.0025846539065241,0.0031343831215053,-0.0623929795715957,0.1074141738004982,-9.810846676826475,14937.0
22.0,1.5,173.0,24.561479568481445,0.055662415921688,-79.78278229617013,40.45904908699277,272.2096410870552,-0.0060427687130868,0.0020274301059544,-0.974516212940216,0.2242267578840256,0.0029253741298517,0.0111932292098657,0.0358227614345956,-0.0060893329791724,-0.0001265082973986,-0.0091684032231569,-0.0684037756500765,0.1220143971964717,-9.808839327692986,14937.0
22.22,1.5,174.0,24.56273078918457,0.0715659633278846,-79.78278224877903,40.459049231780725,272.2280900359154,-0.0060231233946979,0.0020050082821398,-0.974523901939392,0.2241940200328827,-0.0010637074821277,0.0075200777069391,0.0377224794747438,-0.0059776348061859,-0.0001932435552589,-0.0110494317486882,-0.0665044127125293,0.1261866870615631,-9.80877383887768,14937.0
22.4,1.5,173.0,24.55521774291992,0.1033730581402778,-79.78278224464209,40.45904922538621,272.23184459209443,-0.0060207238420844,0.0019962051883339,-0.9745091199874878,0.2242583781480788,0.0018047270017676,0.0078308718037794,0.0375012321880594,0.0055081867612898,-0.0007328240317292,0.0083680870011448,-0.0656097704451531,0.0959230520110577,-9.810692310333252,14937.0
22.49,1.5,172.0,24.55521774291992,0.0954212844371795,-79.78278224128236,40.45904921879684,272.2355881214142,-0.0059967758134007,0.0019771356601268,-0.9745142459869384,0.2242370843887329,0.0002897098934251,0.007279621516062,0.03743807645788,-0.0066280420869588,0.0002636864082887,-0.0060992264188826,-0.0655863541737198,0.1281086577102542,-9.80962110042572,14937.0
22.7,1.5,174.0,24.55521774291992,0.0954212844371795,-79.78278216947088,40.459049472607326,272.26631145477296,-0.0059939012862741,0.0019398456206545,-0.9745076894760132,0.2242655903100967,0.0022097041226031,0.0097473371431294,0.034288715752094,0.00059244671138,-0.0023446632549166,0.0076201152987778,-0.0632372946711257,0.1304016341920942,-9.811006890535356,14937.0
22.79,1.5,173.0,24.5539665222168,-0.055662415921688,-79.78278216592281,40.459049464365776,272.26973180770875,-0.0059861303307116,0.0019328282214701,-0.9744920134544371,0.224334180355072,0.0016338403129829,0.0089636927623079,0.0342233225589323,0.0011488220188766,-0.0019032880663871,-0.0094083482399582,-0.0630286632757634,0.1306734657660127,-9.809910537600516,14937.0
22.99,1.5,173.0,24.561479568481445,0.0715659633278846,-79.78278216329883,40.459049455936366,272.2731441140175,-0.0059652612544596,0.0019354148535057,-0.9744954705238342,0.2243196666240692,0.0032562270821173,0.0093636139464402,0.034089905913269,-0.0008436398347839,-0.0004385153879411,0.0045139486901462,-0.0722888119099661,0.0933971188031137,-9.809803533554078,14937.0
23.1,1.5,173.0,24.5539665222168,0.0636141896247863,-79.78278213504788,40.45904959866152,272.2903973937035,-0.0059726107865571,0.0018994499696418,-0.9744842648506165,0.2243686318397522,0.0029510065476435,0.0052126825162386,0.0332763031464862,-0.0032364933285862,-0.0041343476623296,0.0063026961870491,-0.0724880740558728,0.0956300973705947,-9.80997544169426,14937.0
23.29,1.5,173.0,24.55647087097168,0.0874695107340812,-79.78278211115452,40.45904974590466,272.3046938657761,-0.0059605683200061,0.0018811395857483,-0.9744964241981506,0.2243163734674453,0.0023260234400848,0.0017034250990964,0.0328415266991564,0.0043393895030021,0.0036485658492892,-0.0005855641211383,-0.0626276904623955,0.1239058800972998,-9.809766111373902,14937.0
23.49,1.399999976158142,174.0,24.56022644042969,0.0874695107340812,-79.78278211435052,40.45904974110217,272.3112508535385,-0.0059588472358882,0.0018630684353411,-0.9744856953620912,0.2243628352880478,0.0043097493722172,0.0011122984658517,0.0326093639198746,0.0101928673684597,0.0059984736144542,0.0053128101862967,-0.0617855589324608,0.1166232095472514,-9.810879421234134,14937.0
23.6,1.399999976158142,173.0,24.56273078918457,0.0874695107340812,-79.78278206570856,40.45904985395135,272.3295089483261,-0.0059515377506613,0.001876225345768,-0.9744801521301272,0.2243872731924057,0.0045878426718005,0.0057044645784701,0.0324884931639193,0.0076336744241416,0.0011808220297098,0.004729542415589,-0.0703205614630133,0.1134515975508839,-9.80884985268116,14937.0
23.7,1.399999976158142,173.0,24.5539665222168,0.0874695107340812,-79.78278201104358,40.45905001210055,272.3450432300568,-0.0059485831297934,0.0018749432638287,-0.9744877815246582,0.2243540734052658,-0.0025283945160182,0.0032219968901745,0.0324007442396271,-0.0053674601949751,-0.0006082872278057,-0.0075047384016215,-0.0684223359916359,0.1231664996780455,-9.807963414788247,14937.0
23.9,1.399999976158142,171.0,24.56523513793945,0.0795177370309829,-79.78278200758194,40.459050009846656,272.3482712984085,-0.0059508495032787,0.0018687926931306,-0.9744733572006226,0.2244166284799576,0.0003491920161072,0.0032554485994106,0.0321871153223273,0.0099697075784206,0.0024047312326729,0.0093513820320367,-0.0659690772788599,0.0966594996862113,-9.810196466445923,14937.0
23.99,1.399999976158142,171.0,24.552715301513672,0.0795177370309829,-79.78278200514771,40.45905000765234,272.3514773130417,-0.005945794750005,0.0018579249735921,-0.9744806289672852,0.2243856340646744,-0.0011159077739315,0.0024638901166392,0.0320068349016659,-0.0050034672021865,0.0009331221808679,-0.0107370298355817,-0.0653695914940908,0.1295495486911386,-9.808779101371766,14937.0
24.2,1.2999999523162842,170.0,24.54895782470703,0.0795177370309829,-79.78278193130043,40.45905026511287,272.38605480194093,-0.0059462576173245,0.0018173510907217,-0.9744732975959778,0.2244173139333725,0.0024925672862009,0.0055103261434744,0.0319155539945889,-0.0008513050852343,0.00148312211968,0.0042806332930922,-0.0614762457925826,0.1296519023738801,-9.809095435738564,14937.0
24.3,1.2999999523162842,170.0,24.55647087097168,0.0954212844371795,-79.78278193084296,40.4590502600506,272.3892320871353,-0.0059273284859955,0.0018119951710104,-0.9744597077369692,0.2244772762060165,0.0031309116807182,0.0045459369000814,0.0316312728980985,0.0047941617667675,0.0016547141131013,0.0004598605155479,-0.0621119569055736,0.1231601682398468,-9.808765652775763,14937.0
24.49,1.2000000476837158,171.0,24.55647087097168,0.0795177370309829,-79.78278193155694,40.45905025503557,272.392387676239,-0.0059421048499643,0.0018141063628718,-0.9744630455970764,0.2244620472192764,0.0031608016088287,0.0044630081558809,0.0315155729853788,-0.0058383950963616,-0.0015710380394011,0.0003954158746637,-0.0724589110678061,0.1068792723398655,-9.80819905757904,14937.0
24.6,1.2000000476837158,171.0,24.547706604003903,0.0715659633278846,-79.7827818988521,40.45905041693303,272.4116479635239,-0.0059597832150757,0.0017816852778196,-0.9744571447372437,0.2244873344898224,0.0016501610683114,0.0002221668770586,0.0314955764284694,-0.0089382408186793,0.0014640296576544,-0.0058756885118782,-0.0675120478542521,0.1190750658418983,-9.808812430500984,14937.0
24.69,1.2000000476837158,171.0,24.55647087097168,0.0874695107340812,-79.78278186237716,40.459050558599685,272.4283234357834,-0.0059674610383808,0.0017642822349444,-0.9744670987129213,0.2244440466165542,0.0043135980905576,0.0016356341163863,0.0317892488515199,0.0103076752275228,0.001530033769086,0.0099999504163861,-0.0641652706358581,0.0988108090963214,-9.811876956224443,14937.0
24.99,1.2000000476837158,170.0,24.55021095275879,0.0874695107340812,-79.78278186830183,40.45905055409779,272.4346642971039,-0.0059512583538889,0.0017324828077107,-0.9744549989700316,0.2244977205991745,0.0055097543669407,0.0006235802391947,0.0315113721267512,0.0028679587412625,0.0010238835820928,0.0100553920492529,-0.067592177549377,0.0923073896672576,-9.809936850070956,14937.0
25.09,1.2000000476837158,168.0,24.54645347595215,0.0954212844371795,-79.78278183461387,40.45905069079612,272.45413439273835,-0.0059583880938589,0.0017331435810774,-0.974442720413208,0.2245505601167678,0.005804016152472,0.0009321618966477,0.031553991074946,0.0014336318708956,-0.0039361706003546,0.0070193191058933,-0.0624197762645781,0.1308384029287845,-9.80943398952484,14937.0
25.21,1.2000000476837158,167.0,24.551462173461918,0.0874695107340812,-79.78278178284694,40.45905081907576,272.4708391904831,-0.0059450748376548,0.0017404077807441,-0.9744479060173036,0.224528431892395,0.0035111735570592,0.0051645527665925,0.0318716644674388,0.0030947991181164,0.0015973198460415,-0.0059150126762688,-0.0610941896354779,0.1283533636853099,-9.809205948114396,14937.0
25.29,1.2999999523162842,168.0,24.55897521972656,0.0954212844371795,-79.78278178371126,40.459050813275965,272.4740220785141,-0.0059559252113103,0.0017395409522578,-0.974430501461029,0.2246037125587463,0.004488271012018,0.0050779955627489,0.0317704763896322,-0.002787954872474,-0.0024552557151764,0.0046627549454569,-0.0722555787116289,0.0983548085018992,-9.809464395046234,14937.0
25.51,1.2999999523162842,169.0,24.56398200988769,0.1033730581402778,-79.78278172537594,40.45905095220189,272.4940927505493,-0.0059600789099931,0.001753396471031,-0.9744173288345336,0.2246606796979904,0.0013707790646599,0.0061200243114216,0.031895002709647,-0.0072768270038068,-0.00106147385668,-0.0004538384673651,-0.0723307245690375,0.1045386684592813,-9.808238233923912,14937.0
25.7,1.2999999523162842,169.0,24.54895782470703,0.0795177370309829,-79.78278166177509,40.45905109240208,272.51447265148164,-0.0059546935372054,0.0017819160129874,-0.9744272232055664,0.2246174663305282,-0.0010996932109084,0.0062618791128594,0.032207770679712,-0.0054854829795658,-0.0024910713545978,-0.0034207494463771,-0.061439887988381,0.1122493369225412,-9.810312241315842,14937.0
25.8,1.2999999523162842,169.0,24.5539665222168,0.0874695107340812,-79.7827816583472,40.45905108731513,272.51767389774324,-0.0059471819549798,0.001789710484445,-0.9744113683700562,0.2246864736080169,0.0017196098714382,0.0059071467922127,0.0318976496867965,0.0091138491407036,0.0024175005964934,0.0087123345583677,-0.0644560142979025,0.0995449727028608,-9.810589399337768,14937.0
25.99,1.399999976158142,167.0,24.56398200988769,0.0874695107340812,-79.78278165606756,40.459051082409054,272.5208619117737,-0.0059274537488818,0.001788115943782,-0.974416434764862,0.2246648967266082,0.0002676441213425,0.0050762696547206,0.0319273377726603,-0.006359735969454,8.11949503258802e-05,-0.0066353823058307,-0.0660160057526081,0.1288279291894287,-9.810349663496018,14937.0
26.1,1.5,168.0,24.55897521972656,0.0715659633278846,-79.78278162286942,40.45905123592353,272.538876581192,-0.0059330179356038,0.0018116319552063,-0.9744055271148682,0.2247119247913361,0.0014579932049624,0.0014975665615833,0.0290856208307166,-0.0015321391401812,-0.0022991145960986,-0.0062900111079216,-0.0619989960081875,0.1308122731838375,-9.810097063779832,14937.0
26.19,1.600000023841858,167.0,24.55647087097168,0.0795177370309829,-79.78278158323994,40.459051359388624,272.5561604976654,-0.0059438282623887,0.0018184984801337,-0.9744086861610411,0.2246977686882019,0.0047422136395684,0.0057796937263765,0.0302564535633704,-0.0019363446626812,-0.0017099149990826,0.0046829869970679,-0.0724818157078698,0.0938863845728337,-9.810851354599,14937.0
26.5,1.7000000476837158,167.0,24.551462173461918,0.0874695107340812,-79.78278158779571,40.459051347310535,272.5621957063675,-0.0059579838998615,0.0018205344676971,-0.9743965268135072,0.2247503995895385,0.005574244381741,0.004665472347673,0.0300108969040967,-0.0044666770845651,-0.0040295287035405,-0.0007772460812702,-0.0732188298320397,0.1007415322959423,-9.809089003801349,14937.0
26.59,1.7000000476837158,169.0,24.557722091674805,0.0715659633278846,-79.7827815171409,40.45905148658829,272.579304265976,-0.00595721649006,0.0018221350619569,-0.9743855595588684,0.2247979193925857,0.0021336682708669,0.005931666490594,0.0308796264268158,0.0061035309918224,0.0054547237232327,0.0030834507197141,-0.061099648559466,0.1177874175924807,-9.811133190393448,14937.0
26.69,1.7000000476837158,171.0,24.551462173461918,0.0795177370309829,-79.78278147334565,40.45905163916368,272.5995150089264,-0.005970281548798,0.0017965259030461,-0.9743934869766236,0.2247634083032608,0.00227294168458,0.0014763147478155,0.0310075104863542,0.0087006874382495,0.000366882974049,0.0066236201673746,-0.0633791353320702,0.1057274896278977,-9.81004443883896,14937.0
26.89,1.7999999523162842,173.0,24.55021095275879,0.0954212844371795,-79.78278147362745,40.45905163766556,272.6026114702225,-0.0059589860029518,0.0018007152248173,-0.9743760824203492,0.2248388379812241,0.0008034803658121,0.000735977925286,0.0309226272616604,-0.0076058516278862,-0.001282503711991,-0.0075250752270221,-0.0679945801896974,0.1244270040560513,-9.808717705607414,14937.0
27.0,1.7999999523162842,173.0,24.56022644042969,0.0874695107340812,-79.78278147511232,40.4590516361771,272.60569350719453,-0.0059693395160138,0.0018181357299909,-0.974385380744934,0.224798172712326,0.0036572184082432,0.000731282357856,0.0307323703476978,0.0054787318222224,0.000186781398952,0.0112238340079784,-0.0653540461231023,0.0963050122372806,-9.8110162460804,14937.0
27.09,1.7999999523162842,171.0,24.547706604003903,0.0715659633278846,-79.78278143191369,40.45905176621708,272.6238296508789,-0.0059673078358173,0.0018186356173828,-0.9743725657463074,0.2248537987470626,0.0044303217127516,0.0011280987546286,0.028816916810488,0.0029712894465774,-0.003376567736268,0.0098056681454181,-0.0681876799184829,0.0904855617228895,-9.810916843414306,14937.0
27.3,1.7999999523162842,172.0,24.54895782470703,0.0874695107340812,-79.78278138896452,40.45905190864298,272.64172105789186,-0.005972746759653,0.0018228624248877,-0.9743648171424866,0.224887415766716,0.0037824430674318,-0.0008727996339422,0.0265234164229893,-0.0009363922290503,-0.0021388893947005,0.0053790779784321,-0.0721146562462672,0.0928428118955344,-9.809929833412172,14937.0
27.5,1.8999999761581416,171.0,24.552715301513672,0.0795177370309829,-79.78278139322585,40.45905190825866,272.6443673849106,-0.0059614274650812,0.0018352689221501,-0.974371075630188,0.2248604744672775,0.0038565858100514,-0.0018660317205455,0.0263316932525007,0.005114602856338,0.0016608516452834,-0.006268055178225,-0.0628140795975923,0.1271644785627722,-9.808786118030548,14937.0
27.6,1.8999999761581416,171.0,24.552715301513672,0.0636141896247863,-79.78278135114877,40.45905202795215,272.66193346977235,-0.0059651988558471,0.0018247722182422,-0.9743661880493164,0.2248816639184952,0.0059362536237265,0.0003626237905307,0.0243792020255294,0.004243638832122,0.0033471591304987,0.0017915865173563,-0.0615593584813177,0.1211216735467314,-9.808656309843064,14937.0
27.7,1.7999999523162842,169.0,24.551462173461918,0.0715659633278846,-79.78278129903256,40.45905216736517,272.67711143493653,-0.0059658125974237,0.001835792325437,-0.9743701219558716,0.2248642593622208,0.0029214216969836,-0.001029454667509,0.0238190458557879,-0.0074616749770939,-0.0035423496738076,-0.0026886251289397,-0.070943212271668,0.1067123069241643,-9.808573279380797,14937.0
27.89,1.7000000476837158,169.0,24.547706604003903,0.0795177370309829,-79.78278130870768,40.45905216643925,272.68186180591584,-0.0059554507024586,0.0018421476706862,-0.9743594527244568,0.224910631775856,0.0039975287140298,-0.0018876141504649,0.0236627307161405,-0.0119261341169476,-0.0029149258043617,-0.0060502998530864,-0.0694682749640196,0.1147424526326358,-9.808737586140632,14937.0
28.1,1.7000000476837158,167.0,24.56273078918457,0.0795177370309829,-79.7827812617804,40.45905229739603,272.6966121673584,-0.0059709916822612,0.0018388179596513,-0.9743453860282898,0.2249716073274612,0.0047992415801747,-0.0026597719422955,0.0231622021999257,0.0075361467897892,-0.0001086980118998,0.0093992929905653,-0.0637443350628018,0.1052689582854509,-9.81210733652115,14937.0
28.2,1.7000000476837158,166.0,24.55521774291992,0.0874695107340812,-79.78278120017389,40.45905241165768,272.71352224349977,-0.0059736790135502,0.0018582455813884,-0.9743599891662598,0.2249078154563904,0.0027512997156814,0.0012716695507173,0.0226359773408811,0.0076396143995225,0.001898972201161,0.0100938901305198,-0.0657005713088438,0.0964438562002033,-9.810231549739838,14937.0
28.39,1.600000023841858,165.0,24.551462173461918,0.0874695107340812,-79.78278120118088,40.4590524102017,272.71578459739686,-0.0059774024412035,0.0018589898245409,-0.9743449687957764,0.2249727696180344,0.001372316353105,0.0004579877017659,0.0225815268176825,-0.0048764147795736,-0.0008229648810811,-0.0077901990152895,-0.0654584006499499,0.1311201199516654,-9.809946205615995,14937.0
28.5,1.600000023841858,165.0,24.561479568481445,0.0874695107340812,-79.78278120335864,40.45905240862467,272.71804265975953,-0.0059902048669755,0.0018640015041455,-0.9743517637252808,0.2249430418014526,0.0038611688820138,0.0007546481057466,0.022517055884939,0.0048956428654491,0.0006208361592143,0.007275165989995,-0.0696162414969876,0.0920833408087492,-9.810445557832717,14937.0
28.59,1.600000023841858,163.0,24.545202255249023,0.0715659633278846,-79.78278118578771,40.459052517859504,272.7344950914383,-0.0060174670070409,0.0018711920129135,-0.9743409752845764,0.2249889075756073,0.0079033054344765,0.0007343070956545,0.0218733440734916,0.001112766447477,-0.0025331708602607,0.0054802107624709,-0.071690883859992,0.0930166934709996,-9.809629871249198,14937.0
28.8,1.600000023841858,164.0,24.56273078918457,0.055662415921688,-79.7827810962043,40.45905264794133,272.7504841566086,-0.006030065473169,0.0018675283063203,-0.9743374586105348,0.2250037342309952,2.012625570210822e-05,0.0011958114925978,0.0213863742745505,-0.0046933274716138,-0.0019844672642648,0.0037725560832768,-0.0717968280985951,0.0986246849130839,-9.808924112319945,14937.0
28.99,1.5,163.0,24.54895782470703,0.0715659633278846,-79.78278109597659,40.45905264710693,272.7526106119156,-0.0060345805250108,0.0018752223113551,-0.9743427038192748,0.2249811440706253,0.0010380626727358,0.000400071053755,0.0211353164900834,0.0054252441041171,0.0032162435818463,0.0010936761973425,-0.063311874079518,0.121795802693814,-9.809281377196312,14937.0
29.09,1.5,164.0,24.543949127197266,0.0715659633278846,-79.78278103341087,40.459052733774655,272.76783220767976,-0.006051667034626,0.0018909978680312,-0.974331557750702,0.2250284999608993,0.0030917122249858,0.0049881437741578,0.0212127681062113,0.0081255435943603,0.0025864359922707,0.0028462011832743,-0.062448085010983,0.1152394659630954,-9.811011568307876,14937.0
29.29,1.5,163.0,24.54269790649414,0.0715659633278846,-79.78278096738141,40.45905283374217,272.7825510978699,-0.0060619958676397,0.0018883181037381,-0.9743242859840392,0.2250598967075348,0.0019909926663732,0.0063396298426821,0.0211653011473807,0.0083771748468279,0.0019772378727793,0.0076810829341411,-0.0702967386273667,0.1159358693473041,-9.807900849580763,14937.0
29.49,1.5,161.0,24.56273078918457,0.0874695107340812,-79.78278096513337,40.459052828320814,272.78465883731843,-0.0060899886302649,0.0019018293824046,-0.9743267297744752,0.2250482589006424,0.00025387140037,0.0058357187659967,0.0210998868110027,-0.0067676487378776,-0.001798114972189,-0.0081579601392149,-0.0672921697050333,0.1221709746681153,-9.809678403139117,14937.0
29.59,1.399999976158142,160.0,24.551462173461918,0.0874695107340812,-79.78278091743661,40.45905293030442,272.79656319618226,-0.0060895103961229,0.0019066891400143,-0.9743136763572692,0.225104883313179,0.0035400035642155,0.0061549189283365,0.0210016396972871,0.0053252819925546,0.0040298388339579,0.0100108105689287,-0.0655376441264525,0.0964900217950344,-9.81,14937.0
29.71,1.5,161.0,24.541446685791016,0.0715659633278846,-79.78278084341575,40.45905302523946,272.8101810693741,-0.0061058937571942,0.0018952955724671,-0.9743222594261168,0.2250674962997436,0.0009494648360524,0.0076415380444144,0.0211953474623418,0.0022787891793996,0.0015651055146008,0.0138401063159108,-0.0678485551150515,0.092934631453827,-9.810057302713394,14937.0
29.89,1.600000023841858,162.0,24.545202255249023,0.0874695107340812,-79.78278083928934,40.45905301939271,272.8122883319855,-0.0061090858653187,0.0018926067277789,-0.9743099808692932,0.2251204848289489,-0.0003881368370492,0.0068021975899027,0.0210352626894248,-0.0021574248094111,0.0034861720632761,-0.0098599949851632,-0.0640811209799721,0.1316033740527928,-9.809306520223618,14937.0
30.0,1.600000023841858,162.0,24.5539665222168,0.0715659633278846,-79.78278083597179,40.45905301352986,272.8143855810165,-0.0061251753941178,0.0018889927305281,-0.9743164181709292,0.2250922322273254,0.0014287032096718,0.0071643900608792,0.0209697211983954,0.0016997223719954,0.0014634715626016,0.0089228190481662,-0.0613171421410515,0.1302510318439454,-9.809315291047096,14937.0
30.09,1.600000023841858,163.0,24.54645347595215,0.0636141896247863,-79.78278076558472,40.45905309054783,272.82700328826905,-0.0061366269364953,0.0019264108268544,-0.9743010997772216,0.2251580357551574,0.0008751711841166,0.0095903575343706,0.0211090826178334,-0.0028400162700563,-0.0017370249843224,0.003947019111365,-0.0720870464248582,0.0973806441016495,-9.810718038082122,14937.0
30.3,1.5,166.0,24.55021095275879,0.1351801604032516,-79.78278069055473,40.459053148222814,272.84070353508,-0.0061389156617224,0.0019507141551002,-0.9742839932441713,0.2252317070960998,0.0013743164356822,0.0148428078724059,0.0240099157146734,-0.0050215986557304,-0.0010523938108235,-0.0008938874816522,-0.0716106902109459,0.1058854284044355,-9.808180346488951,14937.0
30.49,1.7000000476837158,164.0,24.551462173461918,0.1510837078094482,-79.78278068497511,40.45905313548637,272.84308032989503,-0.0061383112333714,0.001953171333298,-0.9742910861968994,0.2252011299133301,0.0030504050427963,0.0146703273548297,0.0237178747155811,0.0071637360379099,-0.0008940886473283,0.0054675205610692,-0.0598253849521279,0.1124721249751746,-9.810246752500532,14937.0
30.61,1.7000000476837158,165.0,24.541446685791016,0.1351801604032516,-79.78278061098798,40.459053225872566,272.8540508031845,-0.0061267167329788,0.0019777044653892,-0.9742771983146667,0.2252613008022309,0.0014461158608028,0.0132241478467505,0.0228256779411802,0.0057207019999623,0.0030316116753965,0.0065520964562892,-0.0643894565384835,0.1058808145858347,-9.8113998234272,14937.0
30.79,1.7000000476837158,164.0,24.540193557739247,0.1749390214681625,-79.78278054040135,40.459053326266535,272.8621592998505,-0.0061206771060824,0.0019658277742564,-0.9742804765701294,0.225247249007225,-0.0029640545365145,0.0120334437811684,0.0222405320884842,-0.0063211824744939,-0.0020740502513945,-0.0063695074059069,-0.0688608314841985,0.1225121414288878,-9.807948796749118,14937.0
31.0,1.7999999523162842,165.0,24.551462173461918,0.1828908026218414,-79.78278052412202,40.45905330780223,272.8665525197983,-0.0061387014575302,0.0019873755518347,-0.9742671251296996,0.2253043502569198,-0.0023455743741996,0.0117904071210337,0.0220232820711472,-0.0086349109187722,-0.0024317011702805,-0.010231789201498,-0.0672655831463635,0.1243262674938887,-9.809536900520325,14937.0
31.09,2.0,169.0,24.543949127197266,0.1590354740619659,-79.78278048004569,40.45905339940689,272.8734971761704,-0.0061658076010644,0.0019939867779612,-0.9742531776428224,0.2253636717796325,0.0013536020735995,0.0106031536211534,0.0217239079176492,0.005351155065,0.0017789477715268,0.0103588998317718,-0.0664678676147013,0.0944097560551017,-9.811625525951388,14937.0
31.2,2.0,168.0,24.543949127197266,0.1749390214681625,-79.78278042556269,40.459053495037175,272.8818042755127,-0.0061592748388648,0.0019753545057028,-0.9742668271064758,0.2253051251173019,0.0010932216883631,0.0067457725207025,0.0211466324326377,0.0054726926609873,-0.0009724285337142,0.0081004574894905,-0.0698579781828448,0.0928155675251037,-9.808839327692986,14937.0
31.29,2.0,170.0,24.541446685791016,0.1828908026218414,-79.78278042225497,40.45905348977551,272.88390080928804,-0.0061697829514741,0.0019801778253167,-0.974254846572876,0.2253565341234207,-3.792562415169872e-05,0.0061153319745588,0.0208931228954949,-0.0031024743802845,-0.0013381254393607,-0.0075822598300874,-0.0620585097000002,0.1303402201551944,-9.809066199660302,14937.0
31.5,2.0,171.0,24.541446685791016,0.1431319266557693,-79.78278041948413,40.45905348430811,272.8859824419022,-0.0061984923668205,0.0019873103592544,-0.974257469177246,0.2253442108631134,0.0012688213697537,0.0066385951227485,0.020797190402556,-0.0023082967381924,-0.001144855748862,0.0060714338906109,-0.0724448594776913,0.0939251406490802,-9.80967781841755,14937.0
31.7,2.0999999046325684,174.0,24.55647087097168,0.1590354740619659,-79.78278027005874,40.459053624034745,272.8975481271744,-0.0062418202869594,0.0020313300192356,-0.9742551445961,0.2253527343273163,0.0016750247475542,0.0132791727424793,0.0203399634414639,0.0066982936114072,0.0004278332635294,0.0078808786347508,-0.0724253900768235,0.1079797640070319,-9.808104917407038,14937.0
31.79,2.200000047683716,173.0,24.551462173461918,0.1590354740619659,-79.78278026361475,40.45905361308815,272.8995740890503,-0.0062479404732584,0.0020508028101176,-0.9742391705513,0.2254215031862259,-0.0002856058576329,0.0131712963578953,0.0203151505245818,-0.0064768851734697,0.0010334288235753,-0.0074690980836749,-0.0677771962434053,0.1248500592447817,-9.808813015222553,14937.0
31.99,2.200000047683716,173.0,24.5539665222168,0.1351801604032516,-79.78278025743288,40.45905360184472,272.90158145427705,-0.0062509849667549,0.0020583497826009,-0.9742476940155028,0.2253844738006592,0.0020907938187911,0.0137346700346515,0.020065320165286,0.0057493597269058,-0.0010038528125733,0.0086421640589833,-0.0683384010381996,0.0920030603650957,-9.809352713227272,14937.0
32.1,2.200000047683716,174.0,24.545202255249023,0.1669872552156448,-79.78278016523814,40.45905365021765,272.91010026931764,-0.0062691187486052,0.0020812156144529,-0.9742385745048524,0.2254232466220856,-0.0004204868945655,0.0191919320708116,0.024888443015065,-0.005132008343935,-0.0045093744993209,0.0036160135641694,-0.0724569330643862,0.0975671154633164,-9.808211921453475,14937.0
32.29,2.299999952316284,175.0,24.547706604003903,0.1828908026218414,-79.78278010268014,40.459053744382416,272.91330270767213,-0.0062674731016159,0.0020829380955547,-0.9742485880851746,0.2253798693418503,-0.0018378027546361,0.0164616716534113,0.0263826844470853,0.0063142320141196,0.0008479125681333,0.0012644074158743,-0.0608720593946054,0.11997213835828,-9.80938370347023,14937.0
32.49,2.200000047683716,176.0,24.551462173461918,0.1749390214681625,-79.78278007994136,40.45905371893382,272.9185268163681,-0.0062860809266567,0.0020845672115683,-0.9742372632026672,0.225428506731987,-0.0008804065456596,0.0171322900071544,0.0260014974424607,0.006623710040003,0.0025712305214256,0.0092395497485995,-0.0629698485089466,0.1038788010366261,-9.809378440976143,14937.0
32.6,2.0999999046325684,177.0,24.53643798828125,0.1510837078094482,-79.78278000779748,40.45905380123065,272.92113893032075,-0.0063278418965637,0.0020775946322828,-0.9742309451103208,0.225454643368721,-0.0019329025779272,0.0156735766804668,0.0235463801802304,0.0083134416490793,-0.0037054892163723,0.0101324608549475,-0.0667667014477774,0.1262111448682844,-9.808905985951425,14937.0
32.7,2.0999999046325684,178.0,24.54269790649414,0.1828908026218414,-79.78277998077488,40.45905391560221,272.92041008472444,-0.0063309888355433,0.0020651421509683,-0.9742372035980223,0.2254276126623153,-0.0025754407748057,0.0067513797872009,0.0214208173048496,-0.000218647881411,-0.0008327807299792,-0.0106539102271199,-0.0641945752361789,0.131459989361465,-9.809764357209207,14937.0
32.79,2.0999999046325684,179.0,24.53268241882324,0.1510837078094482,-79.78277997494084,40.45905391050464,272.9225395202637,-0.0063414899632334,0.0020826528780162,-0.9742190837860109,0.2255055159330368,-0.0011924529654687,0.0075999171056617,0.021291454101692,-0.0019303688313812,-0.0033708116970956,0.0089120930060744,-0.0721422203863039,0.0913874947372824,-9.808958026170734,14937.0
32.99,2.0999999046325684,179.0,24.53017807006836,0.1113248318433761,-79.78277995657794,40.4590539940398,272.92328708171846,-0.0063284016214311,0.002097965683788,-0.9742045402526855,0.2255685776472092,0.0020846060018043,0.0035366289426787,0.0202533691524102,-0.0048408578149974,-0.0014995840610936,0.0040196580812335,-0.0718573376443237,0.0999877256993204,-9.808935222029689,14937.0
33.2,2.0999999046325684,179.0,24.53894233703613,0.1749390214681625,-79.7827799570031,40.45905399030631,272.9253026723862,-0.0063229533843696,0.0021150694228708,-0.9742145538330078,0.2255252152681351,0.0029424694883592,0.0033470135053005,0.0200741317405878,0.0052790357731282,0.0002843234688043,0.0013700544368475,-0.0624432153766974,0.1185517765861004,-9.810689971446992,14937.0
33.29,2.0999999046325684,179.0,24.54645347595215,0.1749390214681625,-79.7827799000641,40.45905406607642,272.92196290493007,-0.0063577806577086,0.00211644731462,-0.9742184281349182,0.2255073338747024,-0.0005864907497681,0.0061051927448267,0.0170967261947555,-0.0074975225143134,-0.0006602980429306,-0.0013318168930709,-0.071515307505615,0.1111011264938861,-9.8072272503376,14937.0
33.49,2.0999999046325684,179.0,24.55897521972656,0.1033730581402778,-79.78277989373957,40.45905405549927,272.9253275871277,-0.0063464427366852,0.0021519581787288,-0.9742104411125184,0.2255420237779617,-0.0007389795515295,0.0065694388010737,0.0167276279287286,-0.0077944989316165,-0.0011371410218998,-0.0078301969915628,-0.0683423296362161,0.1240791038610041,-9.808332374095915,14937.0
33.6,2.0,178.0,24.547706604003903,0.0715659633278846,-79.7827798467666,40.45905410503791,272.9219862699509,-0.0063151973299682,0.0021462282165884,-0.9741964936256408,0.2256032079458237,0.0021701693228722,0.0104987781606385,0.0136507114433367,-0.0054380069486796,0.0011393119348213,-0.0075261313468217,-0.0629635718883946,0.1301317760534584,-9.808715366721154,14937.0
33.79,2.0,176.0,24.55021095275879,0.0954212844371795,-79.78277980598044,40.45905422254715,272.9164891719818,-0.0063367374241352,0.0021444570738822,-0.9742010831832886,0.2255826145410537,-0.0005778615106943,0.0016555791305484,0.0113954010740868,0.0002801884256768,-0.0003271645982749,0.0074704578146338,-0.0714502480952069,0.0918277992121875,-9.809179050922396,14937.0
33.99,2.0,176.0,24.54895782470703,0.0954212844371795,-79.78277980230095,40.45905422068697,272.9187320947646,-0.0063458434306085,0.002155338646844,-0.9741878509521484,0.2256395369768143,-0.0011765971891075,0.0021412020490711,0.0112028017973,-0.0043803742155432,-0.003694072831422,0.0006818500114604,-0.0721507810754701,0.1057776112295687,-9.809141044020654,14937.0
34.09,2.0,176.0,24.547706604003903,0.0874695107340812,-79.78277976262649,40.4590542697232,272.9141494512558,-0.0063344114460051,0.0021750989835709,-0.974182903766632,0.2256610840559005,5.065386946096798e-05,0.0058396539694521,0.010417039119129,-0.0090687051415443,-0.00101552112028,-0.0064140660688281,-0.0628389531048014,0.1106504980288446,-9.811455956697465,14937.0
34.2,2.0,175.0,24.545202255249023,0.0874695107340812,-79.78277972622814,40.45905434774561,272.90755717754365,-0.0063368179835379,0.0021830492187291,-0.974191188812256,0.2256253659725189,0.001305426608284,0.0036576541562766,0.0097050567060176,0.0072603477165102,-0.0011510014301165,0.013136962428689,-0.0672495170077309,0.0925576230883598,-9.809834523797038,14937.0
34.29,1.8999999761581416,173.0,24.55521774291992,0.0874695107340812,-79.78277972476788,40.45905434486235,272.908518242836,-0.0063251568935811,0.002205180702731,-0.9741788506507874,0.2256785482168197,-0.0001823516712788,0.0033615441941314,0.0095672328585278,-0.0012739951489493,-0.0010403821943327,-0.0060342848300933,-0.0619320819340646,0.1304814304132014,-9.809822244644163,14937.0
34.49,1.8999999761581416,171.0,24.56273078918457,0.1033730581402778,-79.78277968484956,40.45905441507558,272.90197520256044,-0.0063038654625415,0.0022325117606669,-0.9741657376289368,0.2257355153560638,3.872072882349635e-05,0.0026761747949272,0.0088986694613767,0.002552788471803,0.000495403073728,-0.0018782858969643,-0.0636101003503426,0.1237935678754002,-9.809127595424652,14937.0
34.6,1.8999999761581416,171.0,24.557722091674805,0.0874695107340812,-79.78277968305481,40.45905441248821,272.9028596162796,-0.0063278791494667,0.0022434517741203,-0.9741687774658204,0.2257214933633805,-0.0003572468982283,0.0036359659217456,0.0088544738149513,-0.0043891407549381,-0.0031272454652935,-0.0016965451650321,-0.0724974661460146,0.1024816545378416,-9.80899135529995,14937.0
34.8,1.8999999761581416,169.0,24.561479568481445,0.1113248318433761,-79.78277964616103,40.45905448225996,272.8953044891357,-0.0063343662768602,0.0022689567413181,-0.9741557836532592,0.225777193903923,-0.0009708065621851,0.0028142220130294,0.0082336016878426,-0.0076653370633721,-0.0002473283675499,-0.0078319767490029,-0.0714677303563803,0.1149396134354174,-9.807702628970146,14937.0
34.99,2.0,167.0,24.55897521972656,0.0795177370309829,-79.78277964436344,40.459054479674734,272.8961164236069,-0.0063252761028707,0.0022797749843448,-0.9741613864898682,0.2257529944181442,0.001187634204077,0.0034805389517925,0.0080579327251073,0.0115967215970158,0.0027697598561644,0.0075171017087996,-0.0653754067327827,0.1037715046294033,-9.810368374586108,14937.0
35.1,2.0,166.0,24.54645347595215,0.0795177370309829,-79.78277964036424,40.45905454231496,272.8858461856842,-0.0063408860005438,0.002306890906766,-0.974150002002716,0.2258014380931854,0.0045480810070802,0.0020963831534932,0.0042233022343101,0.0048014824278652,0.002286983653903,0.0091507155448198,-0.0671782083855942,0.0929224527999758,-9.810275988578796,14937.0
35.2,2.0,166.0,24.55897521972656,0.0715659633278846,-79.7827796096432,40.45905462293022,272.8746973752976,-0.0063333646394312,0.0023101391270756,-0.9741531610488892,0.2257883846759796,-0.0005767502956537,-0.0024980970631235,0.0017096021692735,-0.0039050357881933,-0.0002756761678028,-0.0060772821307182,-0.0616112707927823,0.1297473398968577,-9.80984154045582,14937.0
35.49,2.0999999046325684,163.0,24.547706604003903,0.0874695107340812,-79.78277961213789,40.45905462541901,272.8749990940094,-0.0063337213359773,0.0023349057883024,-0.9741352200508118,0.2258651405572891,0.0005558898783539,-0.0012055837157189,0.0012138430372135,0.0049963374622166,0.0027522861491888,-0.0044367224909365,-0.0628303695749491,0.1264079402200877,-9.807286891937256,14937.0
35.59,2.0999999046325684,162.0,24.54645347595215,0.0715659633278846,-79.78277958263256,40.459054667215646,272.86279838085176,-0.0063417628407478,0.0023561781272292,-0.9741151928901672,0.2259511798620224,0.0023356552093848,0.0038962288285861,-0.00013231976204,-0.0016154894838109,-0.0024669952690601,0.0015111608663573,-0.072600856795907,0.100869641136378,-9.807983295321463,14937.0
35.72,2.0999999046325684,161.0,24.557722091674805,0.0795177370309829,-79.78277957789336,40.45905472643268,272.85158054828645,-0.0063301832415163,0.0023641798179596,-0.9741256237030028,0.2259062975645065,0.0043202076858667,0.0015004330133228,0.002707753887481,-0.005477993749082,-0.0003748170856852,-0.0039569865912199,-0.0699493180867284,0.110499941362068,-9.807434241771697,14937.0
35.89,2.200000047683716,162.0,24.55021095275879,0.0874695107340812,-79.78277958263395,40.45905472301885,272.85183362960817,-0.0063191349618136,0.0023648955393582,-0.974108338356018,0.2259810566902161,0.0063815819504314,0.0022407055307379,0.0022804735080777,0.0049368999898433,0.0047627873718738,0.0101389745250344,-0.0623626334359869,0.1061514858528971,-9.809008312225345,14937.0
35.99,2.200000047683716,162.0,24.54895782470703,0.0795177370309829,-79.78277958706394,40.459054718734095,272.85205643177034,-0.0063195009715855,0.002383638639003,-0.974111557006836,0.2259670197963714,0.0044971084030611,0.0028050312143793,0.002103792080306,-0.0092519093304872,-0.0027087503112852,-0.0080305524170398,-0.0670115673076361,0.1246003283187747,-9.807989142537116,14937.0
36.09,2.200000047683716,162.0,24.55647087097168,0.0715659633278846,-79.78277956334345,40.459054771746686,272.8401408672333,-0.0063208905048668,0.0024077126290649,-0.9740985631942748,0.2260228395462036,0.0037440237591722,0.0031670610553024,0.0031047820524897,-0.0029803565703332,0.0023667516652494,-0.0072878538630902,-0.0642845309944823,0.1315038252063095,-9.808397862911225,14937.0
36.31,2.0999999046325684,161.0,24.541446685791016,0.0795177370309829,-79.78277954410355,40.459054810188185,272.8270485877991,-0.0063214725814759,0.0024168889503926,-0.9740859270095824,0.2260772734880447,0.0051090384397271,0.0064491318443329,0.0039555241970632,0.0069183707237243,0.0066276886500418,0.005115068051964,-0.061337744439952,0.1170246391743421,-9.81002572774887,14937.0
36.49,2.0999999046325684,160.0,24.552715301513672,0.0795177370309829,-79.7827795452251,40.45905480274435,272.8274418592453,-0.0063025210984051,0.002407263033092,-0.9740905165672302,0.226058080792427,0.0037873153799146,0.0073863866354737,0.0038935722674568,-0.0103389406576752,-0.0019313636003062,-0.0049404948949813,-0.0685444103227928,0.1206087539624422,-9.808549305796625,14937.0
36.6,2.0999999046325684,158.0,24.53894233703613,0.0715659633278846,-79.78277952737095,40.459054838366384,272.8113501548766,-0.0062777213752269,0.0024135883431881,-0.9740792512893676,0.2261071950197219,0.0043383776746407,0.009116456008093,0.0009122020103604,0.0005344335804693,0.0026386703830212,-0.0034656759817153,-0.0605822293600067,0.1293455174099654,-9.807502069473268,14937.0
36.79,2.0999999046325684,158.0,24.54269790649414,0.0715659633278846,-79.78277951068756,40.45905487454392,272.79390292167665,-0.0062841777689754,0.0023997463285923,-0.97406667470932,0.2261613756418228,0.0059391391663281,0.0104210491167144,-0.0011801534850674,0.0101911816745996,0.0009195826714858,0.0063734157010912,-0.0713022495852783,0.1064095399249345,-9.80761609017849,14937.0
36.9,2.0999999046325684,158.0,24.543949127197266,0.0795177370309829,-79.78277951041981,40.45905486385156,272.79377620220185,-0.0062808161601424,0.0024060057476162,-0.9740711450576782,0.2261421978473664,0.0042625969867021,0.0108862387014525,-0.0014005182925681,-0.0039243623614311,-0.0028350758366286,-0.00821029022336,-0.0641948310518637,0.1304970625787973,-9.808132984042167,14937.0
36.99,2.0,160.0,24.55521774291992,0.0477106422185897,-79.78277955609204,40.459054932232654,272.77522044181825,-0.0062853670679032,0.0024130889214575,-0.9740586876869202,0.2261955589056015,0.0110289311060314,0.0034374075673358,-0.0026734367164702,0.0004459128540474,-0.0053008622489869,0.005308071617037,-0.0716871288511902,0.0961569680459797,-9.80891884982586,14937.0
37.2,2.0999999046325684,160.0,24.557722091674805,0.0795177370309829,-79.78277954972816,40.45905497610033,272.756383228302,-0.0062897009775042,0.0024095685221254,-0.9740722775459292,0.2261370867490768,0.0074410745371285,0.0032999928845701,-0.0035932947567219,-0.0057385331019759,-0.0023697279393672,-0.0059144203551113,-0.0696724387211725,0.1247278250288218,-9.806673519015312,14937.0
37.39,2.0999999046325684,158.0,24.55521774291992,0.055662415921688,-79.7827795567793,40.45905496973513,272.7560103416443,-0.0062968959100544,0.0024077261332422,-0.9740530252456664,0.2262196540832519,0.0097299775249414,0.0046202333069589,-0.0039168356249958,0.0043873991817235,0.0004831436963286,0.0090262629091739,-0.0700501871248707,0.0937612632941454,-9.809011820554732,14937.0
37.5,2.0999999046325684,158.0,24.543949127197266,0.0636141896247863,-79.78277956384521,40.45905496227955,272.7556180238724,-0.0062764161266386,0.0024086274206638,-0.9740548729896544,0.2262120842933655,0.0088037992298713,0.0048826085060649,-0.0040823779870762,0.0020824002567678,0.0012332840124145,-0.007937186397612,-0.0635119950352236,0.1285478749684989,-9.808428268432618,14937.0
37.7,2.299999952316284,158.0,24.54269790649414,0.0795177370309829,-79.78277953246501,40.459054987745134,272.7354144334793,-0.0062945820391178,0.0024453611113131,-0.9740485548973083,0.2262384593486786,0.0068268477933868,0.0091084608923615,-0.0049905683911312,0.009129018522799,0.0027958061546087,0.0077954656444489,-0.0638798991031944,0.10456847098656,-9.808645200133324,14937.0
37.79,2.299999952316284,157.0,24.54269790649414,0.0795177370309829,-79.7827795535819,40.459055012235865,272.71455078125,-0.0063004721887409,0.0024520291481167,-0.9740341305732728,0.2263001948595047,0.0100574469693733,0.0090309219101062,-0.0048836533140817,-0.0022602186072617,-0.0032614483498036,0.0034062450286,-0.0711645750654861,0.0944535005372017,-9.809599465727809,14937.0
37.99,2.400000095367432,158.0,24.54895782470703,0.0954212844371795,-79.78277955940537,40.45905500096681,272.7140566587448,-0.0062831006944179,0.0024521073792129,-0.9740411639213562,0.2262705862522125,0.0104905567115876,0.0093893036769043,-0.0051029892407004,0.0065248608589172,0.0046446486376225,0.0017664068145677,-0.0609597721975296,0.1165631385426968,-9.810035083293917,14937.0
38.1,2.400000095367432,158.0,24.561479568481445,0.0874695107340812,-79.7827795820711,40.45905502418037,272.6924059867859,-0.0062774545513093,0.0024690683931112,-0.9740301370620728,0.2263180166482925,0.0137354374694021,0.0092649007786658,-0.0044164892699135,0.0021454486995935,-0.0041650324128568,0.0094182370230555,-0.0693267677770927,0.0917992483545094,-9.80967664897442,14937.0
38.29,2.5,159.0,24.545202255249023,0.0874695107340812,-79.78277957664464,40.45905508400021,272.6702450990677,-0.0062661496922373,0.0024644322693347,-0.9740371704101562,0.2262884080410004,0.0087628876551351,0.0042344681738771,-0.0048278728675367,0.0031402506865561,0.001237025600858,0.0003392650396563,-0.0625978787988424,0.1249378040246665,-9.808557491898537,14937.0
38.49,2.5999999046325684,161.0,24.54645347595215,0.0874695107340812,-79.78277959117348,40.45905506806933,272.6692446947098,-0.0062724086456,0.0024735024198889,-0.9740249514579772,0.2263404577970505,0.0106653241005652,0.006383505996159,-0.0053116533223202,0.0093713887035846,0.0036412337794899,0.007238604594022,-0.0653255500830709,0.0987812258396297,-9.810611618757248,14937.0
38.6,2.700000047683716,163.0,24.541446685791016,0.0715659633278846,-79.78277960513735,40.45905509537877,272.6467582464218,-0.0062613934278488,0.0024740607477724,-0.9740120768547058,0.226396381855011,0.0112171320550006,0.0063724122410441,-0.004301239437778,-0.0039776023477315,-0.0013880237238481,-0.0079389782622456,-0.0645538820698857,0.1308445699140429,-9.808579126596449,14937.0
38.7,2.799999952316284,165.0,24.552715301513672,0.0874695107340812,-79.78277960509868,40.459055128499735,272.62105469703675,-0.0062710451893508,0.0025023503694683,-0.9740231037139891,0.2263482064008713,0.0094817048551177,0.0061917396555925,-0.0079538683179289,0.0057438723742961,0.0038375130388885,0.0052027353085577,-0.061634257659316,0.1118997282441705,-9.809034624695778,14937.0
38.79,2.700000047683716,167.0,24.557722091674805,0.0954212844371795,-79.78277961126369,40.45905511978785,272.6202522993088,-0.006271110381931,0.0025104468222707,-0.9740052223205566,0.2264250814914703,0.0079097660290507,0.00706175997312,-0.0081167852714203,-0.0076809711754322,-0.0003703615511767,-0.00564038567245,-0.0673266454366967,0.1250030370242894,-9.807727771997452,14937.0
39.0,2.700000047683716,169.0,24.547706604003903,0.0795177370309829,-79.78277961717784,40.4590551098116,272.6194261789322,-0.0063013639301061,0.0025283670984208,-0.974013090133667,0.2263901084661484,0.009982709336693,0.0087035736373354,-0.0084590329597472,0.0023886163253337,-0.0008363265660591,0.0022502231877297,-0.0707588422531262,0.0919424503203481,-9.808695486187936,14937.0
39.2,2.5999999046325684,171.0,24.545202255249023,0.0874695107340812,-79.78277964400787,40.45905523591703,272.5666022777557,-0.006326908711344,0.0024872915819287,-0.9740070700645448,0.226415753364563,0.0064881881236566,-0.0037824006473934,-0.0126447748581019,0.0064363339915871,0.0039733694866299,0.0079138055443763,-0.0691498940717428,0.1191826272010803,-9.807548847198486,14937.0
39.3,2.5999999046325684,171.0,24.54645347595215,0.0874695107340812,-79.78277965191775,40.45905523690286,272.5653375864029,-0.0063312742859125,0.0024897227995097,-0.973991334438324,0.2264832854270935,0.0046255227038324,-0.0031749402015384,-0.0128198969085909,-0.0062534245662391,0.0011523478897288,-0.0033003503922373,-0.0637122256262228,0.1294283194653689,-9.809084910750393,14937.0
39.49,2.5,174.0,24.54895782470703,0.0874695107340812,-79.78277965943832,40.45905523666196,272.5640472650528,-0.0063385688699781,0.002480803290382,-0.9739969968795776,0.2264588475227356,0.0065893567525929,-0.0015462060679941,-0.0131408834006004,0.0047063021920621,-0.0023276738356798,0.00800690241158,-0.0682775123370811,0.0904622459504753,-9.808752204179765,14937.0
39.6,2.5,175.0,24.55897521972656,0.0795177370309829,-79.78277968284188,40.45905529052928,272.53599421978,-0.0063092373311519,0.0024735191836953,-0.9739831686019896,0.226518988609314,0.0058806025927408,-0.0033124814832896,-0.0144764236326241,-0.0030815838836133,-0.0052418112754821,0.0043328455649316,-0.0716503370739519,0.0942399949394166,-9.809483690857888,14937.0
39.8,2.400000095367432,175.0,24.51139640808105,0.6202383637428284,-79.78277967783565,40.459055301894345,272.5091398239136,-0.0063083642162382,0.0024815686047077,-0.973988115787506,0.2264978289604187,0.005302986453235,0.0030100732862516,-0.0143807529255277,0.0036005871370434,0.0046238503418862,-0.0037829978391528,-0.0626195272011682,0.1269015365839004,-9.807632462382315,14937.0
39.99,2.400000095367432,175.0,24.52266502380371,0.3896369338035584,-79.78277968584885,40.459055290751394,272.50621848106385,-0.0063152746297419,0.0024644704535603,-0.9739838242530824,0.2265163064002991,0.0066702965751644,0.0054789413411541,-0.0151599304851313,0.0026679707225412,-0.0061685405671596,0.0028927267994731,-0.0687882209429517,0.1228169184084981,-9.811148393154143,14937.0
40.09,2.299999952316284,174.0,24.53017807006836,0.3816851377487183,-79.7827797306778,40.45905536196814,272.478017616272,-0.0063379146158695,0.0024611519183963,-0.9739440083503724,0.2266866862773895,0.0066560302607915,-0.0040353802806644,-0.0158803756676089,-0.0071137668564915,0.000544091744814,-0.0011011307360604,-0.0726237431634217,0.1044003269914537,-9.804783114194873,14937.0
40.3,2.200000047683716,173.0,24.517656326293945,0.3816851377487183,-79.78277976385135,40.45905541366905,272.44764964580537,-0.0063397991470992,0.0024568971712142,-0.973956823348999,0.2266317158937454,0.0057056289490968,-0.0074666691207508,-0.0189200935648379,-0.0055606993846595,0.0001812438567867,0.0046175299212336,-0.0712941045965999,0.1150336896535009,-9.801364831924436,14937.0
40.39,2.0999999046325684,173.0,24.518909454345703,0.3975887000560761,-79.78277977382231,40.459055417228,272.44575505256654,-0.006328631658107,0.0024417683016508,-0.9739458560943604,0.2266795933246612,0.0067253088019324,-0.0064186740339962,-0.0191731392701557,0.0099667366594076,-0.0014584303135052,-0.0042363195680081,-0.0669470240967348,0.0991068792063742,-9.803352885246277,14937.0
40.51,2.0999999046325684,172.0,24.53518486022949,0.4055404663085937,-79.78277978361197,40.45905541955728,272.44383280277253,-0.0063407020643353,0.0024388036690652,-0.9739508628845216,0.226657822728157,0.005001003663083,-0.0055990127432874,-0.0195743413795762,-0.0038287164643406,-0.0025461169425398,-0.0013564424589276,-0.0723892058618366,0.1220402711257338,-9.801092351675036,14937.0
40.69,2.0,173.0,24.517656326293945,0.4850582182407379,-79.78277981511303,40.45905546369005,272.41201095581056,-0.0063484972342848,0.0024372760672122,-0.9739461541175842,0.2266777455806732,0.0050660265298487,-0.006304217220792,-0.0218970481215885,-0.0017227977514266,0.0023020964581519,-0.0101465005427598,-0.064448586506769,0.1245105918310582,-9.801112816929818,14937.0
40.8,2.0,172.0,24.51139640808105,0.508913516998291,-79.78277981981778,40.459055489382365,272.3794026851654,-0.006369262933731,0.002439210191369,-0.973929762840271,0.2267474681138993,0.0037763678345718,-0.0022121929529311,-0.0236982266487847,0.0030224046204239,-0.0007997792563401,-0.0118087073788046,-0.0664594485377892,0.1133691518101841,-9.801853659152986,14937.0
41.0,2.0,173.0,23.66501045227051,6.337563991546631,-79.78277982503973,40.45905548920175,272.37702708244325,-0.0063760252669453,0.0024336990900337,-0.9739263653755188,0.2267620861530304,0.0030865551062312,-0.0009552986423639,-0.0240589823303256,-0.0071403072215616,-0.0019611297175288,0.0006769504980184,-0.0700096449069678,0.1147664993070066,-9.80166128575802,14937.0
41.09,2.0,171.0,24.42876052856445,0.8667433857917786,-79.7827798806738,40.4590555532318,272.3458973646164,-0.0061207395046949,0.002292483812198,-0.9739009141921996,0.2268798500299453,0.0034890520759558,-0.0081542598931626,-0.0225802916069276,-0.0157119911164045,0.031576007604599,-0.0026186897885054,-0.0523814134765416,0.1499221251066774,-9.81441347837448,14937.0
41.3,1.8999999761581416,172.0,24.52391815185547,0.326022744178772,-79.78277989661511,40.459055588243736,272.3173423290253,-0.0061733755283057,0.0023159489501267,-0.9739062786102296,0.2268548607826233,0.0057061081674951,-0.0059287994123643,-0.0217264603560695,0.0005791513249278,0.002104819053784,-0.01091153267771,-0.0499800807796418,0.0912434522341936,-9.824814505577088,14937.0
41.5,1.8999999761581416,172.0,24.462566375732425,0.9144539833068848,-79.78277991612278,40.45905559554317,272.3131064653397,-0.0060918340459465,0.0023797701578587,-0.9738877415657043,0.2269361168146133,0.006766367952226,-0.0079526701744086,-0.0216240517995811,0.0063463691622018,0.0047616772353649,-0.0204654652625322,-0.0934247194882482,0.125096756927669,-9.805584767460823,14937.0
41.59,1.8999999761581416,173.0,24.498876571655277,0.3578298389911652,-79.78277993991071,40.45905561828413,272.2807817935944,-0.0061638341285288,0.0023463903926312,-0.9738903641700744,0.2269231975078583,0.0059803977964283,-0.0008511560354733,-0.024125158764421,0.0118110673502087,0.0074498946778476,-0.0300736594945192,-0.0461767319496721,0.0867067346535623,-9.850777312517168,14937.0
41.71,2.0,173.0,24.518909454345703,0.3180709481239319,-79.78277993990227,40.45905568615236,272.2517662525177,-0.0062321075238287,0.0023627579212188,-0.9739089608192444,0.2268413752317429,0.000617512479319,-0.0143053092849869,-0.025531842057365,-0.0267530288547277,-0.0040738303214311,-0.0049065626226365,-0.0680226239841431,0.1094024098478257,-9.796584733128546,14937.0
41.8,2.0,171.0,24.48385238647461,0.8826469182968141,-79.78277994928787,40.45905569491288,272.2492938518524,-0.0062539554201066,0.0023416867479681,-0.9738858342170716,0.2269405126571656,0.0019988123613603,-0.0130417049950287,-0.0248291543457198,-0.0076868082396686,-0.0105947228148579,0.0256202090531587,-0.0980720133986324,0.08135293263942,-9.811005721092224,14937.0
42.0,2.0,168.0,24.195880889892567,4.794919490814209,-79.7827799054062,40.45905568501246,272.2269422888756,-0.0061638359911739,0.0022993749007582,-0.973870038986206,0.2270108014345169,0.0017890127730719,0.0039927961605888,-0.0052961988255532,-0.0089521845802664,-0.0098441503942012,0.0177257973700761,-0.0538161283358931,0.1048186769988388,-9.835546485185624,14937.0
42.19,2.0999999046325684,165.0,24.018089294433597,7.061175346374513,-79.78277990571188,40.459055680327054,272.2264230728149,-0.0061147366650402,0.0022696596570312,-0.9738646149635316,0.2270360440015793,-0.0002469548190018,0.0068497592384772,-0.0045633991650369,-0.0206244587898254,-0.0294125340878963,0.0148689672350883,-0.1186460994835943,0.0866967395693063,-9.789880900382997,14937.0
42.29,2.200000047683716,166.0,23.937957763671875,8.063098907470701,-79.78277989020977,40.45905567208618,272.2042976498604,-0.0060522751882672,0.0022350098006427,-0.973859429359436,0.2270600199699401,0.0071577064022886,0.0131934804231502,0.0031283999462959,0.0260011591017246,-0.0111335953697562,0.0059535065665841,-0.0784327874612063,-0.0051402964163571,-9.814323431253433,14937.0
42.49,2.200000047683716,167.0,23.692556381225582,11.16429042816162,-79.78277988486835,40.45905564739007,272.2052746295929,-0.0056869159452617,0.0020924264099448,-0.973822832107544,0.2272280305624008,0.0044702202363087,0.0142420531285027,0.005421595111566,-0.1193715557456016,-0.0565145388245582,0.0216418169438838,-0.0659193668095395,0.1339548592362553,-9.815775879621508,14937.0
42.6,2.200000047683716,166.0,23.556081771850582,12.10260009765625,-79.78277983811253,40.45905562524178,272.1858254551888,-0.0047861151397228,0.002244922099635,-0.9738380908966064,0.2271818369626999,-0.0073501917001375,0.0141749542137828,0.0209818764122314,0.0955552607774734,0.0543029159307479,-0.0325948074460029,-0.0698003785405308,-0.2305275551788509,-9.771464509963993,14937.0
42.8,2.299999952316284,165.0,23.314435958862305,15.752464294433596,-79.78277986939223,40.45905563599591,272.1627870678902,-0.0040152822621166,0.0023012701421976,-0.9738337993621826,0.2272145599126816,-0.0059610929999275,0.0160170537824344,0.0305972205350104,-0.0881919041275978,0.1426435261964798,0.095929779112339,-0.1757616380229592,-0.2051459249295294,-9.70190427839756,14937.0
42.99,2.400000095367432,165.0,23.026464462280277,19.17172622680664,-79.78277986651669,40.459055611264745,272.16833971738816,-0.0022640014067292,0.001879739575088,-0.9737861156463624,0.2274467051029205,-0.0048417602409094,0.0064891441004118,0.0280939513343371,-0.0458687022328376,-0.0292138550430536,0.3708042204380035,-0.2054907462000847,-0.2690411181561649,-9.752754589319231,14937.0
43.09,2.400000095367432,165.0,22.887487411499023,20.714370727539062,-79.7827798989102,40.45905563184957,272.1452388048172,-0.0007892397115938,-0.0001988712756428,-0.9738013744354248,0.2273990511894226,0.0072788839392282,-0.0160649938540443,0.0426057667802243,0.0260875485837459,0.0513694137334823,0.2496411204338073,-0.2594926880858839,-0.1725246194377541,-9.93709975719452,14937.0
43.4,2.5,165.0,22.432992935180664,25.95458984375,-79.78277992040096,40.45905568401349,272.13180767297746,0.0073965080082416,-0.0136386426165699,-0.9735071659088136,0.2281298339366913,0.0052553446163021,-0.0316264154442493,0.0831392703585867,-0.076464258134365,0.09727144241333,-0.0311034098267555,0.014506069519557,-0.0318440186697989,-10.089616191387178,14937.0
43.5,2.5,167.0,22.310291290283203,27.79940223693848,-79.78277995353373,40.45905572982145,272.142882335186,0.0056404788047075,-0.0241723097860813,-0.9737723469734192,0.2261665612459183,0.0009764561175671,-0.0717491399458849,0.1466735473487926,-0.078088104724884,0.1800776869058609,0.0507914349436759,0.0521020718850195,-0.2145818143710494,-10.350614848136903,14937.0
43.79,2.5,176.0,22.75226593017578,21.54135513305664,-79.78278028034173,40.45905618275668,272.15082721710206,0.0036694707814604,-0.0219106636941432,-0.9750675559043884,0.2207933813333512,-0.0006686637583369,-0.1802998847040848,0.319517070078581,0.1085323169827461,-0.296259343624115,0.0637594610452652,0.1251377696637064,-0.1492819372192025,-10.009268431663513,14937.0
44.0,2.5,176.0,22.761030197143555,22.05821990966797,-79.78278048813546,40.45905654883692,272.2048399925232,0.0043749730102717,0.0066572744399309,-0.9758031964302064,0.2185058295726776,-0.0210470960224552,-0.2368140201206858,0.2263454707441912,-0.0160206351429224,-0.1687564104795456,0.030405493453145,-0.0414407430868595,-0.127919683009386,-9.437441146373748,14937.0
44.09,2.5,177.0,22.64333724975586,22.583038330078125,-79.78278083949596,40.45905742815075,272.15646063089366,-0.000508819182869,0.0207632537931203,-0.975248634815216,0.2201334089040756,-0.024082216949144,-0.2245159005524676,0.0608027911452425,-0.0020971312187612,-0.021285755559802,-0.0320743545889854,-0.1183352560177445,-0.019527964387089,-9.279569247364998,14937.0
44.29,2.5,176.0,22.53691291809082,23.64857482910156,-79.7827809807402,40.45905760403828,272.14917902946473,0.0008749061380513,0.0195996444672346,-0.974869668483734,0.2219108790159224,-0.0223223392458487,-0.2116696509137894,0.0449578803386738,-0.0038108315784484,0.139426127076149,-0.0381355471909046,-0.0163373580761253,-0.1009637995809316,-9.4722542989254,14937.0
44.5,2.5,176.0,22.446765899658203,24.01435661315918,-79.7827811020868,40.45905790674436,272.154053914547,0.0023272144608199,0.0069853262975811,-0.9743709564208984,0.2248268872499466,-0.0266559719050389,-0.1560618028148851,-0.0036943541563714,0.0382001250982284,0.1775769591331482,-0.0043881451711058,0.0344483548169955,-0.1153658023662865,-9.637044038772585,14937.0
44.59,2.5,180.0,22.551937103271484,23.17146873474121,-79.78278120478586,40.45905830365454,272.14063428640367,0.0029589240439236,-0.0007773021352477,-0.9741723537445068,0.2257854044437408,-0.0459014273073535,-0.1090175528746193,0.0326901540368664,0.0931591391563415,0.0231552831828594,0.0154916755855083,0.1864375574514269,-0.2733882489055395,-9.76194699704647,14937.0
44.7,2.5,181.0,22.42422866821289,24.18929672241211,-79.78278113337986,40.45905851958715,272.14168750047685,0.005442245863378,0.0011671244865283,-0.9741206169128418,0.2259605228900909,-0.0542457637340288,-0.1181734604016512,0.0945601055073054,0.0092354975640773,-0.1039639189839363,-0.0139128705486655,0.1269005772750824,-0.0138296425994485,-9.82709375023842,14937.0
44.89,2.5,180.0,22.37790298461914,24.66640281677246,-79.78278114554614,40.45905863823742,272.1513162136078,0.0067974720150232,0.0038675400428473,-0.9741862416267396,0.2256103754043579,-0.0529007104414384,-0.1149829852104297,0.0913723395152406,-0.0111336698755621,-0.0799845904111862,0.0630151778459549,0.098069647103548,-0.1466618638392537,-9.812051203250885,14937.0
45.0,2.5,180.0,22.386667251586918,25.40591812133789,-79.78278114759176,40.45905875003745,272.16013996601106,0.006238074041903,0.0059421779587864,-0.9743711948394777,0.2247815430164337,-0.0512837939917936,-0.1109692146547976,0.0811862580273447,0.0466059446334838,-0.0176048502326011,0.0790347829461097,0.049961611800827,-0.2693886437639594,-9.710055881738665,14937.0
45.2,2.5,181.0,22.366634368896484,24.41989707946777,-79.78278108817143,40.45905879341427,272.1643614649773,0.0061417715623974,0.0057237735018134,-0.974552571773529,0.2240020483732223,-0.0498509777018928,-0.0453117834452647,0.1540066381602136,-0.0016196221113204,0.0158458538353443,-0.0443624518811702,0.1126424890849739,-0.1217909056507051,-10.007494386434557,14937.0
45.29,2.5,180.0,23.05401039123535,17.52570915222168,-79.78278105878066,40.45905884133536,272.1775604367256,0.0067082410678267,0.0065268157050013,-0.9744722843170166,0.224312886595726,-0.041434431418492,-0.0286364434864255,0.0796390741110198,0.0441166423261165,-0.0628546103835105,-0.0736312568187713,0.1580800964310765,0.0172169254906475,-9.227493360042573,14937.0
45.5,2.5,179.0,22.220144271850582,28.38783264160156,-79.78278103279034,40.45905887826906,272.1806519508362,0.0091900657862424,0.0064483536407351,-0.9743801355361938,0.2246275395154953,-0.0377848932007933,-0.0242820401702483,-0.0059266712104707,-0.0083796009421348,0.0628153309226036,0.0049758101813495,0.0019943071017041,-0.0492102080443874,-9.149454665780068,14937.0
45.6,2.5,178.0,21.97974967956543,31.958179473876957,-79.78278099384111,40.45905897746577,272.16200094223024,0.0098812691867351,0.0010986260604113,-0.9743317365646362,0.2248973250389099,-0.0318933735212409,-0.0183525019009399,0.0391473764583773,0.0212941635400056,0.0013436764711514,0.0399312078952789,0.065182782090269,-0.2666758646070957,-10.158588777780531,14937.0
45.8,2.5,177.0,21.736852645874023,33.946121215820305,-79.7827809048473,40.45905897900121,272.1461977243424,0.008335418999195,0.0001625013392185,-0.974203884601593,0.2255160808563232,-0.0367844971206857,0.0010766456468372,0.1597688092770574,0.0074313497170805,0.0404743552207946,-0.0180521849542856,0.0595055331196636,-0.0979941266588866,-10.7425887966156,14937.0
46.0,2.400000095367432,175.0,21.3700008392334,38.05718994140625,-79.78278084573193,40.459058991550044,272.20747421979905,0.0077269882895052,0.0005637601716443,-0.9741159081459044,0.2259164452552795,-0.0297019436171458,0.0098190040523886,0.4692456157328337,-0.0073253610171377,-0.0448162332177162,-0.0448635891079902,0.159866804536432,-0.0862435620836913,-11.419193508625035,14937.0
46.09,2.5,173.0,21.33369255065918,38.02538299560547,-79.78278083068095,40.45905902438713,272.291523206234,0.0066031678579747,0.0005567816551774,-0.974081575870514,0.2260999679565429,-0.0285862504647979,0.0213549880044202,0.8268123369840769,-0.0707695558667182,-0.0798844620585441,0.0116209974512457,0.2170368409529328,-0.1388857248332351,-11.558798121213911,14937.0
46.2,2.5,171.0,21.24604797363281,39.36128234863281,-79.78278081386969,40.4590590155962,272.3516167879105,0.0067179193720221,0.0015866096364334,-0.9740163087844848,0.22637277841568,-0.0299096608480674,0.0220365825897166,1.0547066936843783,-0.0033962724264711,-0.033579271286726,-0.0150191374123096,0.0523619349393993,-0.0973377036117017,-12.19368411898613,14937.0
46.39,2.5,172.0,21.1208438873291,39.89405059814453,-79.78278078916115,40.45905900424516,272.4709191799164,0.0050314492546021,0.0008240147144533,-0.9737271070480348,0.2276610136032104,-0.0401842872977526,0.0194169608576731,1.3363757557474183,-0.0731277242302894,0.0217458494007587,-0.1175796240568161,-0.0293178661912679,-0.1439254308678209,-12.534700752496722,14937.0
46.49,2.5999999046325684,173.0,21.103315353393555,40.76874542236328,-79.7827807516518,40.45905899940753,272.6187223672867,0.0006764560821466,-0.0025697832461446,-0.9730990529060364,0.2303720116615295,-0.0455968465009259,0.0121965023033896,1.6180136435530312,-0.0575732700526714,0.0656208246946334,-0.1196573227643966,-0.123760576788336,-0.1958372855186462,-12.548697817325593,14937.0
46.69,2.799999952316284,171.0,21.12459945678711,39.52826690673828,-79.78278064354734,40.45905909122341,273.07554666996003,0.003284279955551,-0.0072227451018989,-0.9709983468055724,0.2389547824859619,-0.0780443831617908,-0.0093481650323341,2.266635080310746,0.0254152510315179,-0.0274734105914831,-0.127206414937973,-0.1113943460863083,-0.2150729073956609,-12.351360136270523,14938.0
46.79,2.799999952316284,169.0,21.13461685180664,39.45670318603516,-79.78278057824099,40.45905916901057,273.312903213501,0.0072533185593783,-0.0029806243255734,-0.970474898815155,0.2410749047994613,-0.1055262976713449,-0.0121224341170151,2.4833144242260308,0.047419223934412,-0.1485530734062194,-0.0843798741698265,0.0681205191649496,-0.2557748091034591,-11.990125000476835,14938.0
46.99,3.0,170.0,21.17092514038086,38.25598526000977,-79.78278051906098,40.45905925174379,273.5712297439576,0.0114402947947382,0.0056229205802083,-0.9703712463378906,0.2412827312946319,-0.1231040593295184,-0.0208363667197291,2.6755797452788865,0.1080053374171257,-0.3291259706020355,0.0144134350121021,0.0804235177114606,-0.1572864465415477,-11.765874924659732,14938.0
47.1,3.2000000476837163,170.0,21.41632652282715,35.282020568847656,-79.7827807392009,40.4590595054853,273.9516847610474,0.0251603294163942,0.039030160754919,-0.9719806909561156,0.230428546667099,-0.1165811056953597,-0.1044282323446515,2.8783915510322697,0.1482455730438232,-0.2904087007045746,0.1203155294060707,-0.0730765734706074,-0.3232818457111716,-11.347280942201614,14938.0
47.19,3.299999952316284,175.0,21.564069747924805,33.604198455810554,-79.78278108013505,40.45905979307303,274.0402017116547,0.0259692221879959,0.0471528358757495,-0.973579466342926,0.2219128906726837,-0.1301417952575805,-0.2011016758906346,2.8301782368683064,-0.0583604983985424,-0.0795584022998809,0.1072287112474441,-0.3413534331321716,-0.2097180638462305,-11.058241378068924,14939.0
47.49,3.400000095367432,177.0,21.743112564086918,29.75553894042969,-79.78278127071695,40.459059659935896,274.62347083091737,0.0147643936797976,0.0264189392328262,-0.9770451188087464,0.2108718156814575,-0.0389219965052935,-0.1358463632317294,2.9843634580626737,-0.2364439070224762,0.3336773812770843,0.0747531205415725,-0.186578347440809,-0.1982302767969668,-10.565427517890932,14939.0
47.59,3.5999999046325684,182.0,21.72182846069336,30.773365020751957,-79.78278175843144,40.45906012145597,274.6663711547852,0.0081412009894847,0.0100587978959083,-0.978853702545166,0.2041521519422531,0.0402880070089429,-0.0857106736329084,2.841229818422893,-0.1222238391637802,0.2488993555307389,-0.0326812341809272,-0.1147868549264967,-0.0947951149754226,-10.040864446163177,14939.0
47.71,3.5999999046325684,183.0,21.696786880493164,31.50492858886719,-79.78278270108741,40.45906078263383,274.92997484207154,0.002517970977351,-0.0074316840618848,-0.9784306287765504,0.206427052617073,0.1344734831386885,-0.0347736453586967,2.646198546739052,0.0107322186231613,0.08486108481884,-0.1016578897833824,0.0807407382968813,-0.0463186913821846,-9.845620068311694,14939.0
