time,wind_speed,wind_angle,battery_voltage,battery_current,position_x,position_y,position_z,orientation_x,orientation_y,orientation_z,orientation_w,velocity_x,velocity_y,velocity_z,angular_x,angular_y,angular_z,linear_acceleration_x,linear_acceleration_y,linear_acceleration_z,node_ids
0.0,1.2999999523162842,178.0,23.56109046936035,0.055662415921688,-79.78277110659259,40.4590204309777,273.37814450454715,-0.0168166626244783,-0.0060222395695745,-0.9851810932159424,0.1705848127603531,0.0003302819510236,0.0072328376230762,0.0173686104011211,-0.000908255460672,-0.0019485800294205,0.0074498397298157,0.0547863550018519,0.3642944721132517,-9.803114903569222,14938.0
0.11,1.2999999523162842,178.0,23.55107307434082,0.055662415921688,-79.7827711029314,40.45902042563149,273.3798961658478,-0.0168004315346479,-0.0060280691832304,-0.9851858019828796,0.1705594360828399,-0.0001058039506792,0.0061171661547858,0.0175919342860991,0.0014056338695809,0.0048171351663768,0.0006582086789421,0.0589636652497574,0.3594428180158138,-9.803187993764878,14938.0
0.2,1.2999999523162842,177.0,23.55107307434082,0.0477106422185897,-79.78277110821764,40.45902053026271,273.3777313251496,-0.0168119296431541,-0.0060085421428084,-0.9852010011672974,0.1704708486795425,0.0027956690000717,0.0070254289949182,0.0178460274911627,0.0100514097139239,0.0072888666763901,0.0061462637968361,0.0513304358487948,0.3453888524696231,-9.804601850509645,14938.0
0.4,1.2000000476837158,175.0,23.56109046936035,0.0715659633278846,-79.78277105004328,40.45902070604369,273.37337613296506,-0.0168264787644147,-0.0060403984971344,-0.9852080345153807,0.1704278439283371,-0.009698463124144,0.0006007253972629,0.0188984106635122,-0.0059610400348901,-0.0041076028719544,-0.0092317555099725,0.0529439521674066,0.3641273879259825,-9.804322353601457,14938.0
0.51,1.2999999523162842,174.0,23.553577423095703,0.0874695107340812,-79.78277102949001,40.45902071137917,273.37709355545053,-0.0168336853384971,-0.0060283923521637,-0.985227644443512,0.1703140139579773,-0.0085913318298004,-0.000652801779641,0.0189785603046026,-0.0012847547186538,0.0008031436591409,-0.0023800916969776,0.0576054484164342,0.3627795681729913,-9.801544926166535,14938.0
0.7,1.2999999523162842,171.0,23.56860160827637,0.0874695107340812,-79.78277103865985,40.45902080365829,273.3719971199036,-0.0168453343212604,-0.0060489429160952,-0.9852328300476074,0.1702821552753448,-0.0055949138508485,0.0033481536982954,0.0186372381599936,-0.0061604133807122,-0.0060219261795282,0.0008264822536148,0.0501796170137822,0.3384093965962529,-9.804254525899887,14938.0
0.9,1.2999999523162842,170.0,23.563594818115234,0.0874695107340812,-79.78277102952406,40.45902088655145,273.36784649086,-0.0168363079428672,-0.0060148774646222,-0.9852514266967772,0.1701765954494476,-0.0051909611647527,0.007400509491541,0.0184787412809766,-0.0059933387674391,-0.0034405891783535,-0.0092492094263434,0.0521219798270613,0.3618585220724345,-9.803375104665756,14938.0
1.01,1.399999976158142,168.0,23.559837341308597,0.0795177370309829,-79.78277102159453,40.45902088189445,273.3696823139191,-0.0168260671198368,-0.0060079987160861,-0.9852635860443116,0.1701072305440902,-0.0029733985399012,0.0071798798645079,0.0184507701063558,0.0048791747540235,-0.0022841650061309,0.0106461178511381,0.0549734659027308,0.3260934062674642,-9.806214512586594,14938.0
1.2,1.399999976158142,168.0,23.55858612060547,0.0954212844371795,-79.7827710333455,40.45902096891215,273.3625934143067,-0.0168331488966941,-0.0060054408386349,-0.985278069972992,0.1700229346752166,-0.0016922319926439,0.0081130714119798,0.0155824561085634,-0.0035193534567952,-0.0035474461037665,-0.0002629646041896,0.0583330156328156,0.3637794055044651,-9.803096192479137,14938.0
1.3,1.5,165.0,23.56735038757324,0.0874695107340812,-79.78277102846086,40.45902096305386,273.364157201767,-0.016823474317789,-0.0060078729875385,-0.9852885603904724,0.1699632406234741,-0.0001037731713001,0.0073269027524421,0.0156818809411737,0.0076068500056862,0.0061132195405662,0.0070455614477396,0.0618041466828435,0.3420402617007494,-9.806149023771288,14938.0
1.5,1.600000023841858,165.0,23.56484603881836,0.0795177370309829,-79.78277104640176,40.45902106547253,273.3559026737213,-0.0168321263045072,-0.0060142050497233,-0.9853031635284424,0.1698768883943557,0.0005676163331495,0.0056732833288633,0.0132479755400941,0.0028544419910758,-0.0029182904399931,0.0087784109637141,0.0543797770841047,0.3632975949347019,-9.80359612941742,14938.0
1.61,1.7000000476837158,162.0,23.563594818115234,0.0874695107340812,-79.78277104381117,40.45902106129647,273.3572423477173,-0.0168259218335151,-0.0060367579571902,-0.9853158593177797,0.1698032170534134,0.0004117296699593,0.0045679436362551,0.0134764650554948,0.0025969992857426,0.0075974236242473,0.0021207744721323,0.0611434432910755,0.35679801274091,-9.803878549933437,14938.0
1.8,1.7999999523162842,160.0,23.54731750488281,0.0238553211092948,-79.78277106457107,40.45902117227445,273.3486156482697,-0.0168369356542825,-0.006029971409589,-0.9853355884552002,0.1696876734495163,0.001369907795237,0.0011052443781155,0.0116909983371036,0.0068059959448874,0.0020137829706072,0.0111462622880935,0.0517277221754193,0.3534853092581034,-9.80384580552578,14938.0
1.9,1.7999999523162842,158.0,23.55483055114746,0.0159035474061965,-79.78277108011217,40.45902125227873,273.33833241653446,-0.0168265327811241,-0.0060497354716062,-0.9853448867797852,0.1696344017982483,0.0013258965170026,0.0029002618587332,0.0105117481155758,-0.0007290408830158,0.0030011760536581,-0.0056526190601289,0.0573154722014442,0.3646082483232021,-9.803174545168876,14938.0
2.1,1.8999999761581416,158.0,23.556081771850582,0.0079517737030982,-79.7827710811993,40.45902124695292,273.3404624481201,-0.0168360006064176,-0.0060470257885754,-0.9853641390800476,0.1695216000080108,0.003005343440006,0.0021577954748755,0.0105601187050643,0.0093485414981842,0.0054644308984279,0.0087237851694226,0.0494284005509689,0.3437498048320413,-9.804063321948052,14938.0
2.21,1.8999999761581416,157.0,23.54857063293457,0.0238553211092948,-79.78277107843512,40.45902132113756,273.32693100166324,-0.0168392229825258,-0.0060591669753193,-0.9853721261024476,0.169474110007286,-0.0001470226298246,0.0051100766273239,0.0068530649653977,-0.0016793977702036,-0.0003944482596125,-0.0078572584316134,0.0569783984916284,0.3658329841867089,-9.802996205091477,14938.0
2.4,1.8999999761581416,158.0,23.54731750488281,0.0318070948123931,-79.78277109446216,40.45902141995987,273.31292224121097,-0.0168535001575946,-0.0060749826952815,-0.9853861927986144,0.1693908274173736,0.0011675682819214,0.0013870727724291,0.003560991557391,0.0070530720986425,0.0059828986413776,0.0044207293540239,0.0628268521092832,0.3452777188271284,-9.804389011859897,14938.0
2.5,1.8999999761581416,158.0,23.54982185363769,0.0079517737030982,-79.78277109425484,40.45902141890673,273.3132922668457,-0.0168576706200838,-0.0060754008591175,-0.9853957891464232,0.1693346500396728,-0.0008373730250509,0.0008921059159182,0.0038898385593581,-0.0072723450139164,-0.0036817640066146,-0.0056017679162323,0.0549034454952925,0.3607805513218045,-9.803435330986977,14938.0
2.7,1.8999999761581416,158.0,23.556081771850582,0.0238553211092948,-79.78277111099341,40.45902146455997,273.2990806121826,-0.0168585050851106,-0.0060818451456725,-0.9854145646095276,0.1692244857549667,0.0028734348672274,0.004737487403404,0.0018141406647893,0.0094327442348003,0.0061739021912217,-0.0032046562992036,0.0602360833296552,0.3582894181832671,-9.803882058262824,14938.0
2.8,2.0,157.0,23.556081771850582,0.0238553211092948,-79.78277111179555,40.45902145979776,273.29928922843936,-0.0168597903102636,-0.006098055280745,-0.985421061515808,0.169185921549797,0.0014042772779409,0.004518817000849,0.0021564932787076,-0.0095865679904818,-0.0063433102332055,-0.0043564937077462,0.0510168652050197,0.3543347635120153,-9.80486555993557,14938.0
3.0,2.0,159.0,23.552326202392567,0.0,-79.78277113024947,40.459021530479454,273.28564977836606,-0.0168523862957954,-0.0061011873185634,-0.9854388236999512,0.1690832823514938,0.0022689778658738,0.0029572492153265,0.0028037826160546,-0.00085292046424,0.0004520474758464,-0.0053739370778203,0.0579266432812437,0.3628288309648633,-9.803461643457414,14938.0
3.1,1.8999999761581416,159.0,23.54982185363769,0.0238553211092948,-79.7827711315836,40.45902152710103,273.28594994735715,-0.01686274074018,-0.0060968804173171,-0.9854464530944824,0.1690382212400436,0.0020193201813736,0.002832896174374,0.0030228014757114,-0.0071423132903873,-0.0031688141170889,-0.0013660298427566,0.0502250334341079,0.3427282597124577,-9.804445145130158,14938.0
3.3,1.8999999761581416,159.0,23.55483055114746,0.0238553211092948,-79.78277111485102,40.459021616444005,273.26892733764646,-0.016878668218851,-0.0060907769948244,-0.9854616522789,0.168948158621788,-0.0031302630390481,0.0002790333787398,0.0006624702548853,-0.0049243452958762,-0.0013481364585459,-0.003405591007322,0.0602813307289034,0.3357274249568582,-9.80579175889492,14938.0
3.4,1.8999999761581416,156.0,23.54982185363769,0.0079517737030982,-79.78277115788482,40.4590216803184,273.2513837833405,-0.0168767720460891,-0.0060788234695792,-0.9854664206504822,0.1689210087060928,0.0022290219425856,0.0008684473588609,-0.001573142592925,-0.0029754696879535,-0.0060138409025967,0.0041965022683143,0.0524019975028932,0.3316366763412952,-9.805595877170564,14938.0
3.6,1.8999999761581416,156.0,23.552326202392567,0.0238553211092948,-79.78277116289772,40.45902167906881,273.25110793304447,-0.0168432667851448,-0.0060703814961016,-0.9854884743690492,0.168795570731163,0.0012777036051749,-0.0008761751112112,-0.0012240810825272,-0.0089719779789447,-0.0040670526213943,-0.006950391922146,0.060880007953383,0.3458502343297005,-9.804039348363878,14938.0
3.7,1.7999999523162842,156.0,23.54230880737305,0.0238553211092948,-79.78277117726282,40.459021710037135,273.2334857006073,-0.0168491173535585,-0.0060493224300444,-0.9854958057403564,0.1687531322240829,0.0039341930973821,0.0046673680104542,-0.0023994423758681,-0.0013276668032631,-0.0029379383195191,0.0059889610856771,0.0507771339314058,0.3290260041877627,-9.806779938340188,14938.0
3.8,1.7999999523162842,157.0,23.54857063293457,0.0397588685154914,-79.78277119148912,40.45902176763777,273.21478152465824,-0.0168462749570608,-0.0060422061942517,-0.9855114817619324,0.1686618775129318,0.0020515527073346,0.0039200714951929,-0.0030128507385676,-0.009763590991497,-0.0055538918823003,-0.0027930419892072,0.0626528060808777,0.3481423428654671,-9.804142844080925,14938.0
4.0,1.7999999523162842,158.0,23.553577423095703,0.0238553211092948,-79.78277119375295,40.45902176345849,273.21449518394473,-0.0168638415634632,-0.0060360883362591,-0.9855204224586488,0.1686082184314727,0.0040689914191497,0.0036840660885842,-0.0029528000480565,0.0027416888624429,-0.0011809343704953,0.0095756407827138,0.0542728506959974,0.3251865762099624,-9.80750791668892,14938.0
4.2,1.7000000476837158,158.0,23.54857063293457,0.0318070948123931,-79.78277121244719,40.459021817421984,273.1924202461243,-0.0168758258223533,-0.0060410145670175,-0.9855324625968932,0.1685362309217453,0.0023753845089289,0.0038657652574417,-0.0068650292714619,-0.0081326132640242,-0.0031568063423037,-0.0001374128187308,0.0587547414936125,0.3608593425527215,-9.803144139647484,14938.0
4.3,1.7000000476837158,160.0,23.556081771850582,0.0238553211092948,-79.78277121486245,40.45902181358838,273.1917526741028,-0.0168742593377828,-0.0060241343453526,-0.985544502735138,0.1684669554233551,0.004126138643455,0.0029103235414537,-0.0068570875325544,0.0119858775287866,0.0023314880672842,0.0067810476757586,0.0590721950540319,0.3375166364014149,-9.806250180602074,14938.0
4.5,1.600000023841858,160.0,23.54105758666992,0.0,-79.78277123357988,40.45902189070271,273.17044735145566,-0.0168998669832944,-0.0060349623672664,-0.9855583906173706,0.1683825254440307,0.0026387734324919,0.00018972445692,-0.0069808559330915,0.0019300822168588,0.0008581237052567,0.0057537392713129,0.0520830364571884,0.3250177378579974,-9.805649671554567,14938.0
4.61,1.600000023841858,159.0,23.54857063293457,0.0159035474061965,-79.78277123595578,40.45902189019492,273.1697645206452,-0.0168874040246009,-0.0060413288883864,-0.9855698943138124,0.168316587805748,0.0017706040277886,-0.0008140677638702,-0.0068111315208193,-0.0005614056717604,0.0036527107004076,-0.0006280976813286,0.0589825773378834,0.3620853574946523,-9.803044736981391,14938.0
4.8,1.5,158.0,23.556081771850582,0.0318070948123931,-79.7827712288572,40.459021903482096,273.1478018779755,-0.0168681666254997,-0.006038334686309,-0.9855853915214542,0.1682275086641311,0.0021575879349555,0.0065124166716745,-0.0070216090200537,0.0081361969932913,0.0080089336261153,0.0051324293017387,0.050583426640369,0.3395486169308424,-9.805561378598211,14938.0
4.91,1.5,160.0,23.53604888916016,0.1033730581402778,-79.78277124595346,40.459021962745645,273.12644839477537,-0.0168629195541143,-0.0060472353361546,-0.985592484474182,0.1681863665580749,0.0001729987738026,0.0057554187285551,-0.0072376085081289,-0.0108326142653822,-0.0033351676538586,-0.0037325946614146,0.053107441230677,0.3613717048242688,-9.803516607284546,14938.0
5.11,1.399999976158142,160.0,23.54606628417969,0.0795177370309829,-79.78277124515094,40.45902195274885,273.1250088233948,-0.0168693382292985,-0.0060689649544656,-0.9856094121932985,0.1680857688188552,0.0009455596758595,0.004443355989812,-0.0070785554022804,-0.0018252693116664,0.0022965532261878,-0.0028823541942983,0.0563321486860513,0.326610117405653,-9.806142007112504,14938.0
5.2,1.399999976158142,164.0,23.54606628417969,0.1113248318433761,-79.78277126719225,40.45902200745096,273.10275411796573,-0.0168738178908824,-0.0060601932927966,-0.9856166243553162,0.1680429279804229,0.001551902016209,0.0049199798967577,-0.0067766000450598,-0.0033638165332376,-0.0049795499071478,0.0011051499750465,0.0507100051548332,0.3353799541667104,-9.806450155377387,14938.0
5.4,1.399999976158142,164.0,23.54481315612793,0.1272283792495727,-79.7827712879778,40.45902204297536,273.07846403312686,-0.0168775934725999,-0.0060635050758719,-0.9856296181678772,0.1679661870002746,0.0015973582194828,0.0063543661754577,-0.0072423096165525,-0.0076137795113027,-0.0054070074111223,-0.0053977998904883,0.0520981981046497,0.3593805451691151,-9.803407264351844,14938.0
5.5,1.399999976158142,166.0,23.54230880737305,0.0954212844371795,-79.78277128890258,40.45902203681004,273.0777518768311,-0.0168779771775007,-0.0060553569346666,-0.9856364130973816,0.1679267287254333,0.0037960295688657,0.0059550803935945,-0.0072466907892505,0.0051654484122991,0.0053777494467794,0.0112449619919061,0.056283799521625,0.325046498849988,-9.8066787815094,14938.0
5.61,1.399999976158142,166.0,23.533544540405277,0.1272283792495727,-79.78277127985218,40.459022105704285,273.0526568908692,-0.0168964769691228,-0.006091889925301,-0.9856503009796144,0.1678419709205627,-0.0023657037146282,0.0029348830333145,-0.0067958241226736,-0.0052739363163709,-0.0057547176256775,0.0028559055645018,0.0564466307731345,0.3637349301204085,-9.803281549215315,14938.0
5.8,1.2999999523162842,163.0,23.54230880737305,0.0954212844371795,-79.7827712769682,40.459022104247495,273.05197167587284,-0.0168810561299324,-0.0060894172638654,-0.9856586456298828,0.1677949875593185,-0.0011710964548002,0.0018320534221002,-0.0068296925278651,0.0083988839760422,0.0080334255471825,0.0062999688088893,0.0612177212024107,0.3452545126900077,-9.80466266155243,14938.0
6.0,1.2999999523162842,163.0,23.539804458618164,0.0795177370309829,-79.78277129519759,40.459022150041385,273.0269200820923,-0.0168994031846523,-0.0060869725421071,-0.985672414302826,0.1677120476961136,-0.000372149690466,0.0016715212342693,-0.0071104804666204,0.004353645723313,0.0003106832737103,0.0088985711336135,0.0556179432710632,0.3259155047312379,-9.806527338624,14938.0
6.11,1.2999999523162842,164.0,23.54857063293457,0.1113248318433761,-79.78277129352861,40.45902214925985,273.02621817779544,-0.0168944597244262,-0.0060932552441954,-0.985679805278778,0.1676689386367798,-0.001460195920731,0.0004952839349952,-0.0069278976494838,0.000419035583036,0.0013357129646465,-0.0036068211775273,0.0587997741904109,0.3644817657396197,-9.8033575630188,14938.0
6.3,1.2999999523162842,165.0,23.54857063293457,0.0954212844371795,-79.7827713138978,40.45902219287873,272.99768424224857,-0.0168965589255094,-0.0060710413381457,-0.9856939315795898,0.1675863713026046,0.0007074941920146,0.0012625874265107,-0.0100055847325472,0.0075800898484885,0.0075223743915557,0.0065081766806542,0.0613091204920783,0.3399365796893835,-9.80579175889492,14937.0
6.4,1.2999999523162842,166.0,23.54857063293457,0.1113248318433761,-79.78277136284855,40.45902223415408,272.9718010444641,-0.0168820787221193,-0.0060617425478994,-0.985700249671936,0.1675508320331573,0.0031831239566948,0.0016182354979864,-0.0083251107002606,-0.0081800958141684,-0.0054383687674999,-0.0063420850783586,0.0540533517021685,0.3636504378542304,-9.80440187573433,14937.0
6.6,1.2999999523162842,168.0,23.53104019165039,0.0874695107340812,-79.78277137209359,40.45902222931243,272.9701614398957,-0.0168748386204242,-0.0060358373448252,-0.9857186675071716,0.1674443334341049,0.0043359693204267,0.0002213216529004,-0.0083232482955191,0.0051775728352367,0.0022972729057073,-4.978759898222052e-05,0.0582093287492171,0.3612449298799038,-9.80243253350258,14937.0
6.71,1.2999999523162842,169.0,23.54606628417969,0.1113248318433761,-79.78277137013298,40.45902227448044,272.9427123088837,-0.0168934538960456,-0.0060374489985406,-0.9857243299484252,0.1674091517925262,0.0007601355324753,0.002704659840986,-0.0083840361965703,-0.006770521402359,-0.0062861936166882,0.0042684930376708,0.0503891346277669,0.3433436791598797,-9.80486322104931,14937.0
6.91,1.2999999523162842,170.0,23.543561935424805,0.0636141896247863,-79.78277137435109,40.45902229446219,272.9153640289307,-0.0168857518583536,-0.0060002361424267,-0.985743761062622,0.1672966480255127,-0.0002144247735576,0.0066258534948416,-0.0085332629077412,-0.0083520775660872,-0.004926870111376,-0.0088171260431408,0.0528447596356272,0.3631866074725985,-9.803354639410973,14937.0
7.0,1.2000000476837158,168.0,23.54481315612793,0.1033730581402778,-79.78277137308935,40.45902228847292,272.91451144409183,-0.0168810077011585,-0.0059944982640445,-0.9857524633407592,0.1672461628913879,0.001670280787024,0.0065678496526863,-0.0086175876190493,0.0063177742995321,-0.0005511565250344,0.006949936505407,0.0535520854359492,0.3253079790249467,-9.805900517106055,14937.0
7.2,1.2000000476837158,167.0,23.54606628417969,0.0954212844371795,-79.7827714183919,40.459022322044575,272.8878490943909,-0.016859283670783,-0.005995915737003,-0.9857686161994934,0.1671526879072189,0.0046715527894843,0.0049710508378495,-0.0074306721897185,-0.0055364347063004,-0.0062314281240105,-0.0016368383076041,0.0580349720874801,0.3606803812086583,-9.803835865259169,14937.0
7.3,1.2000000476837158,167.0,23.54606628417969,0.1192766055464744,-79.78277142283945,40.4590223165223,272.88712763977054,-0.0168455839157104,-0.0059874826110899,-0.9857811331748962,0.1670808047056198,0.0063152328496685,0.0041723991542293,-0.007451925484909,0.0079482570290565,0.0063261063769459,0.0066498522646725,0.0615519946441054,0.3401413784176112,-9.806106339097022,14937.0
7.5,1.2000000476837158,168.0,23.543561935424805,0.0874695107340812,-79.78277143670071,40.45902238733603,272.8597583789826,-0.0168423019349575,-0.0059851957485079,-0.9857962727546692,0.1669917851686477,0.0037938319639176,-0.0009170080733226,-0.0076649956489616,0.0036465057637542,-0.003214529948309,0.0095658442005515,0.0539259509230032,0.3627979503571988,-9.804019467830658,14937.0
7.6,1.2000000476837158,169.0,23.54731750488281,0.1033730581402778,-79.78277144069921,40.45902238752283,272.85901236724857,-0.0168333332985639,-0.0059946435503661,-0.9858062863349916,0.1669334322214126,0.0026431428804911,-0.0019598165191866,-0.007528509981013,0.0002272760757477,0.0025605387054383,-0.0045859115198254,0.0587927027139812,0.3643004655092954,-9.802489251494409,14937.0
7.8,1.2000000476837158,165.0,23.54481315612793,0.1033730581402778,-79.78277145424597,40.459022390054216,272.8310580272675,-0.0168238207697868,-0.0059921941719949,-0.9858255982398988,0.1668204814195633,0.0056415092472828,0.0036553130641484,-0.0086505290539435,0.0076191346161067,0.0064724734984338,0.0030098885763436,0.0501753823505714,0.3371872554346919,-9.805475424528122,14937.0
7.9,1.2000000476837158,164.0,23.54857063293457,0.055662415921688,-79.78277146364806,40.45902242919432,272.8053624649048,-0.0168190132826566,-0.005978419445455,-0.9858330488204956,0.1667774617671966,0.0029112236145748,0.0038515610305186,-0.0084873266944636,-0.0110264476388692,-0.0032409257255494,-0.0060828044079244,0.05198984188959,0.3596592015400529,-9.804177342653276,14937.0
8.01,1.2000000476837158,163.0,23.54731750488281,0.0874695107340812,-79.78277147091529,40.45902242053732,272.803699256897,-0.0168130006641149,-0.0059792785905301,-0.985848605632782,0.1666858196258545,0.0038104515660553,0.0026581782113816,-0.0083808459619617,-7.254529191413894e-05,0.0037683269474655,-0.0040604099631309,0.0564323005266487,0.325024827606976,-9.807645326256752,14937.0
8.2,1.2000000476837158,162.0,23.54857063293457,0.0238553211092948,-79.78277147882764,40.4590224569882,272.77756214332584,-0.016825895756483,-0.0059712068177759,-0.985855221748352,0.1666457056999206,0.0036764691181004,0.0038371061240745,-0.0086265719559148,-0.0005688244127668,-0.0052476194687187,0.0036666265223175,0.0504573688935488,0.3339225722104311,-9.805925660133363,14937.0
8.4,1.2000000476837158,162.0,23.55107307434082,0.0238553211092948,-79.78277149516002,40.45902246167312,272.7516500968933,-0.0168334152549505,-0.0059767416678369,-0.9858718514442444,0.1665466874837875,0.0043761059072381,0.0085200766577614,-0.0067369871868828,-0.0125717986375093,-0.0065146540291607,-0.0036216189619153,0.0614109259983524,0.349475983120501,-9.804361529946329,14937.0
8.5,1.2999999523162842,159.0,23.539804458618164,0.0159035474061965,-79.78277149835391,40.45902245291949,272.7509937305451,-0.0168272834271192,-0.0059635280631482,-0.9858814477920532,0.1664905101060867,0.0067159065905575,0.0080463169901869,-0.0068202502370025,0.0103946309536695,0.0071403719484806,0.0091043887659907,0.058944163871929,0.3306421380490065,-9.807590947151184,14937.0
8.7,1.2999999523162842,158.0,23.54982185363769,0.0318070948123931,-79.78277149096371,40.45902246826893,272.72258806419376,-0.0168367996811866,-0.0059565771371126,-0.985896646976471,0.1664001196622848,0.0033876186767636,0.0103974437810017,-0.0080214113874679,-0.0014847830170765,-0.0015409806510433,0.0104056121781468,0.0555340311583131,0.3652910569310188,-9.80411653161049,14937.0
13.4,1.399999976158142,152.0,23.56109046936035,0.0715659633278846,-79.78277212855532,40.4590232168346,272.1366019268036,-0.0167686492204666,-0.0058705755509436,-0.9862719178199768,0.1641711294651031,0.0102282893813384,0.0027211968159289,-0.0144179363509185,-0.0027864556759595,-0.007099749520421,0.0006054698606021,0.0500397041067481,0.3403918950632215,-9.805903440713882,14937.0
13.6,1.2999999523162842,154.0,23.557334899902344,0.0715659633278846,-79.78277215229265,40.45902320672187,272.1338024158478,-0.0167679786682128,-0.0058731590397655,-0.9862924218177797,0.1640476286411285,0.010209006424452,0.0013753130590095,-0.0142295331228887,-0.0073345117270946,-0.0037311883643269,-0.0077216769568622,0.0532186982128769,0.3642129034548998,-9.804406553506851,14937.0
13.7,1.2999999523162842,152.0,23.553577423095703,0.0715659633278846,-79.78277209102806,40.459023283408925,272.10123086166385,-0.0167802274227142,-0.0058705257251858,-0.9863094687461852,0.1639437079429626,-0.0026770581403311,0.0017727649875545,-0.0139162133498408,0.0035485159605741,0.0027130842208862,-0.0027663370128721,0.0538644500914961,0.3256838088110089,-9.806222698688508,14937.0
13.91,1.2999999523162842,149.0,23.557334899902344,0.0795177370309829,-79.78277214186315,40.45902335360322,272.0713756103516,-0.0167786087840795,-0.0058793583884835,-0.9863160252571106,0.1639044433832168,-9.594626223908949e-05,4.604500226078045e-05,-0.014091964202634,-0.0077304290607571,-0.0051495097577571,-0.0014735243748873,0.0503664035769179,0.3409965702518821,-9.806022723913197,14937.0
14.1,1.2000000476837158,148.0,23.553577423095703,0.0636141896247863,-79.78277214518776,40.4590233537954,272.06856656265256,-0.0167681016027927,-0.0058958586305379,-0.986331343650818,0.1638127565383911,-9.481887850576172e-05,-0.0012968670854709,-0.0139546726151038,-0.0089012365788221,-0.0032999829854816,-0.0061937165446579,0.0531365585373714,0.3627968540042639,-9.804424679875378,14937.0
14.21,1.2000000476837158,145.0,23.553577423095703,0.0795177370309829,-79.78277217920105,40.45902342606161,272.0385787506104,-0.0167726092040538,-0.0058786757290363,-0.9863403439521792,0.1637586951255798,0.0017006517042953,-0.0017944829948113,-0.0148365616728117,0.002213962143287,-0.004273222759366,0.00730657344684,0.0546922650793567,0.3260577017068863,-9.807241283655165,14937.0
14.4,1.2000000476837158,145.0,23.49848747253418,0.9860199689865112,-79.78277223658448,40.45902346636007,272.00755143356326,-0.0167981497943401,-0.0058516548015177,-0.9863626956939696,0.1636221706867218,0.0060964125696847,0.0034797785843618,-0.0150668983494572,-0.0027612121775746,-0.0058216270990669,-0.0007304930477403,0.0574879924720153,0.3633453228324652,-9.80320378124714,14937.0
14.5,1.100000023841858,142.0,23.543561935424805,0.3737333714962005,-79.7827722435042,40.45902346172024,272.0060689468384,-0.0167745389044284,-0.0058484906330704,-0.9863683581352234,0.1635904163122177,0.0075010449642372,0.002222885258909,-0.0153823302384006,0.011432372033596,0.0062795989215373,-0.0061238417401909,0.0551302763493731,0.3241476721689105,-9.796970064640046,14937.0
14.7,1.100000023841858,141.0,23.54105758666992,0.3657816052436829,-79.78277225685177,40.45902354142071,271.976400138855,-0.0167793799191713,-0.0058410218916833,-0.9863832592964172,0.1635006070137024,0.0031447745235059,0.0011332922241958,-0.0122903344792902,0.0113618280738592,0.0053213667124509,0.0106379352509975,0.0508211936149746,0.3634523999691009,-9.800235149860384,14936.0
14.8,1.100000023841858,136.0,23.537302017211918,0.3816851377487183,-79.78277225890653,40.45902353969876,271.9752030391693,-0.0167724154889583,-0.0058410475030541,-0.9863972663879396,0.1634171456098556,0.0011520458484309,0.0006326667174314,-0.0119512735541859,-0.0060955537483096,0.0014091222546994,-0.001470171730034,0.0565282953623682,0.3699506299942732,-9.806691645383836,14936.0
15.0,1.0,137.0,23.537302017211918,0.3737333714962005,-79.78277231537152,40.45902358988555,271.9462182540894,-0.0167575888335704,-0.005783753003925,-0.9864119887351992,0.1633312553167343,0.0068369370277887,0.0030609523333865,-0.0108574456591446,0.0084696551784873,0.0088099278509616,-0.0008578288252465,0.0502948802523314,0.3286524401977658,-9.801310452818871,14936.0
15.1,1.0,134.0,23.53855323791504,0.4373475611209869,-79.78277232104989,40.45902358543037,271.94517123889926,-0.0167595576494932,-0.0057643391191959,-0.9864119291305542,0.1633322685956955,0.0053061562064024,0.0030223290057216,-0.0107719231706152,-0.0103965597227215,-0.0037210686132311,-0.0105710122734308,0.0553658643225208,0.3647698142006993,-9.802189289331436,14936.0
15.3,1.0,133.0,23.53855323791504,0.4930099844932556,-79.78277234263408,40.4590236359521,271.915777923584,-0.0167580526322126,-0.0057566817849874,-0.9864316582679749,0.1632138937711715,0.0044322218023371,0.0066258410687806,-0.0097357384146041,0.0029249363578855,-0.0019880775362253,-0.0052619953639805,0.0629532022168859,0.3737651707604528,-9.8102607858181,14936.0
15.4,1.0,129.0,23.533544540405277,0.5009617805480957,-79.78277238003203,40.45902372630421,271.88697374057773,-0.0167866982519626,-0.0057636247947812,-0.986434280872345,0.1631944924592971,0.0020338979186585,0.0039052080636585,-0.0094184787538809,-0.0102535849437117,-0.0024450570344924,-0.0083337696269154,0.0623876759642735,0.3564168839156628,-9.817452861070633,14936.0
15.6,1.0,129.0,23.44464874267578,1.4790298938751218,-79.78277238552418,40.4590237181303,271.8851583023072,-0.016792207956314,-0.0057190600782632,-0.9864519834518432,0.1630884110927581,0.0035096332557523,0.0029051926171948,-0.0089326946370267,0.0056482930667698,-0.0049129640683531,-0.0148887354880571,0.0503846030356362,0.3569809575006366,-9.801449031829836,14936.0
15.7,1.0,128.0,23.52352905273437,0.4771064221858978,-79.78277242365719,40.45902379414424,271.85689318370817,-0.0167360305786132,-0.0057140253484249,-0.9864631891250608,0.1630269587039947,0.0027742089496691,0.0044250276195438,-0.0085950583811386,0.0088537689298391,0.00932670943439,0.0198068600147962,0.0442634361935779,0.2903153900429606,-9.726683024168016,14936.0
15.9,1.100000023841858,128.0,22.677143096923828,10.035139083862305,-79.78277246737686,40.45902387938846,271.82807743740085,-0.0167614575475454,-0.0056547545827925,-0.9864792823791504,0.1629287749528885,0.0063662782595998,0.000949256059764,-0.0083986351130918,0.0143139054998755,0.0051234965212643,-0.0047684665769338,0.0447967479424551,0.3144464835897088,-9.807682163715365,14936.0
16.01,1.100000023841858,132.0,23.48221015930176,1.2802356481552124,-79.78277247105105,40.45902387558599,271.82731235218046,-0.0167411658912897,-0.0056219086982309,-0.9864811301231384,0.162920668721199,-0.0018631628207255,0.0023535898046219,-0.0078804537674635,-0.0135232573375105,-0.0050291698426008,-0.0050374483689665,-0.0010257609392283,0.4165249451994896,-9.800330459475518,14936.0
16.1,1.2000000476837158,132.0,23.526033401489247,0.4691546559333801,-79.78277247490584,40.45902387363216,271.8265256900788,-0.0167302284389734,-0.0057207909412682,-0.9864866137504578,0.162885382771492,0.000582357407487,0.0032908535771478,-0.007230401238353,0.0074195978231728,-0.0116497380658984,0.0057117147371172,0.0624905823916196,0.3497778821736574,-9.782097086906433,14936.0
16.3,1.2999999523162842,131.0,23.527284622192383,0.5009617805480957,-79.78277254600508,40.45902392802292,271.7990707178116,-0.0167301725596189,-0.0056975525803864,-0.9865021109580994,0.1627922505140304,0.0076228902553678,0.0056418583160574,-0.0060340313135919,0.0110348016023635,-0.0060977549292147,0.0232153236865997,0.0673509342223405,0.3525369274243713,-9.822888432741166,14936.0
16.5,1.2999999523162842,131.0,23.32445335388184,4.087211608886719,-79.78277255803712,40.45902402414314,271.7694354076386,-0.0167889036238193,-0.0056864870712161,-0.9865136742591858,0.1627163141965866,0.0054252976767365,0.0056110506813189,-0.0069463804938529,0.025648083537817,-0.0104586342349648,-0.0035656539257615,0.1003461508825421,0.3218886369466782,-9.805346785783769,14936.0
16.6,1.399999976158142,130.0,23.268110275268555,4.961906909942627,-79.78277256152931,40.45902401996923,271.768884303093,-0.0167945306748151,-0.0057066706940531,-0.986522912979126,0.1626590341329574,0.0068981870174248,0.0025806435922386,-0.0051276564749934,0.0332504734396934,0.0043367617763578,1.6109244825202037e-05,0.0407685325574129,0.3522896998375654,-9.765712019205091,14936.0
16.8,1.5,129.0,23.139148712158203,7.19635534286499,-79.78277258024113,40.45902415880979,271.7425856609345,-0.0166216306388378,-0.0057306308299303,-0.9865320324897766,0.1626207530498504,0.0014602997421525,-0.0017101254252068,0.001042674878153,0.0122736291959881,-0.0185091868042945,-0.0068050744011998,0.0737595191225409,0.3959174203500152,-9.82382632613182,14936.0
16.91,1.600000023841858,132.0,23.052757263183597,8.10285758972168,-79.7827726306342,40.459024248269785,271.7139983196259,-0.0162647273391485,-0.0055899764411151,-0.9865472912788392,0.1625691205263137,0.0019885894110768,-0.002708874469295,-0.0018997874975568,0.0367700308561325,0.1046893894672393,-0.0021000946871936,0.1275410940684378,0.2997685835883021,-9.884223386049271,14936.0
17.11,1.600000023841858,131.0,22.85869026184082,10.870075225830078,-79.78277263765655,40.45902424928751,271.71425020885465,-0.0149170700460672,-0.0054765408858656,-0.9865664839744568,0.1625858098268509,0.0041924343497848,-0.0034842212385491,0.0049682196366296,0.056080050766468,0.079054556787014,0.0609494410455226,0.0165789325931109,0.4380905728787184,-9.81889244556427,14936.0
17.2,1.600000023841858,130.0,22.804851531982425,12.28549098968506,-79.78277268987004,40.45902431118552,271.6890584249497,-0.0137723479419946,-0.0053022988140583,-0.9866130352020264,0.1624102592468261,0.0155474504208887,0.0057333333165492,0.0046671910630293,0.1015400439500808,-0.06087177246809,0.0030615485738962,0.0750882257893681,0.0658989974856376,-9.849120211601257,14936.0
17.31,1.600000023841858,130.0,22.68340301513672,13.780424118041992,-79.7827727747655,40.4590243877534,271.65968346786497,-0.0112126031890511,-0.0062068304978311,-0.9866436719894408,0.1623887419700622,0.0016654191363689,0.003313830383047,0.014236094634913,-0.0448446683585643,0.1678989976644516,-0.0681487098336219,0.2290993179380893,0.2139640925824642,-9.938227100372314,14936.0
17.5,1.7000000476837158,129.0,22.488082885742188,17.295108795166016,-79.78277279087655,40.459024385496825,271.66111505222324,-0.0094343535602092,-0.0072513418272137,-0.986644685268402,0.1624522060155868,0.0016286453100342,-0.0030494000738397,0.0186384764447209,0.0164801999926567,-0.0805475637316703,0.0486939772963523,0.0359247676329687,0.5416073399037123,-9.824936127662658,14936.0
17.7,1.7000000476837158,127.0,22.290258407592773,20.36449241638184,-79.78277286154358,40.45902452831057,271.63338816356656,-0.0029941734392195,-0.0120478877797722,-0.9866899847984314,0.1621383726596832,0.0194354082770976,-0.0183400875690256,0.0327554404388269,0.0301375836133956,-0.023372484371066,-0.0233537331223487,-0.0220127569511532,0.1601232780329883,-9.881797960996629,14936.0
17.8,1.7000000476837158,129.0,22.160045623779297,22.37629127502441,-79.78277289703416,40.45902454522735,271.63683545780185,0.0021488398779183,-0.0137744387611746,-0.9868229031562804,0.1612027734518051,0.0251628172671193,-0.025871802065533,0.040948376105118,0.0373678691685199,-0.0205208901315927,0.1156732141971588,0.0710292531363666,0.054984146207571,-9.935259053707124,14936.0
18.01,1.7000000476837158,131.0,22.352861404418945,18.26522445678711,-79.78277303496972,40.45902471929389,271.6267646570206,0.0168543756008148,-0.015266410075128,-0.986893355846405,0.159763902425766,0.0584421710061798,-0.0768591325609499,0.2538127626100515,0.0254344046115875,0.1400770097970962,-0.2396376878023148,-0.0100535838212817,0.1715884071215987,-10.993598070144651,14936.0
18.1,1.7999999523162842,132.0,22.34660148620605,18.225465774536133,-79.7827731452887,40.459024768820456,271.6577236671448,0.0171346832066774,-0.0157919861376285,-0.9870960116386414,0.1584251523017883,0.0701492795566056,-0.0800215054777414,0.352312336728378,-0.1055852845311164,-0.1795654892921447,0.1142098903656006,0.0572199478838592,-0.2552967078611254,-10.645736685991288,14936.0
18.3,1.7999999523162842,132.0,22.26897430419922,19.6965446472168,-79.78277361877146,40.4590249497716,271.6777369995117,-0.0003237982746213,-0.0052774287760257,-0.9875961542129515,0.1569269448518753,0.1064821889923653,-0.1093595061121462,0.303718235755673,-0.1446401327848434,-0.111168548464775,0.0871710926294326,-0.0354936542501673,-0.0265238746907562,-9.737312092781067,14936.0
18.4,1.7999999523162842,134.0,22.31529998779297,18.734378814697266,-79.78277429910877,40.45902532009361,271.6323376913071,-0.0070274537429213,-0.0012541285250335,-0.9876642227172852,0.1564241051673889,0.1161378602414137,-0.1412962808500734,0.2201453789604925,-0.1109442487359047,-0.1250869929790496,0.0272903256118297,-0.0955215492937714,0.0801845858618617,-9.477719106674195,14936.0
18.5,1.7999999523162842,132.0,22.273983001708984,18.909318923950195,-79.78277464555153,40.459025480886936,271.668605091095,-0.01058045681566,0.0083576524630188,-0.9874945282936096,0.157075896859169,0.1077027284827513,-0.1104520654299432,0.1326938409021934,0.0663815513253212,-0.0477695502340793,-0.0884702280163765,0.1627142889238894,0.1313182583358139,-9.615582418441774,14936.0
18.7,1.8999999761581416,131.0,22.15253257751465,21.135814666748047,-79.78277499288791,40.459025855827306,271.64120340538034,-0.0067086140625178,0.0078353649005293,-0.9874181151390076,0.1577946245670318,0.1002699361660186,-0.1441844201472087,0.0976711973312424,0.0682851299643516,0.1515343189239502,0.0148615473881363,-0.1552537533827126,-0.0340441797394305,-9.327745626568795,14936.0
18.9,1.8999999761581416,132.0,22.21638870239257,19.513652801513672,-79.78277538909471,40.45902619441449,271.6262099761963,-0.0012932798126712,-0.0024769485462456,-0.987302839756012,0.1588251441717147,0.0881196460763238,-0.1017693863822971,0.1270210799231695,0.0114123113453388,0.133980244398117,0.0292758252471685,-0.105726155731827,-0.0394640187453478,-9.678432385325433,14936.0
19.01,1.8999999761581416,134.0,22.23141288757324,19.56931495666504,-79.78277551620717,40.45902624800655,271.63868463230136,-0.0012105716159567,-0.0037752534262835,-0.9872320294380188,0.1592400223016739,0.0773871751171676,-0.0961285193312458,0.1178592521148544,-0.0383496284484863,0.0541019290685653,-0.0234349444508552,0.0744163121888414,-0.0984908110834658,-9.633855552077296,14936.0
19.2,1.8999999761581416,136.0,22.16880989074707,19.577266693115234,-79.7827758340232,40.45902656368981,271.6384037752152,-0.0056114648468792,-0.0029826122336089,-0.9870258569717408,0.1604357957839965,0.0711629310288055,-0.0909755899852974,0.1085093476140367,-0.0536021627485752,-0.0693102851510047,-0.0375242456793785,0.1716860921680927,-0.0057192598446272,-9.757709519863129,14936.0
19.3,2.0,136.0,22.14877700805664,21.088104248046875,-79.78277594246204,40.45902662283957,271.64913571071634,-0.0063532977364957,-0.0004105008265469,-0.9869316220283508,0.1610140949487686,0.0621835055250163,-0.0936825670794795,0.1066483083974656,0.008431227877736,0.0255345050245523,-0.0197228323668241,0.1100865888968109,0.1574883216619491,-9.971993601322174,14936.0
19.51,2.0,136.0,22.087427139282227,21.167621612548828,-79.78277614677222,40.459026696242674,271.6551475543976,-0.0064750025048851,-0.0027582896873354,-0.9866721034049988,0.1625692099332809,0.0509176299032017,-0.057725549549433,0.1367940466397989,0.0013885531807318,-0.0494331493973732,-0.0553129091858863,0.0423665217775851,0.0220694840792566,-9.87091512322426,14936.0
19.6,2.0,134.0,22.101198196411133,21.445934295654297,-79.78277621443019,40.45902673347294,271.6707311887741,-0.0047916038893163,-0.0005897285300306,-0.9865593314170836,0.1633322983980178,0.0387536855124345,-0.0534490075400337,0.172389939669124,0.0470086559653282,-0.0038777200970798,-0.0473633781075477,0.1988143588230013,0.0805995554476976,-10.180721658468247,14936.0
19.8,2.0,132.0,22.602020263671875,8.826469421386719,-79.7827765200068,40.4590268019732,271.67711496543893,-0.004553725477308,0.0036339755170047,-0.9866309762001038,0.1628661155700683,0.0452899324957105,-0.0055421318237097,0.1859021579256274,0.0069618527777493,-0.1128017678856849,0.0383651442825794,0.1201063136849552,-0.0099643292720429,-9.823512915372849,14936.0
19.9,2.0,133.0,22.26897430419922,20.72232246398925,-79.78277663503522,40.45902700707248,271.6561995763779,-0.0035626925528049,0.0033230921253561,-0.9867776036262512,0.1620071232318878,0.0294542047529234,-0.0177779464520161,0.1368502062915623,0.0388150736689567,-0.0051395436748862,0.0164995547384023,0.0931033601704985,0.0834440522734075,-9.315541318058967,14936.0
20.11,2.0,132.0,21.706802368164062,26.38398551940918,-79.78277671079,40.45902700911434,271.6580545921326,-0.0026741081383079,4.093585812370293e-05,-0.9869908690452576,0.160754382610321,0.0333147666565282,-0.0013176586109051,-0.0298642989328954,0.0261840987950563,0.0451599918305873,-0.0197182316333055,0.0173129328887444,0.0901364555396139,-9.47297643005848,14936.0
20.2,2.0,132.0,21.82574844360352,25.00832939147949,-79.78277682540896,40.45902721131078,271.6440649051666,-0.0013710855273529,-0.0013629260938614,-0.9871092438697816,0.1600366830825805,0.0299777931314673,0.002497400121624,0.1092602207338234,-0.0155091183260083,0.0314064882695674,-0.0445914715528488,-0.0068784520751796,0.058086372767575,-10.499923499822618,14936.0
20.4,2.0,132.0,21.52901268005371,28.9444580078125,-79.78277703708986,40.45902726025334,271.6488306541443,-0.0014262308832257,-0.0036268087569624,-0.9871176481246948,0.1599488109350204,0.028830199189536,0.0129740364470127,0.3603510183009422,-0.0175099112093448,-0.0041862176731228,0.0748337879776954,0.0763178998092189,0.0644820755207911,-11.131509329080584,14936.0
20.51,2.0,131.0,21.41883087158203,32.08540725708008,-79.78277706693606,40.45902724150724,271.6943228263856,-0.0021110128145664,-0.0018588318489491,-0.9870706796646118,0.1602609157562256,0.03950004840527,0.0137319187649297,0.556889060392664,-0.0607175752520561,-0.0994151309132576,0.0373695604503154,0.0389525015791878,-0.0805580036714673,-11.668925750255587,14936.0
20.6,2.0,131.0,21.71431541442871,27.44952392578125,-79.78277709764681,40.45902722446591,271.7603576202393,-0.0033976808190345,-0.0014142635045573,-0.9869505763053894,0.160981997847557,0.0276329364370931,0.0124069159286019,0.7687021976343521,-0.0572694391012191,0.0680733174085617,-0.0214783903211355,-0.0343883706070482,0.1607463536784052,-11.75833903312683,14936.0
20.81,2.0,132.0,21.357481002807614,31.91046905517578,-79.782777268958,40.45902733387437,271.90730202388767,-0.0014388124691322,0.0019090131390839,-0.9867480397224426,0.1622425764799118,0.0428487144203912,0.0084954420711897,1.1772812404418993,0.0649321377277374,-0.0601538084447383,0.0302506741136312,-0.0165397631004452,0.0018069906346499,-12.238059808015825,14936.0
20.9,2.0,132.0,21.441368103027344,30.47914886474609,-79.78277741667566,40.45902744906061,271.99931979370115,-0.0006972398841753,0.002596820006147,-0.9867114424705504,0.1624606102705001,0.0386187451102594,0.0118419321353057,1.4262565263343423,0.0126463221386075,0.0084257731214165,-0.0334177501499652,-0.0068037664575967,-0.0145605879533104,-12.364262602329257,14936.0
21.1,2.0999999046325684,133.0,21.226015090942383,35.210453033447266,-79.78277747361429,40.45902738000212,272.32999038887027,-0.0055186706595122,0.0030038626864552,-0.9865881204605104,0.1631086617708206,0.0399831823451223,0.0214494812266614,1.8633684566925723,-0.0605492368340492,0.0913657695055008,0.0563899874687194,-0.0336510093044489,0.1453021212480962,-12.00656386256218,14937.0
21.2,2.0999999046325684,134.0,21.35622978210449,32.14107131958008,-79.78277768031654,40.45902750056678,272.46238231849674,-0.0054057850502431,0.0015666775871068,-0.9865527153015136,0.1633466482162475,0.0584978307857862,0.0149714744235128,2.054723896601782,0.0308908615261316,0.0080840615555644,-0.0039109699428081,-0.1189178853761404,0.0534650806942954,-11.97032749772072,14937.0
21.4,2.200000047683716,134.0,21.405059814453125,31.27432632446289,-79.78277802076771,40.4590276770885,272.79875636291507,-0.0055424915626645,0.0024382174015045,-0.9866510033607484,0.1627363562583923,0.0532651362709526,0.0229672301890302,2.408129567448292,-0.0358063206076622,-0.0006685824482701,0.014975618571043,0.045010769739747,0.0070005012815818,-11.818725568056106,14937.0
21.5,2.299999952316284,133.0,21.522750854492188,29.365901947021484,-79.78277804317109,40.45902763126136,273.04993176651004,-0.0048514744266867,0.0053007304668426,-0.986780285835266,0.161904364824295,0.0553162581448585,0.0303613523392283,2.6130393857784715,0.0830706134438514,-0.0215302910655736,-0.0092711066827178,0.0257891514874063,0.1973497409373522,-11.862138805389405,14938.0
21.7,2.5,133.0,21.51899528503418,28.85698699951172,-79.78277866192863,40.45902802416737,273.38669109535215,0.0008702694321982,0.0048043769784271,-0.987231194972992,0.1592192947864532,0.0622379153987531,-0.0167335221125695,2.7883352047585794,-0.0790074616670608,0.0641208961606025,0.0484289415180683,-0.0054786469205282,0.0164069696352817,-11.413431662321091,14938.0
21.8,2.5999999046325684,132.0,21.66924095153809,27.131452560424805,-79.78277872849105,40.459027982292966,273.6717050094605,-0.0020272477995604,0.0003447713679634,-0.987397849559784,0.1582446545362472,0.0597121942944114,-0.0010417871480749,2.9062509887501142,-0.0840796157717704,0.1026585698127746,0.0235816836357116,0.0716447091288864,0.0744658445008099,-11.064324821233749,14938.0
22.0,2.799999952316284,133.0,21.76690101623535,24.73796844482422,-79.78277955030269,40.45902848603527,274.0181715507508,-0.0093780336901545,-0.0042876093648374,-0.9873599410057068,0.1581584513187408,0.1332565135975079,-0.0320922740881541,2.8355087472880864,-0.0085510276257991,0.1253111213445663,-0.0281085837632417,0.0372670005541294,0.2360264777764678,-10.23205085635185,14939.0
22.1,2.900000095367432,133.0,21.640443801879886,26.638442993164062,-79.78278057015513,40.4590293216487,274.27850890350345,-0.0100782038643956,-0.003310267580673,-0.9871527552604676,0.1594267934560775,0.151315762517102,-0.1124551685729258,2.6572453215157377,-0.0145822018384933,-0.0324184782803058,-0.0209449175745248,-0.0569538812991231,0.1182759433239698,-9.945627336502076,14939.0
22.31,3.0,132.0,21.686769485473643,24.66640281677246,-79.7827807164459,40.459029403967534,274.54461217117307,-0.0094127506017684,-0.0011188719654455,-0.9870672225952148,0.1600266546010971,0.1341597981326641,-0.1193783441957683,2.6577147652708253,-0.016840822994709,-0.0422426909208297,0.0577176995575428,-0.0263872417062521,0.1033184550516307,-9.8159711766243,14939.0
22.4,3.0999999046325684,133.0,21.735599517822266,25.723989486694336,-79.78278191486736,40.45903048692608,274.4892771263123,-0.0078553222119808,0.0009330526809208,-0.9869256615638732,0.1609824746847152,0.1572245937363766,-0.2273722554114835,2.475339662201899,0.0283455699682235,0.0197082795202732,-0.0531801283359527,-0.023142466424033,0.0608188360277563,-9.871801561117172,14939.0
22.6,3.2000000476837163,132.0,21.78067398071289,24.523271560668945,-79.7827823238644,40.459030816935694,274.98536229324344,-0.0055997339077293,-0.0023016822524368,-0.9865642786026,0.1632617861032486,0.125482016274195,-0.2401908263434634,2.483211242184391,-0.0254573300480842,0.049697995185852,-0.0252955835312604,-0.0463601974770426,0.0628406204748898,-9.814318753480912,14939.0
22.71,3.2000000476837163,131.0,21.816984176635746,23.839418411254893,-79.78278289137012,40.459031231636665,275.55082631301883,-0.0054235267452895,-0.0010800752788782,-0.9863502979278564,0.1645678430795669,0.1247438483058391,-0.2494578948475112,2.4636618096137566,0.0031855404376983,0.0120122916996479,-5.925719233346172e-05,0.0677406876906752,0.0903133886307478,-9.714235471487044,14940.0
22.9,3.2000000476837163,132.0,21.778169631958008,23.990501403808597,-79.7827826276024,40.45903096238066,275.96918750000003,-0.0042948378250002,-0.0025619559455662,-0.9863353967666626,0.1646742820739746,0.0924919268720894,-0.2336436538544256,2.515216144902487,-0.000826932140626,0.0411406196653842,-0.0023996925447136,-0.0119327487400732,0.0692977464012801,-9.578878276348112,14940.0
23.1,3.299999952316284,133.0,21.83075523376465,23.115806579589844,-79.78278296376061,40.459031336579216,276.4677288551331,-0.0009289857116527,-0.0087531944736838,-0.9864181280136108,0.1640181243419647,0.0891683440444776,-0.2225388577426714,2.466987371220281,0.0687527135014534,-0.0173774771392345,0.0392723716795444,0.0286049992404878,0.0606272209435701,-9.492978585362437,14941.0
23.21,3.2000000476837163,136.0,21.70054244995117,25.09579849243164,-79.78278284456866,40.4590312297816,276.82676673126224,0.0001575375499669,-0.0083005232736468,-0.9865636229515076,0.1631668657064438,0.069737614674097,-0.1990191711396476,2.476301108208596,0.0366377420723438,-0.0259601604193449,0.0419137775897979,0.0752859073597937,-0.008075379403308,-9.448596464395523,14941.0
23.3,3.0999999046325684,140.0,21.680509567260746,25.11965370178223,-79.78278300351585,40.459031427804106,277.0723145027161,0.0010481178760528,-0.0074994876049458,-0.9867412447929382,0.162124902009964,0.0633661046481412,-0.2142305141855714,2.444736986460894,0.0315383560955524,-0.0721655413508415,0.0079915048554539,-0.0076772479712963,-0.0037870280176866,-9.454312702417372,14942.0
23.51,3.0999999046325684,143.0,21.81072425842285,23.0203857421875,-79.78278302213666,40.45903149963878,277.6765477676392,0.0008309974800795,-0.0091614164412021,-0.9870262742042542,0.1602950692176818,0.0520095511175823,-0.2309401520706178,2.4732772078969942,0.0021360572427511,0.0108766350895166,-0.0340308286249637,0.0902325508743524,0.0280886718258261,-9.763115270733834,14942.0
23.6,3.0999999046325684,145.0,21.80696678161621,23.17942047119141,-79.78278318252654,40.45903172851477,277.922746421814,0.0001187350790132,-0.0086453165858984,-0.987097144126892,0.1598895639181137,0.0537058154814807,-0.2459722807644504,2.457419699129686,0.0228695385158062,-0.0556721873581409,-0.0450701341032981,-0.0224984138924628,0.035575809914153,-9.475159780383107,14942.0
23.81,3.0,153.0,21.79444694519043,23.43387794494629,-79.78278304558307,40.45903174084112,278.56074691009525,0.0004869772528763,-0.0056092180311679,-0.9871810078620912,0.1595055758953094,0.0318975659314434,-0.2702759578691681,2.4322130765461845,0.0080463625490665,-0.0121411746367812,-0.0205858424305915,-0.0638082798477262,-0.0407933101337403,-9.393126268386842,14943.0
24.0,3.0,155.0,21.70429992675781,24.68230628967285,-79.78278286880914,40.45903176880676,279.189347984314,-0.0009228790877386,-0.006346533074975,-0.9870591163635254,0.1602287292480468,0.0024312312677345,-0.2740839843143839,2.417555787727089,-0.0181755498051643,0.020616689696908,0.0005981607828289,-0.1014353044331074,-0.0463140227459371,-9.457139246463775,14944.0
24.1,3.0999999046325684,159.0,21.80821990966797,21.55725860595703,-79.7827829824278,40.45903200962693,279.43170237731937,-0.0002171107917092,-0.0079431887716054,-0.9870101809501648,0.1604613065719604,0.0066609947822358,-0.2884710496089707,2.412581837768702,-0.0031981437932699,0.0535731054842472,-0.0238577108830213,-0.0349089532415382,0.0789796483051031,-9.749751459360125,14944.0
24.2,3.0,160.0,21.70304679870605,24.53122329711914,-79.78278253543091,40.45903169302792,279.8597428817749,0.0028684285935014,-0.0076089259237051,-0.9869686365127563,0.160707414150238,-0.0077020592239283,-0.2530387488565629,2.4763958866160403,0.0851035043597221,-0.0084776626899838,-0.0250182878226041,-0.0974987669941038,0.0510980866849422,-9.5475775462389,14944.0
24.4,3.0,163.0,21.783178329467773,23.39411926269531,-79.78278201822552,40.45903145410792,280.5837152023316,0.0075921509414911,-0.0012753700139001,-0.986884832382202,0.1612425595521927,-0.0474170948408738,-0.2297062126459429,2.5327014682885016,0.0379228740930557,-0.0987864583730697,0.0257451087236404,-0.0726857419218868,-0.1222854795958846,-9.593409776687624,14945.0
24.5,3.0,164.0,21.73184394836425,24.87314796447754,-79.78278209961087,40.45903168475738,280.8354899902344,0.008819174952805,0.001508655026555,-0.9868879318237304,0.1611591577529907,-0.0450179390857596,-0.2542183337786773,2.5083491909152302,-0.0043903603218495,-0.0719050988554954,-0.007881736382842,-0.0407076621288433,-0.1098593332059681,-9.61807508647442,14945.0
24.7,3.0,167.0,21.72933959960937,23.93483924865723,-79.78278143953874,40.459031211956585,281.5938231964112,0.0095591861754655,0.0048317243345081,-0.986861765384674,0.1612117141485214,-0.0462557715307451,-0.2171222410535388,2.5942668195108816,-0.0269832015037536,-0.0446328818798065,-0.0928928405046463,0.0087150328187271,0.0323351573757827,-9.734884328842163,14946.0
24.9,3.0,167.0,21.71807098388672,23.68833541870117,-79.7827806017289,40.459030823905096,282.3964135665894,0.0049093761481344,0.0038774528075009,-0.986881673336029,0.1613240391016006,-0.0627457403317106,-0.1990402468382339,2.711617661417069,-0.0367710180580616,0.0329209454357624,0.0103586884215474,-0.0684164430946111,-0.0277162133250385,-9.815078891515734,14947.0
25.0,3.0999999046325684,168.0,21.756885528564453,22.04231643676757,-79.78278065583484,40.45903097699794,282.6683137435913,0.002721945522353,0.0029408116824924,-0.9868484139442444,0.1615992784500122,-0.0389461424647908,-0.1908869242674473,2.720338551940648,-0.0834636017680168,-0.0075948387384414,0.0149346264079213,-0.0894990724883973,-0.1117600437439978,-9.799212471842766,14947.0
25.11,3.0999999046325684,167.0,21.679258346557614,24.44375228881836,-79.7827807098315,40.45903113066405,282.94011569213865,0.003024558071047,0.0029994745273143,-0.9868324995040894,0.1616898030042648,-0.0236209824103164,-0.1963187805621409,2.6999593475159864,0.0377612747251987,0.0619744360446929,-0.033659640699625,0.0528497708821669,-0.0110643275803886,-9.66461366057396,14947.0
25.3,3.0999999046325684,167.0,21.61540412902832,25.97049331665039,-79.78277994219151,40.45903101956584,283.73066401672367,0.0042231669649481,0.0053391978144645,-0.9868983626365662,0.1611995995044708,-0.0695697282423071,-0.1891142580434886,2.780087719293116,0.0228252913802862,0.0039471462368965,-0.0067580062896013,-0.0772842572629451,-0.0185867408243939,-9.64663288772106,14948.0
25.5,3.0999999046325684,167.0,21.723079681396484,23.72809410095215,-79.78277978239228,40.45903079392977,284.4013593215942,0.0037116205785423,0.0076580112800002,-0.9867513179779052,0.1620169132947921,-0.0585611919337238,-0.151614479981945,2.8342117132369067,0.0127077279612422,-0.1247378066182136,-0.0416377410292625,-0.2078841577470302,-0.0187928597442805,-9.687013759016992,14949.0
25.6,3.0999999046325684,168.0,21.67424964904785,24.38809013366699,-79.7827797891142,40.45903090924916,284.68396640014646,0.005021683871746,0.0098827397450804,-0.9865030646324158,0.1633675396442413,-0.0586891358072714,-0.1622689456417637,2.8100498861339016,0.0437901243567466,0.0100807677954435,-0.0298471413552761,-0.0137814807286486,-0.0968988700769841,-9.700443643927574,14949.0
25.7,3.2000000476837163,169.0,21.61540412902832,25.636518478393555,-79.7827796110729,40.45903078975589,285.01582026672367,0.0058836149983108,0.0109005160629749,-0.9862368702888488,0.1648741364479065,-0.0781135274293005,-0.1454718447198267,2.8116685989262016,0.0625178292393684,0.0267507638782262,-0.0509386621415615,-0.040925078052096,-0.0948526369594037,-9.608765149712562,14950.0
25.91,3.2000000476837163,173.0,21.66548538208008,24.467607498168945,-79.78277951551675,40.45903089379452,285.6110808868408,0.0028775106184184,0.0072022075764834,-0.9859609007835388,0.1667965203523636,-0.0868837415364374,-0.1241413263315168,2.8445652786087967,0.0002266809315187,-0.0164015498012304,-0.0161648746579885,-0.1046451608743518,-0.0679932143166661,-9.87798791527748,14950.0
26.01,3.299999952316284,174.0,21.65546989440918,24.92881202697754,-79.78277948295636,40.459030972081145,285.8965928573609,0.0002739456831477,0.0080757047981023,-0.9858840703964232,0.1672344505786895,-0.0791717728581638,-0.1044370638319037,2.8582267875884573,-0.0065470566041767,-0.0148707404732704,-0.0975466817617416,-0.0362086750776507,-0.0138372622523456,-9.938912394046785,14950.0
26.21,3.400000095367432,173.0,21.617908477783203,25.11170196533203,-79.78277952399303,40.459031177680686,286.4737250823975,0.0054197385907173,0.0121088465675711,-0.9862432479858398,0.1647673994302749,-0.0720550571853692,-0.1203749642851248,2.863643148998364,0.0981105864048004,0.0652563646435737,-0.0325445942580699,0.0190569711662828,-0.013475219104439,-9.976894737482072,14951.0
26.4,3.400000095367432,174.0,21.6279239654541,24.91290855407715,-79.78277945372794,40.459031331859954,287.0454127807617,0.0120555395260453,0.0134935593232512,-0.987209141254425,0.158400759100914,-0.1036478329239078,-0.1190953221224245,2.8674976815742483,0.0508730486035347,0.0140476608648896,0.1459280550479889,-0.1038865211885422,-0.162300689779222,-9.938864446878434,14952.0
26.5,3.5,174.0,21.634183883666992,24.51531982421875,-79.78277943715416,40.45903137639457,287.3334643859864,0.0116410460323095,0.0140838725492358,-0.9876495599746704,0.1556103229522705,-0.1093202104646265,-0.1032735945515688,2.8809379984802304,-0.052757516503334,0.0547793097794056,0.0019648522138595,-0.0833440466132015,-0.0024964595865458,-9.91512241244316,14952.0
26.6,3.5,174.0,21.649208068847656,24.435800552368164,-79.782779430057,40.459031406990384,287.6220614929199,0.0086188092827796,0.0148308854550123,-0.9879292845726012,0.1539530307054519,-0.0856134221059982,-0.088093530822116,2.886829546343252,-0.10390405356884,-0.0896869003772735,-0.0120117282494902,-0.135657422253862,-0.222818348519504,-9.823171437978743,14952.0
26.8,3.5,180.0,21.63919258117676,23.9825496673584,-79.78277951173469,40.45903141508055,288.19142604064945,0.0021336453501135,0.0159737840294837,-0.9879279136657716,0.15407395362854,-0.0508168068344192,-0.0933066951736974,2.8638669933455247,-0.0945564284920692,0.0503858253359794,-0.0303247533738613,-0.2048961391858756,0.0198267753794789,-9.805675984025005,14953.0
26.9,3.5999999046325684,179.0,21.634183883666992,24.3721866607666,-79.78277969249234,40.45903148863288,288.4785869140625,0.0013623266713693,0.0148724755272269,-0.9876943826675416,0.1556814461946487,-0.02477312871991,-0.114503743529792,2.8440640324632454,-0.0316863544285297,-0.0263812039047479,0.0635845735669136,-0.3323169633373618,-0.1990527973137796,-9.66705896615982,14953.0
27.1,3.700000047683716,180.0,21.8282527923584,20.19750595092773,-79.78277969619782,40.45903152819058,289.04192233276365,0.0027107447385787,0.0133244330063462,-0.9871171712875366,0.1594204157590866,-0.0333965434270284,-0.0949110489630472,2.787312266478251,0.0128923607990145,-0.0159092061221599,-0.0759080052375793,-0.2128416099026799,-0.104956132248044,-9.541252028346063,14954.0
27.3,3.799999952316284,180.0,21.86080551147461,20.603046417236328,-79.78277963050395,40.45903145735645,289.5913894195557,0.0031411433592438,0.0233762506395578,-0.9864447116851808,0.1623902916908264,-0.0565583935971465,-0.082955135161496,2.628206516107473,0.0196303948760032,-0.1562842279672622,0.0609421096742153,-0.1535781789198518,-0.1164975492283702,-9.323020491600037,14954.0
27.41,3.900000095367432,179.0,21.950952529907227,19.18762969970703,-79.78277975319864,40.45903139088946,289.876866104126,0.0039311693981289,0.0258104875683784,-0.9863348007202148,0.1626717150211334,-0.0516007448257895,-0.1130968950145768,2.566444724123289,0.0213052872568368,0.0591902248561382,-0.107404388487339,-0.2811412914097309,-0.0579332168307155,-8.785290659666062,14954.0
27.5,4.0,177.0,21.89711570739746,19.457990646362305,-79.78277973350197,40.459031389193285,290.12752795410165,0.0061126481741666,0.0255368463695049,-0.9863798022270204,0.1623745858669281,-0.0538352818643902,-0.1087996523067375,2.4408946779886294,0.0404455661773681,0.0630356520414352,-0.0499621666967868,-0.2569712956063449,-0.1657974526472389,-8.659411801099777,14955.0
27.7,4.099999904632568,178.0,21.97223854064941,18.18570709228516,-79.78277977499822,40.45903127433554,290.6057841796876,0.0078182127326726,0.0231829546391964,-0.986298680305481,0.1631451100111007,-0.0656499720406462,-0.0622506410671453,2.177567200137122,0.06061851978302,-0.0009129241225309,-0.0287619512528181,-0.3184315803274512,-0.1527146639395505,-8.313399306535723,14955.0
27.9,4.099999904632568,178.0,21.884593963623047,19.855579376220703,-79.78277976174869,40.45903110827436,291.0279929656984,0.0093541452661156,0.022246066480875,-0.9860801696777344,0.1645098775625229,-0.0580514828572691,-0.0096419405695235,1.94009416692318,-0.0424144901335239,-0.0149454725906252,-0.0401296876370906,-0.2703629177995026,-0.0403645539097488,-8.33588711321354,14956.0
28.0,4.199999809265137,180.0,21.778169631958008,21.167621612548828,-79.78277972553413,40.45903105244399,291.21685671997074,0.0106184631586074,0.02285673096776,-0.986000657081604,0.1648259311914444,-0.0559431785340968,-8.564353950166191e-05,1.8436752039880693,0.0116500984877347,0.0264712404459714,0.046214897185564,-0.2095912158116698,-0.2630227800831198,-8.805646571516991,14956.0
28.21,4.199999809265137,181.0,21.86080551147461,20.833646774291992,-79.78277970289268,40.45903080901943,291.58685755920413,0.0119904661551117,0.0187262259423732,-0.9860662817955016,0.1648602187633514,-0.0439188048589209,0.0329735338197606,1.73395083705646,0.0085821794345974,0.0876636952161789,-0.0330267995595932,-0.1488371285609901,-0.1654452127218246,-9.122406615614892,14956.0
28.3,4.199999809265137,182.0,21.845781326293945,20.348588943481445,-79.78277967607495,40.459030717743005,291.7568614501953,0.0125121902674436,0.0163905303925275,-0.9860471487045288,0.1651844382286071,-0.0318475261510405,0.0506091066201226,1.6673407595680854,0.0388248190283775,-0.0136819696053862,-0.0061896848492324,-0.2151247283443808,-0.120977137684822,-9.127090235352515,14956.0
28.4,4.199999809265137,183.0,21.78693389892578,21.15966987609864,-79.78277972705095,40.45903038072749,291.9472148437501,0.0137672228738665,0.0156181612983346,-0.9859482049942015,0.1657492220401764,-0.0234416150038878,0.0886355314975116,1.6411466304047846,-0.0327467881143093,-0.0634123533964157,-0.0402156747877597,-0.2529862536862493,-0.1114479668810963,-9.115882877111437,14956.0
28.61,4.099999904632568,186.0,21.849536895751957,20.8177433013916,-79.78277969094707,40.459030139168725,292.26311373901365,0.0153900124132633,0.0139888925477862,-0.9858776330947876,0.1661709994077682,-0.0206482241881177,0.0891100236757132,1.5249652892032544,-0.0245740767568349,-0.0279649645090103,0.0465299673378467,-0.2705555652827025,-0.2939275440573693,-9.200423090457916,14957.0
28.7,4.099999904632568,189.0,21.74686813354492,22.54327964782715,-79.78277964689502,40.45902969448172,292.48709941101083,0.015125285834074,0.0123623423278331,-0.9860585331916808,0.1652484238147735,-0.0162819765363995,0.1129897864175468,1.5448078075313258,0.0467126928269863,-0.0782944336533546,0.1152630895376205,-0.3139538922160864,-0.2594922129996121,-9.229089065194133,14957.0
28.9,3.900000095367432,190.0,21.843276977539062,20.8813591003418,-79.78277954012898,40.459029078760906,292.873993637085,0.0157086756080389,0.0100396061316132,-0.9866316318511964,0.1618971526622772,-0.0076641591218837,0.1441900781307268,1.5512448522846392,-0.0484876669943332,0.0401802211999893,-0.0093482872471213,-0.3123740110918879,-0.2733129294589162,-9.362110297679902,14957.0
29.0,3.900000095367432,189.0,21.870820999145508,20.14979553222656,-79.78277952982775,40.45902893152744,293.0257480163574,0.0148866102099418,0.0091723874211311,-0.9868425726890564,0.1607358306646347,0.0009409938771841,0.1378184648720763,1.4965435804444944,0.0078308023512363,0.0318139009177684,-0.077924944460392,-0.2205761971324682,-0.1867898704670369,-9.27425880610943,14958.0
29.2,3.900000095367432,188.0,22.678394317626957,10.607666015625,-79.78277958009856,40.459028194919895,293.4130218048096,0.0146633256226778,0.0135621689260005,-0.9870504140853882,0.1591624021530151,0.0107441856639245,0.1383859864483347,1.4517540177279784,0.0078315641731023,-0.0368612892925739,-0.0702516064047813,-0.4214534901827574,-0.2147579069249332,-8.870806188583375,14958.0
29.3,4.0,188.0,22.012304306030277,17.61318016052246,-79.78277957460924,40.45902805552324,293.5442187805176,0.0087058171629905,0.0123822623863816,-0.9865269660949708,0.1628974974155426,-0.0140739195793888,0.1055396427419148,1.1594665354276132,-0.2248732447624206,0.1218451857566833,-0.2449553906917572,-0.4596268913894892,-0.6367747946083546,-7.388413644433021,14958.0
29.5,4.0,190.0,22.02231979370117,17.462095260620114,-79.78277945243703,40.45902783201709,293.75826525878915,0.0033430156763643,0.0079530486837029,-0.9710160493850708,0.2388586848974228,-0.017981937808904,0.0970441258240659,0.7685439454096104,-0.0010661364067345,-0.142220452427864,-0.9432747960090636,-0.3862039526179433,-0.2199424137733877,-7.731283845305443,14958.0
29.6,4.099999904632568,191.0,21.928415298461918,18.36859703063965,-79.78277928476129,40.45902767825649,293.8527457733154,0.0095493076369166,0.0161933824419975,-0.934805691242218,0.3546619117259979,-0.0585287833871696,0.0527088627908663,0.5062715694689134,-0.0008679023594595,-0.0327624753117561,-1.4663472175598145,-0.2878293001279235,-0.4209957993775607,-8.038143968582153,14958.0
29.8,4.099999904632568,179.0,21.96347427368164,18.551488876342773,-79.78277919588558,40.45902767412125,293.8986976165772,0.011438999325037,0.0183049645274877,-0.907525897026062,0.4194410741329193,-0.0845485183877623,0.033698339201647,0.4137723606158577,0.0484456457197666,-0.080050341784954,-1.3083207607269287,-0.4084181096032262,-0.6808133916556836,-8.847075848579408,14958.0
29.9,4.199999809265137,171.0,22.0135555267334,17.788118362426758,-79.78277912999881,40.459027616785775,293.90418887329105,0.0136682465672492,0.0218664184212684,-0.8786097168922424,0.4768438637256622,-0.0993946103902751,0.0559001835442731,0.345234989156481,-0.0146050564944744,-0.0575292780995369,-1.665351629257202,-0.2041601940058172,-0.6206990446150303,-8.87913964033127,14958.0
30.1,4.400000095367432,177.0,21.91965103149414,19.33871459960937,-79.7827788851653,40.4590277078389,293.9579226989746,0.0227663107216358,0.0280352905392646,-0.7924892902374268,0.608815610408783,-0.1098900699688566,0.0711662642316247,0.1947685772982327,0.098856158554554,-0.0998819693922996,-1.5161834955215454,-0.3277992948889732,-0.5787269632145763,-9.029925883412364,14958.0
30.2,4.5,181.0,21.982254028320312,18.479923248291016,-79.78277855376052,40.45902768154368,293.95543742370614,0.0289860479533672,0.0295590851455926,-0.7409974932670593,0.670230507850647,-0.0890507403656443,0.109257110318895,0.142502428385475,0.1121821030974388,0.064978614449501,-1.6877833604812622,0.2649814328737557,-0.6629825998842717,-9.36828203380108,14958.0
30.41,4.599999904632568,168.0,21.6917781829834,23.00448226928711,-79.78277789836376,40.4590277168652,293.9464652557373,0.0414039716124534,0.0343750566244125,-0.6325640678405762,0.7726362347602844,0.0065562025306486,0.17052652130062,0.044149919740057,0.0479571484029293,0.0356930121779441,-1.3588114976882937,0.3572570191696286,-0.5732231618463993,-9.618293187618256,14958.0
30.5,4.699999809265137,164.0,21.751876831054688,21.80376434326172,-79.7827774276503,40.45902762279758,293.9561812896729,0.0508306995034217,0.0287282485514879,-0.5436050891876221,0.8373079299926758,0.1675420405566181,0.1870437668195856,0.0844329413751004,0.045715183019638,0.1246723383665084,-0.8162810802459717,0.4238486558943987,-0.5962427362427116,-9.776271505951884,14958.0
30.7,4.699999809265137,178.0,21.6817626953125,27.05988693237305,-79.78277650728269,40.45902723444121,293.98679423522947,0.054945882409811,0.0218965448439121,-0.5149486660957336,0.8551779985427856,0.2337439087181468,0.1995277693188015,0.1570301690195316,-0.1036656945943832,0.1715548634529113,-0.5637275576591492,0.6420119263976812,-0.43559710085392,-10.0963323032856,14958.0
30.8,4.699999809265137,185.0,21.52525520324707,24.85724449157715,-79.78277616770201,40.45902708855181,294.0034720916748,0.0548709593713283,0.0126722315326333,-0.4988190829753876,0.8648747205734253,0.2971914732258663,0.1853775686537619,0.2173494424653864,0.0897234380245208,0.0757881551980972,-0.3406805396080017,0.5944788870960475,-0.3447222333401442,-10.361010028123856,14959.0
31.0,4.699999809265137,190.0,21.51899528503418,25.40591812133789,-79.7827742135155,40.45902608276448,294.19339823913583,0.0446676090359687,0.0425165928900241,-0.4859801828861237,0.8717915415763855,0.4255289751777334,0.3044324292115464,0.4861282092631135,0.2371575981378556,-0.5791139006614685,-0.0833325386047363,1.1776049664616586,-0.6793071489036083,-10.617119243144993,14959.0
31.1,4.800000190734863,187.0,21.493953704833984,25.827362060546875,-79.78277361757384,40.4590258536287,294.24636912536624,0.0204004067927598,0.057927381247282,-0.4876882135868073,0.8708550333976746,0.4361302231245288,0.3603188749374976,0.6410541400256701,-0.0456032864749431,-0.5843900442123413,0.0377008914947509,0.8744648417830467,-0.7714795135706664,-10.945804098844528,14959.0
31.31,4.800000190734863,196.0,21.524003982543945,25.57290458679199,-79.78277226718356,40.459025753584704,294.18090319824216,-0.0180904679000377,0.0621524006128311,-0.4953662753105164,0.8662691116333008,0.4949007941396037,0.5769020964632611,0.8745035420153241,-0.1888221651315689,-0.1548052877187729,-0.1020423173904419,0.9133185665309432,-0.6560391043871642,-11.277466356754305,14959.0
31.5,4.800000190734863,200.0,21.55655670166016,24.80158233642578,-79.78277037235208,40.45902576208819,294.2058284301758,-0.0354994907975196,0.0568033829331398,-0.5025056600570679,0.8619752526283264,0.5060391117260291,0.8910674917228003,1.0943555404752052,-0.0810286924242973,-0.0423966720700264,0.1068919077515602,0.7925983408838511,-0.6494791131466627,-11.198593264818197,14959.0
31.6,4.699999809265137,192.0,21.602882385253903,24.165441513061523,-79.78276889262358,40.45902579437267,294.30625033569333,-0.0393392518162727,0.0564823262393474,-0.5048461556434631,0.8604606986045837,0.5169469449551213,1.0795091652416309,1.2256334189303206,0.0435411781072616,-0.0754309743642807,-0.0948739796876907,0.7384540741145611,-0.4367861321568489,-11.04590141415596,14959.0
31.7,4.699999809265137,194.0,21.52525520324707,24.904956817626957,-79.78276764001045,40.45902592823632,294.2820899505616,-0.0427484177052974,0.0590833760797977,-0.5069179534912109,0.8589040040969849,0.5082425984558946,1.2530703299060924,1.2823714467940934,0.009828926064074,-0.0445827171206474,-0.0138033283874392,0.6384229054301978,-0.5341695719584822,-10.864652931690216,14959.0
31.9,4.5,195.0,21.61415100097656,22.66255569458008,-79.78276448722967,40.45902647257228,294.3517634887696,-0.0480498261749744,0.0605335682630538,-0.5078768134117126,0.857955813407898,0.4592483545722266,1.5779582790238522,1.4280969423177332,0.0693598315119743,-0.0825264602899551,-0.0630538538098335,0.4590381133183837,-0.5054874808341265,-10.702483913898469,14959.0
32.1,4.400000095367432,194.0,21.63167953491211,23.42592620849609,-79.78275983594956,40.45902735957271,294.59692645263675,-0.0596261881291866,0.0613981448113918,-0.5076488852500916,0.8573024868965149,0.4264609119701534,1.94905942326192,1.621733654777576,-0.1168655529618263,-0.1137965843081474,-0.0330231115221977,0.4269285305589437,-0.6177073898166419,-10.552292332649232,14959.0
32.2,4.300000190734863,188.0,21.61289978027344,23.79170799255371,-79.78275776863322,40.45902799698755,294.58517909240726,-0.0673637837171554,0.0622744373977184,-0.5073143839836121,0.8568640947341919,0.4051619575829167,2.1006080160712983,1.6414935239973731,-0.0619675889611244,-0.1508735567331314,0.0457421131432056,0.1266057040169835,-0.575269541144371,-10.35084639787674,14959.0
32.3,4.300000190734863,183.0,21.66798973083496,22.66255569458008,-79.78275498201491,40.459028686795314,294.71213221740726,-0.0721775889396667,0.0634404048323631,-0.5059480667114258,0.8571944832801819,0.4021614197812088,2.272894398219928,1.7369870053629208,0.0022467295639216,-0.0356716513633728,-0.1125771105289459,0.2726311806589365,-0.4767633993923665,-10.378882627487185,14959.0
32.51,4.099999904632568,176.0,21.471418380737305,25.68422889709473,-79.78274938232062,40.45903053277684,294.81540370178226,-0.0802014768123626,0.0684873685240745,-0.5015507936477661,0.8586757779121399,0.3541338501919904,2.6420083449571026,1.8054086911285463,-0.02072449401021,-0.1698002517223358,0.0416794121265411,0.0439083411823958,-0.7339892864227295,-10.135854803323744,14959.0
32.6,4.0,173.0,21.42884826660156,26.837236404418945,-79.78274600267291,40.45903155284114,294.9408671875001,-0.0864839330315589,0.066978134214878,-0.4977505505084992,0.8603946566581726,0.3513347986747474,2.834250602405497,1.9151319145520944,-0.096102051436901,-0.1601786762475967,-0.0464473888278007,0.0431320958957076,-0.6274548444896937,-10.398288366794588,14959.0
32.8,4.0,161.0,21.408815383911133,26.312419891357425,-79.7827390408269,40.45903372128533,295.0693156738282,-0.090166799724102,0.0667903050780296,-0.4914364516735077,0.8636546730995178,0.3848223454119046,3.219816742614075,2.0738005583527857,0.0614903606474399,-0.1109080389142036,0.0588738396763801,-0.0674642971158027,-0.5762398500367999,-10.566478847265245,14960.0
32.9,3.900000095367432,155.0,21.443872451782227,27.11554908752441,-79.78273499220772,40.45903459056059,295.11492991638187,-0.0904967784881591,0.0690348669886589,-0.4897204935550689,0.8644180297851562,0.4190554946342809,3.419700645807305,2.143976131182137,-0.0152693688869476,-0.0704314708709716,-0.1407587826251983,0.021062493044883,-0.5436275529116392,-10.631620337963104,14960.0
33.1,3.900000095367432,146.0,21.48018264770508,25.54904937744141,-79.78272626612633,40.45903761780447,295.39115596008304,-0.0941491425037384,0.0736011490225792,-0.4843662977218628,0.8666649460792542,0.4090898233874042,3.825947264778808,2.401469665131076,0.0094790030270814,-0.0537461005151271,-0.0073534487746655,-0.0030789793096482,-0.5556354680657387,-10.784905096292496,14960.0
33.3,3.900000095367432,142.0,21.55655670166016,23.815563201904297,-79.78271669501567,40.45904076806068,295.61649394226083,-0.0965500473976135,0.0738521292805671,-0.482666552066803,0.8673275709152222,0.4138602451540188,4.208074938558217,2.606560634519824,0.015077588148415,-0.0059615708887577,0.1250422894954681,-0.0759976870939135,-0.4497342064976693,-10.72423087835312,14960.0
33.4,4.0,130.0,21.37375831604004,26.60663604736328,-79.78271143530664,40.45904226629561,295.7113311309815,-0.0958245322108268,0.0756377950310707,-0.4832404553890228,0.8669344782829285,0.4529070128092438,4.409026927454557,2.6426069322535746,0.1195876374840736,-0.087453044950962,-0.0253522992134094,-0.3714057461544871,-0.3714531086012721,-10.268790081739429,14960.0
33.5,4.0,127.0,21.421335220336918,25.66037368774414,-79.7827060914843,40.45904425399694,295.8616054077149,-0.0960197150707244,0.0772128328680992,-0.4837394654750824,0.8664955496788025,0.4191501395967697,4.607251319989595,2.7127128894367187,0.0059254206717014,-0.0686016902327537,0.1102539077401161,-0.3621644776314497,-0.5707726668566465,-10.2639836704731,14960.0
33.7,4.300000190734863,121.0,21.473920822143555,24.904956817626957,-79.78269424641266,40.45904769364872,296.19913554382333,-0.1015942841768264,0.0756215453147888,-0.4869498014450073,0.8641991019248962,0.4137530793511081,4.979357936349208,2.897169439395533,0.0408299304544925,-0.1275612413883209,0.2016471326351165,-0.4711330423504114,-0.5401203929632903,-10.334206391572954,14961.0
33.9,4.400000095367432,118.0,21.55280113220215,23.1953239440918,-79.78268209088283,40.459051757351936,296.45346522521976,-0.10352473706007,0.076951265335083,-0.4908686578273773,0.8616316914558411,0.3447308534797364,5.3164718043904085,3.01763343453815,0.0403608232736587,0.007118506822735,0.1377832144498825,-0.5861401728540659,-0.7011593632400036,-10.050934520959856,14961.0
34.0,4.699999809265137,111.0,21.431352615356445,26.12157821655273,-79.78267576244758,40.4590542307816,296.60724711608884,-0.1035162657499313,0.0785164162516594,-0.4921859800815582,0.8607395887374878,0.2960443586116039,5.535321292778339,3.045196324817837,0.0237775519490242,-0.1177801564335823,0.0554080680012702,-0.5228187376633286,-0.5853726527094841,-9.84827587366104,14961.0
34.1,4.800000190734863,109.0,21.41883087158203,25.86712074279785,-79.78266924248892,40.45905681166375,296.7581832427979,-0.1072339937090873,0.0830587446689605,-0.4934036433696747,0.8591594696044922,0.2407805789538366,5.724006123303367,3.0637780125147005,0.0639684870839119,-0.1394403129816055,0.1385346502065658,-0.5993435877934099,-0.5072142732515932,-9.765611447095871,14961.0
34.3,5.099999904632568,103.0,21.41883087158203,26.550973892211918,-79.78265577253781,40.45906194236847,296.9735686798096,-0.1124970242381096,0.0899626836180687,-0.4969941973686218,0.8557149171829224,0.1785411505318746,6.0421010421732655,3.232284173551008,0.0659765377640724,0.0183658134192228,0.012714359909296,-0.6215497414022685,-0.481083139590919,-9.984022493362428,14961.0
34.4,5.300000190734863,101.0,21.38126945495605,27.05193519592285,-79.78264991318538,40.45906413180031,296.9776427764893,-0.110258586704731,0.0882593393325805,-0.4984494745731354,0.8553370237350464,0.1285494054751768,6.16390725603544,3.2409091964018284,-0.0390689484775066,0.0568707473576068,0.2246077209711074,-0.8160197286307812,-0.5811890795454383,-10.070154318809507,14961.0
34.6,5.599999904632568,96.0,21.395042419433597,26.185192108154297,-79.78263525363937,40.45907006909216,297.2574756164551,-0.1106640249490738,0.0829346999526023,-0.5004203319549559,0.8546664714813232,0.0857196371532436,6.565835750640918,3.3849490357474243,0.0185662433505058,-0.0102481795474886,-0.012953664176166,-0.8109311892092228,-0.4044570595398545,-10.565656728744507,14962.0
34.8,5.800000190734862,95.0,21.37250518798828,26.495309829711918,-79.78261927750208,40.45907666887668,297.47522616577146,-0.1154714301228523,0.0875431448221206,-0.5029634833335876,0.8520741462707521,0.0103319537185491,6.9639593644958975,3.5490075320878174,0.0704408437013626,-0.2147095650434494,-0.1479424834251403,-0.8319742950797081,-0.4872391613200307,-10.257088633775714,14962.0
34.9,6.099999904632568,93.0,21.46014976501465,24.74592018127441,-79.78261025005297,40.45907970762244,297.58505892944333,-0.1176485568284988,0.093949981033802,-0.504758358001709,0.850030243396759,-0.0256789530153836,7.144206908405772,3.634136916492672,0.0872483178973198,0.0193853843957185,-0.0911964029073715,-0.8265505640208721,-0.4074222191423178,-10.124034072160724,14962.0
35.0,6.300000190734862,91.0,21.40631103515625,26.78952598571777,-79.78260196669379,40.45908313555547,297.73005938720706,-0.119174413383007,0.0982374101877212,-0.5051125884056091,0.8491221070289612,-0.0932783075016616,7.306459963035342,3.7710041586568734,0.0153572531417012,-0.0436779782176017,-0.1064307242631912,-0.9042316279560328,-0.5050698069110513,-10.002121964693073,14962.0
35.21,6.5,86.0,21.20723533630371,28.92855262756348,-79.78258424223358,40.45909019403668,298.0186088104248,-0.1207791343331337,0.0976096168160438,-0.5036503076553345,0.8498359918594359,-0.1314604293735049,7.673309321012276,3.937050739417405,-0.0973948016762733,0.0300056748092174,0.0810207650065422,-1.0810458013415336,-0.4366160147264601,-9.901830521821976,14963.0
35.3,6.599999904632568,84.0,21.431352615356445,24.36423492431641,-79.78257531434652,40.45909389917419,298.1602828521729,-0.1193010881543159,0.0959605649113655,-0.5029162764549255,0.8506668210029602,-0.0952202401087606,7.877029198468738,4.012171214601635,0.0417718552052974,0.0112300487235188,0.0881641134619712,-1.085571400076151,-0.5680558677390218,-10.09377122282982,14963.0
35.51,6.800000190734862,82.0,21.308650970458984,26.76567077636719,-79.7825555198392,40.45910117587544,298.4791419525147,-0.1132688447833061,0.0906169265508651,-0.5036113262176514,0.8516656160354614,-0.0222176852680914,8.299738440815613,4.0238104070937135,-0.016687549650669,0.1439214050769806,-0.035442765802145,-1.0177809014171362,-0.5394454050064087,-9.802630169391634,14963.0
35.6,7.0,81.0,21.334943771362305,26.09772109985352,-79.7825459688096,40.4591050920446,298.61916041564945,-0.101803682744503,0.0863450616598129,-0.5045793056488037,0.8529832363128662,-0.0215280482664979,8.480241462423862,3.9829984833836014,0.0639944821596145,0.2634366750717163,0.1015356034040451,-1.2627684929966927,-0.4627413011714817,-9.843237912654876,14963.0
35.8,7.400000095367432,81.0,21.461400985717773,23.942790985107425,-79.78252521846173,40.459112963210615,298.9527213592529,-0.0779654383659362,0.0683910921216011,-0.5076742768287659,0.8552842140197754,-0.0114658329066349,8.938303971132186,3.5915203412442773,-0.0429762750864028,0.1392484605312347,-0.1264885812997818,-1.1916105097532272,-0.2092333662137388,-9.908655391931532,14963.0
35.9,7.599999904632567,86.0,21.5991268157959,22.28087043762207,-79.78251407612603,40.459116646482336,299.1216189880372,-0.0732239037752151,0.0619256272912025,-0.5093451738357544,0.8552024364471436,0.0565010381171811,9.111399960273348,3.3919573091881747,-0.0685464963316917,-0.0084317959845066,0.1888880729675293,-1.304380349367857,-0.6630499159544707,-9.902697079181667,14964.0
36.1,7.800000190734862,84.0,21.501466751098643,23.78375625610352,-79.78249389115115,40.45912476511155,299.4191329498292,-0.0767286121845245,0.0599012598395347,-0.5109827518463135,0.8540616631507874,0.0462331022740426,9.283749789389596,3.2665729625189264,0.0833667814731597,-0.1318000704050064,0.1226951032876968,-1.362651654034853,-0.4514114437624812,-9.752348207831382,14964.0
36.2,8.0,82.0,21.607891082763672,22.320629119873047,-79.78248240186058,40.45912895775519,299.6036078948975,-0.078519769012928,0.0619446374475956,-0.5120310783386229,0.8531246781349182,0.0395753612698291,9.358258128865526,3.353005678988222,-0.0508181788027286,0.0185402985662221,-0.0379049777984619,-1.3311743380129335,-0.0795690567791462,-9.798656401634217,14964.0
36.4,8.199999809265138,82.0,21.67424964904785,20.11798858642578,-79.78246022546502,40.45913723617827,299.9456470031738,-0.0789750963449478,0.0607524216175079,-0.5128998756408691,0.8526464700698853,0.0231443118743948,9.476738375707477,3.4439106733306577,0.0130385179072618,0.075421504676342,-0.0148791009560227,-1.3740367676317693,-0.1535104973986745,-9.790555084347725,14964.0
36.5,8.399999618530272,80.0,21.72808837890625,20.77003288269043,-79.78244977200194,40.45914139041504,300.0944716949463,-0.0775600969791412,0.0559739470481872,-0.5119494795799255,0.8536738753318787,0.0222686653374509,9.525930143776453,3.4165094087993526,-0.1030346825718879,0.1111509576439857,-0.1573476493358612,-1.3870387825369836,-0.1678369431942701,-9.495848983526232,14965.0
36.71,8.600000381469728,78.0,21.753129959106445,19.871482849121094,-79.78242729960749,40.459149963760254,300.4472148437501,-0.0628287121653556,0.046083353459835,-0.5098477602005005,0.8567288517951965,0.1044792290844213,9.691494233894804,3.174418907675604,0.0230195969343185,0.1843026876449585,0.2040169090032576,-1.5075788408517838,-0.2641017010062933,-9.466987711787224,14965.0
36.8,8.699999809265138,77.0,21.680509567260746,20.714370727539062,-79.78241672421885,40.45915416224394,300.5877769012452,-0.0534293353557586,0.0438421182334423,-0.5101329088211061,0.8573142290115356,0.1527326289748598,9.775813160600194,2.930445851722413,-0.0126758906990289,0.1563214063644409,-0.1927202343940735,-1.3219046008586883,0.1815080440230668,-9.241263552904131,14965.0
37.0,9.0,80.0,21.753129959106445,20.2531681060791,-79.78239409445905,40.45916233600144,300.9382216949463,-0.0471742004156112,0.0405255556106567,-0.509477436542511,0.8582336306571959,0.1951670436992658,9.849833641923182,2.5762451489592486,0.1567623913288116,0.0348247922956943,-0.097170390188694,-1.336359795033932,-0.1524933559633791,-9.096755465269087,14965.0
37.2,9.100000381469728,81.0,21.63167953491211,21.72424697875977,-79.78237186892896,40.45917074937244,301.2656161804199,-0.0486479736864566,0.0344305373728275,-0.5083106756210327,0.8591089248657227,0.2350934988980136,9.85440026522115,2.451914685870264,-0.0885758697986602,0.1138111129403114,-0.2007206380367279,-1.1818126228451729,-0.0742770707979798,-9.38016240656376,14966.0
37.3,9.199999809265137,80.0,21.597875595092773,22.69436264038086,-79.78236131065307,40.45917489650669,301.387816192627,-0.0456429384648799,0.0353612713515758,-0.5083831548690796,0.8591931462287903,0.2509675232973266,9.83806605246359,2.396168250847625,0.0934443846344947,-0.0297138430178165,0.1219481974840164,-1.5917860552668572,-0.2572801016829908,-9.335340574979783,14966.0
37.4,9.199999809265137,81.0,21.626672744750977,21.485692977905277,-79.78234949201511,40.459178994636105,301.6076819915772,-0.0416568666696548,0.0380961932241916,-0.5090842843055725,0.8588636517524719,0.2751700364965098,9.847985325884569,2.3773102064690708,0.1840315908193588,0.0011393188033252,-0.1062526255846023,-1.3157965993881229,-0.1896350707858801,-9.606495260596276,14966.0
37.6,9.199999809265137,82.0,21.597875595092773,23.23508262634277,-79.78232843303057,40.45918723191266,301.8542277832032,-0.0414181612432003,0.0374320745468139,-0.5091874003410339,0.8588432073593141,0.2261354250116155,9.807583579354416,2.3095626880104256,0.0121667440980672,0.0016225896542891,-0.1896824240684509,-1.1693775685876608,-0.1592416640929878,-9.805653179883956,14966.0
37.7,9.199999809265137,81.0,21.644201278686523,21.946895599365234,-79.78231644893185,40.45919117378659,302.08823275756833,-0.0448248796164989,0.0371722504496574,-0.5091471672058105,0.8587073087692261,0.272677555327994,9.824932462948636,2.353797121274262,-0.0315858870744705,-0.0260966196656227,-0.0158460047096014,-1.3793774682283402,-0.314549869671464,-9.581353987455367,14967.0
37.9,9.199999809265137,81.0,21.70805549621582,20.937021255493164,-79.78229360779244,40.45919911796173,302.4793307800293,-0.0404314287006855,0.0340932346880435,-0.5094723105430603,0.858860194683075,0.3140768171611483,9.800163958281594,2.4734856450357547,0.0663242265582084,0.0411669723689556,0.1125257983803749,-1.6086311526596546,-0.3411395712196827,-9.720914745926857,14967.0
38.1,9.100000381469728,82.0,21.72808837890625,20.36449241638184,-79.7822725823138,40.45920718491517,302.7456767578125,-0.0291288066655397,0.0363740734755992,-0.5109698772430421,0.8583346605300903,0.288513131450269,9.75358669550091,2.2627720744554765,0.1253518760204315,0.0636700540781021,0.06478151679039,-1.3243658401072027,-0.0530580231221392,-9.64183934032917,14967.0
38.21,9.100000381469728,84.0,21.775665283203125,19.593170166015625,-79.78226029724651,40.45921093563078,303.02044177246086,-0.024912279099226,0.0338183417916297,-0.5108151435852051,0.8586639165878296,0.3053058745330971,9.774474729729343,2.2168195999784293,0.0513767413794994,0.0253991074860096,0.1757085621356964,-1.5056247013807298,-0.2665142987295985,-9.362944695353509,14968.0
38.3,9.100000381469728,86.0,21.690526962280277,21.47774124145508,-79.78224983017869,40.45921489158953,303.15276980590824,-0.0211142245680093,0.029735691845417,-0.5101596117019653,0.8593062758445741,0.3294235786902922,9.73719352334743,2.0708079837270685,0.0615166760981082,0.0782565250992775,-0.0599818527698516,-1.3291015000641346,-0.2863332534581423,-9.272128665447235,14968.0
38.5,8.899999618530273,86.0,21.70429992675781,21.47774124145508,-79.78222758387045,40.459222562588096,303.5537555236817,-0.0074010738171637,0.0189503896981477,-0.50877445936203,0.8606594204902649,0.4071877507646983,9.673656193279832,1.8469775885245685,0.0253297965973615,0.2457891255617141,-0.0614039674401283,-1.11989952608943,-0.2298336551338434,-9.86954336643219,14968.0
38.6,8.899999618530273,86.0,21.76189422607422,19.33871459960937,-79.7822172820385,40.4592264079811,303.6881358642578,-0.0020561234559863,0.0176851265132427,-0.5083346366882324,0.8609756231307983,0.4271015418369825,9.62439104833441,1.6671144537908913,-0.0601335130631923,-0.0289453137665987,0.1026886105537414,-1.2304257890582084,-0.4382243279367686,-9.677536007165909,14968.0
38.8,8.699999809265138,92.0,21.684267044067383,21.37436866760254,-79.78219540267624,40.4592338441928,304.07296633911136,0.0008107730536721,0.0211859438568353,-0.5085862874984741,0.8607500195503235,0.4779282760631001,9.494428294810492,1.5305595541809751,0.0747257694602012,-0.0370048657059669,-0.0152585702016949,-1.1372475571185352,-0.2796508544124663,-9.419870263338089,14969.0
39.0,8.600000381469728,92.0,21.607891082763672,21.65267944335937,-79.78217417206946,40.45924103677167,304.42909121704105,0.0006592773715965,0.0228015333414077,-0.5093367099761963,0.8602650165557861,0.4683037427667823,9.3381458986844,1.5268188750531464,-0.0903604701161384,-0.0105084115639328,0.0313234068453311,-1.246520834863186,-0.3994098891690373,-9.315280532240868,14969.0
39.1,8.399999618530272,92.0,21.65797233581543,21.00858688354492,-79.78216412893016,40.45924469444167,304.55857730102537,0.0009628190891817,0.0192879326641559,-0.5097281932830809,0.8601187467575073,0.4657108858580931,9.25365700732833,1.514801713636435,-0.1592130661010742,0.101611778140068,0.0699877366423606,-1.1016326782107353,-0.267387434206903,-9.7991849899292,14969.0
39.2,8.300000190734862,92.0,21.770658493041992,19.83172416687012,-79.78215345030281,40.45924835510039,304.76542926025394,0.0004453017609193,0.0146223809570074,-0.5102929472923279,0.8598762154579163,0.4807778520059822,9.212112020768446,1.5122116770155154,-0.1196714341640472,-0.0597335249185562,0.0263436194509267,-1.0688113796710972,-0.3626772784441709,-9.781984820365906,14969.0
39.41,8.199999809265138,93.0,21.711811065673828,20.66666030883789,-79.78213340854884,40.45925566161162,305.09844851684574,-0.0050932047888636,0.0207737125456333,-0.5130606889724731,0.8580859303474426,0.4532884114422197,9.061161715381065,1.5244674037992887,0.1117188036441803,-0.1052583381533622,-0.026326797902584,-1.0481519973278046,0.0010514938272535,-9.57898586511612,14970.0
39.6,8.100000381469728,92.0,21.70179557800293,20.32473373413086,-79.78211416513511,40.45926262222058,305.3601901550293,-0.0103426938876509,0.0241240691393613,-0.5135687589645386,0.8576470017433167,0.4001510239673756,8.891211024010348,1.6660791661234395,-0.1116533875465393,0.0144471889361739,0.0130431465804576,-0.9602534356713296,-0.4113174149394036,-9.929770857095717,14970.0
39.71,7.900000095367432,91.0,21.753129959106445,19.76015853881836,-79.78210409240266,40.45926591672583,305.5536334533692,-0.0166640151292085,0.0212891437113285,-0.5123140215873718,0.8583725690841675,0.4159443446975732,8.844608160070036,1.7398667019487402,-0.22850401699543,-0.1111562326550483,-0.0931089892983436,-1.0248756205290557,-0.1894211723282933,-9.88009759068489,14970.0
39.8,7.800000190734862,91.0,21.70304679870605,19.95895195007324,-79.78209460199852,40.45926932339425,305.6885783691406,-0.0247970726341009,0.0192191880196332,-0.5110645890235901,0.8589696288108826,0.4609228469871614,8.775968868868803,1.80226884235222,-0.0602211058139801,-0.1440943330526352,-0.0930807143449783,-0.9262580893188715,-0.2553967317938804,-9.897526971101762,14970.0
40.0,7.599999904632567,89.0,21.534019470214844,22.614845275878903,-79.78207541943513,40.45927585477728,305.9937350769044,-0.0362401567399501,0.0284265372902154,-0.5094492435455322,0.8592672348022461,0.5119618100466379,8.671210371811245,2.0190360514392074,0.0799859836697578,-0.0817000567913055,-0.0245206505060195,-0.962359529659152,-0.1483071150071919,-9.78701927304268,14970.0
40.1,7.5,87.0,21.57032966613769,22.57508659362793,-79.7820660085007,40.45927924028413,306.1285808105468,-0.0399796031415462,0.0324595123529434,-0.5086211562156677,0.8594490885734558,0.5015969686713759,8.648543773662697,2.160621853421677,-0.0530119948089122,-0.0709954351186752,-0.1892821043729782,-0.8619050225615502,-0.1037620942667126,-9.81310721039772,14971.0
40.3,7.5,86.0,21.57032966613769,22.69436264038086,-79.78204698977899,40.45928602917867,306.4358127136232,-0.0474256239831447,0.0400561206042766,-0.5087535977363586,0.8586711287498474,0.4819564848867402,8.627038261062616,2.3825419433034374,0.0231936126947402,-0.1367819160223007,0.0781218558549881,-0.9447521015256644,-0.5151442305743694,-9.83586691260338,14971.0
40.5,7.5,85.0,21.566574096679688,23.25893783569336,-79.78202801531208,40.45929263789073,306.7358577270508,-0.0589393973350524,0.0482618473470211,-0.5087794661521912,0.8575199842453003,0.4583266331107195,8.633619611686504,2.6286888622385933,-0.1400193274021148,-0.2573161125183105,0.0293398406356573,-0.938998002782464,0.1905654724314809,-10.064777219295502,14971.0
40.6,7.5,79.0,21.473920822143555,24.69025802612305,-79.78201849401053,40.45929608914958,306.88002658081064,-0.0668364316225051,0.0514346249401569,-0.508384108543396,0.8569907546043396,0.4594668339602487,8.628640624381212,2.7890036712473845,0.0155903901904821,-0.1643348932266235,0.0057683791965246,-0.9806514474749566,-0.2752325703576207,-9.941002188920978,14971.0
40.7,7.5,77.0,21.4138240814209,26.3521785736084,-79.7820088920699,40.45929921664681,307.03914141845706,-0.0734014958143234,0.0542587488889694,-0.5074554681777954,0.8568297028541565,0.4709956805517399,8.617068341894221,2.9619120074697496,-0.0489905178546905,-0.0606382936239242,0.1304195076227188,-1.16752297796309,-0.292779991440475,-10.03589197397232,14972.0
40.9,7.5,76.0,21.493953704833984,23.664478302001957,-79.78198964852126,40.45930599769165,307.34856295776365,-0.0799835249781608,0.0552380010485649,-0.5055003762245178,0.8573335409164429,0.4964761065993664,8.662281434563983,3.272899970904404,-0.0599526241421699,-0.0044126198627054,-0.025106705725193,-1.0822560288012029,-0.2821372184157372,-10.289978052377704,14972.0
41.1,7.5,77.0,21.368749618530277,25.11170196533203,-79.7819700243994,40.4593131650381,307.67254519653324,-0.0870326831936836,0.0597607493400573,-0.5048937201499939,0.8567008376121521,0.5277434479159603,8.789353572965839,3.464134429015693,0.1620386391878128,-0.2495273649692535,0.1879048347473144,-1.2323308119177818,-0.0445555457286536,-10.296870750188829,14972.0
41.2,7.599999904632567,74.0,21.37626266479492,25.827362060546875,-79.78195998395856,40.45931658063834,307.8448855895996,-0.0909390524029731,0.0628036260604858,-0.5048528909683228,0.8561013340950012,0.4855529359718077,8.827405377410276,3.574270365553321,-0.0447798110544681,-0.1271623373031616,0.0788777321577072,-1.460787667036057,-0.2908148153498769,-9.7620306122303,14972.0
41.3,7.699999809265138,73.0,21.50897979736328,24.01435661315918,-79.78194996735415,40.45932027587356,308.0103480834961,-0.0920431390404701,0.0646321475505828,-0.5046936869621277,0.8559409976005554,0.4815501767144839,8.874019626271263,3.7145949869986015,0.1378109455108642,-0.1424916237592697,0.185683861374855,-1.495521297454834,-0.5145125120133162,-9.98222973704338,14973.0
41.5,7.900000095367432,74.0,21.497711181640625,23.974597930908203,-79.7819296316476,40.45932760708472,308.35377001953134,-0.0805481150746345,0.06448744982481,-0.5061104893684387,0.8562742471694946,0.4385655904937496,9.016992041523814,3.764191143611997,0.0810524076223373,0.1827786117792128,0.1644777655601501,-1.3525483962893488,-0.4289915378764272,-10.107019844055175,14973.0
41.6,7.900000095367432,74.0,21.606639862060547,22.41604995727539,-79.78191937820806,40.45933141736877,308.5262630004883,-0.0734114572405815,0.0600329637527465,-0.5062614679336548,0.8571500778198242,0.4023184592715087,9.13294998546598,3.6865222722519615,-0.0317547619342804,0.2514252066612244,0.0947376266121864,-1.3287927670776845,-0.2792902822047472,-10.163575283288957,14973.0
41.81,8.100000381469728,74.0,21.510231018066406,22.74207305908203,-79.78189868603458,40.4593388973636,308.8740565795899,-0.0633892714977264,0.0544645749032497,-0.506803035736084,0.8580012321472168,0.4134230775832154,9.31734350406936,3.4093608681610577,-0.0024828487075865,0.0715836808085441,0.1620427668094635,-1.3558685915172102,-0.2445639059878885,-9.86674255013466,14973.0
41.9,8.100000381469728,77.0,21.46640968322754,23.65652656555176,-79.7818882382158,40.459342590606326,309.0534389038086,-0.0601498410105705,0.0524950474500656,-0.5078728199005127,0.8577246665954591,0.4112181828034237,9.376758899571774,3.2979091454387195,0.0479613319039344,-0.0857741460204124,0.0757076740264892,-1.3519316612184051,-0.5887109012156725,-9.685174224972725,14974.0
42.11,8.300000190734862,77.0,21.56156539916992,22.400146484375,-79.78186745069661,40.45935035401498,309.3955523986817,-0.0545598156750202,0.0496771819889545,-0.5100369453430176,0.8569817543029785,0.3849944889856143,9.443944892014713,3.20593293159204,0.0490430891513824,0.0515774935483932,-0.0183635260909795,-1.2681106553971768,-0.1065922836866229,-10.054121253490448,14974.0
42.3,8.300000190734862,77.0,21.48894691467285,22.89315795898437,-79.78184639027288,40.459357969430094,309.75316882324216,-0.0512152276933193,0.0456720143556594,-0.5114154815673828,0.8565893173217773,0.3333611844101477,9.510392006160608,3.051296283159638,-0.0042721703648567,0.0119398115202784,-0.1459929347038269,-1.1061822505295278,-0.1551615501008928,-9.757100239992145,14974.0
42.4,8.5,81.0,21.53902816772461,22.320629119873047,-79.78183564247496,40.45936166779144,309.94581484985355,-0.0523814260959625,0.0452004484832286,-0.5119435787200928,0.8562283515930176,0.3141209422996838,9.525155887073556,3.016257611200845,-0.0288706682622432,-0.0503464601933956,0.0319638885557651,-1.2836347205936909,-0.4815222289413214,-9.646443437933922,14974.0
42.5,8.5,81.0,21.58785820007324,21.581113815307614,-79.78182522622816,40.459365576119495,310.11646533203134,-0.0494579933583736,0.0449431352317333,-0.5125772356987001,0.8560365438461304,0.2938346214723813,9.515623801841766,3.0457510365607834,0.0283935591578483,-0.0256501864641904,0.1651269048452377,-1.5172732320427895,-0.4262373896688223,-9.737962303161623,14975.0
42.7,8.600000381469728,82.0,21.65797233581543,21.30280303955078,-79.7818039537952,40.45937331125547,310.4919002075196,-0.0443961098790168,0.049336276948452,-0.5145899057388306,0.8548638224601746,0.2354411889687818,9.557035245255566,2.9659325697324355,-0.0136383771896362,0.0085213724523782,-0.2404578328132629,-1.1870072892308237,0.0308352551981806,-9.842711663246154,14975.0
42.9,8.600000381469728,82.0,21.56782531738281,21.962799072265625,-79.7817826879285,40.45938092746071,310.87342333984384,-0.0436650775372982,0.0539963096380233,-0.5168057084083557,0.8532817363739014,0.1945465730663306,9.533840757556614,2.95612045544702,0.1414834260940551,-0.0427667759358882,0.0597483962774276,-1.431571030765772,-0.4320710470899939,-9.541357278227808,14975.0
43.0,8.699999809265138,84.0,21.57533836364746,21.47774124145508,-79.78177226655463,40.45938481978016,311.0407207031251,-0.0415450930595398,0.0530693605542182,-0.5171726346015929,0.8532234430313109,0.1633587219749929,9.530262512348031,2.9425950266001464,0.0076086828485131,0.2136634737253189,-0.2753174304962158,-1.0917727377265691,0.0515754387527704,-9.607461220622064,14976.0
43.1,8.699999809265138,84.0,21.527759552001957,23.00448226928711,-79.78176184113308,40.459388698804936,311.20675540161136,-0.0403383485972881,0.0500369854271411,-0.5173101425170898,0.8533810973167419,0.1722140331790116,9.541554090154357,2.8885023882500804,-0.0362591668963432,0.0668838918209075,0.029237600043416,-1.1689756456017495,-0.2707900203578174,-9.646108392477036,14976.0
43.31,8.699999809265138,84.0,21.470165252685547,23.37821578979492,-79.7817406275266,40.45939616275683,311.59502291870115,-0.0419102907180786,0.0445826761424541,-0.5166966915130615,0.853979229927063,0.2164830341218286,9.552279837867848,2.816830927691244,-0.2006883472204208,0.0391098149120807,0.043672826141119,-1.175324552357197,-0.29735744766891,-9.8380537712574,14976.0
43.4,8.699999809265138,84.0,21.626672744750977,20.22931289672852,-79.78172977179015,40.45939987489381,311.8207232971192,-0.045097928494215,0.0423197150230407,-0.5155839323997498,0.8546043634414673,0.2585809694941905,9.548910253797004,2.858362509629206,0.0070422929711639,-0.0470287166535854,-0.0541070960462093,-1.3289067877829075,-0.3470738372951746,-9.902011785507204,14976.0
43.6,8.699999809265138,85.0,21.604135513305664,21.62882423400879,-79.78170892319577,40.45940755389668,312.1625926513672,-0.0451060347259044,0.0403445437550544,-0.5135613679885864,0.8559162020683289,0.3278113533249884,9.532315077357882,2.8533581242864368,0.0768335536122322,-0.1076882481575012,-0.0177887436002492,-1.3376722025871275,-0.351575206629932,-9.459499182701114,14977.0
43.8,8.600000381469728,86.0,21.649208068847656,19.935096740722656,-79.78168765373111,40.45941505910675,312.5533893127442,-0.0418610349297523,0.0426992252469062,-0.5122142434120178,0.8567736744880676,0.3577094328310784,9.536031899908297,2.8214861965015965,0.1251320391893386,-0.036125972867012,0.1217631325125694,-1.1085443063825369,-0.1504541029594838,-9.579814415574074,14977.0
43.9,8.600000381469728,86.0,21.58535385131836,21.533403396606445,-79.78167683424401,40.45941866052341,312.7847392578125,-0.040483821183443,0.0445649325847625,-0.5121876001358032,0.8567606806755066,0.3539125803415891,9.537772609761348,2.7964551428496405,0.0829755291342735,0.0554916597902774,-0.0516341552138328,-1.0878607311844826,-0.2706943087466061,-9.559746186733246,14977.0
44.0,8.5,86.0,21.64545249938965,21.175573348999023,-79.78166642798155,40.45942249993895,312.9498164672852,-0.0397075079381465,0.0458892285823822,-0.5121701359748839,0.8567376136779785,0.3483183502153692,9.538130104265267,2.7717913975728248,-0.0161846708506345,0.1307123899459839,-0.17269928753376,-1.040909709110856,-0.1286038437858224,-9.593855919241904,14977.0
44.2,8.5,86.0,21.637939453125,22.082077026367188,-79.78164522067148,40.45942983788336,313.34234500122074,-0.0362025536596775,0.0435475371778011,-0.5125088095664978,0.8568125367164612,0.3426726929645529,9.51441404245772,2.716410581862652,0.0637863278388977,0.0016667968593537,0.1934074908494949,-1.2593768155574798,-0.4694607386738062,-9.488173343539238,14978.0
44.3,8.399999618530272,87.0,21.57283401489257,21.366416931152344,-79.781634844272,40.45943365057212,313.50298190307615,-0.03483597189188,0.0421657115221023,-0.5122960209846497,0.8570656180381775,0.3591078913345672,9.520142434997409,2.6371632787740342,0.0975259020924568,0.0208134483546018,-0.1792788803577423,-1.1384540569782258,-0.2632868184149265,-9.464113805294035,14978.0
44.5,8.399999618530272,87.0,21.564069747924805,21.90713691711425,-79.78161375128683,40.45944103894699,313.9015681762696,-0.0317032486200332,0.0431935116648674,-0.5124859809875488,0.8570224642753601,0.359727646563915,9.5097680090203,2.5874495587543547,-0.0686904117465019,-0.003763371380046,0.0200826972723007,-1.071350752338767,-0.3116449729353189,-9.716327605247498,14978.0
44.7,8.300000190734862,87.0,21.589111328125,20.73822593688965,-79.78159258031607,40.45944827723278,314.2991473693848,-0.0337322913110256,0.0445851646363735,-0.5133626461029053,0.8563488125801086,0.3709414005963663,9.485236222750617,2.6550723694006217,-0.0855089277029037,-0.0130241625010967,-0.18984617292881,-1.0438278351724148,-0.3308406510204077,-9.924917668104172,14979.0
44.8,8.300000190734862,89.0,21.59161376953125,22.0105094909668,-79.78158225626676,40.4594520360214,314.4651439208985,-0.0343880839645862,0.045561421662569,-0.5140267014503479,0.8558727502822876,0.3554486887860565,9.453914307520115,2.6684620977285247,0.0649738833308219,-0.0900802090764045,0.2299644500017166,-1.2611736649274827,-0.4960305231437087,-9.79941010773182,14979.0
44.9,8.199999809265138,89.0,21.51523971557617,21.49364471435547,-79.7815717042873,40.45945565993939,314.6875751037598,-0.036113329231739,0.0439980439841747,-0.5148516297340393,0.8553875088691711,0.3199384898580816,9.43999526437187,2.6984094673042565,-0.0819672420620918,0.0653108730912208,-0.0513373352587223,-1.1636240545660257,-0.1022010338678956,-9.758450362086297,14979.0
45.1,8.199999809265138,90.0,21.54153251647949,22.034364700317383,-79.78155113354464,40.45946317122998,315.0236537475586,-0.0373461991548538,0.0386247597634792,-0.5150064826011658,0.8555008769035339,0.3221846754210898,9.413648039245752,2.7091874632350774,0.0143028944730758,0.0263586975634098,0.0237638857215642,-1.2488617676496507,-0.5239435957744718,-9.771422410011292,14980.0
45.2,8.100000381469728,90.0,21.58535385131836,22.6227970123291,-79.78154046139362,40.45946680624405,315.2496783752442,-0.0381496846675872,0.0383242331445217,-0.5149496793746948,0.8555132150650024,0.3146352207487812,9.430023305572243,2.7020728729409744,-0.0634680017828941,-0.0203528143465518,-0.083857774734497,-1.061285428404808,-0.3436339568719268,-9.692151122689248,14980.0
45.4,8.199999809265138,91.0,21.6817626953125,21.167621612548828,-79.78151969366317,40.45947406332103,315.6339442749024,-0.0385138615965843,0.0440981946885585,-0.5143145322799683,0.8556008338928223,0.3017996856364709,9.400332324978857,2.729147407744545,0.02264348231256,-0.0211613774299621,-0.0169835351407527,-1.0385082576423883,-0.4759727096557617,-9.744023526906966,14980.0
45.5,8.199999809265138,91.0,21.566574096679688,21.98665428161621,-79.78150946235104,40.459477840385546,315.8024127502442,-0.040037740021944,0.0471873730421066,-0.5135625004768372,0.8558177351951599,0.2857435917230689,9.385025832245889,2.738910353757799,0.0924884155392646,-0.117631196975708,-0.1095785945653915,-1.0494718600809574,-0.3946407173573971,-9.45125285446644,14980.0
45.71,8.199999809265138,92.0,21.620410919189453,21.088104248046875,-79.78148905000815,40.45948545968256,316.1519572753906,-0.0392921082675457,0.0524274446070194,-0.5124046206474304,0.8562412858009338,0.2584157287423192,9.324727992310496,2.8120635472497524,-0.0516688078641891,0.0801955386996269,0.1980985403060913,-1.4197868447005748,-0.6973951450735331,-9.706484402418136,14981.0
45.8,8.100000381469728,92.0,21.596622467041016,20.642805099487305,-79.7814788986605,40.459489241728285,316.3157756347657,-0.0234919879585504,0.0467182211577892,-0.5121686458587646,0.857291579246521,0.2580765733052019,9.267497763893395,2.8073611277897808,0.0010971743613481,0.5459290146827698,0.1086853146553039,-1.6446618416905403,-0.4474229483306408,-9.977574183940886,14981.0
46.01,8.0,91.0,21.769405364990234,18.82980155944824,-79.78145855557815,40.4594964693646,316.6842830200196,0.0402607060968875,0.0101524107158184,-0.5124886035919191,0.8576896190643309,0.317857636845429,9.29094760266998,1.8722797476817747,-0.0172787625342607,0.8407429456710815,0.024766182526946,-1.1257702036947013,-0.4636028518527746,-9.890995631217956,14981.0
46.2,8.0,102.0,21.796951293945312,18.02667236328125,-79.7814386284189,40.45950392551831,317.0210788269044,0.0836992487311363,-0.0250903163105249,-0.5150903463363647,0.852670431137085,0.3108666266383211,9.114807657875874,0.4762254101966077,-0.1825020015239716,0.3735615611076355,0.0016562830423936,-0.6757176163047552,-0.2662375244311989,-9.651829892992971,14982.0
46.3,7.800000190734862,102.0,21.78067398071289,18.63895797729492,-79.78142921087323,40.4595073819645,317.1773936767578,0.0950547903776168,-0.0347602032124996,-0.5166523456573486,0.8501921296119691,0.2862332549851765,8.860074719282277,0.0538454148494782,-0.0825903192162513,0.3428120911121368,-0.0023925418499857,-0.7433859081566334,-0.2425818095169961,-9.549925788044929,14982.0
46.4,7.800000190734862,102.0,21.763145446777344,19.076305389404297,-79.78141941014586,40.45951060511817,317.3800456542968,0.1053870692849159,-0.0389522090554237,-0.5180078148841858,0.8479648232460022,0.2657178070630437,8.611238171911543,-0.1976966662031558,0.049906451255083,0.2752619087696075,0.0084346365183591,-0.7755026172101498,-0.4016554392501712,-9.601875375509264,14982.0
46.6,7.5,122.0,21.759389877319336,18.28907966613769,-79.7814019687207,40.45951691044004,317.6616008300782,0.1284946948289871,-0.0483400113880634,-0.5191189646720886,0.8436040878295898,0.2235208761669529,7.955832842241181,-0.6041470530328084,-0.0808016806840896,0.2497994005680084,0.0050295735709369,-0.8434420736879111,-0.2605840343423188,-9.334805554747582,14982.0
46.7,7.400000095367432,131.0,21.81072425842285,18.122093200683597,-79.78139331537973,40.45951967958196,317.82561373901365,0.1404996365308761,-0.0547086745500564,-0.5186000466346741,0.8416179418563843,0.2264431918080061,7.621785217019656,-0.7967142234766782,0.0669183582067489,0.285594254732132,-0.1571369469165802,-0.6035918823257089,-0.3935736735910177,-9.448218734264373,14982.0
46.9,7.099999904632568,133.0,21.713064193725582,19.83172416687012,-79.78137742314216,40.45952503215246,318.10531115722665,0.1547355204820633,-0.0607563331723213,-0.5159364342689514,0.8403424024581909,0.253232785760191,6.888512391963602,-1.157518482608784,0.0220281351357698,0.0015255883336067,0.1266648173332214,-0.7085202037543059,-0.6339052004367114,-9.20288067519665,14983.0
47.1,6.9000000953674325,134.0,21.725584030151367,20.07027816772461,-79.78136333761545,40.459529929234016,318.2900111694336,0.1638143658638,-0.0688360258936882,-0.5109963417053223,0.8410168886184692,0.3240947019590214,6.109224554861468,-1.2897924549949038,-0.0374948270618915,0.1559526771306991,0.1661652773618698,-0.5979410234838725,-0.2970465950667858,-9.08817993879318,14983.0
47.2,6.5,142.0,21.640443801879886,21.326658248901367,-79.7813564633711,40.45953202093104,318.4225642700196,0.1678517609834671,-0.0734474882483482,-0.507807731628418,0.8417616486549377,0.374144796982354,5.7492447826585575,-1.3254727433492954,0.0490103177726268,0.1070661023259162,-0.1355240941047668,-0.2072528777271508,-0.4035284851491451,-9.384019814729688,14983.0
47.3,6.199999809265138,144.0,21.57032966613769,22.16159439086914,-79.7813503346221,40.45953409339028,318.4905917663574,0.1693979799747467,-0.0756468400359153,-0.504803478717804,0.8430630564689636,0.4015417072934616,5.35089896457537,-1.3564285727926657,0.0286264009773731,-0.0218903701752424,0.095063254237175,-0.2453615027479827,-0.5291432688385248,-9.621969332098963,14983.0
47.51,5.699999809265138,149.0,21.403806686401367,24.44375228881836,-79.78133889268956,40.45953775090568,318.6720378417968,0.1629374623298645,-0.0736264586448669,-0.5001220107078552,0.8472948670387268,0.4534439355113227,4.64550588418858,-1.1782784537311028,-0.0542569905519485,-0.0488692410290241,-0.1042343527078628,-0.1356091553159058,-0.4798547492176294,-10.02412737607956,14983.0
47.6,5.400000095367432,151.0,21.45764541625977,23.51339530944824,-79.78133391069737,40.45953937560543,318.7261760253906,0.1582761704921722,-0.072793424129486,-0.498214989900589,0.8493713140487671,0.4709983383380025,4.293819848918295,-1.012718393385194,0.006953839212656,-0.0727528184652328,0.042434349656105,-0.3192728119343519,-0.5000185069441796,-10.192281603813171,14983.0
47.8,4.900000095367432,155.0,21.594118118286133,21.104007720947266,-79.78132456834888,40.45954233434261,318.9364764709473,0.1579159796237945,-0.0729529783129692,-0.4938492476940155,0.851970374584198,0.4842462178244605,3.682901004291353,-0.6575807597702397,-0.0423909686505794,-0.0121483672410249,0.0049725202843546,-0.0798861129116267,-0.5580528166517615,-10.535200921297074,14983.0
48.0,4.599999904632568,160.0,21.31991958618164,26.26470947265625,-79.78131642384808,40.459545074627854,319.1981837768555,0.1586431413888931,-0.074611559510231,-0.4944190084934234,0.8513609170913696,0.443800417776016,3.1207956204374416,-0.3887101264142948,-0.025152064859867,0.0637414529919624,0.0633420348167419,0.1391568620502948,-0.4600837782025338,-10.413626782894132,14984.0
48.1,4.199999809265137,170.0,21.461400985717773,23.20327568054199,-79.78131320305268,40.45954602662346,319.2679049987793,0.1603639125823974,-0.075920432806015,-0.4960364103317261,0.8499808311462402,0.4341296559660705,2.808845830742948,-0.2562534897630425,-0.0131995547562837,0.0579486414790153,-0.1251419782638549,0.2388521447405219,-0.3038123534806073,-10.494786136150358,14984.0
48.2,4.0,175.0,21.481433868408203,23.473636627197266,-79.78130996903481,40.45954733170112,319.391722442627,0.1608845293521881,-0.0771291032433509,-0.5000410079956055,0.8474233746528625,0.3581940598452718,2.559311920030681,-0.1308552619820192,-0.0421926602721214,-0.0829126238822937,0.1921196281909942,0.2191758986189961,-0.4755086965486408,-10.5113629925251,14984.0
48.41,3.700000047683716,185.0,21.468914031982425,23.64062309265137,-79.7813055748578,40.45954889075194,319.5165240783692,0.1632695645093917,-0.077420987188816,-0.508933961391449,0.8416266441345215,0.2480914328695548,1.955582374610436,0.0767766644785584,-0.009801466949284,0.1103114187717437,0.107458047568798,0.303139868862927,-0.4044259231165052,-10.355415412187575,14984.0
48.61,3.5999999046325684,192.0,21.467660903930664,23.83146667480469,-79.78130221779003,40.459549737661135,319.66448474121086,0.1769891381263733,-0.0762117207050323,-0.5141498446464539,0.8357731103897095,0.2099458555812771,1.3534255965255892,0.2591525557694528,0.0195457972586154,-0.0111405113711953,-0.0440751761198043,0.6355519956350327,-0.3281977095454931,-10.230014855861665,14984.0
48.7,3.5,204.0,21.536523818969727,21.90713691711425,-79.78130173881286,40.459550049656784,319.696596862793,0.1771090179681778,-0.0783188790082931,-0.517898678779602,0.8332344889640808,0.1574056269479076,1.0296523945632925,0.337451495713728,-0.0938382521271705,-0.0521207712590694,0.181291937828064,0.5175263131409884,-0.5358202774822712,-10.146278049945831,14984.0
48.8,3.5,210.0,21.80696678161621,31.14709854125977,-79.78130093593019,40.45955016607975,319.7643268127442,0.1764147877693176,-0.0821937620639801,-0.5199846625328064,0.8317078351974487,0.1592010872668106,0.7211089645121878,0.4299798293320217,-0.0963517725467682,0.1065664738416671,-0.0502312257885932,0.6781648953258992,-0.3443644202873111,-10.114867976903916,14984.0
49.0,3.5999999046325684,225.0,21.71932411193848,17.040651321411133,-79.78130079534026,40.459550220289096,319.8512218017578,0.1088459491729736,-0.0499241016805172,-0.5407685041427612,0.8326041698455809,0.1171305242031942,0.4054987607609266,0.3895750590842213,-0.3946563303470612,-2.1450603008270264,0.5206950902938843,2.2165633866190912,-0.330848873667419,-9.05640558421612,14984.0
49.1,3.700000047683716,212.0,21.885847091674805,15.951258659362791,-79.78130056938897,40.459550167522586,319.9013659973145,0.022446496412158,-0.0162645112723112,-0.5737606883049011,0.8185538053512573,0.1111472307138669,0.1991953604527365,0.4750914489989886,-0.4158820509910584,-1.364427924156189,0.8361254930496216,0.4627315070852637,-0.1336108693666756,-9.609215385317803,14984.0
49.3,3.900000095367432,220.0,21.74060821533203,18.535585403442383,-79.78130207207302,40.45954945847275,319.8665454406738,0.0107589969411492,0.0115034338086843,-0.656057596206665,0.754546582698822,0.136199976772734,-0.0109945563155289,0.3777609560387968,0.5485922694206238,0.6313093304634094,1.2381571531295776,-0.172415696773678,-0.0063577894982881,-9.142195932269097,14984.0
49.4,4.0,223.0,21.630428314208984,21.85942649841309,-79.78130300250304,40.45954936317701,319.9172198791504,0.0451369322836399,0.010878806002438,-0.7026092410087585,0.7100595831871033,0.0906048543768546,0.0208131149359332,0.2823352534542703,0.2925763428211212,0.5033202171325684,1.2136732339859009,0.2676160055212677,-0.4896299416199327,-8.71309216439724,14984.0
49.61,4.300000190734863,231.0,21.557809829711918,22.026412963867188,-79.78130283789679,40.45954918989951,319.9603908081055,0.053152147680521,-0.0109291011467576,-0.7975800633430481,0.6007673740386963,0.0294396174493984,0.0857059580081952,0.1974818569901791,-0.3038141429424286,0.0488459318876266,1.5553998947143557,0.7308330325037241,-0.980666430965066,-9.598997960686685,14984.0
49.7,4.400000095367432,240.0,21.61540412902832,20.67461204528809,-79.78130387014882,40.4595490238362,319.9842250366211,0.0481583625078201,-0.0126369753852486,-0.841923177242279,0.5372956991195679,0.0403976483403425,0.0478744123900824,0.2150051497390221,-0.1833167672157288,0.0760799348354339,1.5685820579528809,0.6258443751186132,-0.8981962781399488,-9.777195950746538,14984.0
49.91,4.599999904632568,237.0,21.666736602783203,20.284975051879886,-79.78130560445094,40.45954890363439,320.04022097778324,0.0418654568493366,-0.0072758654132485,-0.91616290807724,0.3985471725463867,0.0598933923984091,-0.0778672315384385,0.2247304152370925,-0.0161672383546829,-0.0073342872783541,1.5230510234832764,-0.0223578842869028,-0.7855407515913249,-9.557033078670502,14985.0
50.0,4.699999809265137,234.0,21.630428314208984,20.730274200439453,-79.7813057567342,40.459548909302654,320.0598971862793,0.0407809987664222,-0.0053575728088617,-0.9442924857139589,0.3265271186828613,0.0649156584435752,-0.1146982327161154,0.1928540172274992,0.0164717230945825,-0.0414435267448425,1.4951425790786743,-0.2042949175089597,-0.7319459769129754,-9.425387111306192,14985.0
50.2,4.800000190734863,248.0,21.622915267944336,21.533403396606445,-79.78130766031991,40.459548458623146,320.11171603393564,0.0353081598877906,-1.7325710359727967e-05,-0.9826484322547911,0.1820866018533706,0.1717692315909213,-0.1767945008387447,0.1806575346201061,-0.0520244725048542,0.0239013265818357,1.5006860494613647,-0.2541402016952634,-0.7859359502792359,-9.508104747533798,14985.0
50.4,4.800000190734863,255.0,21.54153251647949,21.70039176940918,-79.78130932734035,40.45954839836767,320.1418750305176,0.019851928576827,0.0051494338549673,-0.9990098476409912,0.0394824482500553,0.2458012096741351,-0.2082172468005156,0.1836925035465533,-0.1924302726984024,-0.0505524203181266,1.504069447517395,-0.4537831109762192,-0.8082359151542187,-9.814276653528212,14985.0
50.5,4.900000095367432,242.0,21.42509078979492,24.3801383972168,-79.78130966473816,40.45954854691086,320.1600978393555,-0.0126657159999012,-0.006087178364396,0.9994260668754578,0.0308228302747011,0.2497795324285889,-0.207680267997913,0.2020314650264513,-0.0506307072937488,-0.0766392573714256,1.4603911638259888,-0.5771504442393779,-0.679606014713645,-9.933394961357116,14985.0
50.61,4.900000095367432,235.0,21.490198135375977,22.400146484375,-79.78130996867503,40.45954873138749,320.18173098754886,-0.0088526466861367,-0.0070230951532721,0.9954071044921876,0.0950635001063346,0.247394595786531,-0.2099868206813969,0.243912635034402,-0.0874117612838745,0.01758255623281,1.1349021196365356,-0.3221096982434392,-0.4801057774946094,-10.313159923553467,14985.0
50.8,4.900000095367432,242.0,21.487693786621094,23.529298782348643,-79.78131143843783,40.4595491299532,320.21936297607425,-0.005100994836539,-0.015400044620037,0.9811716079711914,0.192455530166626,0.2709998793139441,-0.2101372427089697,0.3161356432171147,-0.0236162785440683,-0.1792628616094589,0.7663159966468811,-0.5963670992106199,-0.4181955678015948,-10.181747260093688,14985.0
50.9,4.900000095367432,246.0,21.53151512145996,21.73219871520996,-79.78131272812321,40.45954956479585,320.2519862670899,-0.0245565325021743,-0.0662657395005226,0.9664482474327089,0.2469488531351089,0.3291270956703439,-0.0246459443589882,0.2829809171108771,0.2820430994033813,-1.4446616172790527,0.3300510346889496,-0.1314417259488254,-0.4956766204163433,-10.051380078792572,14985.0
51.11,4.900000095367432,234.0,21.069509506225582,30.200838088989247,-79.78131311652197,40.459549656106645,320.2783534545899,-0.0597642101347446,-0.134967416524887,0.95454204082489,0.2589623928070068,0.3238506414791537,0.0807843362400856,0.2965828328578992,0.1236979663372039,-0.9718474745750428,-0.0476845987141132,-0.5607448016479611,-0.3576677129790187,-9.98059017777443,14985.0
51.2,5.0,227.0,20.9843692779541,31.44926643371582,-79.78131431769778,40.45954978039649,320.27101016235355,-0.0692114531993866,-0.1697865724563598,0.9473516345024108,0.2625017166137695,0.322708243302688,0.2148596987493272,0.4419442498767208,-0.3328535258769989,-0.2475603222846985,0.2465981692075729,-1.5406151707470417,-0.7857608261704445,-10.660810807943344,14985.0
51.41,5.0,307.0,21.24855232238769,26.805429458618164,-79.78131631932762,40.45954917313516,320.32566714477537,-0.0234436187893152,-0.1578294336795807,0.9544540643692015,0.2521069049835205,0.3034743902821015,0.6558228265666219,0.8978363974591321,-0.4954762160778046,0.4847824573516846,-0.0456901676952838,-0.9372797253727914,-0.3391822157800198,-11.614906833171847,14985.0
51.5,5.099999904632568,254.0,21.41006660461425,23.55315399169922,-79.78131725218627,40.459548476933406,320.39227175903324,-0.0015369944740086,-0.141061246395111,0.9597749710083008,0.242758110165596,0.3069919778475485,0.9112674141269352,1.0495029524254746,-0.2532818615436554,0.3906413912773132,-0.1749769151210785,-0.6985303819924593,0.0177944202627986,-11.326404043436051,14985.0
51.7,5.400000095367432,247.0,21.388782501220703,26.034107208251957,-79.78132000974551,40.45954656009413,320.49968600463865,0.0007228991598822,-0.131337895989418,0.9650335907936096,0.226848378777504,0.2657550142981835,1.3436034152509833,1.1583344135259752,0.0586349219083786,-0.0972706153988838,0.0407584644854068,-0.7034354650229216,-0.2159447272494435,-10.422273645401,14985.0
51.9,5.5,245.0,21.322423934936523,24.83338928222656,-79.7813230632362,40.45954411321947,320.58734011840824,-0.0142190372571349,-0.1420368701219558,0.9656250476837158,0.2172366976737976,0.1893233125839364,1.6635154218760009,1.3017024304570524,0.140368103981018,-0.1636638790369033,0.0452380403876304,-1.076172000914812,-0.1980819036997854,-10.11919374704361,14985.0
52.0,5.9000000953674325,207.0,21.28360939025879,25.127605438232425,-79.78132423436912,40.45954249624919,320.6705195922852,-0.0179660283029079,-0.1469156295061111,0.9654325246810912,0.2145531326532364,0.15402025869251,1.8266581148260888,1.4048690894046032,0.1088548004627227,-0.1282703131437301,-0.1439902931451797,-0.7713969216495753,-0.2211438155919313,-10.39997938156128,14985.0
