time,wind_speed,wind_angle,battery_voltage,battery_current,position_x,position_y,position_z,orientation_x,orientation_y,orientation_z,orientation_w,velocity_x,velocity_y,velocity_z,angular_x,angular_y,angular_z,linear_acceleration_x,linear_acceleration_y,linear_acceleration_z,node_ids
0.0,1.0,88.0,23.65624618530273,-0.0954212844371795,-79.7827486854682,40.4589915615974,272.1716439094544,0.031618881970644,-0.0034092939458787,-0.7811864614486694,0.6234872937202454,0.0130023663359676,0.0066311841771507,0.0098236758664179,0.0022859454620629,0.003212354844436,0.0037609941791743,0.4421119954437018,-0.4532979748025537,-9.79131112933159,14937.0
0.1,0.8999999761581421,85.0,23.65499496459961,-0.0874695107340812,-79.78274864893497,40.45899156598279,272.1699138250351,0.0316169448196888,-0.00341477105394,-0.7811886668205261,0.6234845519065857,0.0081440880450262,0.0053032505699324,0.0102276951637686,0.0038579613901674,0.0055422415025532,-0.0003136610903311,0.4413999873027205,-0.4333716505765915,-9.789977964162826,14937.0
0.3,0.8000000119209291,83.0,23.6612548828125,-0.0715659633278846,-79.78274861034694,40.458991546903896,272.1663321223259,0.0316215604543685,-0.0034095437731593,-0.7811885476112366,0.6234845519065857,0.0111938017403704,0.006073048948409,0.010414675489269,-0.0056888335384428,-0.0005691040423698,0.0008001563837751,0.4414116817340255,-0.4362072943523526,-9.791159101724627,14937.0
0.4,0.8000000119209291,85.0,23.6612548828125,-0.0715659633278846,-79.782748603371,40.458991523363366,272.1684104766846,0.0316217578947544,-0.0034098553005605,-0.7811918854713441,0.6234803199768066,0.0108651532000883,0.006550635503343,0.0110075893551305,-0.0080323265865445,-0.0047853705473244,-0.0028451276011765,0.4420881680399179,-0.4517721073329449,-9.79147952914238,14937.0
0.6,0.699999988079071,87.0,23.660001754760746,-0.1033730581402778,-79.78274856628822,40.45899151832096,272.1640746560097,0.031621303409338,-0.0034118173643946,-0.7811954021453857,0.6234759688377379,0.0107571594936828,0.0059766567555763,0.0106052478037284,0.0056656021624803,0.0036548487842082,0.0009146368247456,0.4409607883170247,-0.4470393344387412,-9.790591921806335,14937.0
0.7,0.8000000119209291,88.0,23.65499496459961,-0.0715659633278846,-79.78274850950457,40.458991490893176,272.15904587173463,0.0316200219094753,-0.003405996132642,-0.7811948657035828,0.6234767436981201,0.0120364230688856,0.0091681827246581,0.0078744519597433,0.0021934446413069,0.0037271615583449,0.0007748659700155,0.4418998511508108,-0.4451422784104944,-9.791652606725696,14937.0
0.9,0.699999988079071,87.0,23.660001754760746,-0.0795177370309829,-79.78274850251104,40.45899147839397,272.1598374810219,0.0316231288015842,-0.0034044836647808,-0.7811974883079529,0.6234732866287231,0.0112844141324366,0.0093002251965119,0.0081403315878698,-0.0027960299048572,-0.0002741812495514,0.0055308630689978,0.4421240187808872,-0.4500341321155429,-9.791083672642706,14937.0
1.0,0.699999988079071,88.0,23.65749740600586,-0.0795177370309829,-79.78274848614035,40.45899147925496,272.1533874835968,0.0316249728202819,-0.0034185198601335,-0.7812007069587708,0.6234690546989441,0.0071286856986105,0.0019982725662913,0.0051618770031963,0.0034639621153473,1.923558102134848e-06,0.0008240684401243,0.4394591502472758,-0.437490940913558,-9.789812487959862,14937.0
1.2,0.699999988079071,88.0,23.660001754760746,-0.0954212844371795,-79.78274848572858,40.45899147249918,272.1538966264725,0.0316249728202819,-0.0034185198601335,-0.7812007069587708,0.6234690546989441,0.0065421026496663,0.0024366378142975,0.0055075281847261,-0.0031197059433907,-0.0029129707254469,-0.0073279431089758,0.4402102616429329,-0.4343967040255666,-9.790354524850846,14937.0
1.31,0.699999988079071,86.0,23.658750534057607,-0.0874695107340812,-79.78274842596817,40.45899145467202,272.1468474831581,0.0316453464329242,-0.0034061949700117,-0.7811977863311768,0.6234717965126038,0.0060885154673501,0.0067828366748496,0.0036088270702764,-0.0071359034627676,-0.0037551822606474,-0.00365642295219,0.4415039946511388,-0.4541400104016066,-9.791747331619264,14937.0
1.5,0.699999988079071,84.0,23.65624618530273,-0.1033730581402778,-79.78274842005122,40.458991447437455,272.1472175087929,0.0316507220268249,-0.0034155568573623,-0.7811975479125977,0.6234717965126038,0.0071049388706471,0.0068960190867855,0.0038432193825902,0.0056034661829471,0.00520591577515,0.0012243433156982,0.4409688647836447,-0.4492350735515357,-9.791244471073153,14937.0
1.6,0.699999988079071,82.0,23.65749740600586,-0.0954212844371795,-79.78274837998818,40.458991443708,272.13926916980745,0.0316399931907653,-0.0034121964126825,-0.7811853289604187,0.623487651348114,0.0038389834507067,0.0052406417245982,0.0023157738873074,0.0023478625807911,0.0018241723300889,-0.0019366691121831,0.4415413802862168,-0.4448776188120246,-9.792480572462082,14937.0
1.8,0.699999988079071,85.0,23.65499496459961,-0.0795177370309829,-79.7827483470824,40.45899142779817,272.1310270395279,0.0316387936472892,-0.0033939129207283,-0.7811755537986755,0.6235000491142273,0.005535615427838,0.004724399578745,0.0014227091590584,-0.0011692667612805,0.000841777480673,0.0050933132879436,0.443327704668045,-0.4511361495405436,-9.7915818554163,14937.0
1.9,0.699999988079071,86.0,23.65624618530273,-0.0795177370309829,-79.78274833838618,40.45899141627804,272.13138156795503,0.0316428914666175,-0.0033996819984167,-0.7811709046363831,0.6235055923461914,0.0056572924712635,0.0053167106596764,0.0020509450190176,0.0050361924804747,0.0004513491003308,0.0056479908525943,0.4401509124040604,-0.4334167106822133,-9.78958912432194,14937.0
2.1,0.699999988079071,89.0,23.65749740600586,-0.0954212844371795,-79.78274830668909,40.45899139524529,272.122686144352,0.0316241346299648,-0.0033814590424299,-0.7811723947525024,0.6235048174858093,0.0063153193689074,0.0050674907135661,0.0013023360560044,-0.0076854778453707,-0.0077353613451123,-0.0038058597128838,0.4407576341181993,-0.4357282246649265,-9.790479655265807,14937.0
2.2,0.699999988079071,91.0,23.65749740600586,-0.0874695107340812,-79.78274829540825,40.45899136355018,272.1131669249535,0.0316131450235843,-0.0033742922823876,-0.7811537981033325,0.6235287189483643,0.0086388254774463,0.0003133319441305,0.0010396918250219,-0.0073563465848565,-0.001507009495981,-0.0013800738379359,0.4413793393224478,-0.451367114558816,-9.791735637187957,14937.0
2.4,0.699999988079071,97.0,23.65499496459961,-0.0795177370309829,-79.78274829737941,40.45899135552765,272.113243516922,0.0316031984984874,-0.0033709397539496,-0.781167209148407,0.6235124468803406,0.0093903816360761,0.000566683812114,0.0013063198146514,0.0055466159246861,0.0027413968928158,0.0013117260532453,0.4391520983353257,-0.4446428531035781,-9.790726407766345,14937.0
2.5,0.699999988079071,96.0,23.65624618530273,-0.0874695107340812,-79.78274825886376,40.458991342229744,272.1030545201302,0.0315973721444606,-0.0033548765350133,-0.7811617851257324,0.6235195398330688,0.0053936064445499,0.0014630743587455,0.000512470603651,0.000304935616441,0.0021905992180109,-0.0062882299534976,0.4415916663408279,-0.4481058300286532,-9.792086470127106,14937.0
2.71,0.699999988079071,99.0,23.65374183654785,-0.0874695107340812,-79.7827482584084,40.45899133736876,272.103104886055,0.0315792858600616,-0.0033325308468192,-0.7811605930328369,0.623522162437439,0.0051486014878021,0.0017487942490309,0.0008408410736192,0.0032952865585684,0.0004999313387088,0.0014537184033542,0.4430465997755528,-0.4530246905609965,-9.793015007972718,14937.0
2.81,0.699999988079071,101.0,23.65624618530273,-0.0795177370309829,-79.78274822251181,40.45899129188192,272.09249776268007,0.031558658927679,-0.0033324449323117,-0.7811565399169922,0.6235283017158508,0.0096012752881904,0.0038189455338855,0.0007620849480701,0.0057853828184306,0.0014172930968925,0.0020448605064302,0.440397335998714,-0.4329163717478514,-9.790469130277632,14937.0
3.0,0.699999988079071,104.0,23.65624618530273,-0.0954212844371795,-79.78274822016894,40.45899128308857,272.09256708288194,0.0315578840672969,-0.0033304910175502,-0.781143844127655,0.6235442161560059,0.0083450760297281,0.0044469730883533,0.0011025667485523,-0.0058267279528081,-0.0045829373411834,-0.002572501078248,0.4407056669890881,-0.4382979663088918,-9.790852707624436,14937.0
3.1,0.6000000238418579,106.0,23.658750534057607,-0.0874695107340812,-79.78274815988921,40.45899125191091,272.0829488601685,0.0315668135881423,-0.0033105411566793,-0.7811516523361206,0.623534083366394,0.007522955519604,0.0082877172239628,0.0034530707968137,-0.0051869386807084,-0.0059252283535897,0.0057585421018302,0.4409049839526415,-0.4493512138724327,-9.791216989159585,14937.0
3.31,0.6000000238418579,109.0,23.660001754760746,-0.0318070948123931,-79.78274810986295,40.45899123140421,272.07209467554094,0.0315642766654491,-0.0033075776882469,-0.7811514735221863,0.6235344409942627,0.0078203097060545,0.0106494833343273,0.0048669731970295,0.0041171656921505,0.0027119657024741,-0.0033076850231736,0.4392046867311001,-0.4406437961384654,-9.790147533416748,14937.0
3.41,0.6000000238418579,112.0,23.65749740600586,-0.0795177370309829,-79.7827480997135,40.45899122236394,272.07260584497453,0.0315676629543304,-0.0033067404292523,-0.7811542749404907,0.6235307455062866,0.0073532170483413,0.0111491673535156,0.0051354141640273,-0.0005070198094472,-0.0010332365054637,0.0044588046148419,0.4431978233903647,-0.4510122982040048,-9.792800999879836,14937.0
3.6,0.6000000238418579,115.0,23.65374183654785,-0.1033730581402778,-79.78274809773531,40.45899119626626,272.05912166500093,0.0315786562860012,-0.003315727924928,-0.781157374382019,0.6235262751579285,0.0095366057872305,0.0034278021826405,0.002665616572123,0.0081190420314669,0.0029361920896917,0.0049004382453858,0.4419296719506383,-0.4538025164231658,-9.79244139611721,14937.0
3.7,0.6000000238418579,116.0,23.65624618530273,-0.0795177370309829,-79.78274804741322,40.458991165600665,272.0474197831154,0.0315755642950534,-0.0033124096225947,-0.7811571359634399,0.6235267519950867,0.0090065639621215,0.0066285967617892,0.0039941684665678,0.0056635071523487,0.0042221252806484,0.0009470722288824,0.4397387567907572,-0.4347503509372473,-9.79111290872097,14937.0
3.9,0.6000000238418579,112.0,23.633708953857425,-0.0636141896247863,-79.7827480420451,40.45899115658188,272.047823902607,0.0315782353281974,-0.0033123178873211,-0.7811614274978638,0.6235212683677673,0.0078062204154786,0.0072070906347952,0.0042761488520208,-0.0086814453825354,-0.0043889326043426,-0.0009719085646793,0.4408690966665745,-0.4426451153308153,-9.791735052466391,14937.0
4.01,0.6000000238418579,111.0,23.643726348876957,0.0159035474061965,-79.78274802287197,40.45899112751479,272.03425252103807,0.0315873436629772,-0.0033171204850077,-0.7811634540557861,0.623518168926239,0.0093497565938314,0.0022550445659758,0.002551416821184,-0.0006626866525039,-0.0036121590528637,0.0019621993415057,0.4395190476626158,-0.4451652652770281,-9.790842767357828,14937.0
4.2,0.699999988079071,112.0,23.65749740600586,-0.0874695107340812,-79.7827480225958,40.45899111851532,272.03448676729204,0.0315873436629772,-0.0033171204850077,-0.7811634540557861,0.623518168926239,0.0094585807396682,0.0028809843781485,0.0028314046475892,-0.002373049268499,-0.0005436519859358,-0.0037177200429141,0.4390964401513338,-0.4370221769437194,-9.790652148127558,14937.0
4.3,0.699999988079071,110.0,23.649986267089844,-0.0477106422185897,-79.78274795586647,40.4589910996844,272.02446770334245,0.0315795131027698,-0.0033173924311995,-0.7811660170555115,0.6235153675079346,0.0048731719006079,0.0067704619064065,0.0077285783424229,-0.0053327167406678,-0.0030469640623778,-0.0080879088491201,0.4425130413472653,-0.4538631447404623,-9.792405143380163,14937.0
4.5,0.699999988079071,110.0,23.64873313903809,-0.0238553211092948,-79.78274794964314,40.45899109348044,272.0252571668625,0.0315795131027698,-0.0033173924311995,-0.7811660170555115,0.6235153675079346,0.005690747675996,0.0071930552787723,0.0079509534404166,0.0047159898094832,0.0033417975064367,0.0043590948916971,0.4414477882906795,-0.4516222358867527,-9.792331468462942,14937.0
4.6,0.699999988079071,113.0,23.65249061584473,-0.0079517737030982,-79.78274790123244,40.45899105825553,272.0133553709984,0.0315859876573085,-0.0033151239622384,-0.7811689376831055,0.6235114932060242,0.0072647409750388,0.0070435480027638,0.0085108429160125,0.0034516316372901,0.0010740789584815,-0.0010802337201312,0.4423062691837549,-0.4420058684796095,-9.792528519630432,14937.0
4.8,0.8000000119209291,116.0,23.642473220825195,0.0079517737030982,-79.78274785370435,40.45899104243053,272.0009486641884,0.0315844006836414,-0.0033176532015204,-0.7811685800552368,0.6235119700431824,0.004720443980955,0.0060838277459967,0.0083920141207179,-0.0034934799186885,-0.0019500758498907,0.0049881730228662,0.4424355657398701,-0.4503296723216773,-9.792518579363824,14937.0
4.91,0.8000000119209291,116.0,23.646228790283203,0.0079517737030982,-79.78274784212205,40.4589910311455,272.002694126606,0.0315842144191265,-0.0033191046677529,-0.7811712622642517,0.6235085725784302,0.0049192277301122,0.0069715700532398,0.0088581221967676,0.0008712846320122,0.0030040363781154,0.0036042924039065,0.4388263718783856,-0.4347772481292486,-9.790225301384927,14937.0
5.01,0.8999999761581421,112.0,23.64748191833496,-0.0079517737030982,-79.78274779059267,40.458990998715024,271.9914693799019,0.0315897576510906,-0.0033162098843604,-0.7811741828918457,0.623504638671875,0.0055131186239217,0.007016428653052,0.0117832931774907,-0.0061658564954996,-0.0029168650507926,-0.0053035924211144,0.4405993207544089,-0.4362133242934942,-9.791190676689148,14936.0
5.2,1.0,112.0,23.649986267089844,-0.0159035474061965,-79.78274779120194,40.458990960177175,271.9794978466034,0.0316058360040187,-0.0033254292793571,-0.7811740636825562,0.6235039234161377,0.0095185414675311,-0.0034752735761356,0.0111336040943465,-0.0085702631622552,-6.0806243709521375e-05,0.0008042129338718,0.4412991593778134,-0.4521219900995493,-9.792216863036156,14936.0
5.4,1.0,111.0,23.649986267089844,-0.0159035474061965,-79.78274779825868,40.45899095179715,271.9805645909309,0.0316057354211807,-0.0033267342951148,-0.7811768651008606,0.6235004067420961,0.0102368881357592,-0.0030565322278835,0.0114592378334162,0.0024132693652063,0.0017999365227296,-0.0009338338277302,0.4397142350301147,-0.4422745845839381,-9.791556127667429,14936.0
5.5,1.0,110.0,23.64873313903809,-0.0159035474061965,-79.78274771989223,40.458990911082175,271.9701753821373,0.0316009409725666,-0.0033188604284077,-0.7811796069145203,0.6234972476959229,0.0089355792780058,0.0035349344525839,0.0135641253487267,6.481120362877846e-05,-0.0017765851225703,-0.0050299298018217,0.4428730105608702,-0.4495264110714197,-9.794220703840256,14936.0
5.7,1.100000023841858,110.0,23.64748191833496,0.0079517737030982,-79.78274771893723,40.45899090203656,271.9715180363655,0.0315996669232845,-0.0033236229792237,-0.7811818122863771,0.6234945058822632,0.0093865909768384,0.0037585122967704,0.0138090195091918,0.0029215302783995,0.0018843879224732,0.002703157486394,0.4426734743267298,-0.4537312169373036,-9.792864149808883,14936.0
5.8,1.2999999523162842,110.0,23.64748191833496,-0.0079517737030982,-79.78274767569157,40.45899086444665,271.9603757824898,0.0316104404628276,-0.003319805022329,-0.7811723947525024,0.6235058903694153,0.0103887292536779,0.0016643882048127,0.0126743701985901,0.0050215097144246,0.0057139215059578,0.0018508641514927,0.4407566839456559,-0.4362833812460303,-9.791263766884803,14936.0
6.0,1.399999976158142,115.0,23.64748191833496,-0.0477106422185897,-79.78274767677797,40.45899085510795,271.96162414217,0.0315904431045055,-0.0033408051822334,-0.7811674475669861,0.6235129833221436,0.0091844405767627,0.002211396859633,0.0130266743499504,-0.0050861150957644,-0.0021764552220702,0.0008924342109821,0.4420315962284804,-0.4445696898177266,-9.792830820679663,14936.0
6.11,1.2999999523162842,119.0,23.64873313903809,-0.0159035474061965,-79.78274763336505,40.4589908143393,271.95022123718263,0.0315839201211929,-0.003322088625282,-0.7811670899391174,0.6235138177871704,0.0103232663858582,0.0002972518744251,0.0120707630330467,0.0011212872341275,0.0003224933461751,0.0067001637071371,0.4397240291163325,-0.4398428006842733,-9.791060283780098,14936.0
6.3,1.399999976158142,119.0,23.646228790283203,-0.0238553211092948,-79.78274754767833,40.45899078460876,271.93743425273897,0.0315796323120594,-0.0033178310841321,-0.7811737060546875,0.6235057711601257,0.0090216867690242,0.005391115426621,0.0106355004404634,-0.0052456962876021,-0.0015917570563033,-0.0049915676936507,0.4405635065585375,-0.4330328409746289,-9.791953153610232,14936.0
6.4,1.399999976158142,121.0,23.642473220825195,0.0159035474061965,-79.78274754450833,40.4589907749759,271.93849038743974,0.0315764620900154,-0.0033230755943804,-0.7811676263809204,0.6235135197639465,0.009709560614456,0.0057070524114179,0.0108584105861302,0.006071229930967,0.0059714023955166,0.0019233413040637,0.4423872165754438,-0.4522291768714786,-9.792652480602262,14936.0
6.6,1.2999999523162842,120.0,23.65123748779297,-0.0079517737030982,-79.78274753469618,40.45899071165654,271.92645668649675,0.0316020213067531,-0.0033070840872824,-0.7811455130577087,0.6235400438308716,0.0162219902267969,-0.0023047535270243,0.0106611298209577,0.0021098654251545,0.002104194369167,0.0012779207900166,0.4394263327494264,-0.4436273013800383,-9.791374279260635,14936.0
6.71,1.399999976158142,122.0,23.63871765136719,-0.0079517737030982,-79.78274746229519,40.45899068028457,271.914865252018,0.0315910317003726,-0.0032930714078247,-0.7811399102210999,0.6235476732254028,0.0110306067294873,0.0023076972884642,0.0100767169346198,0.0010303838644176,-0.0023920822422951,-0.0030684634111821,0.4393533156439662,-0.4349121360853314,-9.79107607126236,14936.0
6.9,1.399999976158142,127.0,23.64122200012207,-0.0079517737030982,-79.78274746311455,40.4589906695492,271.9158407416344,0.0315938666462898,-0.0032924816478043,-0.7811436653137207,0.6235427260398865,0.0115633491958057,0.0026160640438498,0.0101816269270345,0.0074108876287937,0.0012799698160961,0.0044508394785225,0.441773222386837,-0.4542924400046468,-9.791571915149689,14936.0
7.0,1.399999976158142,129.0,23.63871765136719,0.0,-79.78274740936384,40.45899066234146,271.90405177736284,0.0315888300538063,-0.0033045206218957,-0.7811462879180908,0.6235396862030029,0.0045499971212376,-0.0007408400202412,0.0098631690464788,0.0047580208629369,0.0010785408085212,0.0009835232049226,0.44073541469872,-0.4382713614776731,-9.792807431817057,14936.0
7.2,1.2999999523162842,131.0,23.65624618530273,-0.0874695107340812,-79.78274741156056,40.45899065867426,271.9050360884666,0.0315888300538063,-0.0033045206218957,-0.7811462879180908,0.6235396862030029,0.0035839537108802,-0.0002135795655068,0.0102622898962715,-0.0010503618977963,-0.0016013084677979,-0.0001770694652805,0.4427836577966809,-0.4484592576697469,-9.794122470617292,14936.0
7.3,1.2999999523162842,131.0,23.65624618530273,-0.0715659633278846,-79.78274729124357,40.45899061805697,271.89508992099763,0.0315836556255817,-0.0032916916534304,-0.7811494469642639,0.6235360503196716,0.0043825454347891,0.0088210353236474,0.0125081510647081,0.0027964762412011,-0.00156935013365,0.0041288924403488,0.4394845490902662,-0.4357262512296439,-9.792284690737723,14936.0
7.5,1.100000023841858,138.0,23.642473220825195,-0.0874695107340812,-79.78274728255438,40.45899061221372,271.8963787522316,0.0315836556255817,-0.0032916916534304,-0.7811494469642639,0.6235360503196716,0.0035763252798107,0.0095364020540744,0.0128689307426819,-0.005370682105422,-0.002677448792383,-0.0050186277367174,0.4404539078101516,-0.4338404510915279,-9.79149063885212,14936.0
7.6,1.100000023841858,138.0,23.65374183654785,-0.0874695107340812,-79.78274719968064,40.45899056459376,271.8866600956917,0.0315860770642757,-0.0032909060828387,-0.7811526656150818,0.6235319375991821,0.0052270093876901,0.0093537747746369,0.0152200404085571,-0.0037417218554764,-0.0002756127214524,-0.0015740459784865,0.441993041150272,-0.4521818875148893,-9.793766959905623,14936.0
7.81,1.100000023841858,135.0,23.65749740600586,-0.0874695107340812,-79.78274714577185,40.45899051666461,271.87380218172075,0.0315972045063972,-0.0032816524617373,-0.7811577916145325,0.6235250234603882,0.0116352663061221,0.0054192008252398,0.0132892042817532,0.0040352754294872,0.0027923241723328,-0.0019523041555657,0.439371844008565,-0.444499961771071,-9.791798787117004,14936.0
7.91,1.0,134.0,23.65374183654785,-0.0874695107340812,-79.78274714307477,40.45899050502962,271.87512075567247,0.0316078104078769,-0.0032676064874976,-0.7811499834060669,0.6235343813896179,0.0111581217457388,0.0060086735742393,0.013602995731899,-0.0019396955613046,-0.0015721818199381,0.0003109351673629,0.4421099489182234,-0.4496383852511645,-9.793748248815538,14936.0
8.1,0.8999999761581421,138.0,23.65624618530273,-0.0874695107340812,-79.78274706001132,40.45899046009993,271.86365383529665,0.0316076427698135,-0.0032462195958942,-0.7811519503593445,0.6235319972038269,0.0109062131465658,0.0066735852058913,0.0119947506877102,0.0045403754338622,0.0016374845290556,0.0082630105316638,0.4428829508274793,-0.4544958865642548,-9.792753637433051,14936.0
8.2,0.8999999761581421,140.0,23.65499496459961,-0.0795177370309829,-79.78274697436323,40.458990417243264,271.8517438139916,0.0315973386168479,-0.0032313431147485,-0.7811503410339355,0.623534619808197,0.0108016362034067,0.0071977306400992,0.0106482705288433,0.0041426373645663,0.0009465483599342,0.0040419078432023,0.4411151548102498,-0.4345357946678997,-9.791104722619057,14936.0
8.4,0.8999999761581421,142.0,23.65374183654785,-0.0795177370309829,-79.78274696913286,40.45899040640161,271.8528130617142,0.0316099673509597,-0.0032278818544,-0.7811426520347595,0.6235436797142029,0.0096192944485612,0.0078765834410399,0.0110263638640123,-0.0049503841437399,-0.0029793512076139,-0.0012712758034467,0.4408903659135103,-0.4402734846621752,-9.792299893498422,14936.0
8.5,0.8000000119209291,145.0,23.65249061584473,-0.0954212844371795,-79.78274688267875,40.45899038605486,271.84052693510057,0.0316157862544059,-0.0032229155767709,-0.7811564803123474,0.6235259771347046,0.0054314035746367,0.0066972074370787,0.0098670200066319,-0.0051945359446108,-0.0026340908370912,0.00373415206559,0.4395233234390616,-0.445749292485416,-9.792399880886078,14936.0
8.7,0.699999988079071,149.0,23.65749740600586,-0.0715659633278846,-79.78274687676392,40.45899037928728,271.84153580331804,0.0316095538437366,-0.003240602556616,-0.7811553478240967,0.6235276460647583,0.0058244535783131,0.0073808682653484,0.0102633770973522,0.0017568279290571,0.0009571271948516,-0.0061842296272516,0.4395353833213449,-0.4372407166287303,-9.7917601954937,14936.0
8.8,0.8000000119209291,151.0,23.65624618530273,-0.0795177370309829,-79.78274677417807,40.45899035664316,271.83014773988725,0.0316081009805202,-0.0032395301386713,-0.7811582088470459,0.6235241293907166,0.0030946211350259,0.0100732202492888,0.0098744261092834,-0.0030843503773212,-0.0022759994026273,-0.0067458664998412,0.4441031550988555,-0.4524195768311621,-9.793840634822846,14936.0
9.0,0.699999988079071,155.0,23.65624618530273,-0.0874695107340812,-79.78274676393869,40.45899035130768,271.8311725225449,0.0316081009805202,-0.0032395301386713,-0.7811582088470459,0.6235241293907166,0.0038657938027765,0.0104400343655975,0.0100194342018595,0.0014380015200003,0.0030279594939202,0.0029967296868562,0.4424708317592741,-0.4536095948517323,-9.792367136478424,14936.0
9.11,0.699999988079071,155.0,23.65374183654785,-0.0874695107340812,-79.78274665566778,40.45899029441558,271.81940424108507,0.031613040715456,-0.0032306807115674,-0.7811602354049683,0.6235213875770569,0.0085185782529184,0.013854363261344,0.009631234197673,0.0049576675519347,0.0042965724132955,0.0051810140721499,0.4410145827010274,-0.4336281971633433,-9.791163194775583,14936.0
9.3,0.699999988079071,157.0,23.64122200012207,-0.0795177370309829,-79.78274660483056,40.45899026571349,271.80645650291444,0.0316218174993991,-0.0032371464185416,-0.7811601758003235,0.6235209703445435,0.0090682959256012,0.0066659299189131,0.0094304559727368,-0.0075554335489869,-0.0031278000678867,-0.0001628381141927,0.4413404187932611,-0.4356483370810748,-9.791677165031434,14936.0
9.4,0.699999988079071,160.0,23.649986267089844,-0.0795177370309829,-79.78274660013706,40.45899025555568,271.8073926534653,0.0316223949193954,-0.0032383168581873,-0.7811632752418518,0.6235170960426331,0.0102951246112403,0.0070538533931996,0.0096067649966114,0.0082291550934314,0.0008349097915925,0.0024554233532398,0.4418230333551765,-0.4534831853583455,-9.79278111934662,14936.0
9.6,0.699999988079071,164.0,23.65499496459961,-0.1033730581402778,-79.78274648950854,40.45899023295021,271.7953424420357,0.0316143110394477,-0.0032396484166383,-0.7811657190322876,0.6235144138336182,0.0062953536815792,0.0103203253104324,0.0088277949890782,0.0067359046079218,0.0004016236343886,0.0033548020292073,0.4422969501838088,-0.4543430184200407,-9.793186331391334,14936.0
9.71,0.699999988079071,167.0,23.63996887207031,-0.0954212844371795,-79.78274640854411,40.45899020016439,271.78419309520723,0.0316137112677097,-0.0032434393651783,-0.7811693549156189,0.62350994348526,0.0075616265399852,0.0094615002409375,0.0090158303034353,0.0041181771084666,0.0033232632558792,0.0049297753721475,0.4406673311814666,-0.4347985539212823,-9.791679503917695,14936.0
9.9,0.699999988079071,167.0,23.64748191833496,-0.0795177370309829,-79.78274639985915,40.458990191677,271.78512018585207,0.0316244103014469,-0.0032417778857052,-0.7811745405197144,0.6235028505325317,0.0064989499572802,0.0102029524977771,0.0094118477009813,-0.0064073544926941,-0.0026808800175786,-0.0013247011229395,0.4414655857533217,-0.4334228868037462,-9.792658912539483,14936.0
10.0,0.699999988079071,170.0,23.65249061584473,-0.0874695107340812,-79.78274631782517,40.4589901596609,271.77592098379137,0.0316310375928878,-0.0032319494057446,-0.7811695337295532,0.6235089302062988,0.0073541282275978,0.0094639755162442,0.0128652246757803,-0.0078418720513582,-0.0048582162708044,-0.0081499479711055,0.4422805048897863,-0.4550225745141506,-9.793205627202989,14936.0
10.2,0.699999988079071,179.0,23.658750534057607,-0.0954212844371795,-79.78274630958784,40.45899015041667,271.7772249546051,0.0316150486469268,-0.0032329461537301,-0.7811692357063293,0.6235100626945496,0.0083469822793605,0.0098545664110815,0.0130901204147155,0.0043036364950239,0.0034454497508704,0.0017113356152549,0.4422426807135344,-0.4555115113779903,-9.793210889697075,14936.0
10.31,0.8000000119209291,183.0,23.64497756958008,-0.0874695107340812,-79.78274623205834,40.45899010255087,271.76605379247667,0.031644769012928,-0.0032185383606702,-0.7811634540557861,0.6235158443450928,0.0124925687559751,0.0101516288641939,0.0117800118806063,0.003093549516052,0.0017372372094541,0.0050678853876888,0.4407187501341105,-0.4341203499957919,-9.792258378267286,14936.0
10.5,0.8000000119209291,181.0,23.65249061584473,-0.0715659633278846,-79.78274622381608,40.45899008946768,271.7672456469536,0.0316446982324123,-0.0032325878273695,-0.7811597585678101,0.6235204935073853,0.0117331520953987,0.0109792982102273,0.0122162448356563,-0.0030102788005024,-0.0020095643121749,-0.004947118461132,0.4409098079055548,-0.4321567087993026,-9.792549569606784,14936.0
10.61,0.8000000119209291,182.0,23.65123748779297,-0.0954212844371795,-79.78274611767091,40.45899008393144,271.7585483756065,0.0316326841711998,-0.0032205341849476,-0.7811661362648009,0.6235131621360779,0.0059998814427947,0.0132267912215431,0.0143352478245312,-0.005731024313718,-0.0034858884755522,-0.0065835402347147,0.4443642332777381,-0.4544545175135136,-9.793951147198678,14936.0
10.8,0.699999988079071,197.0,23.65624618530273,-0.0795177370309829,-79.78274604846801,40.45899005693949,271.7477152016163,0.0316380448639392,-0.0032152482308447,-0.7811630964279175,0.6235166192054749,0.0101596086506909,0.0121122464213426,0.012709559976066,0.0046332110650837,0.0042977915145456,0.0033903010189533,0.4429387551918626,-0.4543587693572045,-9.793179314732551,14936.0
10.91,0.6000000238418579,205.0,23.65249061584473,-0.0954212844371795,-79.7827460260272,40.45899003363945,271.7503451969624,0.0316399447619915,-0.0032132980413734,-0.7811670303344727,0.6235116720199585,0.0104132995554965,0.0132583772872994,0.0132656791933977,0.0069767758250236,0.0023002873640507,0.0039454507641494,0.4424943668022752,-0.4541318242996931,-9.792721477746962,14936.0
11.1,0.6000000238418579,214.0,23.65499496459961,-0.1033730581402778,-79.78274596310735,40.45899002527874,271.73716199064256,0.031643982976675,-0.0032168056350201,-0.7811697721481323,0.6235079169273376,0.0096041697574997,0.0104090505639625,0.0077584515596062,-0.0047996919602155,-0.0014762833015993,-0.0053228819742798,0.440426425896585,-0.4327655866742134,-9.791723942756652,14936.0
11.2,0.5,224.0,23.65249061584473,-0.0874695107340812,-79.78274588797977,40.45899000759972,271.7257571783066,0.0316443294286727,-0.0032188529148697,-0.7811692953109741,0.6235084533691406,0.0095390899317189,0.0093263694092814,0.0046933194822708,-0.0085893357172608,-0.0018119890009984,-0.0026227151975035,0.4431214441359043,-0.4536062327027321,-9.792937824726105,14936.0
11.4,0.5,234.0,23.65123748779297,-0.0795177370309829,-79.78274588002844,40.458989996736605,271.7262312140465,0.0316451303660869,-0.0032198652625083,-0.7811726927757263,0.623504102230072,0.0106665600771366,0.0096955431322863,0.0048165874146252,0.0052913641557097,0.0019604384433478,0.0016169769223779,0.4419431936368346,-0.4540587341040373,-9.792445489168168,14936.0
11.5,0.5,234.0,23.65123748779297,-0.0795177370309829,-79.78274577446162,40.45899000222667,271.7172454264164,0.0316356122493743,-0.0032254504039883,-0.7811759710311891,0.6235005855560303,0.005021034129192,0.0118279708501158,0.0063888319393977,0.004837779328227,0.001403939910233,0.0032999219838529,0.4413820802047849,-0.4360078677535057,-9.79158302485943,14936.0
11.71,0.6000000238418579,233.0,23.646228790283203,-0.0715659633278846,-79.78274576200374,40.45898999566307,271.71793436670305,0.0316356122493743,-0.0032254504039883,-0.7811759710311891,0.6235005855560303,0.0038737671482455,0.0125459341110167,0.006746198312127,-0.0026235347613692,-0.0028515288140624,-0.0013320758007466,0.4408986251056194,-0.4410877825319767,-9.793129613399506,14936.0
11.8,0.6000000238418579,234.0,23.64748191833496,-0.0795177370309829,-79.78274570075565,40.45898998130021,271.7099820044041,0.031644307076931,-0.0032290189992636,-0.7811789512634277,0.6234964728355408,0.0060091541400262,0.0082901533523158,0.0079672627319981,-0.0047946400009095,-0.002718009520322,0.0034639460500329,0.440915691666305,-0.4486374881118536,-9.79304307460785,14936.0
12.0,0.6000000238418579,239.0,23.65123748779297,-0.0795177370309829,-79.78274569307348,40.45898997357504,271.71079769396783,0.031644307076931,-0.0032290189992636,-0.7811789512634277,0.6234964728355408,0.0069404254989327,0.0088902298749425,0.0082501605610758,0.0081279566511511,0.0043042465113103,0.0035102928522974,0.4402845943719149,-0.4450884474813938,-9.792451921105387,14936.0
12.11,0.699999988079071,245.0,23.65499496459961,-0.1033730581402778,-79.78274561404784,40.458989959346376,271.70346966052057,0.0316466353833675,-0.003230070695281,-0.7811822891235352,0.6234920024871826,0.0078477006966238,0.008472647542526,0.0091220300914193,0.004625896923244,0.0015006089815869,-0.0025833258405327,0.4419389178603888,-0.4475057595223189,-9.794026576280594,14936.0
12.3,0.699999988079071,246.0,23.63871765136719,-0.1590354740619659,-79.78274553694493,40.45898995559329,271.6956041123867,0.0316465273499488,-0.003230009926483,-0.7811821699142456,0.6234921813011169,0.0075162455144591,0.0078086458302488,0.0092054912516629,-0.0040912493132054,-0.0014503295533359,0.0033296006731688,0.4404165952652693,-0.4488973603025079,-9.794570367336274,14936.0
12.4,0.699999988079071,242.0,23.649986267089844,-0.1113248318433761,-79.78274552295295,40.45898993779941,271.6975095238686,0.0316459983587265,-0.0032317088916897,-0.7811853885650635,0.623488187789917,0.0077077454862817,0.0090595520184976,0.0098315866891777,-0.0020871686283499,0.0018048614729195,0.0016280552372336,0.4394466518238187,-0.4410485330969096,-9.792381754517557,14936.0
12.6,0.8000000119209291,234.0,23.64748191833496,-0.1351801604032516,-79.78274548409229,40.45898996145589,271.68744009399416,0.0316497571766376,-0.0032437026966363,-0.7811879515647888,0.6234846711158752,0.0052984254112345,0.0017176896280708,0.005216239936585,0.0021973741240799,-0.0001676026731729,-0.0008589088683947,0.4394245420396328,-0.4389418909326196,-9.792189965844155,14936.0
12.71,0.8999999761581421,238.0,23.65123748779297,-0.0874695107340812,-79.7827454105866,40.45898997818696,271.6817023422718,0.0316436924040317,-0.0032476705964654,-0.7811879515647888,0.6234851479530334,0.0008065502849792,0.0024243744697076,0.0064989144291405,-0.0014913247432559,0.0018473241943866,-0.0067413137294352,0.4428059137612581,-0.4519168990105391,-9.793998509645464,14936.0
12.9,0.8999999761581421,228.0,23.65499496459961,-0.1033730581402778,-79.78274540837933,40.45898997656485,271.6823678877354,0.0316459983587265,-0.003248052438721,-0.7811910510063171,0.6234809756278992,0.0012420539894323,0.0029139952521913,0.0066928852985961,0.0036532713565975,0.0020091095939278,0.0050988090224564,0.4444357154890895,-0.452673345990479,-9.793776900172237,14936.0
13.0,0.8999999761581421,225.0,23.65499496459961,-0.0874695107340812,-79.78274535033569,40.45898997159973,271.67760562562944,0.0316490642726421,-0.003252861322835,-0.7811873555183411,0.6234855651855469,0.0051186765472128,0.0007806265123067,0.0083756725712149,0.0004413885180838,0.0034960235934704,0.0035616906825453,0.4402075573056937,-0.4314092884585261,-9.791423980593684,14936.0
13.2,1.0,228.0,23.649986267089844,-0.1192766055464744,-79.78274535099834,40.45898996692018,271.67843827271463,0.0316397026181221,-0.0032546471338719,-0.7811887264251709,0.623484194278717,0.0046071985859507,0.0013837968946499,0.0086850750173386,-0.002631792332977,-0.0013872841373085,-0.0061278417706489,0.439040343426168,-0.4328203677758575,-9.792251361608503,14936.0
13.31,1.0,225.0,23.649986267089844,-0.0954212844371795,-79.78274524299239,40.45898994676774,271.6722420420647,0.03165989741683,-0.003242933191359,-0.7811761498451233,0.6234990954399109,0.0085855603626717,0.0074537236122792,0.0060080677704417,0.0006018987623974,-0.0009823750006034,-0.0056212083436548,0.4412611524760723,-0.4524850656464696,-9.79455107152462,14936.0
13.51,0.8000000119209291,215.0,23.5886344909668,0.8746951222419739,-79.7827452368316,40.45898993747949,271.67285340690614,0.0316316783428192,-0.0032348036766052,-0.7811701893806458,0.6235079169273376,0.0085882244301853,0.0079183113110728,0.0063249406692842,-0.0021177167072892,0.0005992951337248,-0.0002173395769204,0.4415341078117489,-0.4492465487122536,-9.794118377566338,14936.0
13.6,0.8000000119209291,212.0,23.628700256347656,0.1828908026218414,-79.78274514697421,40.45898993024278,271.6665733423233,0.0316326767206192,-0.0032394607551395,-0.7811905741691589,0.623482346534729,0.009859712780434,0.0084842770191615,0.0042891329310685,0.0038871602155268,-0.0003480914747342,0.0202188435941934,0.445028732791543,-0.4494707528874278,-9.791348551511764,14936.0
13.8,0.8999999761581421,210.0,23.633708953857425,0.2146978974342346,-79.78274507629908,40.4589899642417,271.6642087962628,0.0316225551068782,-0.003247641492635,-0.7811416387557983,0.6235440373420715,0.0035745693815362,0.0039191609240624,0.0089060743911702,0.0080386530607938,0.0059170271269977,-0.0125604225322604,0.4437056540697813,-0.4501161027699709,-9.79252033352852,14936.0
13.9,1.0,210.0,23.628700256347656,0.2146978974342346,-79.78274506929783,40.4589899563029,271.6660448279381,0.0316321030259132,-0.003258285112679,-0.7811402678489685,0.6235453486442566,0.0033056492980452,0.0046529058752624,0.0093032824546771,0.0093520153313875,-0.0033788175787776,-0.0051532420329749,0.43753936316818,-0.435409368686378,-9.792879937291143,14936.0
14.1,1.100000023841858,214.0,23.62744903564453,0.198794350028038,-79.78274500989792,40.45898997337214,271.66233819389345,0.0316433012485504,-0.0032669485080987,-0.7811705470085144,0.6235067248344421,0.0017551562635392,0.001357820151295,0.0099420876636813,-0.0055848080664873,4.013026409666054e-05,0.0044377539306879,0.4401759457960725,-0.4340360770002008,-9.793515529632568,14936.0
14.21,1.100000023841858,216.0,23.628700256347656,0.2306014448404312,-79.78274490898595,40.45898998058632,271.6602053906918,0.031639277935028,-0.0032749669626355,-0.7811850905418396,0.6234886646270752,0.0032062221073229,0.0066959711373585,0.0099354815877285,-0.0027618985623121,-0.0026330852415412,-0.0038529804442077,0.4440438424050808,-0.4564151254668832,-9.791307036280632,14936.0
14.4,1.2999999523162842,220.0,23.623693466186523,0.3021674156188965,-79.7827449026003,40.45898997584235,271.661203142643,0.0316494740545749,-0.003272466128692,-0.7811501026153564,0.6235321164131165,0.0038816174728017,0.0069699671301463,0.0099662678954353,0.0026667041238397,0.000919594138395,0.006180711556226,0.4391609422490001,-0.4485314707830548,-9.793707903027537,14936.0
14.5,1.2999999523162842,221.0,23.619935989379893,0.326022744178772,-79.78274481648562,40.458989980319,271.6593932476044,0.0316562578082084,-0.0032658616546541,-0.781163215637207,0.623515248298645,0.0056380771748135,0.0076519349878523,0.0100044398102183,0.0014039427042007,-0.0016899143811315,0.0075158020481467,0.4416849659755826,-0.4396570784971118,-9.789563396573069,14936.0
14.7,1.2999999523162842,230.0,23.29816055297852,3.3238415718078613,-79.78274480991655,40.45898997348486,271.660440680027,0.0316723994910717,-0.0032785932999104,-0.7811968326568604,0.6234722733497621,0.0067558698020694,0.0091133453920968,0.0112190140976319,0.0033344915136694,0.0021152200642973,-0.0037172466982156,0.4556863796710968,-0.4389165286347271,-9.807742390036584,14936.0
14.8,1.2999999523162842,234.0,23.583627700805664,0.508913516998291,-79.7827447061452,40.45898999481175,271.65933808350565,0.0317588187754154,-0.0029781784396618,-0.781207799911499,0.6234557032585144,0.0010876520079806,0.0100547577822557,0.0102853358222642,-0.0024166007060557,0.0085216183215379,-0.0255371816456317,0.3811288983374834,-0.4844293914735318,-9.774743043780328,14936.0
15.0,1.5,241.0,23.62244033813477,9.91586208343506,-79.78274469583481,40.45898999036408,271.6603779461384,0.031748704612255,-0.0030853026546537,-0.7811822295188904,0.6234877705574036,0.003101536006558,0.0082367737802669,0.0103447285057843,-0.006565062329173,0.0319519191980361,0.0025856087449938,0.4383052753284573,-0.4272974533215165,-9.782342085242274,14936.0
15.1,1.5,246.0,23.41460037231445,2.250351905822754,-79.78274459782722,40.45899000373928,271.6588213708401,0.0318639129400253,-0.0029575394000858,-0.7812876701354979,0.6233503222465515,0.0005312007338056,0.0115224460184717,0.0078670013378303,-0.0036368595901876,-0.0036207758821547,-0.0083311544731259,0.4696872086450458,-0.4766380862519145,-9.808386753201486,14936.0
15.3,1.5,252.0,23.61868476867676,0.1669872552156448,-79.78274452560541,40.45899002680208,271.6560940411091,0.0317854508757591,-0.0030104066245257,-0.7812744379043579,0.6233705878257751,0.0013174287478637,0.0046898743836666,0.0044842854793283,-0.0290509089827537,0.0252821166068315,0.0098438849672675,0.4455424472317101,-0.4469190279766917,-9.784466963410376,14936.0
15.4,1.5,257.0,23.616180419921875,0.1590354740619659,-79.7827445072671,40.45899001610642,271.6570622291565,0.0317191481590271,-0.0031653591431677,-0.7812395095825195,0.6234170198440552,0.0033820508645875,0.0121376600096639,0.0047331368690876,-0.0035716018173843,-0.0031195739284157,-0.0062321061268448,0.4003224202618003,-0.4422689200937748,-9.786617569327356,14936.0
15.6,1.5,253.0,23.4033317565918,3.077336549758911,-79.78274443193783,40.45899005161368,271.6571411755085,0.0316843800246715,-0.0031438386067748,-0.7812385559082031,0.6234201192855835,0.0030772500508779,0.0088938790626564,0.0076403412072515,-0.0102486414834857,0.0087709706276655,0.0299402307718992,0.4575470002368093,-0.4382870393246413,-9.791830946803094,14936.0
15.71,1.5,253.0,23.29941177368164,4.604076862335205,-79.78274437599673,40.45899007991964,271.65626144075395,0.0316780544817447,-0.0031029500532895,-0.7812724709510803,0.6233781576156616,0.0051400799446184,0.0038089436571633,0.0064522973478111,0.0227758903056383,0.0088815223425626,0.0067608696408569,0.4312359185144305,-0.4425854737311602,-9.789777404665948,14936.0
15.9,1.5,255.0,23.14540863037109,6.4727439880371085,-79.78274437231727,40.4589900767001,271.6568822231293,0.0317337885499,-0.0029570823535323,-0.781266450881958,0.6233835220336914,0.0043224483453055,0.0052384372347973,0.0059212744402814,0.0286614932119846,0.0245561264455318,0.0140732722356915,0.4253895068541169,-0.5042264556884766,-9.777139817476272,14936.0
16.01,1.5,255.0,23.06027030944824,8.174423217773438,-79.7827443681754,40.45899007336139,271.6575309302807,0.0318371690809726,-0.0028898592572659,-0.7813315391540527,0.6232969760894775,0.0004909475344759,0.004041347654854,0.0056505791043289,0.0116018336266279,0.006344782654196,4.958628051099368e-05,0.4521667943894863,-0.4441984647139907,-9.806198140382769,14936.0
16.2,1.5,252.0,22.86870574951172,10.170318603515623,-79.78274428090965,40.45899007341614,271.6583307650089,0.0323195084929466,-0.0024397033266723,-0.7813439965248108,0.6232585310935974,0.0066097717000596,0.0088045783532431,0.0083218216269297,0.0361458212137222,0.0516437068581581,-0.0223284531384706,0.4306781306862831,-0.4749337325245142,-9.811864092350008,14936.0
16.31,1.600000023841858,251.0,22.74600601196289,11.681156158447266,-79.78274417515101,40.45899009514131,271.657954898119,0.0333909094333648,-0.0017890012823045,-0.781366765499115,0.6231756806373596,0.0199826834875515,0.0146029537813443,0.009321444522965,0.0840963870286941,0.0356499627232551,-0.0498211830854415,0.4184464498981833,-0.5085552225261927,-9.743843432664873,14936.0
16.42,1.600000023841858,251.0,22.65585708618164,13.597533226013184,-79.78274416302901,40.45899008672264,271.65880736374856,0.0338304974138736,-0.0013326533371582,-0.781419575214386,0.6230869293212891,-0.002909357389113,0.0162098609977752,0.0082137871674817,-0.0479790791869163,-0.1519375890493393,-0.0426129847764968,0.4062058155611157,-0.6636336873471738,-9.765903807878496,14936.0
16.61,1.600000023841858,248.0,22.41671562194824,16.213666915893555,-79.7827441097428,40.458990152004425,271.658154573679,0.035519428551197,-0.0004050389688927,-0.7813447117805481,0.6230881214141846,0.0173436999796439,0.0059749114871711,0.0106267668619691,0.0706458017230033,0.0764563828706741,0.0062683378346264,0.4968424090370536,-0.2477463992871345,-9.830206807851791,14936.0
16.81,1.600000023841858,243.0,22.165054321289062,19.45003890991211,-79.78274411022488,40.45899015461098,271.6564959254265,0.0363725759088993,5.706330193788745e-05,-0.7813981175422668,0.6229720711708069,0.0113808142313028,-0.0029569481192979,0.0084917125835406,0.010897297412157,0.0055431989021599,0.0032882438972592,0.3946137836202979,-0.5306003218889237,-9.768867176771163,14936.0
16.9,1.600000023841858,243.0,22.033588409423828,21.12786293029785,-79.78274414865687,40.45899012939896,271.6585682895184,0.0378590002655983,-0.000386164203519,-0.7826768159866333,0.6212758421897888,0.0197831704362939,-0.0216560164870213,0.0105686309552534,0.0143576879054307,0.0259485468268394,0.0521873906254768,0.3311425866186619,-0.6047942525893449,-9.846217653751374,14936.0
17.11,1.600000023841858,244.0,21.7844295501709,24.3721866607666,-79.78274409059495,40.45899014198726,271.65975939893724,0.0372948199510574,-0.0009811752242967,-0.7838353514671326,0.6198470592498779,0.00528537598449,-0.0088016266037098,0.0172789131896635,-0.1081512495875358,0.0214106757193803,0.0180003251880407,0.2802104146778583,-0.5294030313938857,-9.824910399913788,14936.0
17.21,1.600000023841858,243.0,21.66924095153809,26.10567283630371,-79.7827440463191,40.45899016398403,271.66161098742487,0.0335806757211685,-0.0003455850819591,-0.7818374633789062,0.6225772500038147,0.0491547676716806,-0.0219272039632296,0.0279605652543646,-0.006507241167128,-0.1405506730079651,-0.0051581170409917,0.2973715540766716,-0.3096064873784781,-9.91587904214859,14936.0
17.4,1.7000000476837158,241.0,21.417579650878903,29.77144241333008,-79.78274407669366,40.45899011988527,271.6666681733132,0.0242234207689762,0.0014240535674616,-0.7794524431228638,0.6259914636611938,0.0582950554916542,-0.0165410163926452,0.0858633141025086,-0.1854379475116729,-0.1229265108704567,-0.1393619775772094,0.3743629754707217,-0.4582617492601276,-10.238426660299302,14936.0
17.5,1.7999999523162842,242.0,21.456392288208008,27.32229423522949,-79.78274442719585,40.45898980682036,271.6835068132877,-0.0147899342700839,0.0022298148833215,-0.7727367281913757,0.6345505118370056,0.0628112786208856,0.017410276513862,0.2262239083387778,-0.1180780082941055,-0.0950954109430313,-0.0255238637328147,0.3679182109236717,-0.134290772639215,-10.444802967309952,14936.0
17.7,1.7999999523162842,239.0,21.77316093444824,24.41989707946777,-79.78274440694331,40.458989748604594,271.7097222771645,-0.0170546099543571,0.0020610431674867,-0.7714692950248718,0.6360345482826233,0.0492607566117763,0.040978399421273,0.2876811748873148,-0.0439338870346546,-0.0368319563567638,-0.0823990628123283,0.096805661804974,0.073872580518946,-10.465278747081758,14936.0
17.8,1.7999999523162842,235.0,21.775665283203125,23.9825496673584,-79.7827441966867,40.45898973775434,271.75716125631334,-0.0018988093361258,0.0023371470160782,-0.7723563313484192,0.6351824402809143,0.0204479339771417,0.0912878622381768,0.2472766743923181,0.0711122453212738,0.149345189332962,0.0944147780537605,0.1652933495678007,-0.0291719279112294,-10.065996948480604,14936.0
18.0,1.8999999761581416,237.0,21.789438247680664,23.33050537109375,-79.78274407251385,40.45898970153213,271.7795901861191,0.0067320042289793,-0.0015057704877108,-0.7737627029418945,0.6334381699562073,0.0157491768330944,0.1186616080744232,0.1947308503076836,0.0782610476016998,0.1663638353347778,0.0712508261203765,0.1679855172894895,-0.124316117092967,-9.372659259438516,14936.0
18.1,1.8999999761581416,238.0,21.70304679870605,24.61869239807129,-79.78274352379131,40.458989916850406,271.7915450897217,0.0097588133066892,-0.0093909371644258,-0.7759566307067871,0.630640983581543,-0.0085652878515208,0.1228095621254091,0.0379590424683526,-0.012899836525321,0.0945877283811569,0.0062212767079472,0.2757075104489923,0.0164214848913252,-9.225798836946488,14936.0
18.3,2.0,248.0,21.463905334472656,27.56879997253418,-79.78274358088629,40.45899016775967,271.7992792096138,0.0112491883337497,-0.0113107459619641,-0.7761944532394409,0.6302917003631592,-0.0188312251588581,0.0719898073342375,-0.0277848330790124,0.0382341928780078,0.0603133365511894,0.0305542573332786,0.3074575625360012,-0.0134622113336809,-9.074032015800476,14936.0
18.4,1.8999999761581416,253.0,21.334943771362305,28.96036148071289,-79.78274340178004,40.45899016748485,271.78816806936265,0.0134462853893637,-0.0111532369628548,-0.776142418384552,0.6303156614303589,-0.0206921627801297,0.0726591697324134,-0.0539361525158066,-0.1346778124570846,-0.0347614884376525,-0.0888916105031967,0.3534062256664038,-0.0911804576218128,-9.389502748847008,14936.0
18.6,1.8999999761581416,256.0,21.51523971557617,26.07386589050293,-79.78274326934738,40.45899016434474,271.80629944467546,0.0113288220018148,-0.0120863048359751,-0.7762979865074158,0.6301484704017639,-0.0085687797870091,0.0803777832269988,0.0051013638791288,-0.0649325028061866,-0.0453485734760761,0.0311506148427724,0.3668079708516598,-0.0485973376175388,-9.97383079648018,14936.0
18.7,1.8999999761581416,257.0,21.351221084594727,28.825180053710927,-79.78274291539762,40.45899017908226,271.82427364254,0.0082535361871123,-0.0135479988530278,-0.7764122486114502,0.6300257444381714,-0.0111493753693978,0.0855591029627463,0.0564640951026901,-0.1297322511672973,0.0010144144762307,-0.0838484913110733,0.2592887298949063,-0.1083677815832197,-9.962061520814895,14936.0
18.9,1.8999999761581416,258.0,21.43886375427246,27.012176513671875,-79.78274282477706,40.458990165267984,271.83165037298204,0.0085869608446955,-0.015278079546988,-0.7764846682548523,0.6298924684524536,0.0086501810377766,0.0770737381579634,0.0858856551823088,0.0321200676262378,0.0426879674196243,0.0825111418962478,0.2678307993337512,-0.0322392264939844,-10.064683663845065,14936.0
19.0,1.8999999761581416,258.0,21.348716735839844,28.24470138549805,-79.78274249242767,40.45899016296417,271.85175537729265,0.0108958389610052,-0.0200679395347833,-0.7766350507736206,0.6295369267463684,-0.0011882731229128,0.0679272574036916,0.1053543795242388,-0.0375826582312583,-0.0003570525441318,-0.016046654433012,0.2666397215053439,0.1935672502219676,-9.974892650842667,14936.0
19.2,1.7999999523162842,260.0,21.390033721923828,27.234825134277344,-79.78274241942161,40.458990146790256,271.86218702459337,0.012728814035654,-0.0186809934675693,-0.7771172523498535,0.6289497017860413,0.0106729839721168,0.0550536909669224,0.1027362310117072,0.1336729526519775,0.0959957242012024,0.1436720937490463,0.3215438704937696,-0.108274701219052,-9.854373350143431,14936.0
19.3,1.7999999523162842,260.0,21.39379119873047,27.24277687072754,-79.78274212522594,40.45899013209676,271.8864059414864,0.0092711327597498,-0.0178001746535301,-0.7777180075645447,0.6282929182052612,-0.0067314591947293,0.0596745051654947,0.1121500574878501,-0.0139224668964743,-0.047450453042984,0.0622631683945655,0.3187486455962062,-0.1024356259871274,-9.93724710702896,14936.0
19.5,1.8999999761581416,263.0,21.311155319213867,28.44349479675293,-79.78274206101939,40.458990133753225,271.8984782662392,0.0071070129051804,-0.0186500530689954,-0.7776119709014893,0.6284276247024536,-0.0237622096056592,0.0595884946480806,0.1313370807169845,-0.0614181496202945,0.0053357509896159,-0.0822792574763298,0.2326703952625394,0.0422854738868773,-9.939621076583864,14936.0
19.61,1.8999999761581416,263.0,22.057376861572266,19.76015853881836,-79.78274190964406,40.45899012218049,271.92313551568986,0.0106912842020392,-0.0245626512914896,-0.7770625352859497,0.6288532018661499,-0.0236129256744287,0.0281507775225474,0.0955409919893139,0.0798993706703186,0.0933144986629486,-0.0480216778814792,0.3603280499204993,-0.1617182705551386,-10.021834098100662,14936.0
19.81,1.8999999761581416,259.0,21.185949325561523,30.51890754699707,-79.78274155497614,40.4589899932884,271.9160575833321,0.0124371917918324,-0.0234950128942728,-0.7770618796348572,0.6288626194000244,-0.0023243674362931,0.0770553115661829,-0.0052662703709542,0.1315042525529861,-0.1161895990371704,-0.0468523427844047,0.5151425494998694,0.1124063072539866,-9.013528536558152,14936.0
19.91,1.8999999761581416,257.0,21.10707092285156,31.31408500671387,-79.78274135816125,40.458989987304506,271.91210204029085,0.0042414157651364,-0.0026801996864378,-0.7773638963699341,0.629031240940094,-0.030005257599837,0.0793095722984158,0.0024587874272947,-0.0196946039795875,-0.1268596649169922,-0.1087397709488868,0.4360518315061927,-0.0853570693731308,-9.452422297596932,14936.0
20.1,2.0999999046325684,253.0,20.3846378326416,41.22994613647461,-79.7827410356261,40.45898981121864,271.9349709119797,0.0043665296398103,-0.0005991031648591,-0.7767027616500854,0.6298518776893616,-0.0163446242671035,0.0682299810229995,0.1147303053171272,0.0298688281327486,0.060327973216772,-0.0465010069310665,0.202617205157876,-0.1626997257024049,-10.62530534505844,14936.0
20.2,2.200000047683716,247.0,20.63755226135254,37.82658767700195,-79.78274069510962,40.45898969577904,271.97485977077486,0.009606716223061,-0.0119081912562251,-0.7757757902145386,0.6308231949806213,-0.0307039968400858,0.0969403581660685,0.4188749814377454,-0.058433961123228,0.0826681479811668,-0.0256139803677797,0.350903909727931,-0.0058444096741732,-11.263807260990143,14936.0
20.4,2.200000047683716,246.0,20.357091903686523,41.61163330078125,-79.78274058599054,40.45898970702971,272.0265991654396,0.0097453659400343,-0.0164155736565589,-0.7752039432525635,0.6314226984977722,-0.0346047939017787,0.1120898895188748,0.6132471723445456,-0.0702741891145706,0.0175166372209787,-0.0501820594072341,0.4496293220669032,-0.0666925925575196,-11.724659070968633,14937.0
20.5,2.299999952316284,245.0,20.359596252441406,41.17428588867188,-79.78274045962941,40.4589897271886,272.0988489356041,0.0059766182675957,-0.0166429057717323,-0.7746384739875793,0.6321570873260498,-0.0455856404469892,0.1360263956425811,0.8253985063941831,-0.0159805156290531,-0.0792640447616577,-0.0199479926377534,0.508778988160193,-0.0467689635325223,-11.871469792127607,14937.0
20.6,2.400000095367432,248.0,20.360849380493164,41.00729751586914,-79.78274011328033,40.45898984914993,272.3008405532837,0.0004256731772329,-0.0080154351890087,-0.7733343839645386,0.6339476108551025,-0.0553970486095586,0.1441103645215161,1.2532737671892449,0.193964883685112,0.014987395144999,-0.1170474216341972,0.2757217630371451,0.2055797883309424,-11.991220768690107,14937.0
20.8,2.400000095367432,245.0,20.31201934814453,41.65934371948242,-79.78273973895719,40.45898994228035,272.5833070840836,0.0258797500282526,0.0054390649311244,-0.7731317281723022,0.6336939334869385,-0.0341094051458289,0.1724279535769218,1.6541125092752993,0.3527927398681641,0.0996938124299049,0.0775206983089447,0.2843115238286555,0.124555030670017,-11.980968260765072,14937.0
21.0,2.5,249.0,20.33831214904785,40.78464889526367,-79.78273957251545,40.45898990473447,272.75855475330354,0.0407235100865364,0.0105939172208309,-0.7728949189186096,0.6331372857093811,-0.0443858095934291,0.1922730591051873,1.8419300941869667,0.1803641319274902,0.112757109105587,0.0295424219220876,0.3532233174517751,-0.0218201140360906,-11.759176354408266,14937.0
21.11,2.5,252.0,20.293237686157227,41.15838241577149,-79.7827392961999,40.45898991300607,272.9366113510132,0.0485308319330215,0.0074886842630803,-0.7730862498283386,0.6323972940444946,-0.0468387187433425,0.2027340019106779,1.9921184845227728,-0.069043681025505,0.1616529375314712,0.0013736860128119,0.4116252708435058,-0.2538808594085276,-11.675778687000276,14937.0
21.3,2.5999999046325684,261.0,20.2481632232666,41.301513671875,-79.78273879488037,40.45898956025678,273.3605434265137,0.0262496527284383,-0.0259756259620189,-0.7754104137420654,0.6303768754005432,0.0371087759762914,0.2579035831214618,2.304638493213705,-0.6292693614959717,-0.0127781918272376,0.034097421914339,0.5460205259174109,-0.2434413867630065,-11.41745922446251,14938.0
21.4,2.5999999046325684,265.0,20.28572654724121,40.72103500366211,-79.78273872457277,40.458989394166615,273.59932607078554,-0.0011463648406788,-0.0432300753891468,-0.7774690389633179,0.6274328231811523,0.1350300486806852,0.2688219266869208,2.4533354011910333,-0.616352379322052,-0.1478680223226547,0.040586419403553,0.6023212092742324,0.0160994312167167,-11.373876417875293,14938.0
21.5,2.700000047683716,271.0,20.32579040527344,39.46465301513672,-79.78273831360816,40.45898914198415,274.0987052288056,-0.0416758768260479,-0.0483986772596836,-0.7829548716545105,0.6187911033630371,0.308178863257018,0.2155977211224634,2.7423359949966377,0.0530698150396347,-0.2127051651477813,0.1300368160009384,0.3541735265403986,0.5763270831853151,-11.449549913406372,14939.0
21.7,2.700000047683716,273.0,20.25567626953125,40.72103500366211,-79.78273788577675,40.458989291459176,274.67027157211305,-0.0085113011300563,-0.0073759774677455,-0.7920238971710205,0.6103861331939697,0.1843710409415896,0.1587501813540981,3.051145147178618,0.6808784008026123,-0.0137465819716453,0.0753539204597473,0.3283818237483502,0.6323221398890019,-11.368585857152937,14939.0
21.8,2.799999952316284,275.0,20.2481632232666,40.6812744140625,-79.78273770317656,40.45898934217952,274.9835156764984,0.0199714098125696,0.0089830635115504,-0.7939361333847046,0.6076067090034485,-0.0066707792049568,0.1416450240103421,3.207307235243063,0.6505399942398071,0.2210117280483245,0.0406313315033912,0.1571795338578522,-0.0147241341182962,-11.296474485397338,14939.0
22.0,2.799999952316284,280.0,20.239398956298828,40.43476867675781,-79.78273753014469,40.4589893666261,275.31104057693483,0.047035951167345,0.0104085635393857,-0.7935850024223328,0.6065494418144226,-0.1760839371835399,0.1593021518177705,3.33639830906456,0.2680432796478271,0.4274339079856873,0.016848724335432,0.1684363558888435,-0.0858416939154267,-11.186583083868024,14940.0
22.2,3.0,292.0,20.55491638183593,35.472862243652344,-79.78273727255815,40.458989351907896,276.01002853775026,0.075126864016056,-0.0257198102772235,-0.7898452877998352,0.6081438660621643,-0.2306132334771737,0.3201477006277722,3.5040150986683023,-0.4127719402313232,0.2988590896129608,0.0006903063622303,0.4667254477366805,-0.2747539392113686,-10.560976617336271,14941.0
22.31,3.0,297.0,20.765260696411133,32.07745742797852,-79.78273672446808,40.45898890494607,276.7638155784607,0.0082114916294813,-0.0473880060017108,-0.7863576412200928,0.6158966422080994,0.0606645298480353,0.43287958794558,3.4864135857233283,-0.7187221646308899,-0.6566311120986938,-0.2178631275892257,0.8163481959700585,-0.3241442003846169,-9.97992242574692,14941.0
22.5,3.0,321.0,20.87293815612793,30.74950981140137,-79.78273685980862,40.45898876867125,277.1133477058411,-0.0301417429000139,-0.0400641970336437,-0.7822489142417908,0.6209452748298645,0.3253912383024954,0.1915146618594963,3.458420325503148,-0.3022010624408722,-0.4721720218658447,-0.2436066567897797,0.0787740455847233,0.5620759933814407,-9.433379670381548,14942.0
22.61,3.0,324.0,20.89797782897949,31.73552894592285,-79.78273654107801,40.45898824701592,277.49651211166383,-0.0431302711367607,-0.0278834253549575,-0.7776073217391968,0.6266492605209351,0.4851840074329272,-0.0178991930955113,3.392323853439428,0.2305062711238861,-0.213566243648529,-0.1256927996873855,-0.0823813939187675,0.6130403615534306,-9.324408620595932,14942.0
22.8,3.0,337.0,20.940547943115234,29.29433441162109,-79.7827367343526,40.45898796861016,278.16723793411256,-0.0172544177621603,0.0003201062500011,-0.7716109752655029,0.6358607411384583,0.3216451909877147,-0.1615458024748336,3.2571194535397856,0.4878187179565429,0.0795278623700141,-0.0021806375589221,0.0294644965440966,0.2437592377513647,-9.144589782357215,14943.0
22.9,3.0999999046325684,345.0,20.827863693237305,31.52878379821777,-79.7827368324417,40.458987918027226,278.49149006271364,-0.0013755008112639,0.0086213098838925,-0.7702628970146179,0.6376667618751526,0.1550568577368099,-0.1308604211493099,3.2039617641672287,0.3044797480106354,0.0755258873105049,-0.0278360974043607,0.085180976819247,-0.0250317840278148,-9.184885284304618,14943.0
23.0,3.2000000476837163,356.0,20.765260696411133,31.66396331787109,-79.78273691003378,40.45898785815928,278.8092552986145,0.0107526173815131,0.0103100165724754,-0.770365297794342,0.6374288201332092,0.0572429450496496,-0.0878482423423415,3.14705343892032,0.1207782626152038,0.1560989916324615,-0.0256474036723375,0.0572311489563435,-0.0452275643963366,-9.146370259523392,14943.0
23.2,3.2000000476837163,8.0,20.53738784790039,36.26008987426758,-79.7827383515567,40.45898769309543,279.7749559249878,0.0055016130208969,-0.0080798612907528,-0.7764185667037964,0.6301417350769043,0.1188953265852414,-0.0871562641246344,3.0385449792097003,-0.0542231164872646,0.0618910491466522,0.1376153230667114,0.1647403491474688,0.1728188988380134,-9.416751358509066,14944.0
23.3,3.0999999046325684,27.0,20.67010498046875,33.0078125,-79.78273854415525,40.4589875762248,280.07841986083986,0.0006066056084819,-0.0106624066829681,-0.7783464193344116,0.6277442574501038,0.1710234775775041,-0.0744830497413659,3.034847113056609,-0.0475849732756614,-0.0646390467882156,-0.0202940590679645,0.1223425173573196,0.1701657612808048,-9.714730730652809,14945.0
23.51,3.0999999046325684,36.0,20.692642211914062,32.570465087890625,-79.78273874159417,40.45898744981258,280.3806268539429,-0.0004136160714551,-0.0078897001221776,-0.779582142829895,0.6262502074241638,0.2009937761579101,-0.0844994464098555,3.0062390221373803,-0.0469201132655143,-0.095227226614952,-0.0153911942616105,0.1473017685022205,0.2963138110376894,-9.572602459788325,14945.0
23.71,2.900000095367432,58.0,20.58371353149414,34.311904907226555,-79.78273779352588,40.458986568002686,281.0975744094849,-0.0074833799153566,-0.0029955762438476,-0.7791164517402649,0.6268274188041687,0.1901656365344636,-0.065068021715763,2.957634211426744,-0.0471134819090366,0.0525850541889667,-0.0150650907307863,-0.0910779303498566,-0.144178560487926,-9.467287673950196,14946.0
23.8,2.799999952316284,66.0,20.626283645629886,33.278175354003906,-79.78273743371119,40.45898574962168,281.8631164398193,-0.0037820094730705,-0.0065141832455992,-0.7783975601196289,0.6277264952659607,0.2354581165214861,-0.0295725850169284,2.995971611048518,0.0902769640088081,-0.051742885261774,-0.0141300112009048,-0.0196903593814931,0.055528490007855,-9.50659792006016,14946.0
24.0,2.700000047683716,85.0,20.693893432617188,32.41143035888672,-79.78273751046558,40.45898560809835,282.1630431976318,-0.0011585470056161,-0.0033640537876635,-0.77793288230896,0.6283373832702637,0.2036336387967016,-0.0074408871219578,2.9958138473690736,0.0974831506609916,0.0296395663172006,0.0059059518389403,0.1423356917034834,-0.0285853927955031,-9.778349021673204,14947.0
24.1,2.799999952316284,89.0,20.55241203308105,33.429256439208984,-79.78273739207756,40.45898492707536,282.8506738510132,-0.0018804955761879,-0.0026519787497818,-0.7797036170959473,0.6261404156684875,0.1768209105881874,-0.0003012333201214,3.032904156605562,0.0042395866475999,-0.04856563732028,0.067172884941101,0.1269567014090717,-0.2291142466105521,-9.739333475232122,14947.0
24.3,2.799999952316284,107.0,20.707666397094727,32.27624893188477,-79.78273683786394,40.45898488031744,283.1990520324707,0.0002209576341556,-0.0031913127750158,-0.7814823389053345,0.6239191889762878,0.1486931209138321,0.0173116285804014,3.0512794742636333,0.1079929769039154,0.0872721225023269,0.0635782778263092,0.0511821586824953,-0.0661203237343579,-9.831322456598285,14948.0
24.4,2.900000095367432,113.0,20.74397659301757,30.69384765625,-79.78273685692885,40.45898477447741,283.5039493408203,0.0027239534538239,-0.0055221342481672,-0.7831408977508545,0.6218137741088867,0.1196326144146586,0.0274960763404109,3.040871983911484,-0.0281649809330701,-0.0303140040487051,0.0900111198425293,0.1632853426225483,-0.0133245665067806,-9.744406519532204,14948.0
24.6,2.799999952316284,128.0,20.606250762939453,34.105159759521484,-79.78273610218855,40.45898483838615,284.19015234375,-0.002586085582152,-0.0018870669882744,-0.7837949991226196,0.62101149559021,0.0582037156008872,0.0845039788614598,3.0929535186984243,0.0587870813906192,-0.1279031932353973,-0.0460693836212158,0.1711698195710778,-0.1307185532804578,-9.903135620355604,14949.0
24.7,2.700000047683716,135.0,20.735212326049805,31.369747161865234,-79.78273604871963,40.45898480032496,284.50150888824464,-0.0049641365185379,0.0018800790421664,-0.7823948264122009,0.6227602362632751,0.0378580874334742,0.0618724810607729,3.1287004104502034,-0.0337481200695037,-0.1160235032439232,-0.1099374145269394,0.1653474911302328,0.017889633947052,-10.06652436733246,14949.0
24.8,2.5,146.0,20.641307830810547,32.538658142089844,-79.7827357633558,40.45898454236685,285.1655027236938,-0.0061606769450008,0.0053025637753307,-0.7778454422950745,0.6284030675888062,0.0445118261218227,0.0345506901962528,3.196776150499748,0.1222580149769783,0.1420053839683532,-0.0425553433597087,-0.0064670410682447,-0.193926506806165,-10.07966423034668,14950.0
25.01,2.5,148.0,20.84038352966309,30.002042770385746,-79.78273564933592,40.45898451198253,285.48576753997804,-0.0036455197259783,0.002890536095947,-0.7758023738861084,0.6309588551521301,0.0121078135724839,0.0587499898621299,3.2125571177758463,-0.0601089224219322,0.0930899977684021,-0.1093852296471595,0.0580434094369411,-0.0285512505378574,-9.995564897060396,14950.0
25.2,2.5,158.0,20.920515060424805,28.34012222290039,-79.78273548029833,40.458984234567644,286.14948671722414,0.0019099308410659,-0.0025301014538854,-0.7730605006217957,0.6343244910240173,0.0251016462260549,0.1133590011564523,3.1926351722274946,0.0114527130499482,0.1286134570837021,-0.0036581859458237,0.1694962368160486,0.0229242465086281,-9.786668440103533,14951.0
25.3,2.5,166.0,20.945556640625,27.94253349304199,-79.78273535926947,40.45898407450648,286.4760629501343,0.0042114243842661,-0.0051147178746759,-0.7731056809425354,0.6342426538467407,0.0347581887416754,0.1240968353962502,3.150533624847352,0.0129811437800526,0.0681712701916694,0.0215922854840755,0.2247883851081133,-0.0883778780233115,-9.555205823779104,14951.0
25.5,2.5,177.0,20.877944946289062,28.97626495361328,-79.78273510331185,40.45898398174428,287.0964824523926,0.0018286219565197,-0.0054090647026896,-0.7762507796287537,0.6303984522819519,0.033980671745709,0.1809285006099184,3.0469179854881774,0.0410972498357296,-0.0563470087945461,0.1208648532629013,0.239525305442512,-0.2412282887287438,-9.286747289299962,14952.0
25.6,2.5,183.0,20.75649642944336,30.48710060119629,-79.7827348361514,40.45898400109585,287.7247382965088,-0.0077718035317957,-0.0057206801138818,-0.7819673418998718,0.6232447624206543,0.0117693728296898,0.1440071935683307,2.9963616034339817,-0.0626556947827339,-0.0033284518867731,0.069124162197113,0.1854025637358427,0.0740268373768776,-9.326607758402824,14952.0
25.7,2.299999952316284,198.0,20.65633201599121,32.10131072998047,-79.78273467688449,40.45898412189241,288.05941694641115,-0.0063233440741896,-0.0075464323163032,-0.7837046384811401,0.6210556030273438,0.0130416416558786,0.1198380829792064,3.0241675278901115,0.1216001957654953,0.1708275824785232,-0.0079267043620347,0.1885255250707268,-0.0211344229336828,-9.654742391109467,14953.0
25.9,2.400000095367432,207.0,20.78904914855957,30.50300407409668,-79.78273450813501,40.458984148205865,288.3612357940674,0.0014817132614552,-0.0088998777791857,-0.7840919494628906,0.6205790638923645,-0.0171115756012795,0.1506768547384,3.0115002991855686,0.1117603331804275,0.1029503718018531,0.0178687088191509,0.2984156840667129,0.0157221076497808,-9.706141170859338,14953.0
26.1,2.299999952316284,224.0,20.731454849243164,30.42348670959473,-79.78273388541838,40.45898399627245,288.9830161895752,0.0219647008925676,-0.005523249041289,-0.7823575735092163,0.6224176287651062,-0.097052410264252,0.2725901536965078,2.9671505581046134,0.0223992858082056,-0.0138454176485538,-0.0801597759127616,0.4685872377455234,0.0009235174627974,-9.545692988634109,14953.0
26.2,2.200000047683716,236.0,20.641307830810547,32.27624893188477,-79.78273308223926,40.45898391900676,289.5935069885254,0.0227165203541517,-0.0072165559977293,-0.7798628211021423,0.6254966259002686,-0.1302307558366058,0.31736424059638,2.919580771241136,-0.1650808155536651,-0.0400530807673931,-0.0732211992144584,0.4140246757864952,-0.2640333251282573,-9.461115353107454,14954.0
26.3,2.200000047683716,245.0,20.68012237548828,30.773365020751957,-79.78273284917219,40.45898389832292,289.88511389160163,0.0183962024748325,-0.0122808087617158,-0.7792392373085022,0.6263361573219299,-0.089602074915045,0.3084671380178853,2.886454252746277,-0.1733542084693908,-0.0018294501351192,0.0361164025962352,0.3234042352437973,-0.0507350887963548,-9.453107006549835,14954.0
26.5,2.200000047683716,250.0,20.75900077819824,30.0736083984375,-79.78273262525883,40.45898386428535,290.1723186340332,0.0116711556911468,-0.0152128376066684,-0.7795602083206177,0.6260337233543396,-0.0362544091891402,0.3062823218723263,2.834693053158451,-0.0926278382539749,-0.0239598546177148,0.034594353288412,0.278153126668185,-0.0586980463424697,-9.331997137069704,14955.0
26.7,2.0999999046325684,249.0,20.64381217956543,31.886613845825195,-79.78273223499367,40.45898406291121,290.7622482147217,0.0006252387538552,-0.0136373955756425,-0.7810820937156677,0.6242792010307312,-0.0073870974177851,0.2339671491981628,2.767622327223018,-0.0456897541880607,-0.0759488940238952,-0.0619422681629657,0.2123972580581903,0.0466544129233807,-9.338927257061004,14955.0
26.8,2.200000047683716,242.0,20.63129234313965,32.08540725708008,-79.78273197775992,40.45898412855585,291.0619823303223,0.0022227596491575,-0.01078896317631,-0.7811723351478577,0.6242184042930603,-0.0081223741105408,0.1902215489624241,2.7980844302018606,0.1407211422920227,0.048562616109848,0.088999219238758,0.252854216247797,-0.0242127718403935,-9.627379760742189,14956.0
27.0,2.200000047683716,239.0,20.89797782897949,27.425668716430664,-79.78273162418823,40.45898420996861,291.62500494384767,0.0075479997321963,-0.0096282139420509,-0.7807998657226562,0.6246614456176758,-0.0783399877673322,0.1864695055817205,2.8336773281468304,0.0767582431435585,0.0279764905571937,0.1027755960822105,0.1529894830752164,-0.0904404011182487,-10.037818046808244,14956.0
27.11,2.299999952316284,236.0,21.103315353393555,24.69025802612305,-79.78273134468934,40.45898429386232,291.9155456390381,0.0151807414367795,-0.00966337043792,-0.781494677066803,0.623652458190918,-0.0957261065370592,0.1967665431055044,2.8409739110248475,0.1944340914487838,0.1875774264335633,0.0036874902434647,0.1308717594668269,-0.0145631209854036,-9.729682061076163,14956.0
27.2,2.0999999046325684,233.0,21.175933837890625,24.09387588500977,-79.78273100339848,40.458984462719,292.4685355987549,0.0317944660782814,0.0001426634262315,-0.7824327349662781,0.6219229102134705,-0.180725235401362,0.2222980022026488,2.6598483352968656,0.2059345692396164,-0.0857517942786216,0.0457921959459781,0.3654517091810704,-0.4711164508759976,-8.872501296401024,14957.0
27.41,2.200000047683716,232.0,21.14463233947754,24.491464614868164,-79.78273085728235,40.45898452400078,292.7296401824952,0.0352227464318275,0.0053151389583945,-0.7825028896331787,0.6216272711753845,-0.2071924889832637,0.2099602486114962,2.534863641618453,0.1080295965075492,-0.0833136290311813,0.0170245319604873,0.331560918353498,-0.5136746425554156,-8.656030356287957,14957.0
27.6,2.200000047683716,227.0,21.026939392089844,25.811458587646484,-79.78273047726573,40.45898470520528,293.2349178161621,0.0324576273560524,0.0014539866242557,-0.781324565410614,0.623278796672821,-0.177931848035524,0.1841440961687433,2.312769381469924,-0.0223932527005672,-0.0240627694875001,-0.033457014709711,0.3543066968768835,-0.2984171093255282,-8.464269164800644,14958.0
27.71,2.299999952316284,223.0,21.08077812194824,24.85724449157715,-79.78273035751022,40.45898471111509,293.4611350860596,0.0275131817907094,-0.0017589646158739,-0.781673014163971,0.6230788230895996,-0.1224195367484467,0.1791595481203153,2.1895769260084568,-0.0339900739490985,-0.019742839038372,0.0060263089835643,0.3522813310101628,-0.2065028992295265,-8.541716705560685,14958.0
27.8,2.400000095367432,217.0,21.03319931030273,26.3521785736084,-79.78273003380994,40.45898481746076,293.888472732544,0.0131306210532784,-0.0104516809806227,-0.7840933203697205,0.620415985584259,-0.0603374606745841,0.1455359949844482,1.9880480270212817,-0.075435847043991,0.0792672336101532,-0.0392570197582244,0.3100073140114546,-0.0640430729649961,-8.702909238338469,14958.0
28.0,2.5,214.0,21.13711929321289,24.403993606567383,-79.78272971291214,40.45898486734911,294.27333563232423,0.0156486053019762,-0.0153120392933487,-0.7848914265632629,0.6192464232444763,-0.0420472699602739,0.1362674184581032,1.8250163743517385,0.0727591067552566,0.1268130242824554,0.0134875867515802,0.2330252116173506,-0.2593225706554949,-8.817804102301597,14959.0
28.2,2.5999999046325684,212.0,21.254812240600582,22.535327911376957,-79.78272961932609,40.458984894374325,294.4508525695801,0.0222304593771696,-0.0140799852088093,-0.7844531536102295,0.6196297407150269,-0.0745297196606148,0.135424341929901,1.7190458833006568,0.0674726068973541,0.0068958993069827,0.0470070280134677,0.2583683964237571,-0.2177120847254992,-8.801374595761299,14959.0
28.3,2.5999999046325684,213.0,21.145883560180664,24.47555923461914,-79.78272948908872,40.458984918742544,294.629849609375,0.0288190823048353,-0.0096103996038436,-0.7835422158241272,0.6205954551696777,-0.0944684096545932,0.1408943745908886,1.6339731432246087,0.1461299806833267,-0.0456944890320301,-0.0758044272661209,0.3033181906677782,-0.22652577560395,-8.595080149769784,14959.0
28.5,2.799999952316284,216.0,21.00189781188965,26.511213302612305,-79.78272933286179,40.4589849998354,294.93033140563966,0.0306147392839193,0.0034131461288779,-0.7825059294700623,0.6218807101249695,-0.1244070074927634,0.1042160427408556,1.3750525492139996,-0.0731633529067039,-0.0643981993198394,-0.0465078428387641,0.2293183692544699,-0.2640965298749506,-8.603178543448449,14959.0
28.6,2.900000095367432,215.0,20.96934509277344,26.050010681152344,-79.7827290812358,40.458984962631966,295.07487982177736,0.0260293278843164,0.0045011849142611,-0.7821439504623413,0.6225375533103943,-0.1140496887591944,0.0918893647538393,1.3118321314177042,-0.1402087062597274,-0.0325274989008903,-0.0284117292612791,0.1822111717052758,-0.2260541062988341,-8.829313761591912,14960.0
28.7,2.900000095367432,218.0,21.05198097229004,25.07989501953125,-79.78272886483595,40.45898493897551,295.3310481872559,0.0193328466266393,-0.0055647646076977,-0.7813783884048462,0.6237332820892334,-0.0531522383726574,0.0783733108437963,1.2226686234891495,-0.0457963868975639,0.0429053492844104,-0.0493642017245292,0.2033703630790114,-0.2042576780542731,-9.160024677515027,14960.0
28.91,3.0999999046325684,218.0,22.192598342895508,6.607923984527588,-79.78272880781125,40.45898494100771,295.450125869751,0.0196354314684867,-0.0066403984092175,-0.7808322906494141,0.6243967413902283,-0.0451186870516362,0.0875959118200049,1.1509409066570595,-0.0423971712589263,-0.000649484922178,-0.0081945536658167,0.4317237224802375,-0.1735999223962426,-9.128130455017091,14960.0
29.0,3.0,214.0,21.49896240234375,21.08015251159668,-79.78272874591808,40.45898494917841,295.5602447357178,0.018520001322031,-0.0048667737282812,-0.7805035710334778,0.6248579621315002,-0.0532726175402821,0.0850112688144426,1.0103442598523034,-0.0062745101749897,-0.0795524790883064,-0.017648721113801,0.1227407310158014,-0.4781482758745552,-7.468355607390404,14960.0
29.21,3.0,214.0,21.174680709838867,22.59099006652832,-79.7827287715647,40.458985072589016,295.7225238647461,0.0104376478120684,0.001479193335399,-0.7514184713363647,0.6597418785095215,-0.0984875932922961,0.0555846719050301,0.5686915319129796,0.0569595023989677,0.0076378141529858,-0.8748279809951782,0.2774515338800848,-0.1163249832764268,-7.755303622484207,14960.0
29.4,3.0,215.0,21.172178268432614,23.529298782348643,-79.782728539005,40.45898523318374,295.7759544219971,0.0087662003934383,0.0071413782425224,-0.6931242346763611,0.7207295298576355,-0.0990061685389731,0.0883130314043567,0.3160865618917945,0.0494601614773273,-0.0286105591803789,-0.7920286655426025,0.1408948555402457,-0.2281213711202145,-8.516708164215089,14960.0
29.5,3.0,215.0,21.06575393676757,25.27868843078613,-79.782728411899,40.45898530852244,295.80274885559083,0.0102090369910001,0.0091448435559868,-0.6638047099113464,0.7477803826332092,-0.0795910588898376,0.1249454707227412,0.2161563532986145,0.0574829503893852,0.0775172114372253,-0.7827418446540833,0.4177995651215315,-0.2305620172061026,-8.798855030536652,14960.0
29.6,3.0,200.0,20.99689102172852,27.131452560424805,-79.78272792649055,40.45898543909461,295.755639251709,0.0150371398776769,0.0088161919265985,-0.6181228756904602,0.7858882546424866,-0.024311398854254,0.1993027150160566,0.0422357089419279,0.0635370910167694,-0.001830153632909,-0.4073632359504699,0.3648696188628674,-0.250999022629112,-9.060644815564157,14960.0
29.8,2.900000095367432,195.0,20.7990665435791,29.04783058166504,-79.78272746745114,40.45898556634205,295.6591159667969,0.0168116111308336,-0.0029614435043185,-0.5929582715034485,0.8050522208213806,-0.0043981816233132,0.2545554858856828,-0.0224544161672438,-0.0830107107758522,-0.1084189787507057,-0.1407448351383209,0.2757208311371505,-0.3699147427082062,-9.479617112874983,14960.0
29.92,2.900000095367432,195.0,20.755245208740234,28.83313179016113,-79.7827271336991,40.458985635256695,295.6573955383301,0.0060277278535068,0.0062183802947402,-0.587175726890564,0.8094131350517273,0.0170044991256574,0.3310630513578242,-0.0269209776373767,0.1283393502235412,-0.4802637994289398,-0.0304902698844671,0.7458948022127152,-0.0197337863780558,-9.769490489959717,14960.0
30.1,2.799999952316284,197.0,21.029443740844727,26.11362648010254,-79.78272674397927,40.45898566339303,295.6061221923828,-0.0149065572768449,0.0290789417922496,-0.5845131278038025,0.8107259273529053,0.0389382767242239,0.408873861895145,-0.0160990086251028,0.2095759361982345,-0.6631388664245605,0.0214033629745244,0.5946643169224263,-0.1635733362659812,-9.765661733150482,14960.0
30.2,2.5999999046325684,190.0,20.830368041992188,28.5468692779541,-79.7827255630196,40.458985790682334,295.5577632751465,-0.050908587872982,0.0697440728545188,-0.583690345287323,0.8073722124099731,0.0670820792542059,0.6249664789308411,0.0532928132051386,0.0559349209070205,-0.3111990392208099,-0.0222960151731968,0.0110997146554291,-0.1475039633922279,-9.74595076918602,14960.0
30.41,2.5,178.0,20.88921356201172,27.7039794921875,-79.78272473274762,40.45898592784175,295.5554706420898,-0.0607500225305557,0.0765632316470146,-0.5849729180335999,0.8051423430442809,0.0894914244982914,0.7962455096794389,0.1199324252874452,-0.0323818735778331,-0.0189717374742031,-0.0687542781233787,0.0325689546391368,-0.0823191302083432,-9.913156578540804,14960.0
30.5,2.299999952316284,177.0,20.482297897338867,34.23238754272461,-79.78272367901485,40.45898609571719,295.55408590698244,-0.0647138878703117,0.0761094912886619,-0.5868346691131592,0.8035201430320741,0.110306437843056,0.9921317285105508,0.1831693077874298,-0.0308011993765831,0.1314147114753723,-0.0899991318583488,0.2633534401282668,-0.1056625581253319,-9.993396749496462,14960.0
30.7,2.200000047683716,173.0,20.561176300048828,32.284202575683594,-79.78272136498197,40.45898698481532,295.43761366271974,-0.0712430402636528,0.0773382410407066,-0.5912193059921265,0.7996268272399902,0.1002854929320219,1.3848987907309072,0.3220180501910317,0.0028393345419317,-0.066723383963108,0.0251808725297451,0.1013192554749548,-0.3622628570348024,-10.657907080650329,14960.0
30.81,2.200000047683716,162.0,20.61751937866211,31.58444595336914,-79.78271810670363,40.45898808195314,295.3154270019532,-0.0775010138750076,0.0923283770680427,-0.5948147773742676,0.794773280620575,0.1022893071339266,1.812949956627184,0.4906456356345026,0.1796354949474334,-0.0845281407237052,0.015973761677742,0.1497739073261618,-0.0991874885559082,-10.346609505414962,14960.0
31.0,2.200000047683716,157.0,20.479793548583984,33.469017028808594,-79.78271580738298,40.45898850028482,295.32502478027345,-0.0829449519515037,0.0996427461504936,-0.5965977311134338,0.7919991016387941,0.0980066915950919,2.0413307930346853,0.6071430962890897,0.0063303355127573,-0.1479488164186477,0.0677244365215301,0.0150962682813406,-0.4849391955882311,-10.331503808498384,14960.0
31.1,2.299999952316284,147.0,20.638803482055664,31.13914680480957,-79.78271070494719,40.45898995321433,295.2317897644043,-0.0988455265760421,0.0920878574252128,-0.5965210199356079,0.7911460399627686,0.0485150793389396,2.483392316288711,0.8326953462544515,-0.1750352829694748,-0.0049924226477742,-0.0312428586184978,-0.1108841673843562,-0.4993684792891145,-10.496886456012726,14960.0
31.31,2.299999952316284,141.0,20.588722229003903,31.79119300842285,-79.78270488571259,40.45899208092745,295.1450607147217,-0.1006129533052444,0.0833425968885421,-0.596425473690033,0.7919645905494691,0.0140509543192746,2.9277958376163093,0.9896220305201536,0.1415103077888488,0.0575484745204448,0.0139165297150611,-0.1651951528899371,-0.0908501264825463,-10.51683715581894,14960.0
31.5,2.5,129.0,20.620023727416992,30.55866622924805,-79.78270123571023,40.45899286796225,295.1651069488525,-0.0956966057419776,0.0905803889036178,-0.5996116399765015,0.7893689870834351,0.0132329830469418,3.1825253574492485,1.0777868220508324,0.2340255379676819,-0.0990515574812889,0.0258716754615306,-0.0935347750503569,-0.0279794750735163,-10.437723158597947,14960.0
31.6,2.5999999046325684,124.0,20.56493377685547,32.07745742797852,-79.78269838203543,40.45899501552722,295.0514613952637,-0.0924295857548713,0.1062641441822052,-0.6035102009773254,0.7848186492919922,-0.1026247928035032,3.394104283961916,1.1245469825073946,0.2848214805126189,-0.1881762146949768,0.2091206014156341,-0.3142705920338631,-0.068773292270489,-10.525894492864609,14960.0
31.8,3.0,108.0,20.70391082763672,30.28035545349121,-79.78269111843747,40.458998712517,294.9572307434082,-0.0738535821437835,0.1262116581201553,-0.6178925037384033,0.7725445628166199,-0.2773546624613311,3.725476723653853,1.3850334928881534,0.2996242940425873,0.3927532136440277,0.2369947135448456,-0.8314400057494641,-0.5259981977194548,-10.707285647392274,14959.0
31.9,3.2000000476837163,100.0,21.016923904418945,24.45965576171875,-79.78268651238669,40.45899973384103,294.98801725769044,-0.0532079748809337,0.114216148853302,-0.6276410222053528,0.7682384252548218,-0.3066276736925585,3.9039221811230433,1.413001753828614,-0.0148918544873595,0.5477538108825684,0.163321852684021,-0.7673007278144359,-0.4291141466796398,-10.457677366733552,14959.0
32.0,3.799999952316284,83.0,20.983118057250977,25.00832939147949,-79.78268169975733,40.45900072230406,295.02259176635744,-0.0351989641785621,0.0930090025067329,-0.6355413198471069,0.7656355500221252,-0.3082657956842822,4.101623389787029,1.2839949098982018,-0.0638048350811004,0.5463654994964601,0.10276959836483,-0.5909322218969465,-0.2530305463448167,-10.14238614320755,14960.0
32.22,4.099999904632568,86.0,21.09705352783203,22.74207305908203,-79.78266949802341,40.45900825678872,294.8598930206299,-0.0107168368995189,0.0501690320670604,-0.636589765548706,0.7694944739341736,-0.4700111864080471,4.348861263174685,0.5514281969235086,-0.0513491854071617,0.0223529431968927,-0.0016278695547953,-0.328426226042211,-0.1266245795600116,-9.72658888399601,14959.0
32.3,4.800000190734863,79.0,21.189706802368164,22.54327964782715,-79.78266487357809,40.4590097764273,294.862235244751,-0.0166002437472343,0.0482981167733669,-0.6336400508880615,0.7719405293464661,-0.4228812510978136,4.384908510029555,0.44155581686113,-0.1454648524522781,-0.3084393739700317,-0.0552009791135788,-0.6467569418996573,-0.1343114937096834,-9.087199360728263,14959.0
32.51,4.900000095367432,76.0,21.02443504333496,25.135557174682607,-79.78265985234637,40.459010857277406,294.8688537445068,-0.0236543826758861,0.0535660460591316,-0.6293672919273376,0.7748988270759583,-0.3416591915076547,4.396000606830231,0.3819932228287738,0.0577554777264595,-0.141042560338974,-0.1289600580930709,-0.5463527574017644,-0.1479518235661089,-9.034565064311028,14959.0
32.7,5.300000190734863,78.0,21.083282470703125,23.306650161743164,-79.78265090259156,40.45901649027301,294.74506109619136,-0.0203854143619537,0.0511972941458225,-0.619929313659668,0.7827202081680298,-0.3608165429329202,4.4013466315404886,0.3725036911599732,0.0450777634978294,0.3622678816318512,-0.1161687225103378,-1.0273231188207863,0.0965126797556877,-9.580194484591484,14959.0
32.8,5.5,74.0,21.06450080871582,24.403993606567383,-79.78264608237278,40.45902103096921,294.67633169555666,-0.0046320995315909,0.0414067134261131,-0.6158003211021423,0.7867998480796814,-0.4771969932649456,4.446136276488249,0.3152742659635708,-0.0265531539916992,0.4184208214282989,-0.0262569095939397,-0.8154389539361,-0.0781927409861236,-9.849141261577609,14959.0
32.9,5.699999809265138,72.0,20.880449295043945,27.72783470153809,-79.78263610119811,40.45902360301186,294.6588947143555,0.0230498909950256,0.0218963772058486,-0.6126698851585388,0.7896993160247803,-0.3042512858773517,4.408569872064373,-0.0034993173494628,0.1431872993707656,0.3071883618831634,-0.1473425328731537,-0.5421031472459436,-0.0741370299831032,-9.85689350008965,14959.0
33.11,5.800000190734862,70.0,20.731454849243164,28.96036148071289,-79.78262590395529,40.45902888331828,294.6339828338623,0.0275063291192054,0.0251559652388095,-0.6096327900886536,0.7918071150779724,-0.3376767025944335,4.358900515423656,-0.1559051933968263,-0.1101138815283775,-0.1186126694083213,-0.0473640486598014,-0.3071608163416385,0.0569216942042112,-9.900335973501203,14959.0
33.2,6.0,78.0,20.851652145385746,27.71988296508789,-79.7826201573768,40.45903246419388,294.63648908996583,0.0137010514736175,0.0270765274763107,-0.6071237325668335,0.7940276861190796,-0.4357832190786097,4.385588419140024,-0.0475478299423574,-0.1582945883274078,-0.2458041161298752,-0.048969455063343,-0.3505877946317196,0.0249062698893249,-10.37424929380417,14959.0
33.41,6.0,75.0,21.013166427612305,26.01820373535156,-79.7826153105669,40.45903382115775,294.6427013244629,0.0002531526843085,0.0277531426399946,-0.6050171852111816,0.7957286834716797,-0.3783000480494497,4.339996693980743,0.102234903707667,-0.1874697208404541,-0.2108723223209381,-0.0258703380823135,-0.5308731675893068,-0.1177225957252085,-10.212296622991564,14959.0
33.6,6.0,76.0,20.81909942626953,27.18711471557617,-79.78260456707656,40.45903837303914,294.6542560424805,-0.0195384081453084,0.0146687189117074,-0.5944812297821045,0.8037382960319519,-0.4095488480484473,4.374138784032349,0.279192072633561,-0.178791344165802,0.1376224905252456,-0.1394097656011581,-0.7847387328743936,-0.3693423002958298,-9.926361930370332,14959.0
33.7,5.9000000953674325,77.0,20.93804359436035,26.51916694641113,-79.7825938376182,40.4590419027564,294.67443006896974,-0.007150431163609,-0.004203381948173,-0.5860804319381714,0.8102105259895325,-0.3513395841786272,4.3904332403017925,0.2667295750684539,0.0731653124094009,0.1916930824518204,-0.0346076339483261,-0.814232746437192,-0.0535888726450502,-10.008703590631486,14959.0
33.81,5.699999809265138,79.0,20.65758514404297,29.43746757507324,-79.78258906373429,40.45904342593817,294.68875425720216,0.0017957875970751,-0.0077028609812259,-0.5845398306846619,0.8113265633583069,-0.3683642324090807,4.354932579784915,0.1967705569524818,-0.0131675507873296,0.1824318021535873,-0.0414380654692649,-0.3532252543419599,-0.4175715237110853,-10.171128716468813,14959.0
34.01,5.699999809265138,83.0,21.304895401000977,20.36449241638184,-79.78258435437735,40.45904498167392,294.7066318359375,0.0057156127877533,-0.0084382109344005,-0.5839958786964417,0.8116927146911621,-0.3994430086821512,4.3039917745459535,0.1404965745053295,0.0773270279169082,0.0565215311944484,-0.0395075492560863,-0.5585500127077103,-0.208042197022587,-10.004836242198945,14959.0
34.21,5.599999904632568,82.0,20.98562240600586,25.49338722229004,-79.78257432821705,40.459048006369215,294.7178203430176,0.0056861932389438,-0.0005284326616674,-0.584868848323822,0.8111077547073364,-0.4295662824586988,4.241861724745093,-0.0357389986751622,0.0396120138466358,-0.0881493464112281,0.0278215259313583,-0.2725732932239771,-0.1526734867505729,-9.21815477192402,14959.0
34.3,5.5,82.0,20.94430351257324,25.86712074279785,-79.7825691797528,40.45904953535671,294.72140234375,0.0021226815879344,0.0031225567217916,-0.5867972373962402,0.8097250461578369,-0.4172342510356962,4.207004725832792,-0.0643921097155366,0.0767159685492515,-0.0054734647274017,0.0997195392847061,-0.4377588164806366,-0.1330768358521163,-9.26299823820591,14959.0
34.4,5.300000190734863,80.0,20.707666397094727,29.59650230407715,-79.78256020411527,40.45905264668216,294.71700399780275,0.009495060890913,-0.0129300132393837,-0.5929824113845825,0.8050556778907776,-0.5119867277124319,4.095354801674406,-0.0240879438132534,-0.0902616679668426,0.2973912358283997,-0.0135160190984606,-0.3875197954103351,-0.1184515607915818,-10.064656766653062,14959.0
34.6,5.300000190734863,80.0,20.70391082763672,30.21674156188965,-79.78255107519378,40.45905549484072,294.7532092895508,0.010378124192357,-0.0274633951485157,-0.5947930216789246,0.8033426403999329,-0.5933862938483736,3.990684473503834,-0.0751037063398794,-0.0317200906574726,0.1107990518212318,0.0244768969714641,-0.2233346211165189,-0.3959969059377909,-10.107300510406494,14959.0
34.7,5.099999904632568,79.0,20.79656219482422,27.409765243530277,-79.78254650952998,40.459056769511534,294.7585746612549,0.0114826010540127,-0.0273858085274696,-0.595958948135376,0.8024656772613525,-0.5826074243233276,3.9134259434071503,-0.0234667995560872,0.0657452791929245,-0.0674075037240982,0.1292232573032379,-0.3545285621657968,-0.0415327910520136,-10.386397469043732,14959.0
34.9,5.099999904632568,79.0,20.826610565185547,26.781574249267567,-79.78254234452041,40.459058285663794,294.77641600036617,0.0154872192069888,-0.0194283872842788,-0.5965606570243835,0.8021833300590515,-0.5949208448837487,3.842560289655884,0.0253848074224167,0.1515097469091415,-0.1214483752846717,-0.0449689850211143,-0.1418623230513185,0.2777151702158153,-10.40912910461426,14959.0
35.1,5.099999904632568,84.0,20.9843692779541,24.93676376342773,-79.78253391535526,40.45906118578157,294.8171207275392,-0.0011329731205478,-0.0041868337430059,-0.5940406322479248,0.8044233918190002,-0.597822906231464,3.732699452593131,0.0748821148029365,-0.2306387275457382,-0.4451016783714294,0.0365456342697143,-0.2712712096609176,-0.0146329860761761,-9.755044358968735,14959.0
35.2,5.099999904632568,80.0,21.01817512512207,25.21507453918457,-79.78252585428291,40.45906401909953,294.8480979766846,-0.0322755612432956,-0.0073631997220218,-0.5915577411651611,0.8055827617645264,-0.5908886793077857,3.654434939353391,0.2732605198219912,-0.1987928003072738,-0.1385895013809204,-0.0040879333391785,-0.5292855389043689,-0.1351093919668346,-9.68255467236042,14959.0
35.3,5.0,79.0,20.986873626708984,25.06399154663086,-79.78252195246338,40.4590655142534,294.86243170166017,-0.0351940654218196,-0.0081119332462549,-0.5910972356796265,0.8057913780212402,-0.5895922360706289,3.6383280403138416,0.3163809594323327,0.1509267687797546,0.0031824822071939,0.0210081133991479,-0.5094877803325654,0.3162582068145275,-9.615368410348893,14959.0
35.51,5.0,78.0,20.820350646972656,27.55289649963379,-79.78251806110043,40.45906703407288,294.8736926879883,-0.0284028984606266,-0.002785698743537,-0.5903241038322449,0.8066616654396057,-0.6224473177821008,3.6487915058188336,0.3063800945792277,0.2132875174283981,0.1071569770574569,-0.0628038346767425,-0.4996491090953351,0.1030917932186275,-9.45131541967392,14959.0
35.71,4.800000190734863,73.0,21.03445243835449,24.26086235046387,-79.78251032748649,40.4590698882089,294.9160510864258,-0.0176137145608663,-0.0030647406820207,-0.586927592754364,0.8094419836997986,-0.69831753868274,3.6319650003805775,0.2096438044335942,-0.1274782568216324,0.0994139537215232,-0.0274039525538682,-0.2947477805055678,-0.4683204219862819,-9.668414350748062,14959.0
35.81,4.900000095367432,72.0,20.960580825805664,27.179162979125977,-79.78250645690169,40.45907124917922,294.9504291381836,-0.0190579704940319,-0.0083839045837521,-0.5874955654144287,0.8089595437049866,-0.6889448501990492,3.616317854508872,0.1649322825958324,-0.136513203382492,-0.0315636806190013,0.0763428211212158,-0.2988713648915291,0.0032775470986962,-9.4718017244339,14959.0
36.0,4.900000095367432,71.0,21.03194808959961,24.39604187011719,-79.78249888764663,40.45907449017938,294.9587394561768,-0.0109950201585888,-0.0085735041648149,-0.5959594249725342,0.8028935194015503,-0.7616603572701746,3.583123368988153,0.138666306001299,0.2325088828802109,0.1536322236061096,0.1463711112737655,-0.29183199333027,0.0867343262024223,-9.802458845973016,14959.0
36.1,4.900000095367432,71.0,20.831619262695312,27.71988296508789,-79.78249513493965,40.459075681256,295.00161474609376,-0.0042095798999071,-0.000755249755457,-0.6010438799858093,0.7992046475410461,-0.7529753765662027,3.5646711522355843,0.1199979867827315,0.3016989231109619,-0.0306174401193857,0.1590298563241958,-0.1407088318560272,0.0734642027551308,-9.662326814532278,14960.0
36.2,5.099999904632568,72.0,21.192211151123047,22.04231643676757,-79.78248767353314,40.459078475226704,295.0262500610352,-0.0092014707624912,0.0226092804223299,-0.6084808111190796,0.7931931018829346,-0.7885674512780733,3.5146276696061816,0.1099907488147141,-0.0651599690318107,-0.0846030265092849,-0.0059981634840369,-0.2659587584249675,0.1559393028728664,-9.61239568591118,14960.0
36.4,5.0,69.0,20.8917179107666,26.535070419311523,-79.7824839027015,40.45907999572464,295.028121170044,-0.0179987382143735,0.0224513411521911,-0.6073871254920961,0.7938847541809082,-0.7942813965523722,3.540611437675892,0.1280487052681491,-0.2175654470920562,-0.1168677881360054,-0.0297056511044502,-0.1121959353983402,0.1348047611676156,-9.451936393976212,14960.0
36.5,4.900000095367432,68.0,20.934288024902344,25.978445053100582,-79.78247623652666,40.459082895339975,295.04542463684083,-0.0276622399687767,-0.0096827857196331,-0.5984750986099243,0.8006051182746887,-0.7500952412195403,3.533496262696352,0.1912738030176788,-0.2155810445547104,0.2445962578058243,-0.2090582251548767,-0.373267134167254,0.026529749315232,-9.504744937419892,14960.0
36.7,4.800000190734863,67.0,20.800317764282227,27.61651039123535,-79.78247246270422,40.459084417572754,295.0413829650879,-0.025652453303337,-0.0202914997935295,-0.5927222371101379,0.8047426342964172,-0.7260946489563387,3.5519488976432023,0.0988333102918788,-0.0985085219144821,0.1002329960465431,-0.0571420788764953,-0.284686238989234,0.0807486594468355,-9.476493530273435,14960.0
36.9,4.699999809265137,69.0,20.692642211914062,29.278430938720703,-79.78246486617219,40.45908732938349,295.06083029174806,-0.0379658862948417,0.0033113129902631,-0.5850269198417664,0.8101180791854858,-0.707163639256794,3.600616732724287,0.0871365104312712,0.1319739371538162,-0.4259341657161713,-0.0944328904151916,-0.1824184372276068,-0.1864539479278028,-9.794219534397126,14960.0
37.0,4.699999809265137,64.0,20.54490089416504,31.63215637207031,-79.78246108333241,40.45908895886693,295.05614012146,-0.0501169562339782,0.0175875984132289,-0.5824122428894043,0.8111565709114075,-0.7336437619794319,3.620331443434088,0.2297465973705467,0.037184689193964,-0.2314910292625427,-0.0888298600912094,-0.4942754448205233,-0.0695537630841136,-9.974954631328584,14960.0
37.1,4.599999904632568,64.0,20.667600631713867,29.34999847412109,-79.78245321243419,40.45909199878928,295.0630637969971,-0.0477824509143829,0.0278480239212512,-0.5790512561798096,0.8134132027626038,-0.7235778042196831,3.6988895793459777,0.5221902735759906,0.0753984302282333,0.0214550495147705,0.060817465186119,-0.5513779276236892,-0.0633709720708429,-10.333353867530825,14960.0
37.3,4.599999904632568,63.0,20.7702693939209,27.86301612854004,-79.78244526521445,40.45909527155757,295.08907431030275,-0.0264648012816906,0.0297863036394119,-0.5777870416641235,0.8152143955230713,-0.7002831954842176,3.8112155387707234,0.4704301226756133,0.0259973611682653,0.2554020881652832,-0.0902361124753952,-0.5131404994055629,-0.2176985995844006,-10.069088956117632,14960.0
37.5,4.5,57.0,20.57745361328125,30.375776290893555,-79.78244124061492,40.45909702016928,295.09895056152345,-0.0209794789552688,0.0199263580143451,-0.579288125038147,0.814609169960022,-0.7177052450719396,3.860868577947511,0.3782552037294419,-0.249220535159111,0.139874592423439,0.1003141924738884,-0.3296042572706938,-0.1731564476341009,-9.72268703699112,14960.0
37.6,4.400000095367432,61.0,20.78654670715332,27.886871337890625,-79.78243715266893,40.45909870196404,295.10877531433107,-0.0175514724105596,0.0090634757652878,-0.5843247771263123,0.8112795948982239,-0.7177344723149092,3.876849216444026,0.3269638641213852,-0.1648458242416381,0.1309219896793365,0.1373283118009567,-0.1709352365881204,0.1237693658843636,-10.046091856956483,14960.0
37.7,4.199999809265137,61.0,20.5849666595459,30.8608341217041,-79.78242910182823,40.45910224533239,295.11735838317867,-0.0104878852143883,0.0098156770691275,-0.5966264605522156,0.8023905158042908,-0.8159582392898229,3.8427039764892967,0.2400379111807457,0.1698574870824813,0.0044972095638513,0.178395390510559,-0.3555369145050645,0.1179951125197112,-9.907549098730088,14960.0
37.9,4.199999809265137,62.0,20.795310974121094,26.78952598571777,-79.78242505795716,40.4591039851411,295.1289703216553,-0.0038143780548125,0.0170935299247503,-0.6010926365852356,0.7989874482154846,-0.8641593972528709,3.8352138051863136,0.2195715191919896,0.1558417677879333,-0.0192974582314491,0.0305952690541744,-0.2193080639652908,0.1128061106242239,-9.799523543715477,14960.0
38.0,4.0,70.0,20.687633514404297,29.25457572937012,-79.7824210135014,40.45910572340392,295.1394683685303,-0.002370637608692,0.020106054842472,-0.6024882197380066,0.7978709936141968,-0.9100505990133568,3.827418723082365,0.1783003468229058,-0.0458071082830429,-0.0237503387033939,-0.0439647287130355,-0.2403244553692639,-0.1512234138138592,-9.702225875258446,14960.0
38.2,4.099999904632568,71.0,20.638803482055664,30.192886352539062,-79.7824129667084,40.459109320466304,295.13528173828126,-0.0118950931355357,0.0137749463319778,-0.5993624925613403,0.8002709150314331,-0.9354421110914743,3.808924624063288,0.1667569361351945,-0.1970868557691574,0.0154311098158359,-0.1182300373911857,-0.3175285509601236,-0.1985657425224781,-9.735344504714012,14960.0
38.4,4.099999904632568,75.0,20.69013786315918,28.22084617614746,-79.78240498081072,40.45911273130864,295.14638441467287,-0.0106609780341386,0.0071090776473283,-0.59731125831604,0.8019072413444519,-0.8656527979178081,3.780919771887399,0.2070219930026418,0.162115067243576,0.0853415206074714,0.0575317256152629,-0.3661962059140206,0.0383747555594891,-9.94139395236969,14960.0
38.5,4.099999904632568,76.0,20.728952407836918,27.71193122863769,-79.78240100408637,40.4591144469327,295.1546336975098,-0.0022089057601988,0.0139427101239562,-0.6020359992980957,0.7983442544937134,-0.8392370731265368,3.753957218294696,0.1809854016499165,0.3103160560131073,0.1230129152536392,0.158579409122467,-0.4776917545124889,0.1966633143648504,-9.8281170129776,14960.0
38.6,4.099999904632568,75.0,21.00440216064453,24.69820976257324,-79.78239282246021,40.459117757163135,295.1674911346436,0.0034001206513494,0.0208411887288093,-0.6154904961585999,0.7878614664077759,-0.900407578246772,3.699191041037164,0.1125112433008596,-0.0341396406292915,-0.0792727470397949,0.1923582404851912,-0.4250923221185804,-0.0766046463511884,-9.706503698229788,14960.0
38.8,4.199999809265137,75.0,21.00690650939941,24.22110366821289,-79.78238463883267,40.45912091334528,295.1704990234375,-0.0176094323396682,0.0200277045369148,-0.6186565160751343,0.7852089405059814,-0.9028695631795298,3.679471217826312,0.1247220955769806,-0.1347020119428634,-0.1313092559576034,0.0612232983112335,-0.1911975564435124,0.0106672673765569,-9.66215081334114,14960.0
39.0,4.400000095367432,72.0,20.901735305786133,25.40591812133789,-79.78238066282792,40.459122474251146,295.169701751709,-0.024781784042716,0.0155508341267704,-0.6167598962783813,0.7866074442863464,-0.8878861350615762,3.680037733006033,0.1596159721064244,-0.1511522978544235,0.0644026026129722,-0.0476466305553913,-0.4962641924992204,0.134620135333389,-9.41506911456585,14960.0
39.1,4.400000095367432,72.0,20.856660842895508,26.43169593811035,-79.78237662808664,40.45912405461812,295.1700317230225,-0.028157053515315,0.0053883017972111,-0.6122028231620789,0.7901809215545654,-0.8838656694324566,3.672106870100889,0.1908618947997297,-0.2292284220457077,0.1888504922389984,-0.1733017414808273,-0.3854112163558602,0.2991203100979328,-9.655843421816826,14960.0
39.2,4.599999904632568,69.0,20.881702423095703,26.3521785736084,-79.78236840618591,40.45912714090011,295.1670677032471,-0.0290198046714067,-0.0059610260650515,-0.5992170572280884,0.8000383377075195,-0.7698235274701932,3.7236634764972543,0.1348028786005009,-0.0520693808794021,0.0006426645559258,-0.1928485631942749,-0.2755330806970596,0.3161046808585525,-9.50213006258011,14960.0
39.4,4.599999904632568,70.0,20.94430351257324,24.45965576171875,-79.78236440904321,40.45912870649521,295.1600410308838,-0.034381166100502,-0.0053299604915082,-0.5926640033721924,0.80469810962677,-0.7181333582039908,3.74135697013841,0.0880629400738906,-0.0108597101643681,-0.1245828941464424,-0.0972525775432586,-0.4449546558782457,0.2088853837922215,-9.409597290158272,14960.0
39.5,4.800000190734863,68.0,21.07076072692871,23.12375831604004,-79.78236042296419,40.45913028166626,295.1498386230469,-0.0371551588177681,-0.0038518998771905,-0.5882149338722229,0.8078415989875793,-0.6699240572721802,3.748523238132329,0.1075959224932891,-0.0118506299331784,0.0500679686665535,-0.1262588649988174,-0.4513905399665237,0.3974900289997459,-9.53603163421154,14960.0
39.7,4.900000095367432,66.0,20.964336395263672,25.61266326904297,-79.78235204657648,40.45913335062564,295.1273433532715,-0.033270601183176,-0.0006748760933987,-0.5824832916259766,0.8121613264083862,-0.6181140525984339,3.780935246324335,0.0796843030783159,0.0898255631327629,-0.0098774163052439,-0.0456366688013076,-0.5323602607101202,0.3113478247448802,-9.49525022864342,14960.0
39.9,5.099999904632568,56.0,21.115835189819336,23.338457107543945,-79.78234363578336,40.459136385171725,295.0967361297608,-0.0292115472257137,-0.0031951379496604,-0.581793487071991,0.8128055930137634,-0.5842423540103139,3.8024478134154895,-0.0177421465624557,0.1256061494350433,-0.0914506688714027,0.0571935474872589,-0.4790914683043957,0.3053532409854233,-9.27765369951725,14960.0
40.0,5.099999904632568,56.0,21.05072784423828,23.64857482910156,-79.78233961759265,40.459137988057215,295.07185095214845,-0.029412992298603,0.0012527582002803,-0.5836018919944763,0.8115062117576599,-0.6089543586437889,3.806557572916491,-0.1010216594474967,-0.0467472448945045,-0.0406786538660526,-0.0573219805955886,-0.3071208360046149,0.5222496573999524,-9.174971330165864,14960.0
40.1,5.300000190734863,55.0,20.9167594909668,25.60471153259277,-79.78233135301123,40.45914092979815,295.0206310119629,-0.0346091724932193,0.0069664162583649,-0.5884024500846863,0.8077972531318665,-0.6223793878020564,3.797765494769364,-0.1591882326201644,-0.0540781952440738,-0.0133722424507141,0.0411948338150978,-0.5060668302699923,0.4710822446644306,-9.101393476724628,14960.0
40.31,5.300000190734863,55.0,20.81409072875977,27.51313781738281,-79.78232301597609,40.45914400559382,294.9454185333252,-0.0365185812115669,0.0025447495281696,-0.5940487384796143,0.8035957813262941,-0.6457830233970265,3.826864108584125,-0.171105537669655,0.0422625876963138,0.058733619749546,0.0547088645398616,-0.5381284293159843,0.2063636075891554,-9.252842209339144,14959.0
40.4,5.400000095367432,53.0,20.83662796020508,28.13337707519531,-79.78231896423449,40.45914558945623,294.90062063598634,-0.0345293208956718,0.0011712727136909,-0.5969430804252625,0.801539421081543,-0.6971661481281185,3.82463126528698,-0.1906648140144162,-0.0878347009420394,-0.0210548117756843,0.1345398277044296,-0.4704728917032481,0.4240451223403216,-9.680280105471612,14959.0
40.61,5.400000095367432,54.0,20.9843692779541,25.44567680358887,-79.78231474388396,40.45914697376954,294.85890310668947,-0.0349636860191822,-0.0015110718086361,-0.5999192595481873,0.7992948889732361,-0.6873494737797232,3.8291434089796734,-0.1904270006420708,-0.0615634359419345,0.0832043513655662,0.1844455003738404,-0.487655117623508,0.3885421810671688,-9.652150905132292,14959.0
40.8,5.5,53.0,20.751487731933597,28.745662689208984,-79.7823064341033,40.45914998975631,294.77100485229494,-0.0386449247598648,-0.0072175175882875,-0.6042587757110596,0.7958176732063293,-0.7303159396496557,3.844670211342033,-0.2350546186156026,0.0404008440673351,0.0167941320687532,0.0467026717960834,-0.4009373280778528,0.4532400142773986,-9.438779574036598,14959.0
40.91,5.5,52.0,20.638803482055664,30.05770492553711,-79.78229819565199,40.45915315021542,294.6737815704346,-0.0399853624403476,-0.0158779341727495,-0.607363760471344,0.7932581305503845,-0.7983985337960341,3.868391764175651,-0.2397475468584938,0.0106715392321348,0.0330795869231224,0.0671127215027809,-0.3333110265433788,0.2900897057913244,-9.59659241616726,14959.0
41.0,5.5,54.0,20.56743621826172,30.79722023010254,-79.78229383016915,40.45915456584167,294.6126834716797,-0.0388549417257308,-0.0163756590336561,-0.608435869216919,0.7924821972846985,-0.8035497821276287,3.879309241080895,-0.1986751751387364,0.0836100578308105,0.0580713599920272,0.0085453419014811,-0.3345798723399639,0.3712990710139274,-9.838723862171172,14959.0
41.21,5.400000095367432,54.0,20.2193660736084,35.58418655395508,-79.7822854144738,40.45915775546664,294.5039989318848,-0.0368848256766796,-0.0119216833263635,-0.6106682419776917,0.7909373044967651,-0.8663598442177999,3.8756294212023374,-0.0984914341244364,0.0221777949482202,-0.0873550474643707,-0.0389284640550613,-0.3523438962176442,0.818541778922081,-10.469399864673615,14959.0
41.4,5.300000190734863,52.0,20.319530487060547,33.755279541015625,-79.78228126082028,40.45915938592056,294.4772312011719,-0.0332500636577606,-0.0068078977055847,-0.6123000383377075,0.7898967266082764,-0.8716029910756506,3.8770546310974057,0.0043218310163943,0.1095262095332145,0.0198903623968362,-0.0186562798917293,-0.2567397641390562,0.6871976009756326,-10.662053925991057,14959.0
41.5,5.199999809265137,50.0,20.253171920776367,35.51262283325195,-79.78227709740732,40.45916102317641,294.45956343078615,-0.0287222899496555,-0.0010729833738878,-0.6143624782562256,0.7885002493858337,-0.8772073803439826,3.8837263002245086,0.0825427555893441,0.1071475818753242,0.0109296711161732,0.0113635752350091,-0.3323839505016804,0.6529155948758125,-10.631243777275088,14959.0
41.71,5.099999904632568,47.0,20.24566078186035,34.136966705322266,-79.7822685883002,40.45916399950242,294.3887016143799,-0.0098097762092947,0.0035753427073359,-0.6216293573379517,0.7832419276237488,-0.838833103827552,3.860024646249297,0.1705264755744575,0.0077887969091534,0.1838930994272232,-0.0057030669413506,-0.21506333258003,0.5924342985078693,-10.63618818283081,14959.0
41.9,5.0,43.0,20.2919864654541,34.168773651123054,-79.78226003134039,40.459167155821966,294.3305503692627,-0.0159127824008464,-0.01218316052109,-0.6288723349571228,0.7772502303123474,-0.8678551448713528,3.847205375993444,0.0742322939354007,-0.1311309039592743,0.0292265489697456,0.0902261361479759,-0.170706610456109,0.4669066383317113,-10.194204168319704,14959.0
42.0,5.0,44.0,20.224374771118164,34.948047637939446,-79.7822558356358,40.45916866837574,294.3363105621338,-0.0211016871035099,-0.0204616244882345,-0.631855845451355,0.7745284438133241,-0.9014278601250162,3.812585054514625,0.1612267886105263,-0.2946816384792328,0.0519250370562076,0.0360233262181282,-0.3958572671189904,0.6384011245518924,-10.303890917301178,14959.0
42.2,5.0,40.0,20.16803359985352,35.289974212646484,-79.78224745263684,40.45917176497228,294.29335134887697,-0.0310292374342679,-0.03825643658638,-0.6338169574737549,0.7719131112098694,-0.997291978895634,3.7515289763102726,0.2231973870936488,-0.1591255068778991,-0.0910464525222778,-0.0653629451990127,-0.280497805327177,0.6418630416691303,-10.399227429628374,14959.0
42.3,5.0,38.0,20.158016204833984,35.88635635375977,-79.78223913606506,40.45917495145393,294.27417295837404,-0.0347450748085975,-0.0276111382991075,-0.635949969291687,0.7704532146453857,-1.0689052246117676,3.7008033076434654,0.3773063910799031,0.0935952737927436,-0.0296465922147035,-0.0732923820614814,-0.3205999106168747,0.5974682760983706,-10.555677870512008,14959.0
42.5,5.0,37.0,20.07162475585937,37.13478469848633,-79.78223510375237,40.459176579005,294.3004772033692,-0.0348179303109645,-0.0209556333720684,-0.6365221738815308,0.7701871395111084,-1.112482826124258,3.689056062156245,0.4586016886445848,0.0415764413774013,-0.0606387704610824,-0.0091455671936273,-0.4554345839470625,0.5442755705863238,-10.413439671993256,14959.0
42.6,4.900000095367432,32.0,20.226879119873047,35.07527542114258,-79.78223089972755,40.45917825489101,294.2638198699952,-0.0339878350496292,-0.0175149533897638,-0.6356815695762634,0.7710039019584656,-1.140153237360641,3.688298084120716,0.4827933121429658,0.0491218231618404,0.0336350500583648,-0.0150355091318488,-0.4204644702002406,0.5440415723249317,-10.396717804670336,14959.0
42.8,4.900000095367432,29.0,19.542007446289062,34.7572021484375,-79.78222268956513,40.45918163359593,294.2514411773682,-0.0356210172176361,-0.0229279398918151,-0.6303353905677795,0.7751662731170654,-1.1752759413892928,3.721935042982944,0.4796818727986576,-0.1457051336765289,-0.0610390491783618,-0.1672034263610839,-0.0811390524543821,0.5661955395340921,-10.111282464265823,14959.0
42.9,4.900000095367432,28.0,19.627147674560547,33.65190887451172,-79.78221865041634,40.45918335398649,294.28129499816896,-0.0351705364882946,-0.0248646941035986,-0.6278092861175537,0.7771746516227722,-1.1411702031369977,3.7377784757001664,0.500299922221447,0.0973370596766472,0.0871912240982055,-0.0029653215315192,-0.1730157124623656,0.6148644735664129,-10.001705642938612,14959.0
43.0,4.900000095367432,25.0,19.796173095703125,31.79914474487305,-79.78221050330802,40.45918681519061,294.2873470153809,-0.0150054236873984,-0.0268105808645486,-0.6284322738647461,0.7772573828697205,-1.130229661880217,3.7238152427727984,0.4118072828429639,0.2086418718099594,0.1426480859518051,0.072177268564701,-0.1882154764607548,0.4322299451753497,-9.823364396095275,14959.0
43.21,5.0,26.0,19.811199188232425,30.75746154785156,-79.78220247628126,40.45919020892506,294.33746450805666,-0.0129330782219767,-0.0285148750990629,-0.6302573680877686,0.7757546305656433,-1.2233981014006328,3.684150322587244,0.1994820360041203,-0.1029351130127906,-0.1343740373849868,-0.0296298265457153,0.0471671360777691,0.4308865839242935,-9.552823668122294,14959.0
43.3,4.900000095367432,28.0,20.00401496887207,28.91264915466309,-79.78219853630098,40.45919198919324,294.35812300109865,-0.0253918673843145,-0.0294994376599788,-0.6291691064834595,0.7762933373451233,-1.2412881888089593,3.683086874822668,0.2143322403474609,-0.0744139328598976,-0.2600948810577393,0.0474460646510124,0.0234666579868644,0.3778014671802521,-9.547983927726746,14959.0
43.5,4.900000095367432,29.0,20.5849666595459,28.44349479675293,-79.78219460257216,40.45919377983609,294.37655943298336,-0.0372538901865482,-0.0211898647248744,-0.6305814385414124,0.7749388813972473,-1.2326271452169877,3.673604574848024,0.2793470033102703,0.1530701071023941,-0.3160309791564941,0.0293693523854017,-0.1017539502773434,0.9381292527168992,-9.603774551153183,14959.0
43.6,4.900000095367432,29.0,20.671358108520508,27.48133087158203,-79.78218660437395,40.45919708943957,294.4323493804932,-0.0278138723224401,0.0096906144171953,-0.6394860148429871,0.7682384252548218,-1.2467402846400062,3.6554495881058657,0.4700263438476413,0.2293972223997116,-0.0526046380400657,0.0665856525301933,-0.2754417727701366,0.3793495175242424,-9.803554029464722,14959.0
43.8,4.900000095367432,25.0,20.7702693939209,26.32832336425781,-79.78218253536221,40.4591987294265,294.4888583984375,-0.0257456842809915,0.0134726008400321,-0.6425402760505676,0.7657008171081543,-1.2926948795112605,3.654026376827989,0.4398332396952995,-0.0502080619335174,0.0169755760580301,0.0242880228906869,-0.2391556883230805,0.4654491101950407,-9.491914392113689,14959.0
44.0,4.900000095367432,27.0,20.728952407836918,26.7418155670166,-79.78217451584618,40.45920221636115,294.5207950439453,-0.0343531817197799,0.0001048492922564,-0.6381203532218933,0.7691699266433716,-1.2914525926341212,3.70356233603916,0.3735185820733921,-0.1484496891498565,0.049120157957077,-0.1347193270921707,-0.1985893141105771,0.3825308413803577,-9.529075786471369,14959.0
44.11,4.800000190734863,28.0,20.90924644470215,23.27484130859375,-79.78217048357848,40.45920400444468,294.5950118865967,-0.0324502363801002,-0.0057935048826038,-0.6320909261703491,0.7741928696632385,-1.2407623848116751,3.731357993548695,0.4055331835764009,-0.0335952006280422,0.0684135854244232,-0.1699077188968658,-0.1554800040833652,0.4866311605274677,-9.591655027270315,14959.0
44.3,4.800000190734863,30.0,20.71517944335937,27.33024787902832,-79.78216232392228,40.45920741475454,294.66945570373537,-0.0195104423910379,-0.0115783205255866,-0.615463376045227,0.7878389954566956,-1.1074045890179822,3.801785361633749,0.270355127219733,0.003193850396201,0.1390400528907776,-0.2164974808692932,-0.107375143636018,0.3184418860450387,-9.154599630832672,14959.0
44.4,4.699999809265137,31.0,20.58997344970703,29.19891357421875,-79.7821582335027,40.45920915446878,294.67566793823244,-0.0159780159592628,-0.0150944273918867,-0.6072725057601929,0.7941895127296448,-1.029420282808672,3.8312571090632814,0.1355340246231699,-0.0029175030067563,0.1082342118024826,-0.2044113427400589,-0.0047767001017928,0.4310725253820419,-9.215103694796564,14959.0
44.5,4.699999809265137,30.0,20.58746910095215,28.58662796020508,-79.78215413719151,40.45921089067899,294.6761123504639,-0.0159132964909076,-0.0152042629197239,-0.5998342633247375,0.7998215556144714,-0.9397700619350076,3.856872766326976,0.0552290326156721,0.0655638352036476,-0.0204616151750087,-0.2009077668190002,-0.0911483710259199,0.3812983945012093,-9.346787669062612,14959.0
44.7,4.599999904632568,30.0,20.539892196655277,29.85891151428223,-79.78214139113831,40.45921586691031,294.79108923339845,-0.0132549563422799,-0.0084148738533258,-0.5814607739448547,0.8134229183197021,-0.6634544999894598,3.88965492566768,0.1738992638141216,0.0688029527664184,0.0591792576014995,-0.0263465885072946,-0.1958307804912328,0.5007229502499104,-9.819278361797334,14959.0
44.9,4.599999904632568,24.0,20.57369804382324,29.365901947021484,-79.78213727391405,40.45921752233899,294.8023139801025,-0.012032626196742,-0.0130984904244542,-0.577612042427063,0.8161177635192871,-0.5919225459268528,3.896072369610793,0.1839493108084642,-0.1306918263435363,0.1316950768232345,-0.0550868846476078,-0.0133767392020672,0.5910493854805827,-9.968740210533143,14959.0
45.0,4.599999904632568,23.0,20.5949821472168,28.37192916870117,-79.78213314180324,40.459219159371536,294.8145076599121,-0.0153478384017944,-0.0186411030590534,-0.5747141242027283,0.8179979920387268,-0.5391866976349049,3.910143211252234,0.1555139406545958,-0.1982668638229369,-0.0552118234336376,-0.0486523620784282,-0.0701416275277733,0.8114780500531197,-9.780446417927742,14959.0
45.2,4.5,21.0,20.65132522583008,28.22084617614746,-79.78212462608491,40.45922241277321,294.8670417633057,-0.0191359017044305,-0.0214822180569171,-0.5736170411109924,0.8186182975769043,-0.4559374462403817,3.927620594972277,0.1839193045552772,-0.0061603412032127,0.0153602361679077,-0.055774800479412,-0.0610364164039492,0.6399605038762093,-9.641394951939583,14959.0
45.3,4.400000095367432,21.0,20.59748649597168,28.43554306030273,-79.78212028394374,40.459223913595366,294.89287870788576,-0.0211392231285572,-0.0213826652616262,-0.5753248929977417,0.81737220287323,-0.4475942045419483,3.946014561434549,0.1544619411841825,-0.0054550059139728,-0.0318654328584671,-0.0402210839092731,0.0460555621096864,0.5385911267995834,-9.465936382412911,14959.0
45.5,4.400000095367432,20.0,20.70140647888184,27.05988693237305,-79.7821118991908,40.45922713669752,294.90974729919435,-0.024104943498969,-0.0221134908497333,-0.5785235762596129,0.8150095343589783,-0.5008724635328072,3.9560390731983146,0.167849841104977,0.0631435886025428,0.0292500276118516,0.0180556401610374,-0.0785737144947052,0.542023003846407,-9.723951205015185,14959.0
45.6,4.300000190734863,19.0,20.77652931213379,26.04205894470215,-79.78210325426106,40.45923027523929,294.9464904632568,-0.0169599130749702,-0.0285233426839113,-0.5817526578903198,0.8126885890960693,-0.5459393261099185,3.9710769672214594,0.1065488419984094,-0.0426087267696857,0.0376896075904369,0.0422166883945465,0.0904082779772579,0.6310266892611981,-9.729031265974042,14959.0
45.7,4.300000190734863,18.0,20.747732162475582,26.89289855957031,-79.78209889156663,40.45923177473885,294.97687452697755,-0.0162454340606927,-0.0313185229897499,-0.5849711298942566,0.8102864623069763,-0.5641967747733271,3.964862245238372,0.0254421333989767,-0.0050087943673133,0.0065537197515368,0.0225497465580701,-0.0077427550591528,0.5574008886516094,-9.183681927323342,14959.0
45.91,4.199999809265137,18.0,20.48104476928711,30.01794624328613,-79.78209469118472,40.45923341812675,294.9740230407715,-0.0173572469502687,-0.0317316763103008,-0.5888707637786865,0.8074175119400024,-0.6306174678925633,3.9505467495562594,-0.0599630757939222,-0.0438535585999488,-0.0600592195987701,0.0770247727632522,0.0381496560294181,0.4579602887481452,-9.135231313705445,14959.0
46.1,4.099999904632568,18.0,20.6137638092041,28.745662689208984,-79.78208616323336,40.45923661062021,294.99927633666994,-0.0177258886396884,-0.023109683766961,-0.5918087959289551,0.805552065372467,-0.7212178941614238,3.917189954474061,-0.0578146031535183,0.1405189037322998,-0.0908164530992508,-0.0073663871735334,-0.0632591669121757,0.4962871062755585,-9.481992836594582,14959.0
46.2,4.0,18.0,20.44097900390625,31.13914680480957,-79.78208200350828,40.45923829186532,294.9899665679932,-0.0175382420420646,-0.0151554765179753,-0.590164303779602,0.8069503307342529,-0.7364317512293627,3.924011808073397,-0.0558603533346795,0.1215002089738845,-0.036503367125988,-0.0681620761752128,-0.0308277520327828,0.3934791314229369,-9.566768692731856,14959.0
46.31,3.700000047683716,15.0,20.25692749023437,33.771183013916016,-79.7820733716661,40.45924150594976,294.9993831481934,-0.0148496944457292,-0.0180130153894424,-0.5868555903434753,0.8093550801277161,-0.7086921348275799,3.961235786523919,0.0017686182819616,0.0122786927968263,0.1311852633953094,-0.0506484359502792,0.0798306374531239,0.1379453829210251,-9.927676384449006,14959.0
46.5,3.5999999046325684,14.0,20.29949760437012,32.4432373046875,-79.7820647972562,40.45924491481679,295.01206510925294,-0.0081051923334598,-0.0190664697438478,-0.5819082856178284,0.8129904866218567,-0.6804640833682446,4.004621046508545,0.0516346290124797,0.1356244087219238,0.0254696384072303,-0.0205918624997138,0.2076606662012636,0.4181201021745801,-10.190819799900057,14960.0
46.7,3.5,11.0,20.253171920776367,34.184677124023445,-79.78206057834484,40.45924664065232,295.0177890625,-0.0024386257864534,-0.0134367831051349,-0.580309271812439,0.8142817616462708,-0.6492135768277281,4.008592247066049,0.0557799500115711,0.2353489995002746,0.0409008264541626,-0.0124875213950872,0.2031632071919739,0.3650466067716479,-10.069045686721802,14960.0
46.81,3.5,7.0,20.33330345153809,32.17287826538086,-79.78205635718476,40.45924833912557,295.0206481781006,0.0021571647375822,-0.0113725196570158,-0.5799528956413269,0.8145678043365479,-0.6355791689250099,3.9929792928423775,0.0464389082530409,0.0656872317194938,0.0544906109571456,-0.0199849195778369,0.1513714031875133,0.2392422088421881,-10.053454670906069,14960.0
47.0,3.400000095367432,2.0,20.25692749023437,33.35769271850586,-79.7820479542172,40.45925176295341,295.0393783416748,0.0007112779421731,-0.0203758794814348,-0.5829803347587585,0.8122304081916809,-0.6175140290693604,3.984666712804996,0.0251312942887192,-0.0176518000662326,-0.0212377291172742,-0.0151018686592578,0.2163391036726534,0.4596961078047753,-9.907049746513367,14960.0
47.1,3.299999952316284,359.0,20.327043533325195,31.81504821777344,-79.78203944313124,40.459255054469935,295.0390807952881,-0.0033866870217025,-0.0196152795106172,-0.5875791907310486,0.8089218139648438,-0.6467831849414744,3.977890309346445,0.0612774320555462,-0.089904598891735,-0.0181727223098278,-0.0124027300626039,0.3164609590172768,0.4397269527241588,-9.96778243660927,14960.0
47.2,3.2000000476837163,356.0,20.28822898864746,32.284202575683594,-79.78203510161973,40.45925673621318,295.0325977172852,-0.0039242394268512,-0.0223728008568286,-0.5894100666046143,0.8075146675109863,-0.6747355353315774,3.979351333587677,0.0669170402691821,-0.1030926629900932,0.001324201002717,-0.0002951989299617,0.1675980113446712,0.3895127092301845,-10.007333003282548,14960.0
47.4,3.0999999046325684,353.0,20.4384765625,30.924448013305664,-79.78203089008416,40.45925841965688,295.0448123779297,-0.0028733487706631,-0.0272134728729724,-0.5913309454917908,0.8059645295143127,-0.6918519734161133,3.96966788573554,0.0811147633867815,-0.1093944683670997,0.1256112456321716,0.0323261655867099,0.1450527557730674,0.4041954697296024,-9.976338082551957,14960.0
