time,wind_speed,wind_angle,battery_voltage,battery_current,position_x,position_y,position_z,orientation_x,orientation_y,orientation_z,orientation_w,velocity_x,velocity_y,velocity_z,angular_x,angular_y,angular_z,linear_acceleration_x,linear_acceleration_y,linear_acceleration_z,node_ids
0.0,0.699999988079071,351.0,23.248077392578125,-0.0874695107340812,-79.78281539818157,40.45899600894115,270.0514094552994,0.0054178577847778,-0.006336092017591,-0.7126595377922058,0.701460599899292,0.007654899776842,0.0015357892584743,0.0100062342351243,0.0060772011056542,0.0037998063489794,0.002830390818417,0.1589300805889069,0.0157381532317958,-9.809421710371971,14935.0
0.1,0.6000000238418579,353.0,23.25559043884277,-0.0795177370309829,-79.78281539690981,40.45899600298088,270.0524519405365,0.0054239793680608,-0.0063421032391488,-0.7126590609550476,0.7014609575271606,0.0054339377958217,0.0012892536752483,0.01082272016642,-0.0057551721110939,-0.0025305738672614,-0.0073508168570697,0.1592293118499219,0.0125326285266783,-9.810954265594482,14935.0
0.3,0.6000000238418579,351.0,23.23931312561035,-0.1272283792495727,-79.7828152917571,40.45899598083917,270.0606487116814,0.0054082097485661,-0.0063258064910769,-0.7126608490943909,0.7014594078063965,0.00919033855971,-0.0063169786390999,0.0088681584436754,-0.0059837270528078,-0.0037569014821201,-0.0049322298727929,0.1614909600466489,-0.0021237509802449,-9.811647745370868,14935.0
0.4,0.6000000238418579,351.0,23.24306869506836,-0.0954212844371795,-79.78281511043848,40.45899599092721,270.0702675304413,0.0053969537839293,-0.0062958663329482,-0.7126631140708923,0.7014574408531189,0.008943333741774,0.0007692977809385,0.0103026932471643,0.0050217704847455,0.0041120056994259,0.0031025293283164,0.1596265205182135,0.0084678360668476,-9.81033446073532,14935.0
0.51,0.6000000238418579,346.0,23.241817474365234,-0.1033730581402778,-79.78281510962806,40.45899597697229,270.07248804187776,0.0053693456575274,-0.0062775262631475,-0.7126654386520386,0.7014554738998413,0.0063547630025508,0.0005103489504318,0.0118364015084676,-0.0017427853308618,-0.0030317578930407,-0.0047314222902059,0.1610974972508848,-0.010177983334288,-9.811546003818512,14935.0
0.7,0.6000000238418579,347.0,23.246826171875,-0.0795177370309829,-79.78281496934612,40.458995984739865,270.08034858322145,0.005360156763345,-0.0062614884227514,-0.7126489281654358,0.7014725208282471,0.0074774039681518,-0.0019942220021972,0.0093847360350274,0.0035210086498409,0.0052653108723461,0.0034285369329154,0.1603678378276527,-0.0076174813188845,-9.811643067598345,14935.0
0.9,0.6000000238418579,346.0,23.25308609008789,-0.0874695107340812,-79.78281484467189,40.45899598289446,270.08918544864656,0.0053429873660206,-0.0062489421106874,-0.7126437425613403,0.7014779448509216,0.0072648555278253,-0.0077465702078647,0.0075900637770019,0.0052580889314413,0.0034157766494899,0.0039695939049124,0.1597970399446785,0.0092010757676325,-9.811204526424408,14935.0
1.0,0.6000000238418579,343.0,23.25308609008789,-0.0795177370309829,-79.78281485396244,40.45899597742693,270.08996603107454,0.0053323865868151,-0.0062590241432189,-0.7126322388648987,0.7014896273612976,0.0054053590434948,-0.0076844190794206,0.008259647668371,-0.0051131504587829,0.0005662381299771,0.0016026654047891,0.1596928133256733,-0.0037897232186514,-9.811107462644577,14935.0
1.11,0.5,335.0,23.24306869506836,-0.0795177370309829,-79.78281472878838,40.45899597893203,270.0987811408043,0.0053228954784572,-0.0062511898577213,-0.7126303911209106,0.7014917135238647,0.0058940325467986,-0.010699262406278,0.0074949574547207,0.0031134455930441,0.0017576655372977,0.0033464804291725,0.1584663598425686,0.0119055945903528,-9.811307437419892,14935.0
1.3,0.5,334.0,23.248077392578125,-0.0954212844371795,-79.7828147415777,40.45899597454879,270.0995514712334,0.0053464891389012,-0.0062487786635756,-0.7126320004463196,0.7014898061752319,0.0038967959909643,-0.0106547437925149,0.0082224961517971,-0.0066779609769582,-0.0052410447970032,-0.0095550157129764,0.1580543686822056,0.0135409728717058,-9.810936723947526,14935.0
1.5,0.5,323.0,23.25183296203613,-0.0795177370309829,-79.78281453361171,40.45899598092398,270.1080608687401,0.0053084786050021,-0.0062376298010349,-0.7126175761222839,0.7015049457550049,0.0043269020936468,-0.0003331552069565,0.0069865579267933,-0.0020912114996463,-0.0018936920678243,-0.0031891062390059,0.1604610643722117,-0.0034664087381679,-9.811298081874847,14935.0
1.6,0.5,315.0,23.246826171875,-0.0715659633278846,-79.78281453428825,40.45899597701845,270.10879615163805,0.0052974028512835,-0.0062430202960968,-0.7126273512840271,0.7014949917793274,0.0041113590328934,-0.0004466609181173,0.0077090789801852,0.0010270146885886,-0.0002127890766132,-0.0009733461192809,0.1584389875642955,0.0083345058455597,-9.810817440748217,14935.0
1.71,0.5,291.0,23.22929763793945,-0.1590354740619659,-79.78281437220578,40.45899598250798,270.1167538485527,0.0053110928274691,-0.006221976596862,-0.7126179933547974,0.7015045881271362,0.0035576753931823,0.0010089823479889,0.006902041776374,-0.0024203937500715,-0.0003247541026212,-0.0076415222138166,0.1595509087108075,-0.0073170651972759,-9.810939062833787,14935.0
1.9,0.5,278.0,23.23305320739746,-0.1669872552156448,-79.78281424147711,40.45899599297121,270.1261270365715,0.0053182826377451,-0.0062524722889065,-0.7126256823539734,0.7014964818954468,0.0054644746774081,-0.0045240153637655,0.009187720438607,0.0054649249650537,0.004179807845503,0.0038716380950063,0.160897394567728,-0.0093883442692458,-9.811093429327013,14935.0
2.0,0.4000000059604645,272.0,23.235557556152344,-0.1590354740619659,-79.78281425252912,40.45899598612849,270.1281035861969,0.0053198807872831,-0.006250896025449,-0.7126317024230957,0.7014903426170349,0.0034213394865185,-0.004612182749878,0.0106778487579106,0.0054789166897535,0.0034004508052021,0.0031829711515456,0.1595459751226008,0.0094900892477016,-9.810622143745425,14935.0
2.2,0.4000000059604645,270.0,23.24306869506836,-0.1510837078094482,-79.78281405867197,40.45899598045162,270.1357435307503,0.0053091291338205,-0.0062444852665066,-0.7126297950744629,0.701492428779602,0.0074617821348399,0.0024434429697374,0.00828602838898,-0.0024758831132203,0.0001828094391385,0.0020949684549123,0.1602562290988862,-0.0050349060643929,-9.811603306531907,14935.0
2.4,0.4000000059604645,256.0,23.23680877685547,-0.1510837078094482,-79.78281405356046,40.458995968144045,270.13755801534654,0.0053101046942174,-0.0062544476240873,-0.7126352787017822,0.7014867663383484,0.0063218396775707,0.0023554197981192,0.00970121492998,0.0020058741793036,0.0047683399170637,0.0104033648967742,0.1584903334267437,0.0139007502235472,-9.81168282866478,14935.0
2.5,0.4000000059604645,247.0,23.235557556152344,-0.1510837078094482,-79.78281388154282,40.45899600425892,270.1448277554512,0.0053009884431958,-0.0062559158541262,-0.7126336693763733,0.7014884948730469,0.000783936102502,0.002761818026463,0.0069315060965481,-0.0035798936150968,0.0013653663918375,-0.0035055510234087,0.1600232541002333,0.0045606500515714,-9.811942445039753,14935.0
2.61,0.4000000059604645,228.0,23.241817474365234,-0.1590354740619659,-79.78281374735144,40.458996001833256,270.1537729225159,0.005313993897289,-0.0062633948400616,-0.7126433849334717,0.7014783620834351,0.0046318042211796,-0.0023557931453162,0.0069995295668718,0.0014687676448374,0.0002785235992632,0.0014616916887462,0.1586859045177698,0.0082183518202509,-9.810802237987517,14935.0
2.8,0.5,237.0,23.235557556152344,-0.1590354740619659,-79.78281375036038,40.458995998339965,270.15450343704225,0.0053131231106817,-0.0062662330456078,-0.7126393318176271,0.7014824748039246,0.0028768667499172,-0.0023548826193337,0.0076728593565728,-0.0070174010470509,-0.0006977106677368,-0.0067112557590007,0.1586816287413239,0.0156951168109662,-9.81002455830574,14935.0
2.91,0.4000000059604645,244.0,23.22929763793945,-0.1431319266557693,-79.78281358531841,40.4589960221886,270.16288063144685,0.0053130271844565,-0.0062630847096443,-0.7126291394233704,0.701492965221405,-0.0005183035310202,-0.0004103936333068,0.0066962968493623,-0.0064757871441543,-0.0029867517296224,-0.0068758074194192,0.1615336447209119,-0.0061810471268836,-9.810175416469574,14935.0
3.1,0.5,254.0,23.24056434631348,-0.1590354740619659,-79.78281358610545,40.4589960225069,270.16358456230165,0.0053322548046708,-0.0062652733176946,-0.7126290202140808,0.7014929056167603,-0.0003846123457629,-0.0006461074235944,0.0074033617126808,0.0031894280109554,-0.0003553096612449,0.0024476104881614,0.1601232414878904,0.0013910948589909,-9.811037296056748,14935.0
3.3,0.5,259.0,23.230548858642567,-0.1828908026218414,-79.78281336794863,40.45899603215317,270.17234513378145,0.005314168985933,-0.0062597035430371,-0.7126200795173645,0.7015021443367004,-0.000320799859148,0.0077641738113837,0.0070546206852681,-0.0049962257035076,0.0009718828368932,-0.0010097331833094,0.1603559423983097,-0.0065264782437589,-9.811223237514495,14935.0
3.4,0.5,255.0,23.230548858642567,-0.1669872552156448,-79.78281335893583,40.458996032190754,270.173099609375,0.0053056050091981,-0.0062689031474292,-0.71262127161026,0.7015008330345154,-0.000429113941991,0.0076934126323181,0.0077499702248264,0.0028752337675541,0.0033203843049705,0.0087143620476126,0.1614716094173491,-0.0092754655983299,-9.810556654930116,14935.0
3.6,0.5,267.0,23.23806190490723,-0.1510837078094482,-79.7828132126767,40.458996038262136,270.1813379249573,0.0053375042043626,-0.0062833339907228,-0.7126187682151794,0.7015031576156616,0.0010689672504875,0.0025845634422268,0.0072765329597457,-0.000222369475523,0.0018425742164254,0.003579159034416,0.1595481678284704,0.0092093281075358,-9.811003382205962,14935.0
3.7,0.5,270.0,23.23931312561035,-0.1590354740619659,-79.78281307950162,40.458996060806406,270.1888400039673,0.0053278105333447,-0.0062982705421745,-0.7126202583312988,0.7015015482902527,-0.0010514981047868,-0.0019476749242425,0.0068213948934039,-0.0039005677681416,0.0015259678475558,0.0004621600091923,0.1597345660999417,-0.0049092286149971,-9.811370587348938,14935.0
3.91,0.5,276.0,23.249330520629893,-0.0715659633278846,-79.78281291398233,40.458996066460735,270.19672975158693,0.0053414381109178,-0.0062716668471693,-0.7126147747039795,0.7015072107315063,0.0022278556357826,-4.0511380262888905e-05,0.0057506647748902,0.0028535923920571,0.0034403535537421,0.0083374418318271,0.1580129996314644,0.0138274544617161,-9.810404627323152,14935.0
4.01,0.5,279.0,23.249330520629893,-0.0874695107340812,-79.78281291419951,40.45899606539203,270.1973435602188,0.0053436337038874,-0.0062690596096217,-0.7126031517982483,0.7015190124511719,6.023571110201667e-06,-8.569878669271827e-05,0.0065598052858943,-0.0064644371159374,-0.003242839127779,-0.0090910578146576,0.1577993569895625,0.0118658609327394,-9.811194001436236,14935.0
4.2,0.5,311.0,23.25308609008789,-0.0874695107340812,-79.78281276994848,40.458996052041,270.2051059923172,0.0053393580019474,-0.0062420000322163,-0.7126052379608154,0.7015171647071838,0.0065163685554859,-0.0028907574468889,0.0057350429403794,0.0015249133575707,-0.0004502206284087,-0.0021843570284545,0.1594666905328631,-0.000550803146325,-9.811502734422684,14935.0
4.31,0.6000000238418579,320.0,23.25183296203613,-0.0954212844371795,-79.78281277359085,40.45899604633836,270.2057072839737,0.0053345700725913,-0.0062449080869555,-0.7126020789146423,0.7015203833580017,0.0058289496660956,-0.002914860472762,0.006382975149937,0.0011087474413216,0.0009255040786229,-0.0036514361854642,0.1578993443772197,0.0127310124482028,-9.810063149929046,14935.0
4.41,0.6000000238418579,327.0,23.249330520629893,-0.0954212844371795,-79.78281260466836,40.45899605016552,270.2132029256821,0.0053126546554267,-0.0062359836883842,-0.7125893235206604,0.7015335559844971,0.0049905409929967,-0.0001292010551046,0.0054583986085518,-0.0040278942324221,-0.0002113913651555,-0.005333743058145,0.1603122892789542,-0.0092343894793884,-9.811230254173278,14935.0
4.6,0.6000000238418579,336.0,23.246826171875,-0.0795177370309829,-79.78281260500664,40.45899604555575,270.21378275966646,0.0053080492652952,-0.0062253191135823,-0.7125875949859619,0.7015354633331299,0.0052705653750962,-0.0001355406495055,0.0061330300515924,0.0032528892625123,0.0028801576700061,0.0035327784717082,0.1614744051173329,-0.0039764692395692,-9.810905148983002,14935.0
4.8,0.6000000238418579,355.0,23.24432182312012,-0.0238553211092948,-79.782812448667,40.45899606492182,270.22171041584016,0.0052968896925449,-0.0062374048866331,-0.7125528454780579,0.7015707492828369,0.0012894713886765,0.0010985541851066,0.0067482513946464,0.0049169808626174,-0.0004443785874173,0.0005869678570888,0.1596259723417461,-0.000583102160599,-9.811597459316252,14935.0
4.91,0.6000000238418579,4.0,23.24432182312012,-0.0874695107340812,-79.78281231509784,40.45899605886976,270.22880766010286,0.0053029209375381,-0.0062184263952076,-0.7125390768051147,0.7015848755836487,0.0079844110132125,-0.0022829672469504,0.0052079397644461,0.0024150321260094,-0.0006275964551605,0.0030161943286657,0.1610909739509225,-0.0093843916885089,-9.811630203723908,14935.0
5.1,0.699999988079071,11.0,23.25308609008789,-0.0636141896247863,-79.78281232096998,40.458996046636265,270.2299810371399,0.0053313705138862,-0.006225767545402,-0.712524950504303,0.7015988826751709,0.0066217915816403,-0.0022892463681685,0.0066134722975647,0.0069491942413151,0.0042799515649676,0.0048303599469363,0.1578620135597884,0.014266575789079,-9.81082679629326,14935.0
5.2,0.6000000238418579,12.0,23.24557304382324,0.0079517737030982,-79.78281218465501,40.45899607130507,270.2390792093277,0.0053383666090667,-0.0062089590355753,-0.7125264406204224,0.7015975117683411,0.0017345942164024,-0.0040439548479285,0.0094274513966571,-0.0074351490475237,-0.0018359707901254,-0.0055526620708405,0.1593290251493454,0.0066846220154548,-9.810942571163178,14935.0
5.4,0.6000000238418579,16.0,23.241817474365234,0.0318070948123931,-79.78281201202623,40.458996077888,270.2477508506775,0.0053339870646595,-0.0061723412945866,-0.7125163078308105,0.7016081809997559,0.0029544167001915,0.0022949574895455,0.0080242769004743,0.0028520643245428,0.0026790837291628,-0.0003104276838712,0.159127570297569,0.0051491066400194,-9.810208160877233,14935.0
5.5,0.6000000238418579,20.0,23.23931312561035,0.0,-79.78281200947491,40.4589960753872,270.24858984565736,0.0053560081869363,-0.0061611915007233,-0.7125121355056763,0.7016122937202454,0.0019356538512434,0.0024294313576449,0.0087177328587235,-0.000678424257785,-0.0039668790996074,-0.006427832879126,0.1585908872634172,0.0148727653152309,-9.810098233222964,14935.0
5.7,0.6000000238418579,18.0,23.23806190490723,0.0636141896247863,-79.78281189149321,40.45899608242424,270.2558605394364,0.0053362743929028,-0.006153336726129,-0.7124972343444824,0.7016276717185974,0.0019367710858306,-0.0026188060118943,0.0054840211090377,-0.0061306874267756,-0.0039365724660456,-0.008721936494112,0.1603978778980672,-0.0089655174873769,-9.810459591150282,14935.0
5.8,0.6000000238418579,17.0,23.23806190490723,-0.0238553211092948,-79.78281189477627,40.458996080494536,270.2564340553284,0.0053277425467968,-0.0061633000150322,-0.7124917507171631,0.7016332149505615,0.0025149619189607,-0.0027099000495779,0.0060958557078851,0.0080344025045633,0.0066344896331429,0.0041274391114711,0.1606167464889586,-0.0032741432654438,-9.810650210380556,14935.0
6.0,0.5,20.0,23.22804450988769,-0.0238553211092948,-79.78281176539657,40.458996101478455,270.26363072013856,0.0053308433853089,-0.0061634643934667,-0.7125054597854614,0.7016192674636841,-0.0005183693222489,-0.0036744323867627,0.003207858414995,0.0052454676479101,-0.0020471720490604,0.0037745235022157,0.159462049305439,0.0032345826260279,-9.810675938129426,14935.0
6.1,0.5,17.0,23.241817474365234,0.0079517737030982,-79.782811769663,40.45899610274736,270.26397893047334,0.0053208782337605,-0.0061866026371717,-0.7124970555305481,0.7016277313232422,-0.0018977918551078,-0.0035611174580055,0.0039405597224478,-0.0047597219236195,0.0005990599747747,0.0053655891679227,0.1600045612826943,-0.0072362137364689,-9.811713234186174,14935.0
6.3,0.5,19.0,23.23931312561035,-0.0238553211092948,-79.78281161758579,40.45899612294061,270.2730163059235,0.0053185187280178,-0.0062256096862256,-0.7124891877174377,0.7016353607177734,-0.0030713082844235,-0.0006212857225434,0.004556961250518,0.004420758690685,0.0010938788764178,0.0040717949159443,0.1581756253167986,0.0123457220499403,-9.81052274107933,14935.0
6.4,0.5,19.0,23.246826171875,-0.0079517737030982,-79.78281161827134,40.45899612589283,270.27350685215,0.0053285076282918,-0.0062176380306482,-0.71248859167099,0.7016359567642212,-0.0048740695101309,-0.0005240169743789,0.0053402358409119,-0.0052418494597077,0.0004994875052943,-0.0058383629657328,0.1589959896728396,0.0152895301789976,-9.811268845796585,14935.0
6.6,0.5,26.0,23.23931312561035,-0.0159035474061965,-79.7828114662625,40.45899612281339,270.28315767860414,0.0053259022533893,-0.0062190755270421,-0.7124680876731873,0.7016567587852478,-0.0014945949820526,0.0011887022034238,0.0056443319102805,-0.0053720278665423,-0.0052685742266476,-0.0068192337639629,0.1616807570122182,-0.0103546377690508,-9.812713108062743,14935.0
6.71,0.6000000238418579,28.0,23.24557304382324,-0.0318070948123931,-79.78281134939799,40.45899610729863,270.29209479904176,0.0053152916952967,-0.0062075979076325,-0.7124757170677185,0.7016492486000061,0.0056171563689065,-0.0015412217040306,0.0052248632828127,0.0061352825723588,-0.0003634865570347,0.0052686617709696,0.1609415958635509,-0.0085936522734118,-9.811533139944077,14935.0
6.9,0.699999988079071,25.0,23.23931312561035,-0.0079517737030982,-79.78281121340548,40.45899611669369,270.3019215784073,0.005322232376784,-0.0062002777121961,-0.7124534249305725,0.7016718983650208,0.002375473539199,1.3457451371754563e-05,0.0047001088143579,0.0079884091392159,0.0042103035375475,0.0047926194965839,0.1583356928452849,0.0151839513913728,-9.810340307950971,14935.0
7.0,0.8000000119209291,25.0,23.25058174133301,0.0159035474061965,-79.78281121342499,40.4589961156486,270.3024294099808,0.0053194840438663,-0.0061923218891024,-0.7124476432800293,0.7016777992248535,-5.5317218627327856e-05,0.0002107806005079,0.0054639433691393,-0.0072168558835983,-0.0036903540603816,-0.0038638329133391,0.15799759587273,0.0141025168506894,-9.810090047121047,14935.0
7.2,1.0,32.0,23.24432182312012,0.0,-79.7828110563258,40.458996114174106,270.31265768623354,0.0053048431873321,-0.0061809713952243,-0.7124375104904175,0.701688289642334,0.0014976977213132,0.0052124598013905,0.0054347556556571,-0.00694449711591,-0.0031470789108425,-0.0048614735715091,0.1611203379370272,-0.0067430342151783,-9.811736623048784,14935.0
7.3,1.100000023841858,34.0,23.24432182312012,-0.0159035474061965,-79.7828110503825,40.45899611251226,270.3132419309616,0.0053033046424388,-0.0061988686211407,-0.7124345302581787,0.701691210269928,0.0020868015608838,0.0051118025170721,0.0060527280581333,0.007810668554157,0.0065031903795897,0.0061028604395687,0.160955373365432,-0.007037285635597,-9.810412813425064,14935.0
7.5,1.2999999523162842,39.0,23.24432182312012,-0.0079517737030982,-79.78281093534297,40.45899610841296,270.3240437231064,0.0053415596485137,-0.0062106978148221,-0.7124338746070862,0.7016914486885071,0.0031028618647784,0.0009231307632689,0.0061458266005974,0.0104566281661391,0.0045613967813551,0.0055607529357075,0.1592899949848652,0.011450227824971,-9.811292234659197,14935.0
7.6,1.399999976158142,39.0,23.241817474365234,0.0,-79.78281093432226,40.45899610669262,270.32469675159456,0.0053314547985792,-0.0062197591178119,-0.7124224901199341,0.7017030715942383,0.0007171814631544,0.0011457634031629,0.00688773158935,-0.0061682304367423,-0.0036373308394104,-0.0117962956428527,0.1597178649902343,0.0103953432978596,-9.810571857690812,14935.0
7.8,1.5,41.0,23.23931312561035,-0.0238553211092948,-79.78281078639081,40.458996106390416,270.3352377138138,0.0053413100540637,-0.0062335161492228,-0.7124064564704895,0.7017191648483276,0.0012305951326845,0.0049179418993129,0.0066100437476541,-0.0089214006438851,-0.0021011757198721,-0.0077355136163532,0.1613197097182274,-0.0043963484308915,-9.811258320808411,14935.0
7.9,1.600000023841858,40.0,23.24557304382324,0.0079517737030982,-79.78281066833341,40.45899609932332,270.34490129566194,0.0053300526924431,-0.006230620201677,-0.7124092578887941,0.701716423034668,0.0054023144461718,0.0037100536521278,0.0051448959148628,0.0087646450847387,0.0065900571644306,0.0058421669527888,0.1618813713267445,-0.006990324613871,-9.811402162313463,14935.0
8.11,1.7999999523162842,38.0,23.24557304382324,-0.0715659633278846,-79.78281065994675,40.45899609282412,270.34609446144106,0.0053153550252318,-0.0062401173636317,-0.7123898267745972,0.7017361521720886,0.0033255960419973,0.0036239753775126,0.0065819591288178,0.0064925043843686,0.0015167858218774,0.0074366200715303,0.158986341767013,0.0137574317702092,-9.8101648914814,14935.0
8.2,1.7999999523162842,35.0,23.249330520629893,-0.0795177370309829,-79.782810561972,40.45899610352944,270.3566183767319,0.0053142574615776,-0.0062474305741488,-0.7123993635177612,0.7017263770103455,-0.0003078451776115,-8.362073896052213e-06,0.0059520730461533,-0.0046884170733392,-0.0027249185368418,-0.0119761349633336,0.1592311025597155,0.0158951258473098,-9.810284174680714,14935.0
8.4,1.8999999761581416,32.0,23.25308609008789,-0.0874695107340812,-79.78281044841081,40.45899609636465,270.36795184230806,0.0053154611960053,-0.0062644560821354,-0.7124102711677551,0.7017151117324829,0.0022159907522986,0.0009961044068067,0.0052512562003268,-0.0084789115935564,-0.0044639301486313,-0.0038041076622903,0.1609847921691835,-0.0114646642806474,-9.811906192302702,14935.0
8.51,1.8999999761581416,32.0,23.25058174133301,-0.0954212844371795,-79.78281044743791,40.458996094293255,270.368517490387,0.0053041642531752,-0.0062781684100627,-0.7124001979827881,0.7017253041267395,0.0022948446122205,0.0009525473481454,0.0059440456226766,0.0036321254447102,0.0043148752301931,0.0079227034002542,0.1618628429621458,-0.0126447694434318,-9.811378773450851,14935.0
8.7,1.8999999761581416,32.0,23.249330520629893,-0.0795177370309829,-79.78281035665272,40.458996091746286,270.38009950733186,0.0052848407067358,-0.0062795737758278,-0.7124017477035522,0.7017238736152649,0.0019251776496721,-0.0011246354375053,0.0062651293936623,-0.0002913907519541,0.0016530528664588,0.0040034824050962,0.1583013952709734,0.0164639948343392,-9.8105215716362,14935.0
8.8,1.7999999523162842,28.0,23.24306869506836,-0.1033730581402778,-79.78281035808487,40.45899609053051,270.3807605228424,0.0052992589771747,-0.0062800492160022,-0.7124024033546448,0.7017231583595276,0.0009325281668502,-0.0010961699735958,0.0069596345089134,-0.0001910229620989,0.0010350025258958,-0.0024904140736907,0.1584790775366127,0.0107625712815206,-9.810114605426786,14935.0
9.0,1.7999999523162842,27.0,23.25058174133301,-0.0874695107340812,-79.78281023738259,40.45899610128843,270.39465913391115,0.0052993739955127,-0.0062854015268385,-0.712402880191803,0.7017226219177246,-0.0011015940295623,0.0029549552311798,0.0101104149958729,0.005665095988661,0.0004738476127386,0.0065438682213425,0.1597379647940397,-0.0020954513701144,-9.811024432182313,14935.0
9.1,1.7999999523162842,27.0,23.249330520629893,-0.0715659633278846,-79.782810233973,40.45899610333728,270.39571568584444,0.0053028985857963,-0.0062920623458921,-0.7123971581459045,0.7017283439636229,-0.003575224217115,0.0030495126287523,0.0109355352497282,-0.0047474917955696,-0.0013859189348295,-0.0088555458933115,0.1580053617060184,0.0072207608702592,-9.811053668260575,14935.0
9.21,1.7000000476837158,27.0,23.249330520629893,-0.0795177370309829,-79.78281015663603,40.4589960626529,270.4080643377304,0.005314901471138,-0.0062915431335568,-0.7124106884002686,0.7017144560813904,0.0045391881078767,-0.001773210564109,0.008616108876893,-0.0075889355503022,-0.0027230705600231,-0.0032763483468443,0.1612045561149716,-0.0055756907147588,-9.811702709197998,14935.0
9.4,1.7999999523162842,31.0,23.248077392578125,-0.0874695107340812,-79.78281006823397,40.45899605076938,270.42264840221407,0.0053210565820336,-0.0062940875068306,-0.7124121189117432,0.701712965965271,0.0071912664690713,-0.0040469949175814,0.0110478423860427,0.0092151882126927,0.0045576961711049,0.0071989060379564,0.160903351418674,-0.0117668454162776,-9.811934258937836,14935.0
9.6,1.7000000476837158,35.0,23.248077392578125,-0.0795177370309829,-79.7828100783402,40.45899604111667,270.42498955345155,0.005324110854417,-0.0063070878386497,-0.7124032974243164,0.7017217874526978,0.0049336336466791,-0.0040791321474059,0.0125141660329562,0.0056228199973702,0.0023261876776814,0.0055016512051224,0.1582077484577894,0.0164509356720373,-9.810979993343354,14935.0
9.71,1.600000023841858,34.0,23.246826171875,-0.0715659633278846,-79.7828099808347,40.4589960324924,270.43951723194124,0.0053370120003819,-0.0063054957427084,-0.7124014496803284,0.7017236351966858,0.0045778648709999,-0.002233217941457,0.0133028194499014,-0.000457317684777,0.00085885921726,-0.0050895209424197,0.1581427530013024,0.0163471692928578,-9.811286387443545,14935.0
9.91,1.600000023841858,36.0,23.24056434631348,-0.0874695107340812,-79.78280990910513,40.45899602728522,270.45421478366853,0.0053526456467807,-0.006300005596131,-0.7124158143997192,0.701708972454071,0.0016586003903312,-0.0043606143181105,0.0108200878329933,-1.5854486264288425e-05,-0.0009859129786491,-0.0016129568684846,0.1608805472776293,-0.010804179017432,-9.81196817278862,14935.0
10.0,1.7000000476837158,38.0,23.25308609008789,-0.0715659633278846,-79.78280991449118,40.458996026434974,270.4553299865723,0.0053514172323048,-0.006308143492788,-0.7123993635177612,0.7017256021499634,0.0002848766730593,-0.0043965555564777,0.0116017745547455,-0.0032686325721442,0.0002011493779718,-0.003961460199207,0.1594118180684745,-0.0049279008759185,-9.810682954788213,14935.0
10.2,1.7000000476837158,43.0,23.25058174133301,-0.0636141896247863,-79.78280982805462,40.45899600886922,270.46985790348054,0.0053689000196754,-0.0062944390811026,-0.7124133110046387,0.7017113566398621,0.002114366677677,-0.0019023586717723,0.0091017612040656,-0.0073566399514675,-0.0002355696487938,-0.0033173775300383,0.1590040295943618,0.0045042963686864,-9.8104946744442,14935.0
10.3,1.7000000476837158,45.0,23.24306869506836,-0.0954212844371795,-79.7828098307176,40.45899600694222,270.47079667663576,0.0053702015429735,-0.0062991217710077,-0.7124279737472534,0.7016964554786682,0.0023568321704263,-0.0022359092388094,0.0097458103518947,0.0053952555172145,0.0060557788237929,0.0063798539340496,0.1600709089078009,-0.0023395486408844,-9.810630329847337,14935.0
10.41,1.7000000476837158,53.0,23.23680877685547,-0.0874695107340812,-79.78280975031888,40.45899596043176,270.48520669555666,0.0053933709859848,-0.0062932698056101,-0.7124342918395996,0.7016899585723877,0.0091854071998331,-0.0005796279090284,0.0075502084569011,0.0057146130129694,0.004437263123691,0.0083012785762548,0.1578163687326014,0.0069395697541767,-9.810392932891846,14935.0
10.6,1.7000000476837158,55.0,23.25058174133301,-0.0715659633278846,-79.78280975135013,40.45899595337165,270.48599836444856,0.0053730541840195,-0.0062923859804868,-0.7124297022819519,0.7016947269439697,0.0065505615658823,-0.0005666596509179,0.0083269831637767,-0.003901228075847,-0.0025460920296609,-0.0094284573569893,0.1591168077662587,0.0117956760723609,-9.811266506910323,14935.0
10.8,1.7000000476837158,61.0,23.24306869506836,-0.1192766055464744,-79.78280968513484,40.458995925611575,270.50072691059114,0.0053469589911401,-0.0062636230140924,-0.7124243974685669,0.7017005681991577,0.0053881973375595,-1.0977240616030693e-05,0.0081890032054581,-0.0092295398935675,-4.36680784332566e-05,-0.0052032596431672,0.1613613894023001,-0.0071918765385635,-9.811701539754868,14935.0
10.9,1.7000000476837158,65.0,23.246826171875,-0.0874695107340812,-79.78280963706567,40.45899591140386,270.5151123723984,0.0053466237150132,-0.0062559521757066,-0.7124338746070862,0.7016909718513489,0.0047148017342671,-0.0023920858727374,0.0075919280329389,0.0096184853464365,0.0058710975572466,0.0026281168684363,0.1618183127604425,-0.006226269401377,-9.81089930176735,14935.0
11.1,1.7999999523162842,71.0,23.25559043884277,-0.0715659633278846,-79.78280964304128,40.45899590631207,270.5167777261734,0.0053685088641941,-0.0062768012285232,-0.7124148607254028,0.7017099857330322,0.002695032120087,-0.0025661382498362,0.009082445987459,0.0080274939537048,0.0021003554575145,0.0027064268942922,0.1589056684635579,0.0119073179201222,-9.81108758211136,14935.0
11.2,1.7999999523162842,74.0,23.254337310791016,-0.0715659633278846,-79.7828096073738,40.45899587618862,270.53064319705965,0.0053650778718292,-0.0062844147905707,-0.7124150395393372,0.7017098069190979,0.0037854958230049,-0.0051347879456564,0.0073408840644823,-0.0044104102998971,-5.186710495763691e-06,-0.0041002542711794,0.1585057371854782,0.0059477866196539,-9.810903979539871,14935.0
11.3,1.7999999523162842,75.0,23.25934600830078,-0.0954212844371795,-79.78280962029865,40.45899586952517,270.53224358177187,0.0053767580538988,-0.0062933694571256,-0.7124130129814148,0.7017115950584412,0.0024315159709653,-0.0054091477808756,0.0088110456285765,0.0016094341408461,-0.0004431005218066,0.0002505200682207,0.1592203034833073,0.0036728085984941,-9.809924570918083,14935.0
11.5,1.7999999523162842,79.0,23.249330520629893,-0.0874695107340812,-79.78280953454025,40.45899585508825,270.5462002477646,0.0053800893947482,-0.0062823719345033,-0.7124132513999939,0.7017114758491516,-0.0002695105169287,0.0019308993441575,0.0068236621989415,-0.0015464227180927,-0.0011096495436504,-0.0018540048040449,0.1588102857582271,0.0135173784429207,-9.810837321281433,14935.0
11.7,1.7999999523162842,85.0,23.24056434631348,-0.0954212844371795,-79.78280950292606,40.45899580946881,270.56075594043733,0.005374270491302,-0.0062979599460959,-0.7124161124229431,0.7017084360122681,0.0038113523773983,-0.0016131976658106,0.0068814477111834,-0.0084456065669655,-0.0047807744704186,-0.0055896663106977,0.1609811924770474,-0.0092134856834309,-9.810695818662644,14935.0
11.81,1.7999999523162842,86.0,23.24432182312012,-0.1033730581402778,-79.7828095051913,40.45899580585905,270.56147441482545,0.0053827152587473,-0.0063094436191022,-0.7124148607254028,0.7017096281051636,0.0040625083387089,-0.0018089821009026,0.0075632764713616,0.006334866862744,0.0065235802903771,0.0023225944023579,0.1612100744247436,-0.0011062115459935,-9.810595246553422,14935.0
12.0,1.7999999523162842,88.0,23.249330520629893,-0.0874695107340812,-79.78280949411742,40.458995770048,270.57498309230806,0.0054028579033911,-0.006308585871011,-0.7124196290969849,0.7017046809196472,0.0034591505474579,-0.0070877414066459,0.0049690195635688,0.0005926094599999,-0.0009054085821844,-0.0027187876403331,0.1598180533759296,-0.004490257340949,-9.810955435037611,14935.0
12.1,1.7999999523162842,90.0,23.24306869506836,-0.0715659633278846,-79.78280950269698,40.45899576736685,270.57550022220613,0.005394937004894,-0.0063019348308444,-0.712407112121582,0.7017173767089844,0.003191114878354,-0.0072515472177051,0.0056593558248916,0.0042410567402839,0.0014161365106701,0.0043843756429851,0.1612386526912451,-0.0090148636477533,-9.811576409339905,14935.0
12.3,1.7000000476837158,91.0,23.23931312561035,-0.0795177370309829,-79.78280946210374,40.45899574313013,270.58718463993074,0.0053831385448575,-0.0063260085880756,-0.7123987078666687,0.7017257809638977,-0.0001117042945796,-0.0040107840107836,0.0012415605230217,0.0089050354436039,0.0039808941073715,0.0052994741126894,0.1591606801562011,0.0103541021549608,-9.810431524515153,14935.0
12.4,1.7000000476837158,89.0,23.24557304382324,-0.0397588685154914,-79.78280945468471,40.45899571217629,270.6016087255478,0.0053793136030435,-0.0063188890926539,-0.7124002575874329,0.7017243504524231,-0.0013165770658958,-0.008945698060122,0.0029177972894808,-0.0025630996096879,0.0010296875843778,0.0020168868359178,0.1599826890416443,-0.0045332412282004,-9.810456082820895,14935.0
12.6,1.600000023841858,87.0,23.248077392578125,-0.0715659633278846,-79.78280947622324,40.45899571628955,270.60229274845125,0.0053735175170004,-0.0063251643441617,-0.7123764157295227,0.7017485499382019,-0.0027275549497551,-0.0092557207845378,0.0041875365793234,0.0042473333887755,0.0023607295006513,0.0060948953032493,0.1595285796560347,0.0122782289644237,-9.809496554732323,14935.0
12.71,1.600000023841858,88.0,23.249330520629893,-0.0795177370309829,-79.78280943387634,40.4589956722128,270.6158224067688,0.0053990553133189,-0.0063022309914231,-0.7123821973800659,0.7017427086830139,0.0001660043580981,-0.0055984485502238,0.0042815360797148,-0.0052888351492583,-0.0020178910344839,-0.0055484757758677,0.158268559500575,0.0133345136255957,-9.810515724420542,14935.0
12.9,1.600000023841858,90.0,23.241817474365234,-0.0954212844371795,-79.7828094029842,40.45899562706304,270.6281447134018,0.0053775548003613,-0.0062829577364027,-0.7123867869377136,0.7017382979393005,0.0028781886468006,-0.0031215243007406,3.020485962419009e-05,-0.0024375321809202,-0.0027642201166599,-0.0066775712184607,0.160824980456382,-0.0036551584582775,-9.811512089967726,14935.0
13.01,1.7000000476837158,92.0,23.23931312561035,-0.0874695107340812,-79.78280940682987,40.45899562446132,270.628181429863,0.0053845904767513,-0.0062754172831773,-0.7123799920082092,0.701745331287384,0.0027286487294636,-0.0032571351972461,0.0007825774894171,0.0016319473506882,-0.0003226765838917,0.0003622215881478,0.159268360286951,0.0078180482389871,-9.811150732040408,14935.0
13.2,1.600000023841858,94.0,23.24306869506836,-0.0874695107340812,-79.7828093931805,40.45899557585157,270.64224752998354,0.0053913537412881,-0.0062549207359552,-0.7123692631721497,0.7017562985420227,0.0035940837722146,-0.0056476367959869,0.0027920668560774,-0.0060050855390727,-0.0031936692539602,-0.0064412429928779,0.1609908038377762,-0.0085008185886545,-9.811278201341633,14935.0
13.3,1.600000023841858,95.0,23.24306869506836,-0.0795177370309829,-79.7828094000686,40.45899557267765,270.6425536594391,0.0053929635323584,-0.0062532722949981,-0.7123542428016663,0.7017714977264404,0.0038031024296798,-0.0058712752845423,0.003475484347845,0.005095699802041,0.0033095544204115,0.0055121816694736,0.1606953184492886,-0.008302301049116,-9.811261829137804,14935.0
13.5,1.600000023841858,98.0,23.23680877685547,-0.0874695107340812,-79.78280939383929,40.45899552516558,270.65471586799623,0.0054096463136374,-0.0062492894940078,-0.7123535275459291,0.7017722129821777,0.0049776714754462,-0.007465428559663,0.0004921432456747,0.0053276680409908,0.0008093556389212,0.0018706725677475,0.1598909425735473,0.0096890852996148,-9.811426720619204,14935.0
13.6,1.600000023841858,100.0,23.249330520629893,-0.0477106422185897,-79.78280940265498,40.45899552167766,270.65479108905794,0.0053928508423268,-0.0062457318417727,-0.7123400568962097,0.7017859816551208,0.0032335703080275,-0.0074020645376089,0.0012389847740419,-0.0037896756548434,-0.0025512296706438,0.00014358687622,0.1603121796436608,-0.0026091955031733,-9.810312241315842,14935.0
13.8,1.7000000476837158,102.0,23.234304428100582,-0.1351801604032516,-79.7828093605161,40.45899550660626,270.6689595899582,0.0053952541202306,-0.006257985252887,-0.7123388051986694,0.7017871141433716,-0.0014206913946372,-0.0029002752094761,0.0031895148047764,0.0025057524908334,0.0002458067028783,0.0077724698930978,0.1589114425890147,0.0104699798079673,-9.81056601047516,14935.0
13.9,1.600000023841858,104.0,23.241817474365234,-0.0795177370309829,-79.78280931072071,40.45899546764064,270.68280908679964,0.0054029240272939,-0.0062328134663403,-0.7123469114303589,0.7017790675163269,0.0008756879259119,0.0019525957598563,0.0037312931643155,-0.0070475582033395,-0.0028383985627442,-0.0075896522030234,0.1576314322650432,0.0127496515901293,-9.81180328130722,14935.0
14.1,1.600000023841858,106.0,23.24557304382324,-0.0795177370309829,-79.7828093064432,40.45899546649462,270.68371936893465,0.0054046032018959,-0.0062110731378197,-0.7123269438743591,0.7017995119094849,-0.000769916921818,0.0019575050706927,0.0052875126195529,-0.0039165462367236,-0.0014355625025928,-0.0039529539644718,0.1610778177157044,-0.0054528152465354,-9.811786909103397,14935.0
14.2,1.600000023841858,107.0,23.246826171875,-0.0795177370309829,-79.7828092909288,40.45899542176623,270.6975649318695,0.0054146815091371,-0.0062123769894242,-0.7123242020606995,0.7018022537231445,0.0029551202869347,-0.0020806325542168,0.0053781015495132,0.0013004570500925,0.003879744792357,-0.0012788586318492,0.1584384028427302,0.0101729344006162,-9.810363696813583,14935.0
14.41,1.600000023841858,109.0,23.23680877685547,0.2146978974342346,-79.78280928032187,40.45899537784997,270.7123106441498,0.0054072570055723,-0.006215760949999,-0.7123215198516846,0.7018049955368042,0.0039672159702981,-0.0045936487099737,0.0060322010863696,-0.0064385905861854,-0.000443664175691,-0.0061303814873099,0.1612605797499418,-0.0093076212872983,-9.811098107099532,14935.0
14.5,1.600000023841858,111.0,23.19173622131348,0.834936261177063,-79.78280928599567,40.45899537429925,270.7129423341751,0.0054084951989352,-0.0062132743187248,-0.7122514843940735,0.7018760442733765,0.0038505803059259,-0.0051452912367161,0.006788950246341,0.002734794979915,6.370774644892664e-05,-0.0029940102249383,0.1570479349605739,0.0001448813272872,-9.8133633184433,14935.0
14.6,1.600000023841858,113.0,23.22679328918457,0.2146978974342346,-79.78280924306728,40.45899532040392,270.7276426277161,0.0054014297202229,-0.0061885868199169,-0.7122910022735596,0.7018362879753113,0.0056713748666669,-0.0002143400476828,0.0070390816970761,0.0014498035889118,-0.0030715214088559,-0.0110517246648669,0.156063611023128,-0.0086459660099353,-9.81104197382927,14935.0
14.8,1.600000023841858,114.0,23.22804450988769,0.2306014448404312,-79.78280924355109,40.45899531451933,270.7283885202408,0.0053979475051164,-0.0062021594494581,-0.7123277187347412,0.7017989158630371,0.0073883547649988,-0.0006198643514542,0.0077652826816728,0.0074872402474284,0.0043610245920717,0.0139307789504528,0.1603789658099413,-0.0061336686916183,-9.809936265349393,14935.0
14.9,1.600000023841858,116.0,23.231800079345703,0.2067461162805557,-79.78280920645497,40.458995278130175,270.74229690647127,0.0054037827067077,-0.0062060910277068,-0.7122851610183716,0.7018419504165649,0.0067501717675819,0.0004676525206824,0.0062399303679613,-0.0006004507886245,-0.002900140825659,-0.0120059940963983,0.1554092527739704,-0.0014049602975137,-9.813854484558108,14935.0
15.11,1.600000023841858,118.0,23.22929763793945,0.2306014448404312,-79.78280920603648,40.458995267545646,270.7436896286011,0.0054206517525017,-0.0062344335019588,-0.7122941017150879,0.7018324732780457,0.0053455483289794,0.0008718534883634,0.0075660564972583,0.007397411391139,-0.0009953626431524,0.007332828361541,0.1670126502402127,-0.0200051017524674,-9.808666250109672,14935.0
15.3,1.7000000476837158,121.0,23.22554016113281,0.2624085247516632,-79.78280922564954,40.45899520623003,270.75631484603883,0.0054400423541665,-0.0062449513934552,-0.7123000621795654,0.701826274394989,0.0092247357331557,-0.0075296873442955,0.0040244372356214,0.0008319832850247,-0.0061596413142979,-0.0041285101324319,0.161556576769799,0.001706580123282,-9.808392015695572,14935.0
15.4,1.7000000476837158,122.0,23.21677589416504,0.3180709481239319,-79.7828092236039,40.45899518424668,270.7712309083939,0.0054523842409253,-0.0062587293796241,-0.7123516798019409,0.7017737030982971,0.0065839553437422,-0.0115560567993849,0.0049991677999833,0.0022473796270787,0.003398707602173,0.0102386157959699,0.1613636734709143,-0.0002055390519672,-9.813331743478775,14935.0
15.6,1.7999999523162842,129.0,21.898366928100582,17.95510482788086,-79.78280925099223,40.45899517515382,270.7723439655304,0.0054691997356712,-0.006251678802073,-0.7123802900314331,0.7017445564270021,0.0069167490682832,-0.0109400542174367,0.0074069320316746,0.0095329200848937,0.0022512469440698,0.0106214201077818,0.1583360400237143,0.0195174302626401,-9.807663452625276,14935.0
15.7,1.8999999761581416,129.0,23.17170333862305,1.2245731353759766,-79.78280923731548,40.45899515829981,270.7860312185288,0.0056256582029163,-0.006856229621917,-0.7125040292739868,0.7016119956970215,0.0009392945948882,-0.0091783174782475,0.0054631485842321,-0.0082691777497529,-0.0411278493702411,0.004429898224771,0.1995630582422018,0.0552842362783849,-9.787946056723596,14935.0
15.9,2.299999952316284,132.0,23.22929763793945,0.1510837078094482,-79.78280925714706,40.45899516539482,270.79793951129915,0.0056112930178642,-0.0070391031913459,-0.7124835848808289,0.7016311287879944,-0.008051505499247,-0.0151704837248733,-2.714433993995679e-05,-0.0167848691344261,-0.0401094518601894,0.0010986304841935,0.1439783116243779,-0.0199842116609215,-9.81293881058693,14935.0
16.0,2.5,130.0,22.6132869720459,8.492494583129883,-79.78280927718738,40.458995168363145,270.7979548892975,0.0055831759236753,-0.0071027521044015,-0.7124543190002441,0.7016603350639343,-0.0064700446900361,-0.0186367962061113,0.0031797812618826,-0.0177452322095632,0.0032801043707877,-0.0005693839048035,0.1908184558711946,-0.0159569053351879,-9.85936804175377,14935.0
16.2,2.700000047683716,137.0,23.22053337097168,0.2862638533115387,-79.78280918659912,40.45899512609208,270.80986377811433,0.0056428429670631,-0.0073115271516144,-0.7125218510627747,0.7015891075134277,0.001038507201778,-0.0003503695547714,-0.0013075676447863,-0.0152580877766013,0.0087696304544806,-0.0130313551053404,0.2013929078355432,-0.0080456271255388,-9.789434173107148,14935.0
16.3,2.5999999046325684,139.0,23.22679328918457,0.1510837078094482,-79.7828091881908,40.45899512567126,270.8097258529663,0.0056004715152084,-0.0073777111247181,-0.7124285697937012,0.7016835212707521,0.0020787741073559,-0.0007318424871068,-0.0003665388831132,0.028502931818366,0.0088842315599322,-0.0012722865212708,0.1676892644539475,0.0052464896184392,-9.812309650182724,14935.0
16.5,2.799999952316284,143.0,23.105342864990234,2.2105932235717773,-79.78280920429866,40.45899511015489,270.8238392791748,0.0055526322685182,-0.0074776955880224,-0.7124204635620117,0.7016910314559937,-0.0011713578368586,-0.0067634565525354,-0.0008450559907379,-0.007597554475069,-0.0320203863084316,0.0098232412710785,0.1786206341162324,0.0278939618286676,-9.814283670186995,14935.0
16.6,2.700000047683716,145.0,22.99766731262207,3.800947904586792,-79.78280921301561,40.45899511120373,270.8238522729874,0.0055594048462808,-0.0075099593959748,-0.7124083042144775,0.7017030715942383,-0.0004984306204429,-0.0077312838056957,0.0006698497017064,0.0040720356628298,-0.006409837398678,0.0094121033325791,0.1673601393029093,0.0358987886365503,-9.811833686828614,14935.0
16.8,2.700000047683716,147.0,22.90251159667969,5.470820426940918,-79.78280918055921,40.45899507359773,270.8393535337448,0.0056079076603055,-0.0074037532322108,-0.7125742435455322,0.7015352845191956,-0.0010827251226411,-0.0054194548672823,0.0037217017274898,-0.0146965775638818,0.0231115221977233,-0.0106437355279922,0.1716890888661146,-0.0216188419098034,-9.821963403224943,14935.0
16.9,2.700000047683716,147.0,22.83990859985352,6.671538352966309,-79.78280917747004,40.45899504280492,270.8549027166367,0.0057354411110281,-0.0074793896637856,-0.7126471996307373,0.7014593482017517,0.0014606765876078,-0.0088603849423304,0.0059990050748132,-0.053169522434473,0.0112848989665508,0.0009004056919366,0.1784511744976044,0.1467920922953635,-9.80914630651474,14935.0
17.1,2.700000047683716,148.0,22.69216728210449,9.120684623718262,-79.78280920102887,40.45899503600836,270.85613164520265,0.0059200031682848,-0.0074124243110418,-0.7128140330314636,0.7012889981269836,-0.0001084170329114,-0.011152705669853,0.0072130035929628,0.0043413401581346,-0.013686173595488,-0.0139139397069811,0.1730900086462498,0.1142626520432532,-9.796780614852906,14935.0
17.2,2.799999952316284,148.0,22.632068634033203,10.544052124023438,-79.78280913113342,40.45899498729822,270.87336632823946,0.0064349281601607,-0.0076970630325376,-0.7129381895065308,0.7011551856994629,0.014153042896823,-0.0025228535099567,0.0121530776231137,0.1002497598528862,0.0858130007982254,-0.0902750417590141,0.1186531618237495,-0.0852227113209664,-9.773320416212082,14935.0
17.4,2.5,150.0,22.461790084838867,13.319221496582031,-79.78280913398369,40.45899494041149,270.8890865764618,0.0076605384238064,-0.0080750370398163,-0.713080108165741,0.7009941935539246,0.0023599886006456,-0.0054183051062734,0.017555108589901,-0.0512739978730678,-0.026557745411992,-0.0493870191276073,0.2879598392173648,-0.0572025798261165,-9.872621340751648,14935.0
17.5,2.5,152.0,22.365381240844727,15.028852462768556,-79.78280914896472,40.45899493067128,270.8909394464493,0.0093046948313713,-0.0086491387337446,-0.7131367921829224,0.7009097933769226,0.0052683236983285,-0.0224940522609431,0.0165485669136452,0.0207624286413192,0.0308872815221548,-0.0067814895883202,0.1285968819446862,0.2153120402432978,-9.751533105969427,14935.0
17.7,2.5,153.0,22.21012687683105,17.891490936279297,-79.78280913455781,40.458994886519385,270.90779718971254,0.0119900479912757,-0.0086021432653069,-0.7129917144775391,0.7010172605514526,0.012597621505554,-0.0066222543925729,0.0142483500273468,0.0275838524103164,0.0982157588005066,0.006263060029596,0.2050181449949741,-0.0320802187733352,-9.82391988158226,14935.0
17.8,2.400000095367432,154.0,22.09619140625,19.712448120117188,-79.78280914134999,40.458994874636936,270.9095797262192,0.0134842377156019,-0.0070034326054155,-0.7121796607971191,0.7018328309059143,0.0145650109283564,-0.0143994974560019,0.0142513272538932,0.0986151844263076,-0.0037527498789131,-0.0125420298427343,0.1633460623025894,-0.1315760748647153,-9.73051528930664,14935.0
18.0,2.5,152.0,21.855796813964844,23.71219062805176,-79.78280915452045,40.45899486632454,270.9296457490921,0.0157124493271112,0.0011071793269366,-0.7110339999198914,0.7029812335968018,0.020034893428215,-0.0190475306007388,0.0832361590965054,0.1659092754125595,0.0023274878039956,-0.0299712345004081,0.3150498796999455,-0.0822228704206645,-10.031042293310168,14935.0
18.1,2.400000095367432,153.0,21.77316093444824,25.294591903686523,-79.78280918279002,40.45899484495685,270.94201323604585,0.01672974973917,0.0076528373174369,-0.7111268043518066,0.7028231024742126,0.0250125979206443,-0.0326221451623746,0.1777204251824912,0.1243441626429557,-0.0968396663665771,0.0743380263447761,-0.1789390515536069,-0.3639938886836172,-10.661193215847016,14935.0
18.3,2.5,154.0,22.001035690307614,20.99268341064453,-79.78280923071338,40.458994958216095,270.9914089164734,0.0035952909383922,0.0015834036748856,-0.7107591032981873,0.7034245729446411,-0.0017980055085649,-0.0301858043356955,0.3113616750395589,-0.3424047529697418,0.0534963496029377,0.0562841109931468,-0.0271330083813518,-0.2986389746144414,-10.940739240646362,14935.0
18.4,2.5,156.0,22.0423526763916,20.29292678833008,-79.7828092184821,40.45899461616192,271.0262583217621,-0.0068361135199666,-0.0069938064552843,-0.7112597227096558,0.7028613090515137,-0.0054529536289191,-0.0247589760820555,0.3054784684550162,-0.2045211642980576,-0.0043411268852651,-0.0285451468080282,0.1020919102057814,-0.1551801332831383,-10.19078354716301,14936.0
18.5,2.5999999046325684,156.0,22.04986572265625,20.110036849975582,-79.78280926312725,40.45899462535087,271.0912432394028,0.0024983175098896,-0.0027306810952723,-0.7110282778739929,0.7031537294387817,-0.0199961220389467,-0.0130716231587094,0.3163235493899851,0.1283503770828247,0.0533427819609642,-0.0269224438816308,0.0836676443181932,0.0592819958925247,-10.082385524511338,14936.0
18.7,2.700000047683716,158.0,21.984758377075195,20.8256950378418,-79.78280910672571,40.45899475437769,271.11608991241457,0.0041735270060598,-0.0011856040218845,-0.7111345529556274,0.7030425667762756,-0.0608181074480166,0.0001183917562522,0.2609347320702702,-0.0225005596876144,-0.0585238523781299,0.0562441833317279,0.1257641069591045,-0.2894358957186341,-9.702938650846482,14936.0
18.9,2.799999952316284,158.0,21.88083839416504,22.46376037597656,-79.78280925991228,40.4589948197824,271.1671980342865,0.0007009999244473,0.0031165217515081,-0.7130808234214783,0.7010746002197266,-0.0774503209723041,-0.0055899089817919,0.229088602771486,-0.0166959185153245,0.0297646075487136,0.0352539494633674,0.0021425020415335,-0.1056448611617088,-9.812141250371932,14936.0
19.0,2.900000095367432,160.0,21.89085388183593,22.44785690307617,-79.78280925933605,40.45899489658272,271.19011363601686,0.0021585125941783,0.0043442253954708,-0.7143296599388123,0.6997925639152527,-0.090155593585005,0.0017602699745315,0.2352999743262074,0.0894383490085601,0.0388987027108669,0.0576326474547386,0.0610167551413178,-0.1738256614655256,-9.861177170276642,14936.0
19.2,2.799999952316284,158.0,21.89085388183593,22.288822174072266,-79.78280949015897,40.45899515421017,271.26963529205324,0.0086032869294285,0.0023324864450842,-0.7150884866714478,0.6989771127700806,-0.1231051627967939,-0.0153277073174498,0.2981040638638849,0.0674073174595832,0.0004796789144165,-0.108431652188301,-0.0104546936787664,-0.3694961551576853,-9.859661571979524,14936.0
19.3,2.900000095367432,161.0,21.959716796875,20.921117782592773,-79.78280950932157,40.45899526369433,271.3015244922638,0.0118639254942536,0.0043190247379243,-0.7135853767395021,0.7004545331001282,-0.1262912088648621,-0.0107955848276823,0.3298677758551369,0.0893136039376258,0.0038144944701343,-0.02588352560997,0.2473270077444613,-0.0934000789560377,-10.127461709976195,14936.0
19.5,2.799999952316284,163.0,21.918399810791016,21.30280303955078,-79.78280936664105,40.458995510402296,271.3845108470917,0.0141113949939608,0.0046489019878208,-0.7103082537651062,0.7037339806556702,-0.1222392690034163,0.0187401061937321,0.343663536137933,0.0743750780820846,-0.0304872430860996,-0.0332092307507991,0.2400588455982506,-0.3011603305488825,-10.052239619493484,14936.0
19.6,2.900000095367432,163.0,21.92716407775879,21.23123550415039,-79.78280934756067,40.458995616337326,271.419606300354,0.0157084930688142,0.0047959433868527,-0.7092891931533813,0.7047263383865356,-0.1243316514753547,0.0269077888928434,0.3533349102538706,-0.010709686204791,0.0258678812533617,-0.0445019640028476,0.255203371681273,-0.2676442366093397,-9.910500773191451,14936.0
19.8,3.0,163.0,21.915895462036133,21.50954818725586,-79.78280948985821,40.45899593750315,271.51517209625246,0.0167521852999925,0.0051571256481111,-0.7092759013175964,0.7047131061553955,-0.1531267310528758,0.0121208963243102,0.3660418624198848,-0.0264085903763771,-0.0177303813397884,0.0187232755124568,0.2041484082117677,-0.2877521168813109,-9.88265750169754,14936.0
19.9,3.0,165.0,22.69091415405273,8.961648941040039,-79.78280934476277,40.458996078484894,271.57553872680666,0.0160113517194986,0.0057336590252816,-0.710351288318634,0.7036418318748474,-0.138873055898704,0.0415212165546768,0.3775389866878502,0.022411847487092,-0.0402821339666843,0.0661563277244567,0.1281288854219019,-0.3106641025096178,-9.70683932840824,14936.0
20.1,3.0,169.0,21.736852645874023,23.9825496673584,-79.78280925787158,40.45899631035389,271.6275421104432,0.0159467011690139,0.0039310874417424,-0.7115486860275269,0.702444851398468,-0.141127048649445,0.0392789759312755,0.1401509917960597,-0.0883697718381881,-0.0208090674132108,0.0883299633860588,0.1937595139816403,-0.3459567998349667,-8.764045971035959,14936.0
20.21,2.900000095367432,170.0,21.685518264770508,24.89700508117676,-79.78280920330887,40.458996537258855,271.6802390537262,0.0134723084047436,-0.0006314011407084,-0.7120457887649536,0.702003538608551,-0.1467460390086438,0.0452143238513409,0.1867099066751295,-0.0613460540771484,-0.0421020872890949,0.0813812986016273,0.1054895079508424,-0.3357705847173929,-9.618644020557404,14936.0
20.4,2.900000095367432,176.0,21.5352725982666,27.38591003417969,-79.78280897054292,40.45899668933023,271.7666061840057,0.0161329824477434,-0.0045674438588321,-0.7133357524871826,0.7006218433380127,-0.1265375949180981,0.072645865432995,0.4045552801210045,0.0212713573127985,0.0531303137540817,0.0255515947937965,0.2193127965554595,-0.2716982025839388,-10.251320940256118,14936.0
20.5,2.799999952316284,177.0,21.395042419433597,30.21674156188965,-79.78280889250219,40.458996798782174,271.8140567264557,0.0181490797549486,-0.0042760246433317,-0.7134022116661072,0.7005066871643066,-0.1352946472754863,0.0801868788497375,0.54490682300459,0.0313425660133361,-0.0739443749189376,0.0617250278592109,0.2640570611692965,-0.3643411767482757,-11.13029895544052,14936.0
20.6,2.799999952316284,177.0,21.43635940551757,29.83505630493164,-79.78280881484936,40.45899690932806,271.87787136650087,0.0177725441753864,0.0003588133258745,-0.7133363485336304,0.7005963921546936,-0.1360316692681015,0.0810938921865329,0.7256727979655929,0.1071221232414245,-0.156283289194107,0.1528065651655197,0.2255475546978414,-0.4655946327745914,-11.496501885652542,14936.0
20.8,2.900000095367432,178.0,21.37876510620117,30.47914886474609,-79.78280878805762,40.45899720069357,272.0624884090424,0.0171430073678493,0.0069600958377122,-0.7124708890914917,0.7014577388763428,-0.1472024581912244,0.0630808852611244,1.0872319737387133,-0.0038539739325642,0.0082338228821754,0.0373147167265415,0.134005775693804,-0.2969680231064558,-11.753446083068848,14937.0
20.9,2.799999952316284,180.0,21.38627815246582,29.48517799377441,-79.78280867799619,40.45899729687015,272.19001540756227,0.0189889222383499,0.0036303773522377,-0.7119775414466858,0.7019361853599548,-0.1511632543155286,0.055848522427611,1.2686233840286163,0.0253675561398267,0.11819988489151,-0.060292761772871,0.2233635831065476,-0.2206311609596014,-11.819717255830763,14937.0
21.11,2.799999952316284,178.0,21.2134952545166,33.38949966430664,-79.78280860712289,40.45899748958725,272.484571548462,0.0174269657582044,-0.0012203365331515,-0.7111443281173706,0.7028290033340454,-0.1431889767282845,0.0697253991975379,1.671519133109001,0.1054792031645774,-0.1029740869998932,-0.0559004992246627,0.2376427030004561,-0.3420121950656176,-11.810763999223711,14937.0
21.2,2.700000047683716,181.0,21.202226638793945,32.41143035888672,-79.78280845929352,40.45899765490713,272.86961540794374,0.0131328711286187,0.0116059081628918,-0.7067057490348816,0.7072904706001282,-0.1607364115622888,0.0713457479976374,2.1148989682797223,-0.1050110980868339,-0.0862311497330665,-0.1173607483506202,0.2257492105476558,-0.1971727347560227,-12.027164772748948,14937.0
21.41,2.5999999046325684,180.0,21.189706802368164,33.35769271850586,-79.78280829779159,40.458997703728926,273.1084695777893,0.0105584701523184,0.0106410309672355,-0.7045072913169861,0.709538459777832,-0.147486106022636,0.0655656831535587,2.317191721835328,-0.0243272334337234,-0.0048328065313398,-0.0932104960083961,0.1562759380415082,-0.2071392772905528,-11.931972101926805,14938.0
21.5,2.5,186.0,21.18219375610352,32.26034545898437,-79.78280821732645,40.45899774994954,273.350393863678,0.012411274947226,0.0101353898644447,-0.7039002776145935,0.7101181149482727,-0.1193480196035928,0.0770206486753773,2.5179944571940105,-0.0090753873810172,0.0552995949983596,0.0358398295938968,0.1893558845110237,-0.0510688688792288,-11.860893348455429,14938.0
21.7,2.5,185.0,21.342456817626957,29.64421272277832,-79.78280788995198,40.45899779569189,273.9419318161011,0.0229795798659324,0.0050093620084226,-0.7088570594787598,0.7049600481987,-0.0818545485465511,0.101131477043604,2.948579451663928,-0.0439607203006744,0.2276270687580109,0.086405262351036,0.0683341252617538,-0.0730472094845026,-11.866614264249804,14938.0
21.8,2.5999999046325684,179.0,21.358732223510746,29.532888412475582,-79.78280781306371,40.45899774700912,274.2450390777588,0.0263837799429893,-0.0036733350716531,-0.7128357887268066,0.7008249759674072,-0.0500955142652664,0.1307254500832428,3.1041424056808844,-0.1533454358577728,0.1343707591295242,0.0420237779617309,0.1337295038904994,-0.0148978489567525,-11.412093819379807,14939.0
22.01,2.5,171.0,21.64545249938965,24.51531982421875,-79.78280754328068,40.45899755075848,274.9453211746216,0.0173957683145999,-0.0054660695604979,-0.7172331213951111,0.6965947151184082,0.0734550549657059,0.1711505034574666,3.3427266578002324,-0.0756889656186103,-0.1764102280139923,0.0084637813270092,0.2510920481756329,0.1007491336762905,-10.79760174036026,14939.0
22.2,2.5,129.0,21.61164665222168,24.91290855407715,-79.78280702008989,40.45899701700974,275.7468281707764,0.0002541347930673,-0.0060668690130114,-0.7180081605911255,0.6960082650184631,0.1883023637153978,0.0724396413119876,3.473298833089221,-0.0060378252528607,-0.0307366382330656,0.002437425777316,0.0458660986181348,0.0335347684845328,-10.416397193670274,14940.0
22.3,2.5,65.0,21.606639862060547,24.36423492431641,-79.78280701139015,40.458996827552966,276.0947791061401,-0.0014652459649369,-0.0075272819958627,-0.7179225087165833,0.6960808038711548,0.2324907529159863,0.0429807546216682,3.4837017573355533,-0.0793665125966072,0.0411782003939151,-0.0733835399150848,0.1110825159028172,0.3906438530981541,-9.99579059958458,14941.0
22.4,2.5,10.0,21.76439666748047,21.692440032958984,-79.78280653383534,40.45899663905326,276.50923976516725,-0.0016715341480448,-0.0094352113083004,-0.7174073457717896,0.6965880393981934,0.2580748236290626,0.0644331315593494,3.5134159170468484,-0.0228071641176939,-0.0362019799649715,0.0238483119755983,0.1734919681772589,0.122978438604623,-9.925564370155335,14941.0
22.6,2.5999999046325684,6.0,21.829504013061523,20.984731674194336,-79.78280644485847,40.458996206393095,277.21119794464107,0.0012889675563201,-0.005819282028824,-0.7150515913963318,0.6990463137626648,0.2938590552966697,0.0870917714951122,3.4956231615467632,-0.0652385801076889,0.0033402245026081,0.0137962866574525,0.1516817989759147,0.2391981537267566,-9.628893020153049,14942.0
22.8,2.799999952316284,356.0,21.654216766357425,23.37821578979492,-79.78280592126255,40.45899608705655,277.9460717163086,-0.0089491205289959,-0.0315157547593116,-0.7140644788742065,0.6993129849433899,0.3324771913198803,0.1355325960093745,3.3169234705870845,-0.1410272866487503,0.2554628551006317,0.0064159329049289,0.1644569601863622,0.079108679909259,-9.062425292730332,14942.0
22.9,3.0,357.0,21.69803810119629,22.52737617492676,-79.78280562070087,40.45899648349719,278.2129040679932,-0.0047346423380076,-0.037976898252964,-0.7135336399078369,0.6995749473571777,0.3580802297211045,0.1866122957037283,3.1483376085889905,0.0685728713870048,0.1019655764102935,-0.101126492023468,0.4583211715891958,0.6139404673129321,-8.783864523768425,14943.0
23.0,3.2000000476837163,4.0,21.84703254699707,19.784013748168945,-79.7828055445698,40.45899632734852,278.5245343170166,-0.0010698628611862,-0.0388087145984172,-0.7117869853973389,0.7013217210769653,0.349079792723985,0.199923649405809,3.0409942566610457,0.1030283644795417,0.0347945876419544,-0.0745699927210807,0.2848419576510787,0.5222086903452874,-8.744774717688559,14943.0
23.2,3.299999952316284,7.0,21.56782531738281,24.642547607421875,-79.7828047064568,40.45899518518816,279.2023659667969,-0.0074511743150651,-0.0381269678473472,-0.7109860181808472,0.7021323442459106,0.3600112400827584,0.1745556521623501,2.8579756662588363,-0.069173939526081,-0.085361436009407,-0.0336762219667434,0.1343687416054308,0.3130570755153895,-8.784555664658546,14944.0
23.3,3.5,12.0,21.511484146118164,25.62856674194336,-79.78280469375504,40.45899501261385,279.4868117294312,-0.0121365264058113,-0.0359442830085754,-0.712211012840271,0.7009395956993103,0.3597749503330799,0.1301335370414504,2.7987654147583934,-0.0178001392632722,-0.1783846765756607,0.0222876947373151,0.0953977436386048,0.4352653444558382,-9.112628901600836,14944.0
23.5,3.5,10.0,21.57283401489257,24.348331451416016,-79.78280425154591,40.45899436011472,280.1678257904053,-0.0103301210328936,-0.0182574801146984,-0.7150558233261108,0.6987525820732117,0.3678263205894377,0.056992690330084,2.814997177246432,0.1695254743099212,-0.1040344089269638,0.0626183748245239,0.1034205803275108,0.27118637021631,-9.586967314481736,14945.0
23.7,3.5,7.0,21.654216766357425,23.250986099243164,-79.782804187456,40.45899406299774,280.76824102020265,-0.0155535023659467,-0.0201962795108556,-0.7166882157325745,0.6969277858734131,0.2778770081536757,0.0111140118499353,2.7901935851898623,-0.2161596715450287,0.0020065119024366,-0.0015221636276692,-0.0578890977613627,0.1896806425228715,-9.667256017327311,14945.0
23.8,3.5999999046325684,5.0,21.604135513305664,24.03026008605957,-79.78280419854008,40.45899391015771,281.0436764678955,-0.0231959819793701,-0.0280005373060703,-0.7170246243476868,0.6960988640785217,0.3009733931263149,0.0139124728766117,2.700525916208725,-0.141911581158638,-0.0417893528938293,0.0344533994793891,0.0158991732168942,0.2397663934528828,-9.03695014357567,14946.0
23.9,3.5999999046325684,357.0,21.566574096679688,25.09579849243164,-79.78280424691984,40.45899392086464,281.3258477172852,-0.0250720735639333,-0.0308397226035594,-0.7167803049087524,0.6961654424667358,0.3395809027136104,0.0163248427484638,2.6252171541471885,0.0387840792536735,0.0589540675282478,-0.0398414134979248,0.2065489460527897,0.342534936144948,-8.873235706686973,14946.0
24.1,3.700000047683716,357.0,21.214746475219727,30.69384765625,-79.78280421816154,40.45899373523664,281.82901486969,-0.0176685061305761,-0.0258446466177702,-0.7161714434623718,0.6972219347953796,0.2456027390933565,0.0603382029340088,2.385677986863651,0.21351458132267,0.0461458973586559,0.0408335477113723,0.2794564527645707,0.3464706239104271,-8.750780977606771,14946.0
24.3,3.700000047683716,356.0,21.21099090576172,30.28830718994141,-79.78280422081714,40.458993580385865,282.3107071838379,0.0079036662355065,-0.0164630375802516,-0.7130908966064453,0.7008337378501892,0.1420194256824546,0.0956043496401122,2.360410658307821,0.1333187222480774,0.1247450187802314,-0.1453724354505539,0.1989912736415863,0.2241019402630627,-9.123057410717012,14947.0
24.41,3.799999952316284,355.0,21.14087677001953,32.109264373779304,-79.78280435049305,40.458993452421325,282.56407651519777,0.0141257680952548,-0.0184376779943704,-0.7134611010551453,0.7003098130226135,0.1183967817636631,0.1341759115396772,2.446584078556375,-0.0534404031932354,0.091519571840763,-0.015493500046432,0.3799296344071627,0.2718869762867689,-10.020748854875563,14947.0
24.5,3.900000095367432,350.0,21.281105041503903,29.413612365722656,-79.7828043020753,40.45899335698547,282.811864944458,0.0149487573653459,-0.025349048897624,-0.714687168598175,0.6988248825073242,0.136157736468347,0.1557654056044459,2.5034238624791567,-0.1729124337434768,0.0710947513580322,-0.1601346880197525,0.5020371850579978,0.5287420036643744,-10.295486129522326,14947.0
24.71,4.0,348.0,21.16216087341309,31.695770263671875,-79.7828044870008,40.45899349601444,283.2884674987793,-0.0015966532519087,-0.0378306247293949,-0.7130982875823975,0.7000408768653871,0.1957796597276181,0.1366789101559368,2.565547791231963,-0.2180220335721969,-0.0554049685597419,0.0344204381108284,0.4086859486252069,0.4683668708056212,-10.29348404288292,14948.0
24.8,4.099999904632568,341.0,21.16967391967773,30.43143844604492,-79.78280450137012,40.458993397695615,283.54909143066413,-0.0099007310345768,-0.0411464534699916,-0.7112585306167603,0.701655387878418,0.2530460683958244,0.1204383803284803,2.632568899060606,-0.0990708395838737,-0.0475173443555831,0.048495378345251,0.3627378702163697,0.3881056864187122,-10.407232267856598,14948.0
25.0,4.099999904632568,338.0,21.173429489135746,30.821075439453125,-79.7828047086732,40.45899331800319,284.029038520813,-0.0156067004427313,-0.0387178994715213,-0.7079534530639648,0.7050243616104126,0.2815261303630649,0.0832233056997191,2.7444311934051355,0.0693879425525665,-0.0489880554378032,-0.0817110612988472,0.3957757715508342,0.4942407635226846,-10.581871057748796,14949.0
25.1,4.099999904632568,332.0,21.19095802307129,30.685895919799805,-79.7828047428228,40.45899328273212,284.30827912902834,-0.014257026836276,-0.0365959256887435,-0.7069920897483826,0.7061300873756409,0.2254945646115122,0.0624479865781058,2.8133911307687445,-0.0498034209012985,0.0141474278643727,0.0075521664693951,0.2778520864248276,0.3786441240459681,-10.515185902118684,14949.0
25.3,4.199999809265137,328.0,21.29237365722656,28.538917541503903,-79.78280483473075,40.458993460030015,284.82300958251955,-0.0101604051887989,-0.035642497241497,-0.7067747712135315,0.7064671516418457,0.1771724130141371,0.0728364547996258,2.8840008112616107,0.0904354304075241,0.0085777686908841,0.0496797189116478,0.3886309856548905,0.4604980168864131,-10.2655483853817,14949.0
25.4,4.400000095367432,327.0,21.232275009155277,29.37385368347168,-79.78280500942881,40.45899373396717,285.0483609161377,-0.0091632213443517,-0.0319507904350757,-0.7073881030082703,0.7060434818267822,0.1386642508536065,0.0538743184329248,2.85181444919065,0.0841543450951576,0.0496840439736843,0.0746691599488258,0.3510569605976344,0.5045867172628642,-10.007886149883271,14950.0
25.6,4.300000190734863,329.0,21.125850677490234,31.520832061767567,-79.78280511028807,40.45899383125863,285.62233361816413,-0.0068896375596523,-0.0299512632191181,-0.7095391154289246,0.7039955258369446,0.0851887324564142,0.0375041273370051,2.8853614449375296,-0.0088487425819039,0.0727993920445442,0.0667121112346649,0.2642229393683374,0.3085659753531217,-9.983870465755462,14950.0
25.7,4.400000095367432,334.0,21.229772567749023,29.42156410217285,-79.78280532568793,40.45899428222638,285.82117852783205,-0.0068642115220427,-0.0322193466126918,-0.7107222676277161,0.7027009725570679,0.0592393351404969,0.0262278028507542,2.85064218320464,0.0070814560167491,0.0654325932264328,0.1027525067329406,0.3693931710720063,0.3841003436967731,-10.08691945552826,14950.0
25.9,4.400000095367432,336.0,21.268585205078125,29.23072052001953,-79.78280570043061,40.45899478348235,286.30787286376955,-0.0040920781902968,-0.0308368075639009,-0.7131871581077576,0.7002831697463989,0.0458273998234484,-0.0044651205595855,2.7997201271058687,-0.0202398858964443,-0.04122956097126,0.0161981508135795,0.2915346258692443,0.5038445594161749,-9.791601151227953,14951.0
26.1,4.400000095367432,339.0,21.183446884155277,30.240596771240234,-79.78280597293319,40.458994975952,286.867248626709,-0.0135198161005973,-0.0306822173297405,-0.7149355411529541,0.698386013507843,0.0393488244532931,-0.0342328101988903,2.8172055029179845,-0.0760221183300018,-0.0036021275445818,-0.0153646264225244,0.2409839299321175,0.6047817541658879,-9.806510966420174,14951.0
26.2,4.300000190734863,340.0,21.27985382080078,27.823257446289062,-79.78280649846229,40.45899500398206,287.0747223815918,-0.0184372290968894,-0.0303268246352672,-0.7156498432159424,0.6975569128990173,0.0695315801519574,-0.0797272360622071,2.7661281998013942,0.0620473250746727,-0.1135336309671402,0.0985849648714065,0.271748506911099,0.4655310808494688,-9.85564453482628,14952.0
26.3,4.300000190734863,341.0,21.21975517272949,28.66614532470703,-79.78280665680866,40.45899510486343,287.35041055297853,-0.0210852567106485,-0.0264836307615041,-0.7165600657463074,0.6967035531997681,0.0749014199026831,-0.0771769208504869,2.7476340839976032,-0.0071552419103682,-0.1363417506217956,-0.0151806129142642,0.3473935338109732,0.4803470482304693,-9.608696152567864,14952.0
26.5,4.5,342.0,21.16090965270996,29.77144241333008,-79.78280721528431,40.45899536024343,287.8643303833008,-0.0159451104700565,-0.0166654791682958,-0.7181206941604614,0.6955362558364868,0.0447094285633844,-0.1032801844981085,2.7213072280047435,0.0409343168139457,0.0219045113772153,0.1147002354264259,0.1848058371059596,0.3840135856345296,-9.76291997373104,14952.0
26.7,4.599999904632568,344.0,21.19721794128418,29.453371047973643,-79.78280757233591,40.45899551764813,288.40213975524904,-0.0090117715299129,-0.0246268436312675,-0.7183346152305603,0.6952033638954163,0.060024633570127,-0.0335310083923911,2.6772414792183388,-0.0168691258877515,0.1636844426393509,0.0778036713600158,0.3464564809575677,0.5152911418676377,-9.468649490475656,14953.0
26.8,4.699999809265137,346.0,21.341203689575195,26.43964767456055,-79.78280763735094,40.45899557483976,288.66968927001955,-0.0099012274295091,-0.0310871582478284,-0.7190312147140503,0.6942116022109985,0.0721707070516331,0.0082838459611173,2.6674939256095875,-0.043165598064661,0.091177336871624,0.1101015582680702,0.4084989839047194,0.5674094945937396,-9.677757031917572,14953.0
26.9,4.900000095367432,346.0,21.258569717407227,28.53096389770508,-79.78280778098505,40.45899579423104,288.9352723083496,-0.0104853883385658,-0.034411821514368,-0.7210575938224792,0.6919406652450562,0.1009519189192142,0.0547165145589566,2.6589242014736145,0.0141649702563881,0.120062880218029,-0.0141993639990687,0.5282413723692299,0.7824839003384114,-9.522646188139916,14953.0
27.1,4.900000095367432,348.0,21.256065368652344,28.093616485595703,-79.78280777492438,40.4589958991124,289.46706018066413,-0.009641739539802,-0.0426128767430782,-0.7217064499855042,0.6908190846443176,0.1258666314334954,0.1454805145606107,2.6656706223094737,0.0492144562304019,-0.0065726060420274,-0.0095412656664848,0.6361927042901516,0.7264267169684172,-9.793061785697937,14954.0
27.2,5.0,348.0,21.20347785949707,29.206865310668945,-79.78280774341175,40.45899600030293,289.7259083709717,-0.0076773278415203,-0.0439749769866466,-0.7203565239906311,0.6921659708023071,0.1401808083842532,0.1423654429051872,2.6746310893238108,0.0456580072641372,0.1643230766057968,0.0539170429110527,0.4743693665787578,0.5387465165555477,-9.780931152105332,14954.0
27.4,4.900000095367432,348.0,21.14338111877441,30.08951187133789,-79.78280774583088,40.45899625956055,290.2514573059082,-0.0009595334413461,-0.0497753955423832,-0.7155979871749878,0.6967359781265259,0.0850351980365747,0.1624529155161095,2.6935473481413603,-0.0923223420977592,0.0317531749606132,-0.1064613386988639,0.3679099882766605,0.4320750305056572,-9.853721970319748,14955.0
27.5,4.900000095367432,353.0,21.026939392089844,31.91046905517578,-79.7828077780912,40.458996361776855,290.5229245147705,-0.003303354838863,-0.0503503195941448,-0.7131849527359009,0.6991574764251709,0.05644320578399,0.1475279821535322,2.7406446322466964,-0.1231535598635673,-0.0779018700122833,0.0159268379211425,0.3276407257094979,0.3364335127919912,-10.167758381366731,14955.0
27.71,5.0,354.0,21.13211250305176,29.98613929748535,-79.78280790447414,40.45899648341668,291.0776444396973,-0.009840914979577,-0.0262890849262476,-0.713621973991394,0.6999684572219849,0.1048309004258664,0.0906793284528218,2.9183405800319533,0.3215402364730835,-0.2612094283103943,0.0842064544558525,0.3091091816872358,0.6741749746352435,-10.730614868402482,14956.0
27.91,4.900000095367432,355.0,21.229772567749023,28.30036354064941,-79.78280805440993,40.458996941541145,291.6490612945557,-0.0057311472482979,-0.0088482080027461,-0.7220358848571777,0.6917752623558044,-0.0266628861925345,-0.0288942460081759,3.0930320113256484,0.0199849046766758,0.1882511973381042,0.0921754911541938,0.1801655415818096,0.7068223185092211,-10.90149039030075,14956.0
28.0,4.900000095367432,359.0,21.49270248413086,23.64062309265137,-79.78280808623035,40.45899705431784,291.9635106048584,-0.0042415652424097,-0.0239060074090957,-0.7235161662101746,0.68988037109375,-0.0713566290314224,-0.0144191443761504,3.198835830170008,-0.3707022666931152,0.2632077634334564,0.0325057506561279,0.2238276327587664,0.2054492857865989,-10.769350333213806,14956.0
28.1,4.300000190734863,351.0,21.48268699645996,23.91893577575684,-79.78280812682816,40.458997186001135,292.2833615264893,-0.005614492110908,-0.0453098453581333,-0.72174072265625,0.6906561851501465,-0.038105442682946,0.0412350552664286,3.179578960400263,-0.3034279942512512,0.20965176820755,-0.0681027695536613,0.3074342102184892,0.2310823280364275,-9.783377042412758,14957.0
28.3,4.099999904632568,0.0,21.301137924194336,26.58278083801269,-79.78280815224923,40.45899740183525,292.87409410095216,-0.0047036237083375,-0.0413452573120594,-0.7160849571228027,0.6967717409133911,0.0098390934461783,0.1049897042017811,3.0080073270727854,0.3439503610134125,-0.1683340072631836,-0.0537302866578102,0.3418511773645878,0.1557406437210738,-9.182837589383126,14957.0
28.4,3.799999952316284,3.0,21.17718505859375,28.451446533203125,-79.78280837773355,40.45899761992164,293.1601315460205,0.0011021164245903,-0.0207280926406383,-0.7144778370857239,0.699350118637085,-0.0687111299416365,0.0445259633005912,2.9775537992158787,0.4015958309173584,-0.2019465267658233,-0.0500202663242816,0.2592671500146389,0.2994088519178331,-9.509219811558724,14958.0
28.6,3.5999999046325684,7.0,21.37375831604004,25.60471153259277,-79.7828086255993,40.45899805756759,293.75923738098146,0.0075970320031046,0.0146477920934557,-0.7148409485816956,0.6990924477577211,-0.2474257455841874,-0.0929043989104774,3.042206984469524,0.0173862688243389,-0.0262111704796552,-0.0428953766822814,0.0587658192263916,0.2397341972216964,-10.254052759408951,14958.0
28.8,3.5,8.0,21.30364227294922,26.67820167541504,-79.78280881073702,40.4589982848695,294.35940942382814,-0.0021987627260386,0.0003379884292371,-0.713771402835846,0.7003753185272217,-0.1792651932195852,-0.1215866085813658,3.0041605553736903,-0.2652460336685181,0.1099858358502388,-0.0364318862557411,0.0217186694126576,0.2076892444677651,-9.95578511953354,14959.0
28.9,3.299999952316284,9.0,21.17718505859375,28.66614532470703,-79.78280902457824,40.45899844912686,294.6635590515137,-0.0010142795508727,-0.0108742658048868,-0.7122417688369751,0.7018492817878723,-0.0971106779337468,-0.1076269310594635,2.96987931088888,-0.0731988251209259,0.1529958546161651,-0.0392306447029113,0.1404872589278966,0.2043213030695915,-9.514296364188192,14959.0
29.0,3.400000095367432,14.0,21.189706802368164,28.18903923034668,-79.78280915494841,40.45899853419475,294.9613533935547,0.0064454274252057,-0.0153108863160014,-0.7117284536361694,0.7022583484649658,-0.0281813323447408,-0.0704330537463255,2.993975065934916,0.1800697147846222,0.015183450654149,0.0863849222660064,0.0870831400249153,0.2990311583317816,-9.920296028852462,14959.0
29.2,3.299999952316284,17.0,21.431352615356445,24.141586303710927,-79.78280955026406,40.45899849588933,295.5576611480713,-0.0091332560405135,-0.0138283558189868,-0.7128453850746155,0.70112544298172,0.0024416651091004,-0.0729739804004015,3.0460515013651217,-0.2215462028980255,-0.2249054312705993,-0.0153279723599553,-0.1069084170553833,0.5178015708178282,-9.90559028148651,14960.0
29.4,3.0999999046325684,29.0,21.4138240814209,24.435800552368164,-79.7828098834887,40.45899855610645,296.1577473602295,-0.0260053630918264,0.0026025488041341,-0.7163664698600769,0.6972346305847168,0.1052108766306906,-0.2189894041377309,2.959872288480257,-0.0699917003512382,-0.1818056404590606,0.0764592587947845,-0.2228561178781092,0.5886134719848634,-9.60359562635422,14961.0
29.5,3.0999999046325684,26.0,21.40756225585937,24.594837188720703,-79.78281007321138,40.45899855771837,296.45044526672365,-0.0317093543708324,0.0012008161284029,-0.7184721231460571,0.6948316097259521,0.0993025072533479,-0.2630795849356187,2.880071083198494,-0.0887808054685592,0.0275822635740041,-0.0241280235350132,-0.2490708849951625,0.3435115673393011,-9.086219367384912,14961.0
29.6,3.299999952316284,24.0,21.26482963562012,26.87699508666992,-79.78281023832109,40.458998551665495,296.7359772644043,-0.0282593853771686,-0.0018799443496391,-0.7211949229240417,0.6921530961990356,0.1441189820229705,-0.2501580269448982,2.815621631886461,0.1130099520087242,0.0752797871828079,0.0734677910804748,-0.0558834479749202,0.3095366496965289,-9.1995518553257,14961.0
29.81,3.400000095367432,25.0,21.262325286865234,27.3063907623291,-79.78281068034616,40.45899854749589,297.32446870422365,-0.0201081037521362,-0.0045112911611795,-0.7237738966941833,0.6897293925285339,0.1245969489730037,-0.1288878577631543,2.8172002578086177,0.0503260344266891,-0.0260953102260828,-0.1122437417507171,0.0698695629788562,0.2781421083211899,-9.456523534655572,14962.0
29.9,3.900000095367432,27.0,21.178438186645508,28.90469741821289,-79.78281092389645,40.45899860585336,297.609737487793,-0.0174433477222919,-0.0073935026302933,-0.7220872640609741,0.6915425062179565,0.0852893208759707,-0.106612246615022,2.793052156685764,0.0051537947729229,0.1156328096985817,-0.1591096222400665,-0.0444573627552017,0.3879385656863451,-9.190011538267138,14962.0
30.11,4.0,32.0,21.09705352783203,29.071685791015625,-79.78281107686135,40.458998631470365,298.1564217529297,-0.0018688213312998,-0.0107520669698715,-0.7164732217788696,0.6975293159484863,0.0757012157336383,-0.0680935856009321,2.689555275965424,0.1271685361862182,0.0215680655092,0.0452177785336971,-0.0709799126861617,0.221374926790595,-9.374687658548355,14963.0
30.3,4.199999809265137,36.0,21.19596672058105,27.632413864135746,-79.78281141655317,40.45899859032169,298.6979123077393,-0.0020082527771592,-0.0005372005398385,-0.7136882543563843,0.7004604339599609,0.0503138143835425,-0.0813621708218601,2.6554035302790475,-0.0030465808231383,0.0299685802310705,-0.0529151894152164,0.0883393960352987,0.1575665647163987,-9.363182677030563,14963.0
30.4,4.099999904632568,40.0,21.17092514038086,28.53096389770508,-79.7828115380084,40.45899856537591,298.9742527923584,-0.0009496555430814,-0.008313538506627,-0.7147573828697205,0.6993224620819092,0.041624731129032,-0.1334306936700345,2.7027438858005484,-0.2482241094112396,0.0838059335947036,0.0661774054169654,-0.3574148574471474,0.0884656684845686,-9.762429977059362,14963.0
30.51,4.400000095367432,44.0,21.02443504333496,31.79914474487305,-79.78281170240786,40.45899854328064,299.245328994751,-0.007859512232244,-0.0205450877547264,-0.7172983288764954,0.6964189410209656,0.0543648343043837,-0.1260061818531881,2.723922343105496,-0.2699748873710632,-0.0169741790741682,0.1589777767658233,-0.26740548748523,0.2063848951086402,-10.005254902839662,14964.0
30.7,4.400000095367432,49.0,21.202226638793945,27.902774810791016,-79.78281199261399,40.45899840685125,299.8049984893799,-0.0313159339129924,0.0039297160692512,-0.7180880308151245,0.6952362656593323,0.1625023418194702,-0.1582554254654309,2.9338889748303045,0.1863778233528136,-0.4935673177242279,-0.0710265040397644,-0.3904711409658193,0.1533078913763165,-10.7153173828125,14964.0
30.9,4.599999904632568,53.0,21.13211250305176,28.284460067749023,-79.78281248310545,40.45899849350286,300.36927995300294,-0.0283615216612815,0.0262485276907682,-0.7177749276161194,0.6952020525932312,0.0677149746484922,-0.3443399615431323,2.9435913515252285,0.2106146067380905,0.0507927313446998,0.0447673201560974,-0.5554552641883492,0.0150571947195567,-10.339445496797564,14965.0
31.01,4.699999809265137,56.0,21.165916442871094,28.149280548095703,-79.78281260886746,40.458998501426905,300.66712579345705,-0.0161900203675031,0.0249903239309787,-0.7181722521781921,0.6952280998229979,0.0106447862946608,-0.3192800210516783,2.975134832253418,0.057550873607397,0.1781424582004547,0.1235509738326072,-0.4077554007992149,-0.2092978500388563,-10.019570056200028,14965.0
31.1,4.900000095367432,53.0,21.188453674316406,27.84711265563965,-79.78281270736494,40.45899850261048,300.9663525543213,-0.0125218741595745,0.0156352557241916,-0.7193095088005066,0.6944009065628052,-0.0217910840430717,-0.2374538949585332,2.9686300127876644,-0.1198932603001594,0.1094408854842186,0.0002811989979818,-0.2444519135355949,0.0492726270714774,-9.68447372853756,14965.0
31.31,5.0,57.0,21.21099090576172,27.083742141723643,-79.78281276243118,40.45899845543094,301.50539407348634,-0.0219703186303377,0.0069065010175108,-0.7225400805473328,0.6909453868865967,0.0960738403019994,-0.1709198023349216,2.9233836551328234,0.086185835301876,-0.0428700484335422,0.1012979075312614,-0.3053236211836338,0.2425088472291828,-9.9518066740036,14966.0
31.4,5.199999809265137,61.0,21.205982208251957,26.9167537689209,-79.7828129627658,40.458998495544726,301.77129754638673,-0.0254536159336566,0.0075096013024449,-0.722787082195282,0.6905611157417297,0.1084981510640307,-0.2046110762186286,2.9111724245154686,-0.0044398684985935,0.0394016541540622,-0.0225462038069963,-0.3848743688687682,0.2506765304133296,-9.903105214834213,14966.0
31.6,5.300000190734863,61.0,21.302391052246094,25.30254554748535,-79.78281318032474,40.4589984467726,302.35536965942384,-0.0234962310642004,0.0073571535758674,-0.7198809981346129,0.6936607360839844,0.0999491852758928,-0.2347699164840948,2.900477755484283,-0.0504478998482227,-0.0422857999801635,0.0376405790448188,-0.6391943724453449,0.1402047927305102,-9.645835327506068,14967.0
31.7,5.400000095367432,64.0,21.173429489135746,27.131452560424805,-79.78281319771159,40.45899844467383,302.61699685668947,-0.0273924879729747,0.0072995875962078,-0.7185755968093872,0.6948709487915039,0.0981398493218669,-0.2220693977801198,2.8469948740567554,-0.0417575649917125,-0.0542123951017856,-0.0077691976912319,-0.3230562893673778,0.3613015016913414,-9.591180818080902,14967.0
31.91,5.5,63.0,21.113330841064453,28.56277275085449,-79.78281336539129,40.45899829791888,303.1777840576172,-0.038214337080717,0.0218604411929845,-0.7193398475646973,0.6932619214057922,0.1349698193221291,-0.2563595871554201,2.812939791489413,-0.0485468730330467,-0.2205835133790969,0.1040918007493019,-0.5519554863497615,0.1932924676313996,-9.615792333483697,14968.0
32.0,5.599999904632568,65.0,21.039459228515625,29.69192314147949,-79.78281345034351,40.458998247403045,303.4599572143555,-0.0423928275704383,0.0213752891868352,-0.7219810485839844,0.6902821660041809,0.1298771071643643,-0.2982296583696379,2.799633371723101,-0.0919796228408813,0.0771918222308158,0.0290587712079286,-0.6551158290356398,0.403365420922637,-9.705690935254095,14968.0
32.2,5.599999904632568,65.0,21.113330841064453,27.7039794921875,-79.78281375457743,40.458998195418616,304.025020690918,-0.0351892970502376,0.0060316426679492,-0.7261263728141785,0.6866337060928345,0.1524158891394405,-0.2786529166521331,2.8510479058008684,-0.0458266027271747,0.1353697925806045,0.0681759789586067,-0.6248097833991051,0.2251580935902893,-9.831713050603868,14969.0
32.3,5.699999809265138,66.0,21.07827377319336,29.49312973022461,-79.7828138169238,40.45899817378819,304.3110314331055,-0.0326573736965656,0.0035163287539035,-0.7270980477333069,0.6857475638389587,0.1353605080445963,-0.2083293598188453,2.830950250034048,0.0186987668275833,0.0296605005860328,-0.0184175483882427,-0.2672309480980038,0.2141821571812033,-9.647242752313613,14969.0
32.5,5.599999904632568,67.0,20.851652145385746,32.84082794189453,-79.78281404262316,40.458998130111866,304.8669777832032,-0.0338006243109703,0.0235215630382299,-0.7255738973617554,0.6869111657142639,0.088184494943832,-0.1801669154085058,2.789154466158128,0.1799992322921753,-0.0806276351213455,-0.0601635314524173,-0.4193679345399141,0.0531397333927452,-9.674987205863,14969.0
32.6,5.300000190734863,69.0,20.93804359436035,31.50492858886719,-79.78281404737129,40.458998123081,305.4370423278809,-0.0192632284015417,0.0235284622758626,-0.7171555757522583,0.6962494850158691,-0.0182721046416646,-0.1247125498149594,2.9433384845208552,0.0436205491423606,0.1773638427257537,-0.1791812181472778,-0.277023992780596,-0.0912771742232144,-10.217885391712189,14970.0
32.8,5.199999809265137,71.0,20.841636657714844,31.958179473876957,-79.78281390235537,40.45899814487783,305.7358513793945,-0.0133770061656832,0.0184505954384803,-0.7119170427322388,0.70189368724823,-0.0473792755739373,-0.0340459857086313,3.0397047231740486,-0.0858312249183654,0.0943536832928657,-0.0856488794088363,-0.0504097186541184,-0.0752870905073359,-10.759903571605683,14970.0
32.9,4.900000095367432,69.0,21.129608154296875,27.640365600585927,-79.78281382367125,40.45899826793365,306.03204736328127,-0.0130940629169344,0.0100861089304089,-0.7076612114906311,0.7063586115837097,-0.0718080227184923,0.0367544611576033,3.1613024230855293,-0.0176579393446445,0.1261739134788513,-0.06147500872612,-0.0270344965020194,-0.1252418866474181,-11.043421025276183,14971.0
33.1,4.699999809265137,67.0,21.32617950439453,24.28471755981445,-79.78281335002492,40.458998348030526,306.684013458252,-0.0079183336347341,0.0016320209251716,-0.7055337429046631,0.7086302042007446,0.012494728527694,0.1643090219670621,3.3491884156832463,0.1321024596691131,-0.0272535942494869,0.1199758872389793,0.103597641326487,0.1676681231148541,-10.672953135967257,14971.0
33.2,4.300000190734863,61.0,21.244796752929688,25.652421951293945,-79.78281319084994,40.458998491552784,306.9938584289551,-0.0063848607242107,0.0042253960855305,-0.7095385193824768,0.704625129699707,0.009062798745825,0.2126151588548475,3.3581649861823406,0.0340194404125213,-0.0188195165246725,0.0517797917127609,0.1728830172121525,0.4029550194740296,-10.159948840141295,14971.0
33.4,4.099999904632568,56.0,21.34496116638184,24.252910614013672,-79.7828126338482,40.45899875158227,307.6251603088379,0.005624777637422,-0.0066484147682785,-0.7172104716300964,0.6968022584915161,-0.0275823084146373,0.2219026994739136,3.292087107586072,-0.0961436629295349,0.2784446179866791,0.0720068290829658,0.0447532181628048,0.0748984470963478,-9.681795703768731,14972.0
33.5,3.700000047683716,51.0,21.37876510620117,23.15556526184082,-79.78281234694681,40.458998755282494,307.9519196472168,0.0120932860299944,-0.0221996139734983,-0.718837559223175,0.6947183609008789,-0.005373861417139,0.3013352395698998,3.242832107078564,-0.2044870853424072,0.1932904720306396,0.0136805605143308,0.1090595894213765,0.2458087599277496,-9.453880008459093,14972.0
33.7,3.5999999046325684,58.0,21.26608085632324,25.07194328308105,-79.78281181924075,40.45899895660533,308.5475693664551,0.0240458659827709,-0.0364337936043739,-0.7201493978500366,0.6924444437026978,0.0531601688910684,0.3609210981361523,3.098433945923143,-0.0101420152932405,0.0270656589418649,-0.0272435322403907,0.1050761646218598,0.2724903906695545,-9.451756299734116,14973.0
33.81,3.400000095367432,52.0,21.451385498046875,21.930992126464844,-79.78281168626854,40.45899896125804,308.8582039794922,0.0125792808830738,-0.0359134338796138,-0.7212182283401489,0.6916619539260864,0.03787711834329,0.3552395750225153,3.0746679695274306,-0.1904131323099136,-0.273009181022644,-0.0295801665633916,0.1713993593305349,0.2090100756660104,-9.489160353541372,14973.0
34.01,3.400000095367432,47.0,21.38627815246582,22.92496490478516,-79.78281135746333,40.45899902234337,309.4822579345703,-0.0206634141504764,-0.025833673775196,-0.7220370173454285,0.6910631656646729,0.1507876687479243,0.1299266701600522,3.0325967673537497,0.1717455685138702,-0.1892440021038055,0.0218448545783758,-0.1971785819716752,0.4688391431048513,-9.452267346382142,14974.0
34.2,3.5999999046325684,41.0,21.40631103515625,22.43195343017578,-79.78281119329877,40.458998894587616,310.10956582641603,-0.0035553718917071,-0.0023648599162697,-0.7217811346054077,0.6921082139015198,0.0948211673170668,-0.0194128756377557,3.007252910512769,0.1842058449983596,-0.0085968263447284,0.0577566102147102,-0.2975440834835172,0.4486408868059516,-9.28831609725952,14975.0
34.3,3.700000047683716,34.0,21.456392288208008,21.85147476196289,-79.78281123186449,40.45899889411072,310.41023263549806,0.0042402809485793,0.0014179158024489,-0.7218260765075684,0.692060112953186,0.0511061089981994,-0.0494844065881363,2.9956042010739417,0.040639579296112,0.1062952503561973,-0.0064220735803246,-0.1382506167143583,0.3178505863621831,-9.623152223825455,14975.0
34.4,3.900000095367432,27.0,21.48894691467285,21.946895599365234,-79.78281127486456,40.45899880416278,310.7288437805176,0.001907990546897,-0.0055234767496585,-0.7220137715339661,0.6918540596961975,0.0275249661924024,-0.0419118325571895,2.9961341734836964,-0.296358585357666,0.0383430309593677,0.0266873836517334,-0.2451874749921262,0.3017220287024975,-9.39875421345234,14975.0
34.6,4.0,25.0,21.463905334472656,22.535327911376957,-79.78281144119966,40.4589986506475,311.3152352294922,-0.0255456119775772,-0.0234069507569074,-0.7218034863471985,0.6912302374839783,0.2218296783993608,-0.0495108678136027,2.8554415876245693,-0.1334741413593292,-0.2059543877840042,0.0505109578371048,-0.1870173088833689,0.7274317071586848,-9.118069735765458,14976.0
34.7,4.199999809265137,33.0,21.433856964111328,22.344484329223643,-79.78281138260559,40.45899861829431,311.62048348999025,-0.0310287270694971,-0.0179275535047054,-0.7218840718269348,0.6910856366157532,0.3581431579867526,-0.0779678950205002,2.8530455937962045,0.1054140329360962,-0.1377166807651519,0.0300766546279192,-0.2301706557534635,0.7675993743538857,-9.34230460882187,14976.0
34.9,4.400000095367432,32.0,21.55154800415039,20.777984619140625,-79.78281162678131,40.45899836716632,312.1969262084961,-0.0367794893682003,-0.0212835408747196,-0.7212259769439697,0.6913952827453613,0.3733344625461888,-0.1266516960266846,2.7691026418192486,-0.071476362645626,0.0875939652323722,-0.0889022052288055,-0.1789270647615194,0.8073778362572194,-9.047852277159691,14977.0
35.1,4.699999809265137,35.0,21.417579650878903,22.88520622253418,-79.78281180148342,40.458998075034046,312.73437890625,-0.0369867011904716,-0.0319754555821418,-0.717931866645813,0.6943942904472351,0.3929480906330504,-0.1111200424688561,2.568694873019719,0.0565105229616165,0.1141504123806953,0.0642281994223594,-0.3063592361658812,0.7746472426503898,-8.794970725178718,14977.0
35.2,4.800000190734863,33.0,21.448881149291992,22.47171401977539,-79.78281194468141,40.4589979067222,312.9986649475098,-0.0351006500422954,-0.0361101664602756,-0.7172762751579285,0.6949667930603027,0.4091817600240307,-0.0762166578231099,2.51393966569195,0.0369608663022518,0.0601002722978591,-0.0019285469315946,-0.1072418271191418,0.791264517903328,-8.90722264766693,14977.0
35.3,5.099999904632568,28.0,21.41883087158203,22.89315795898437,-79.7828120268307,40.45899776827589,313.24924859619136,-0.0319559760391712,-0.0366043485701084,-0.7174499034881592,0.694913387298584,0.3928489995245318,-0.0620335642262881,2.4423268437408536,-0.0224627032876014,0.0205928981304168,0.0240283161401748,-0.0642927125282585,0.9383962512016296,-9.026359666585922,14978.0
35.5,5.199999809265137,27.0,21.670494079589844,18.48787498474121,-79.78281220579719,40.458997448519625,313.7426720581055,-0.0350178107619285,-0.0376980602741241,-0.7195044159889221,0.6925793290138245,0.3540702035811785,-0.0449176408391703,2.3379762271552424,-0.1194916889071464,-0.1640532612800598,0.048624962568283,-0.1578152541071176,0.7185549759864808,-8.880158225297928,14978.0
35.6,5.199999809265137,23.0,21.67174530029297,18.519681930541992,-79.78281228624361,40.45899733870375,313.9726334533692,-0.0411880649626255,-0.0377893634140491,-0.719966471195221,0.6917541027069092,0.3439977853057275,-0.0444885205308651,2.2116150882442183,-0.1075517833232879,-0.094813197851181,-0.0252190269529819,0.05677020563744,0.8028775998204947,-8.630561054348947,14978.0
35.8,5.199999809265137,21.0,21.644201278686523,18.615102767944336,-79.78281237070708,40.45899708337903,314.4125901184082,-0.0416350960731506,-0.0388438403606414,-0.7178969383239746,0.6938167214393616,0.3143409799044188,-0.0557714267124516,1.9584905565431392,-0.0440955758094787,0.0743474885821342,-0.1071888357400894,-0.0208286318276077,0.8610734023153782,-8.348487862944603,14979.0
36.0,5.199999809265137,16.0,21.70805549621582,17.891490936279297,-79.78281250777538,40.4589969103871,314.78791055297853,-0.0362265668809413,-0.0436397567391395,-0.7130240201950073,0.6988418698310852,0.2590504152889824,-0.0267756487546876,1.7213987924811045,-0.0009572780691087,0.0686282217502594,-0.0196786150336265,0.0574341706791892,0.6604499515146017,-8.411637207269669,14979.0
36.1,5.199999809265137,14.0,21.884593963623047,15.25150203704834,-79.7828125577419,40.45899686715469,314.9555550537109,-0.0336417704820632,-0.0470636710524559,-0.7112151384353638,0.7005900144577026,0.2247758117222766,-0.0305789468800192,1.6021754553769745,-0.0277077388018369,0.1450706422328949,-0.1263738870620727,-0.0075289479643106,0.8123742089420557,-8.530124600529671,14979.0
36.2,5.300000190734863,13.0,21.905879974365234,13.971266746520994,-79.78281269746891,40.45899676575856,315.1092263183594,-0.0341454669833183,-0.0485818833112716,-0.7104885578155518,0.7011989951133728,0.2065674363404173,-0.0442704423884927,1.4697927635048509,0.0569429695606231,-0.0845657661557197,-0.0018677341286093,-0.1273976362869143,0.7939460510015488,-8.26073869764805,14980.0
36.4,5.400000095367432,12.0,21.95345687866211,13.42259407043457,-79.78281291379648,40.45899669365283,315.3554535827637,-0.0476146563887596,-0.0407388918101787,-0.7130629420280457,0.6982940435409546,0.1430731523881763,-0.0963245179181781,1.11629917975008,-0.0936472043395042,-0.1022388339042663,-0.1329913437366485,-0.0737810624577105,0.6786453171819449,-7.867231609225272,14980.0
36.6,5.400000095367432,13.0,21.634183883666992,19.17172622680664,-79.78281323908342,40.45899671364746,315.5390015563965,-0.0562977381050586,-0.032952781766653,-0.7166913151741028,0.6943329572677612,0.0544802444983762,-0.1847610532335194,0.7218496209735624,0.009063764475286,-0.0415871664881706,0.011233277618885,-0.4952803253754974,0.6522889926284552,-7.726813648939133,14980.0
36.7,5.400000095367432,12.0,21.85204124450684,15.23559856414795,-79.78281337345781,40.458996731355455,315.5817261657715,-0.0541457533836364,-0.0278331600129604,-0.7184371352195741,0.6929225921630859,0.0313125172496615,-0.1877631148750032,0.6355404199610892,0.1255698949098587,0.0227357149124145,0.0463856570422649,-0.4493213930726052,0.8636643035709859,-8.602938222885133,14980.0
36.8,5.5,12.0,21.775665283203125,16.802099227905273,-79.78281353927652,40.45899679681385,315.6415825805664,-0.0532206781208515,-0.0225372556596994,-0.7193222641944885,0.6922681927680969,-0.0255238580075938,-0.1574071123693919,0.5514722432104345,-0.0381331406533718,-0.1088696867227554,-0.0333108007907867,-0.4005838273465633,0.7811919580399991,-8.78422061920166,14980.0
37.0,5.599999904632568,12.0,21.72933959960937,18.122093200683597,-79.78281372400996,40.45899693801083,315.71406564331056,-0.0600777715444564,-0.010865768417716,-0.7181490659713745,0.6932059526443481,-0.0882632005914554,-0.0867731855730453,0.3888201812825925,-0.0497053265571594,-0.1546131521463394,-0.0155009934678673,-0.3274852994084358,0.6629042471945286,-8.978871504664422,14980.0
37.1,5.699999809265138,13.0,21.67424964904785,18.60715103149414,-79.78281376682324,40.45899705447404,315.74841317749025,-0.0592060573399066,-0.0061314278282225,-0.7168472409248352,0.6946849822998047,-0.1036981164298909,-0.0441818666679275,0.3217482435220153,0.010461994446814,0.1355591118335724,-0.1308362931013107,-0.1311213442124426,0.8332149280607701,-9.103552268743517,14980.0
37.31,5.699999809265138,13.0,21.473920822143555,22.11388397216797,-79.78281397400949,40.458997460859926,315.76502618408205,-0.0468340888619422,-0.0172804612666368,-0.7161892056465149,0.6961185336112976,-0.1620465229594725,-0.0121925485692943,0.3161225128372346,0.097722552716732,0.1762710213661193,0.0867339745163917,-0.6387659177184105,0.4317912943661213,-9.778305752277372,14980.0
37.4,5.800000190734862,17.0,21.56782531738281,20.300878524780277,-79.78281426259214,40.45899796381747,315.7891465148926,-0.036708652973175,-0.0257295947521924,-0.7134328484535217,0.6992882490158081,-0.2115534929363088,0.0242912086532317,0.4049303805808889,0.097637303173542,-0.1983459144830704,-0.0346730723977088,-0.0671499727293849,0.8532318475842476,-10.069360266923905,14980.0
37.6,5.800000190734862,19.0,22.2714786529541,10.305499076843262,-79.7828142055411,40.4589981840147,315.8340645751953,-0.0316987261176109,-0.005785341374576,-0.7133014798164368,0.7001162171363831,-0.1981993754744512,0.0201217588974829,0.5226742928234118,0.6045465469360352,-0.0763601660728454,-0.051678866147995,-0.417780342400074,0.9059265895932912,-10.60642702460289,14980.0
37.7,6.0,24.0,21.885847091674805,14.337048530578612,-79.78281436664933,40.45899811392857,315.913505645752,-0.0066190031357109,0.0205164533108472,-0.7083224654197693,0.7055597305297852,-0.1548884441572451,0.0121373980201092,0.5299890088789964,0.6629303097724915,0.0243069138377904,-0.3147771954536438,-0.2662339247390628,0.3574489540234208,-9.904073513746262,14980.0
37.91,6.099999904632568,17.0,21.8282527923584,15.672945976257324,-79.78281457157131,40.45899838106782,315.9767571411133,-0.0031211671885102,0.0207776576280593,-0.6824167966842651,0.7306613326072693,-0.111846381364099,0.042212772109762,0.5610222403033202,-0.7044630646705627,0.1350214183330536,-0.4386455118656158,-0.0150446940120309,0.272115236967802,-9.919587346315383,14980.0
38.1,6.099999904632568,20.0,21.74686813354492,17.517757415771484,-79.7828144168929,40.45899842012472,316.0666466674805,-0.0255052410066127,-0.0327102094888687,-0.6452875137329102,0.7628130316734314,0.0532831722553567,0.041294216862942,0.3144627160230443,-0.3033599853515625,0.2338449954986572,-0.6007619500160217,-0.1591554176621139,0.898887492120266,-8.918561568260193,14981.0
38.2,6.199999809265138,20.0,21.64545249938965,19.561363220214844,-79.78281482496186,40.45899900695584,316.0878830871582,-0.0262119174003601,-0.0426430478692054,-0.6258292198181152,0.7783523797988892,0.0395122679734715,0.0404408236080338,0.218717508297895,0.0018921003211289,-0.0350473076105117,-0.3804701268672943,0.2552721495553851,0.956440173983574,-8.705047565102577,14981.0
38.3,6.199999809265138,21.0,21.600378036499023,25.22302627563477,-79.78281478311233,40.45899897175374,316.10624322509767,-0.0245835166424512,-0.0278939306735992,-0.6136516928672789,0.788701057434082,0.0571649078979453,0.020468270036911,0.1497249890890115,0.2914419174194336,-0.3763623535633087,-0.1244487687945366,-0.4052225697040558,0.9000757925212384,-8.800295199751854,14981.0
38.5,6.199999809265138,17.0,21.882089614868164,16.038728713989258,-79.78281456892749,40.45899884311232,316.12361154174806,-0.0414017178118228,0.0007761771557852,-0.5947597026824951,0.8028364777565002,0.0798170483612311,0.0593960137556937,0.296676524641386,-0.2014042884111404,-0.3374645411968231,-0.1994702965021133,0.0162150964513421,0.6653371274471284,-10.416182016134265,14981.0
38.6,6.4000000953674325,19.0,21.55906105041504,21.024490356445312,-79.78281444265394,40.4589987946397,316.15439614868166,-0.0611254051327705,0.0087553262710571,-0.5893046259880066,0.8055477142333984,0.1068717859493435,0.088474769572321,0.3324390201738642,-0.0648600682616233,-0.3281503021717071,-0.1515922844409942,-0.532251794859767,0.7362771557271481,-10.193523552417757,14981.0
38.8,6.5,19.0,21.832008361816406,15.593428611755373,-79.78281402664929,40.4589987404615,316.12785348510744,-0.1068713665008544,0.0336603596806526,-0.5850403308868408,0.803226888179779,0.1774813650038371,0.3265396683098642,0.4491819135087885,0.1919496953487396,-0.8235498070716858,0.0928823873400688,-0.0527141109108924,1.1533068618178368,-10.384995306730271,14981.0
38.9,6.599999904632568,4.0,21.67800521850586,19.291004180908203,-79.78281417421591,40.458999076105314,316.05689630126955,-0.1269426494836807,0.0550469234585762,-0.5884803533554077,0.7965841293334961,0.1830305887581824,0.4449780137027831,0.4761560726724198,0.1113583147525787,-0.4290089905261993,-0.0273750629276037,-0.4471258001402021,1.1446597069501878,-10.064936263561249,14981.0
39.1,6.5,356.0,21.461400985717773,22.78183174133301,-79.7828123572723,40.45899920714234,316.1235199890137,-0.1528237760066986,0.0602890066802501,-0.5936094522476196,0.7878057956695557,0.2126396751047122,0.87405460538304,0.5625015042293302,-0.1073167771100998,-0.0245341453701257,0.2178883552551269,-0.3265369175747037,1.071861798986793,-9.677668154239656,14981.0
39.2,6.599999904632568,356.0,21.34370803833008,24.626644134521484,-79.78281135588571,40.458999744162405,316.07164392089845,-0.1540813595056533,0.0536393374204635,-0.5982332825660706,0.7845372557640076,0.1929762428728806,1.1029317079325152,0.5872828136079518,-0.0819024071097374,0.0243381578475236,0.15592822432518,-0.4791278672218323,1.1298003239929677,-9.678470392227174,14981.0
39.41,6.699999809265138,357.0,21.71932411193848,18.02667236328125,-79.78280809092105,40.45900073191297,316.0548821411133,-0.1457232236862182,0.034961063414812,-0.6075357794761658,0.7800275087356567,0.1511341135762109,1.5546798293705295,0.7491346543610591,0.0044057518243789,0.3032461404800415,-0.0590113624930381,-0.5185381372645498,1.3274015682935716,-10.36884763598442,14981.0
39.51,6.800000190734862,358.0,21.75062561035156,17.032699584960938,-79.78280597968214,40.45900107019983,316.0812989196777,-0.1463853418827057,0.0302015598863363,-0.6088016629219055,0.7791147828102112,0.1395463702858237,1.799357622466128,0.7442082166330414,-0.074674017727375,0.1172595247626304,0.0213468242436647,-0.4054427173733711,1.2939899933338166,-9.91668244957924,14981.0
39.7,6.9000000953674325,0.0,21.54654121398925,21.28689956665039,-79.7828012379899,40.45900245279914,316.04957971191413,-0.1684029549360275,0.0389589369297027,-0.6031094193458557,0.7787051796913147,0.0799144220539789,2.2342245272692147,0.7386337380933512,-0.0253357626497745,-0.2270402014255524,0.0254719667136669,-0.7037871750444175,1.1907250951230526,-9.380792736411095,14981.0
39.8,7.099999904632568,1.0,21.68802261352539,18.010766983032227,-79.78279839464227,40.45900297593183,316.0550576171875,-0.174237459897995,0.0435613952577114,-0.6000754237174988,0.7795211672782898,0.1004924497874184,2.459737358674796,0.8373599604727306,-0.0643965825438499,-0.0749867632985115,-0.0367474183440208,-0.6343604792654515,1.3452876162528993,-9.612686292529109,14981.0
40.0,7.300000190734862,3.0,21.68927383422852,18.495826721191406,-79.78279213910969,40.459004859849685,316.0102044067383,-0.1762385219335556,0.0430027209222316,-0.5904704332351685,0.7864066362380981,0.0623419799584759,2.9376293704547343,0.976484352442506,-0.124156430363655,0.0691240653395652,-0.2288697659969329,-0.5024587327614427,1.201989756077528,-9.633033433556555,14981.0
40.2,7.5,1.0,21.18094253540039,27.84711265563965,-79.7827850536424,40.45900731945461,315.9445191345215,-0.184538185596466,0.0529449507594108,-0.57900071144104,0.7924018502235413,0.0252364163693103,3.403782660083712,0.9918049139848104,-0.0700853466987609,-0.149745762348175,-0.1407831311225891,-0.6174174410104752,1.1217663227766752,-9.43649506688118,14980.0
40.3,7.699999809265138,0.0,21.34996795654297,23.855321884155277,-79.7827809408733,40.45900827969121,315.9203377685547,-0.1856696754693985,0.0651887357234954,-0.5773677825927734,0.7924163341522217,0.1214622883905373,3.622173449717708,1.1023044776951765,0.2401706874370575,-0.0686728805303573,-0.095196895301342,-0.8567283363640309,1.5523296287655832,-9.700924285054208,14980.0
40.4,8.100000381469728,1.0,21.51398658752441,21.795812606811523,-79.7827770086763,40.459010285346366,315.86677560424806,-0.182381197810173,0.0788938254117965,-0.5770996809005737,0.792129397392273,0.0781533880253277,3.834575130915932,1.2847134649571048,0.2328427135944366,-0.1819746196269989,0.1165782511234283,-1.1564701323956252,1.5514214099943642,-10.016984417438508,14980.0
40.6,8.5,2.0,21.41883087158203,23.4179744720459,-79.78276725249414,40.45901251197951,315.8146897277832,-0.1962852478027344,0.0755331292748451,-0.5790737867355347,0.787680447101593,0.1571771140902193,4.351830654000528,1.4405817197324693,-0.4141197204589844,-0.22134992480278,0.2342024743556977,-1.2341954889893532,1.606632574349642,-9.004716782569886,14980.0
40.8,9.199999809265137,358.0,21.2773494720459,26.30446815490723,-79.78275711453854,40.459016395812654,315.72180184936525,-0.2084410339593888,0.0537226870656013,-0.5809523463249207,0.7849590182304382,0.1508521445425506,4.879086960694933,1.5643604991349769,-0.2387535870075225,-0.1105853393673896,0.3350693881511688,-1.1245194111764432,1.7572881321609022,-9.422410878539086,14980.0
40.9,9.399999618530272,2.0,21.12835502624512,28.44349479675293,-79.78275185417789,40.459018995635226,315.66872033691413,-0.2119386196136474,0.0436367131769657,-0.579224169254303,0.7859244346618652,0.0086330206863555,5.11082506166662,1.594583285505501,-0.0817621797323226,0.1337064504623413,0.04413528367877,-1.1606996427476406,1.9644658000767232,-9.176902665495872,14980.0
41.0,9.699999809265137,3.0,20.99188232421875,30.57457160949707,-79.78274573363167,40.45902049759533,315.612854095459,-0.2060427069664,0.0419697910547256,-0.5807706117630005,0.7864416837692261,0.0345951734290844,5.361841592356384,1.64119158670179,0.1055455729365348,0.1598193347454071,0.090129941701889,-1.1373380427807571,1.5423751826584342,-9.73557371556759,14980.0
41.2,9.899999618530272,4.0,21.02443504333496,29.723730087280277,-79.7827334315821,40.459025384285056,315.53196343994136,-0.1744780391454696,0.0442840866744518,-0.5811210870742798,0.7936590313911438,-0.1410274640203956,5.789966499964503,1.9864897310533984,0.3194999396800995,0.4032579958438873,0.2125231772661209,-1.6376118537783624,1.303961396366358,-11.632903393507004,14980.0
41.3,10.399999618530272,9.0,21.27985382080078,25.57290458679199,-79.78272650448788,40.45902730482375,315.52013024902345,-0.1545807719230652,0.0433292053639888,-0.5837889313697815,0.7958756089210509,-0.1171111743900142,5.996966952485927,2.1588458830884187,0.1266075223684311,0.3409602046012878,0.2177154123783112,-1.9242781792581083,1.3147176419198514,-12.481687556505204,14980.0
41.5,10.800000190734863,11.0,21.51899528503418,21.692440032958984,-79.78271244023536,40.45903305917413,315.537357421875,-0.1563758552074432,0.0402643531560897,-0.5726182460784912,0.8037622570991516,-0.0833598841843703,6.4560461073876425,2.2736477627612635,0.0513582900166511,-0.2745987474918365,-0.1682038009166717,-1.0074077946692706,2.017879530340433,-11.153505384922028,14980.0
41.7,11.399999618530272,12.0,21.05198097229004,29.668067932128903,-79.78269758751453,40.45903908414392,315.56972131347663,-0.1663124561309814,0.0458001494407653,-0.5591573119163513,0.8109164834022522,0.0222093441744841,6.577236619103749,2.687105603699841,-0.2245770692825317,0.0506725832819938,-0.0994992703199386,-1.6863032265007496,1.8054798603057864,-10.361442722082137,14980.0
41.8,11.699999809265137,13.0,21.168420791625977,27.640365600585927,-79.78268969406147,40.45904135653442,315.61393746948244,-0.1667018234729766,0.0400848351418972,-0.5550148487091064,0.8139793276786804,0.2279607231385048,6.684691610211459,2.7352020570987143,-0.0962873250246048,-0.074338711798191,-0.0988367795944214,-2.0063513061404232,1.6486437955498696,-9.802298632264137,14980.0
41.9,11.899999618530272,14.0,20.989377975463867,30.53481101989746,-79.7826824564248,40.45904553621402,315.5817528686524,-0.1685165464878082,0.038036722689867,-0.5471799969673157,0.8189929723739624,0.2073871042287529,6.826743564363468,2.698634588591407,0.047787245362997,0.0209751240909099,-0.3739112019538879,-1.7973069146275522,2.0076242449879653,-9.713754245638848,14980.0
42.1,12.0,13.0,20.90048217773437,31.592397689819336,-79.78266605667531,40.45905040632404,315.6600647888184,-0.1853467971086502,0.0455191135406494,-0.5433462858200073,0.8175264596939087,0.4218611452129424,7.041562575848621,2.8271419638581503,-0.0257758386433124,-0.1723068803548813,0.1371726989746093,-1.939107010513544,1.4188257086277007,-9.413833013176918,14980.0
42.3,12.100000381469728,16.0,20.831619262695312,32.816970825195305,-79.7826502811702,40.45905868541272,315.5823479614258,-0.1857930570840836,0.0473327413201332,-0.5405949354171753,0.8191445469856262,0.3753917724108684,7.288290785300707,3.060000778597688,0.1658923774957656,0.060997650027275,0.1537923216819763,-2.330805116593838,1.3359459583461286,-9.325995554924011,14980.0
42.4,12.199999809265137,17.0,20.946807861328125,31.17095375061035,-79.78264242545066,40.459064933888655,315.481865020752,-0.1794916987419128,0.0469381138682365,-0.5387948155403137,0.8217541575431824,0.1147859335437344,7.516386170296498,3.09174838950224,0.073831021785736,0.13810795545578,0.2804900109767914,-2.1268782082200053,1.4920670548081398,-9.763981243371962,14980.0
42.5,12.5,18.0,20.854156494140625,31.822999954223643,-79.78263358850262,40.45906791033919,315.5038453063965,-0.1778784692287445,0.0455473326146602,-0.5423651337623596,0.8198321461677551,0.1670924870352138,7.675434081356803,3.073092740950745,0.0295529942959547,0.0383057706058025,0.203495904803276,-1.9470067450404167,1.428158741891384,-9.8201706469059,14980.0
42.7,12.699999809265137,20.0,20.787797927856445,33.05552291870117,-79.78261603180975,40.45907769718509,315.4319230041504,-0.1872717589139938,0.051716573536396,-0.5439544916152954,0.8163138628005981,-0.1091654497959172,7.974458578936804,3.256636806375892,0.115981750190258,-0.060224775224924,0.1237727776169776,-2.1885786125063897,1.2737209126353264,-9.865973056554797,14980.0
42.8,12.899999618530272,21.0,20.820350646972656,33.564437866210945,-79.78260671716636,40.45908095135111,315.4544983825684,-0.1858829855918884,0.0548433251678943,-0.5500820875167847,0.8123112320899963,-0.0550349375814435,8.078852067468747,3.423707370523172,-0.0226831305772066,0.0217842869460582,0.1380245685577392,-2.1353550629317763,1.1815409465879203,-9.730624047517775,14980.0
43.0,13.0,22.0,20.87669372558593,31.870710372924805,-79.78258707046919,40.45908962410589,315.4273758850098,-0.1951782703399658,0.0503447540104389,-0.5537444949150085,0.8079220056533813,-0.3541025378624929,8.396025424571192,3.3626198004334085,-0.2244726568460464,-0.3763325214385986,0.3221499919891357,-2.134088556021452,1.4314473621547223,-8.40722957611084,14980.0
43.1,13.300000190734863,23.0,20.887962341308597,31.26637458801269,-79.78257731622374,40.45909301893104,315.427494140625,-0.20744788646698,0.0494375266134738,-0.5527310967445374,0.8056114315986633,-0.2651801291025321,8.483580189010908,3.451221848611904,-0.1676255315542221,-0.0875129401683807,-0.0678610727190971,-1.8229615733027456,2.1104975259304046,-9.051800901889802,14980.0
43.3,13.300000190734863,24.0,20.89797782897949,31.99793815612793,-79.78255659832682,40.45910076682065,315.4581795654297,-0.2206670045852661,0.0507901348173618,-0.5523243546485901,0.8022868633270264,-0.1480140154373263,8.581941517141942,4.002678987129279,0.0461426675319671,0.1778717339038849,0.2450739294290542,-3.2311924195289614,1.3325218288600444,-9.76976063132286,14980.0
43.4,13.399999618530272,24.0,20.923019409179688,31.870710372924805,-79.78254547600578,40.45910490855286,315.498352142334,-0.2080079913139343,0.0388178005814552,-0.5555947422981262,0.8040773272514343,-0.1892529285449586,8.70781187154032,4.221630758034364,0.1525543332099914,0.4719919860363007,0.2745524346828461,-2.983998746573925,1.3507037459313869,-10.41021902561188,14980.0
43.6,13.5,24.0,20.81409072875977,32.10131072998047,-79.78252439977554,40.45911225205389,315.5624085388184,-0.1686296761035919,0.0018880980787798,-0.5623508095741272,0.8095197081565857,-0.3417372724228402,9.186627235273132,3.772444200162593,0.0838085561990737,0.6261811256408691,0.2845712006092071,-2.4894117182493205,1.5436105531454087,-10.70635009288788,14980.0
43.7,13.800000190734863,29.0,21.139623641967773,25.74784469604492,-79.78251277239221,40.45911661341463,315.5851746520996,-0.1401803493499756,-0.0079645253717899,-0.5661845803260803,0.8122321963310242,-0.3909671994101489,9.385567416344378,3.528113652894083,0.2568111717700958,0.8284936547279358,0.2141458988189697,-2.755166792571545,2.029886495321989,-11.759391531944274,14980.0
43.91,14.0,36.0,21.142127990722656,26.853139877319336,-79.78249139948845,40.45912424480397,315.75913247680666,-0.1076800301671028,-0.0406752415001392,-0.577415406703949,0.8082958459854126,-0.6597357935682134,9.61109102340648,2.663392344701863,-0.2368520796298981,0.0490595437586307,0.2081600576639175,-2.3001876336336142,1.5138270293176177,-10.221799517869949,14980.0
44.11,14.300000190734863,36.0,21.119590759277344,26.05796241760254,-79.78246962125314,40.45913220492759,315.91702661132814,-0.1320988088846206,-0.0561342909932136,-0.5702597498893738,0.8088279366493225,-0.7277709772355803,9.513448698808777,2.22645746426344,-0.2278472036123276,-0.1775084286928177,-0.2933713495731354,-2.1951406502723696,1.7106786605715754,-9.444893422722815,14980.0
44.2,14.399999618530272,36.0,21.172178268432614,25.80350685119629,-79.78245879459365,40.45913614782353,315.9650307617188,-0.1496870219707489,-0.0506309531629085,-0.5620677471160889,0.8118559718132019,-0.6008829840034019,9.388269601394033,2.3815238421329816,-0.037061795592308,-0.3041764795780182,-0.4670288860797882,-2.286478690356016,2.192738467901945,-8.53915387094021,14980.0
44.3,14.699999809265137,41.0,21.043216705322266,28.26060485839844,-79.78244854866581,40.45913988247045,316.03345880126955,-0.1564293503761291,-0.0409938171505928,-0.5540737509727478,0.8166099190711975,-0.4185426340691352,9.251317895825064,2.5851228604423016,0.1257687956094741,-0.2591671347618103,-0.1726886332035064,-2.4372294116020203,1.9857853330671789,-8.152365233302117,14981.0
44.5,14.800000190734863,36.0,20.99563789367676,28.578676223754893,-79.78242787120088,40.459147754237655,316.1625748596192,-0.1512171179056167,-0.0283810887485742,-0.5383208394050598,0.8285763263702393,-0.1496972289338506,9.139479940733295,2.683262470368473,-0.0287864953279495,0.0496527440845966,-0.1587648391723632,-2.4542684903740883,1.6229438209533693,-8.764696766138076,14981.0
44.6,14.699999809265137,36.0,20.85916519165039,31.04372596740723,-79.78241782077666,40.4591515026688,316.2110863647461,-0.1465252637863159,-0.0264678224921226,-0.5317937731742859,0.8336817622184753,-0.0138127837914514,9.114117944288976,2.6119849487944213,0.0216397643089294,0.226862221956253,-0.2145790606737136,-2.671051087081433,1.925626254826784,-9.064164254665377,14981.0
44.8,14.600000381469728,36.0,21.056989669799805,27.81530570983887,-79.78239732685216,40.45915910307157,316.3988953552246,-0.1321438103914261,-0.0308286659419536,-0.5237253904342651,0.8410109281539917,0.2276481666516966,9.05783376376278,2.5261494855462097,0.1218199133872985,0.146955668926239,-0.0906599089503288,-2.452589462399483,1.9495032137632369,-9.672927231788636,14981.0
44.9,14.600000381469728,32.0,20.95181655883789,29.59650230407715,-79.78238742803657,40.459162833827975,316.45876321411134,-0.1263481825590133,-0.0328206606209278,-0.5227654576301575,0.8424223065376282,0.2702371326759362,9.039917642542076,2.3536254466732887,-0.0485446006059646,0.118830993771553,0.1250198930501938,-2.481251928806305,1.5663459894061091,-9.555025144815446,14981.0
45.1,14.600000381469728,33.0,21.053232192993164,27.52108955383301,-79.78236734175981,40.45917044458824,316.6426735839844,-0.1248347610235214,-0.0345524698495864,-0.5235222578048706,0.8421086668968201,0.2526632092113012,8.958423487804655,2.276926511671563,-0.118708312511444,0.0324933119118213,0.1063656657934188,-2.2284579388797283,1.8413792793452743,-9.53319631934166,14981.0
45.2,14.699999809265137,33.0,21.039459228515625,28.332170486450195,-79.78235718784956,40.459174322170185,316.7370911560059,-0.1237842440605163,-0.0351850539445877,-0.5252126455307007,0.8411844372749329,0.2374417726695086,8.931149930620151,2.228190473855008,-0.0797608718276023,0.1025642082095146,-0.0302631892263889,-2.0746260273456576,2.076153466254473,-9.19166571557522,14981.0
45.41,14.699999809265137,33.0,21.07576942443848,27.370006561279297,-79.782337585722,40.45918166808453,316.90079888916017,-0.1267828941345214,-0.0362463854253292,-0.5303224325180054,0.8374786376953125,0.1413691732295725,8.830023460744602,2.0572994485690086,-0.1835190504789352,-0.0599430650472641,-0.0464314110577106,-2.2712021085619933,1.7702778679132465,-8.159177824258805,14981.0
45.5,14.5,34.0,21.10707092285156,26.75771903991699,-79.78232806810924,40.459185258783,316.9433403930664,-0.1300147771835327,-0.0382297523319721,-0.5326651930809021,0.8354056477546692,0.0714471784888348,8.777171856921496,1.9476164378380043,-0.1444087326526641,-0.0210507605224847,-0.0234097894281148,-2.1606297987699508,2.0263489298522472,-8.197052578926087,14981.0
45.7,14.399999618530272,35.0,20.95181655883789,29.206865310668945,-79.78230893124163,40.45919234242791,317.06278619384767,-0.1318933516740799,-0.0324337445199489,-0.5369830131530762,0.8325873017311096,-0.0192756493041599,8.643856128350265,1.9528543262046023,-0.0145922312512993,-0.0063095320947468,0.312901496887207,-2.5324141886830334,1.4642540426552295,-9.056072292923927,14982.0
45.91,14.199999809265137,35.0,20.881702423095703,31.00396728515625,-79.78229031841545,40.45919941844641,317.1304551086426,-0.1312384605407714,-0.0305217411369085,-0.5400685667991638,0.8307651877403259,-0.1459409865401048,8.545122623719775,2.07982523726236,0.0777675807476043,0.026955459266901,0.4206267297267914,-2.3185104686021805,2.1551930576562883,-9.680177194476126,14982.0
46.0,14.100000381469728,35.0,20.88670921325684,30.78131675720215,-79.78228081438493,40.45920277344764,317.23369607543947,-0.1397821307182312,-0.0301608610898256,-0.5408533811569214,0.8288721442222595,-0.1740437965481222,8.504006506476607,2.1163213695846723,-0.0355722531676292,-0.1113538593053817,0.0798583179712295,-2.3076806943118573,1.3581343875825411,-9.482916696667672,14982.0
46.1,14.100000381469728,34.0,20.974353790283203,28.80927658081055,-79.78227158780138,40.459206333932464,317.27383813476564,-0.1502966284751892,-0.0273449923843145,-0.5430953502655029,0.8256577849388123,-0.1975957225382151,8.479706240088559,2.199343979518513,0.1308301389217376,-0.0804512798786163,-0.0475498177111148,-2.1410584370791907,1.9778000830113889,-9.118446296453476,14982.0
46.3,14.100000381469728,32.0,21.07201385498047,27.71988296508789,-79.78225286361864,40.459213294472725,317.38700494384767,-0.1585098057985305,-0.0158095154911279,-0.5463818907737732,0.8222479224205017,-0.2856548068705925,8.44852179803026,2.4570557235894683,-0.1713175475597381,-0.0548205748200416,0.2726406157016754,-2.144218418598175,1.801935862898827,-8.800912665724756,14982.0
46.4,14.100000381469728,32.0,20.973100662231445,29.29433441162109,-79.78224357002325,40.459216610998375,317.44230279541017,-0.166671484708786,-0.0176388137042522,-0.545687198638916,0.8210572004318237,-0.291366603847398,8.456778423753956,2.432890714612687,-0.2876452207565308,-0.1217947676777839,0.1467334181070327,-2.2160054160654545,1.6243000826239586,-7.906954084038737,14982.0
46.6,14.100000381469728,31.0,20.8629207611084,30.526859283447266,-79.7822249652475,40.4592236376857,317.4584504089356,-0.1573738306760788,-0.0249520298093557,-0.546847403049469,0.821929931640625,-0.2973133219264297,8.500193990484918,2.2847566941982644,0.0918044969439506,0.0801965668797493,0.1901024878025055,-2.307823512554169,1.7270189970731735,-8.378806260824204,14982.0
46.8,14.0,31.0,20.830368041992188,31.17095375061035,-79.7822062490702,40.45923064992751,317.49718103027345,-0.1417765170335769,-0.0254976097494363,-0.5499335527420044,0.8226921558380127,-0.3639867074102234,8.58521106903808,1.9370146980766525,0.0133086265996098,-0.1221112981438636,-0.1371704488992691,-1.9917214263975624,1.7811428716778757,-8.800769993662835,14982.0
46.9,14.0,31.0,20.861669540405277,30.48710060119629,-79.78219679586074,40.459234042442425,317.5473328552246,-0.1381304860115051,-0.0226716678589582,-0.5507733225822449,0.8228334188461304,-0.3521263586696159,8.58244718696836,1.9139228583414365,0.0911247506737709,0.0721449330449104,-0.2285994738340377,-2.004807202666998,2.0554658710956573,-9.237448244690896,14982.0
47.0,13.899999618530272,31.0,20.811586380004886,31.512880325317383,-79.78218749790284,40.45923752173349,317.5471116027832,-0.1354220807552337,-0.0219347476959228,-0.5516838431358337,0.8226935863494873,-0.3799298774759899,8.560610686008541,1.8720250698902925,0.1583414673805236,-0.093459241092205,-0.0183447673916816,-2.096516394764185,1.7023384845256806,-9.364414100646972,14982.0
47.2,14.0,31.0,20.815343856811523,31.43336296081543,-79.78216899306015,40.45924430329363,317.5819893798828,-0.1233580633997917,-0.0170677416026592,-0.5533113479614258,0.8236128091812134,-0.3350089122357032,8.464616338497716,1.907860609954771,0.1960789561271667,0.0025032758712768,-0.1428853422403335,-2.1724954073131086,2.5307234662771227,-10.255914512872694,14982.0
47.3,13.899999618530272,32.0,20.851652145385746,30.8608341217041,-79.78215978289224,40.45924768448916,317.60387048339845,-0.1155851557850837,-0.0111858304589986,-0.5546230673789978,0.8239589333534241,-0.3129131137681427,8.43337223075681,1.9453157119878468,0.1113739758729934,0.0971898734569549,-0.3726102709770202,-2.2748202194273475,2.1770419098436835,-10.34676971912384,14982.0
