time,wind_speed,wind_angle,battery_voltage,battery_current,position_x,position_y,position_z,orientation_x,orientation_y,orientation_z,orientation_w,velocity_x,velocity_y,velocity_z,angular_x,angular_y,angular_z,linear_acceleration_x,linear_acceleration_y,linear_acceleration_z,node_ids
0.0,1.7999999523162842,36.0,25.3577823638916,-0.0874695107340812,-79.78279026912354,40.45899650649138,269.1805548584461,0.0002372992312302,0.0152589241042733,-0.7949486970901489,0.6064847707748413,-0.0344045988044429,-0.016226027268591,0.0115199238225233,0.0043794405646622,0.0032416167668998,0.0028930511325597,-0.2490393100306392,-0.2383509104512632,-9.806397530436517,14934.0
0.2,1.8999999761581416,39.0,25.360286712646484,-0.0874695107340812,-79.78279027624706,40.45899653968596,269.1818218743801,0.0002487574529368,0.0152611518278718,-0.7949538230895996,0.6064780354499817,-0.0391692050726186,-0.0171786915955672,0.0117143088051274,-0.0049917851574718,-0.0026312170084565,-0.0036996973212808,-0.2509754144959152,-0.2306016686372459,-9.804538700580595,14934.0
0.31,2.0,39.0,25.347766876220703,-0.0715659633278846,-79.78279031386673,40.45899665738428,269.1729095494747,0.0002534940722398,0.0152999004349112,-0.7949645519256592,0.6064628958702087,-0.0405684533647961,-0.012324353904112,0.0138757854158697,-0.0056573511101305,-0.0020291886758059,-0.0069225328043103,-0.2448984032683074,-0.2338442420773208,-9.807590947151184,14934.0
0.5,2.0,40.0,25.34025382995605,-0.0954212844371795,-79.78279037654694,40.458996727637626,269.1606118893623,0.0002660055470187,0.0153330992907285,-0.7949631810188293,0.6064637899398804,-0.0304972751975426,-0.0100975108170108,0.0108942939789753,0.0065920283086597,0.0010510877473279,0.0058677531778812,-0.2467007892206312,-0.2422703356482089,-9.806441969275475,14934.0
0.6,2.0999999046325684,40.0,25.33774948120117,-0.0954212844371795,-79.7827903779327,40.45899675882898,269.16179770886896,0.0002565499162301,0.0153270866721868,-0.7949733734130859,0.6064507961273193,-0.0358194288554306,-0.011171537819032,0.0110123330666728,-0.0020681782625615,-0.0008647093200124,-0.0045820255763828,-0.2505533917061984,-0.2169416409730911,-9.804687804579736,14934.0
0.8,2.200000047683716,41.0,25.3577823638916,-0.0795177370309829,-79.78279040844781,40.458996878012,269.1518717473745,0.0002580901200417,0.0153539907187223,-0.7949814200401306,0.6064394116401672,-0.0372358683801656,-0.0066800613921998,0.0100609581441322,0.0058249295689165,0.0047944681718945,0.0002259855245938,-0.2479975920170545,-0.2294643486477435,-9.805820994973184,14934.0
0.9,2.200000047683716,42.0,25.33900260925293,-0.0715659633278846,-79.78279050096643,40.45899695071892,269.1412236756086,0.0003258282667957,0.0153807494789361,-0.7949779629707336,0.6064433455467224,-0.0215837163506748,-0.0120914263646963,0.0091934053162685,0.0068009784445166,0.0016488250112161,0.0052254614420235,-0.2512909631431103,-0.2247225673869252,-9.804667339324954,14934.0
1.1,2.299999952316284,43.0,25.34526252746582,-0.0874695107340812,-79.78279050759173,40.45899697474119,269.14223501741884,0.0003167544782627,0.0153709724545478,-0.7949764728546143,0.6064454913139343,-0.0272361918406218,-0.0134239177109147,0.0093639609271998,-0.0072639631107449,-0.0035433713346719,-0.0070102633908391,-0.2522738435491919,-0.2178416919149458,-9.803525378108024,14934.0
1.2,2.400000095367432,39.0,25.35277557373047,-0.0954212844371795,-79.78279059492705,40.45899706594085,269.1317750281096,0.0003651957667898,0.0154028525575995,-0.7949805259704591,0.6064394116401672,-0.0230304321892251,-0.0151354358748091,0.0085515827951088,0.0017145235324278,0.0046326364390552,-0.0018057919805869,-0.2490816292539239,-0.2418166648037732,-9.806898636817932,14934.0
1.4,2.400000095367432,36.0,25.347766876220703,-0.0715659633278846,-79.78279060468437,40.458997089944354,269.1327267950773,0.0003594244481064,0.0154068674892187,-0.7949903607368469,0.6064264178276062,-0.0279381206245752,-0.0161619667190573,0.0087190889262149,-0.0063341632485389,-0.0046186088584363,-0.0043852990493178,-0.2514676769636571,-0.2266992551833391,-9.804484321475028,14934.0
1.5,2.400000095367432,36.0,25.349018096923828,-0.0715659633278846,-79.78279069830344,40.45899715901332,269.1194747751951,0.0004003669891972,0.0154037587344646,-0.7949920296669006,0.6064242124557495,-0.020646223743308,-0.0160453433806745,0.0039478307116486,-0.0017418705392628,-0.002229142235592,-0.0050145229324698,-0.24534489300102,-0.2398296530172229,-9.806312161087993,14934.0
1.7,2.5,34.0,25.35653114318848,-0.0636141896247863,-79.78279071027437,40.45899718052405,269.1199575281143,0.0004016126040369,0.0154088698327541,-0.7949961423873901,0.6064186096191406,-0.0243250782803346,-0.0171389223943553,0.0039742058099159,-0.0029646994080394,-0.0033261135686188,-0.002257713349536,-0.2477673761732876,-0.2392525511048734,-9.804568521380425,14934.0
1.8,2.5,34.0,25.34526252746582,-0.0636141896247863,-79.78279075293958,40.45899729211583,269.1093608653545,0.0004228890174999,0.0154322609305381,-0.795007586479187,0.6064029932022095,-0.029758029848534,-0.012915555638854,0.0045026496433123,-0.0089352754876017,-0.0033943040762096,-0.0063640056177973,-0.2453037614934146,-0.2316154479235411,-9.80635133743286,14934.0
2.0,2.5999999046325684,35.0,25.3577823638916,-0.0795177370309829,-79.78279081720655,40.458997362806365,269.0995898610353,0.0004226767632644,0.01543431263417,-0.7949981689453125,0.606415331363678,-0.0219340380590093,-0.0104434008810878,0.0080913711713787,0.0011778903426602,-0.0038118420634418,0.003159909741953,-0.2470177083089948,-0.2438871455937624,-9.807336593270303,14934.0
2.11,2.5999999046325684,36.0,25.35903549194336,-0.0795177370309829,-79.78279082222892,40.45899738630985,269.10047433435915,0.0004273244412615,0.0154255805537104,-0.79499751329422,0.6064164042472839,-0.0261543219861612,-0.0118935492253744,0.0080475066395199,0.0029922570101916,-0.0006936997524462,0.0016394152771681,-0.2478024594672024,-0.2237142698653042,-9.805510507822037,14934.0
2.3,2.5,39.0,25.350271224975582,-0.0318070948123931,-79.78279087071762,40.45899747264478,269.089310131073,0.0004382753977552,0.0154558354988694,-0.7950006127357483,0.6064115166664124,-0.0224979560442689,-0.0072865714774286,0.0073102346587376,0.0077988482080399,0.0033300423528999,0.0033218821045011,-0.2457300966046751,-0.2401856753602624,-9.806030910015108,14934.0
2.4,2.5,39.0,25.34150695800781,-0.0715659633278846,-79.78279098678381,40.4589975704094,269.0779667711258,0.0004730561631731,0.0154567621648311,-0.7949968576431274,0.6064164638519287,-0.0200668083991956,-0.0148389708188092,0.0066906970959356,0.0006664574029855,-0.0017612818628549,0.0012821805430576,-0.2514102280698717,-0.2176582172513008,-9.80369553208351,14934.0
2.6,2.400000095367432,41.0,25.3577823638916,-0.0795177370309829,-79.78279099750529,40.45899759303849,269.0787140345573,0.0004761790623888,0.0154466535896062,-0.795008659362793,0.6064013242721558,-0.023440639874048,-0.0164385948034505,0.0066260486593432,0.0053925076499581,0.0050704595632851,0.005774253513664,-0.2463093546777964,-0.2309896131232381,-9.807651758193972,14934.0
2.71,2.400000095367432,42.0,25.350271224975582,-0.0715659633278846,-79.78279107212761,40.45899769006103,269.06742929577825,0.0004933044547215,0.0154628185555338,-0.7950034737586975,0.6064075231552124,-0.0221587401748122,-0.014383649388517,0.0065506006249528,0.0085392799228429,0.0007576901698485,0.0061554131098091,-0.2517942805029452,-0.2209717064537108,-9.803506667017936,14934.0
2.9,2.299999952316284,45.0,25.3577823638916,-0.0636141896247863,-79.78279108122648,40.458997712989095,269.0681762611866,0.0005136537365615,0.0154831642284989,-0.7950097322463989,0.60639888048172,-0.026591352160925,-0.0156594325285305,0.0066630306295804,-0.0003462293243501,0.0005665806238539,0.0021775118075311,-0.2492891505919397,-0.2185183792188764,-9.805065534710884,14934.0
3.0,2.200000047683716,45.0,25.34025382995605,-0.0795177370309829,-79.78279114679702,40.45899780356316,269.0572197949886,0.0005243886262178,0.0154884774237871,-0.7950061559677124,0.6064035296440125,-0.0229182149459524,-0.012305805945183,0.0070751405220407,0.0066885817795991,0.0019001790788024,0.0060238223522901,-0.2499208874255419,-0.2348246191442013,-9.805248552560808,14934.0
3.2,2.0999999046325684,47.0,25.350271224975582,-0.0715659633278846,-79.78279115298662,40.45899782646305,269.05801802039144,0.0005267478991299,0.0154938492923975,-0.7950090765953064,0.6063995361328125,-0.0278291162514658,-0.0133032418874543,0.0073229842020462,-0.0069486857391893,0.0006192389992065,-0.006273329257965,-0.2518682843260467,-0.2163439458981156,-9.804542793631557,14934.0
3.31,2.0999999046325684,47.0,25.36153984069824,-0.0636141896247863,-79.78279122626252,40.45899791054624,269.0462233638763,0.0005532526411116,0.0154983894899487,-0.7950152158737183,0.6063913702964783,-0.0229275107719392,-0.0114955466681377,0.0071284082029469,0.0022468951065093,0.0046929162926971,0.0007060233619995,-0.248666440397501,-0.2435600304231048,-9.806756549477578,14934.0
3.5,1.8999999761581416,48.0,25.35653114318848,-0.0715659633278846,-79.78279129955037,40.45899798420726,269.0332223689556,0.0005741316708736,0.0155182350426912,-0.795005202293396,0.6064038872718811,-0.0177084362392485,-0.0089745017974704,0.0068506790072851,-0.0063019911758601,-0.004407599568367,-0.005228963214904,-0.2492708780430257,-0.2317678775265813,-9.805031036138535,14934.0
3.6,1.8999999761581416,46.0,25.3577823638916,-0.0795177370309829,-79.7827913047449,40.45899800300168,269.03396176457403,0.0005948886391706,0.0155013287439942,-0.7950074076652527,0.6064014434814453,-0.0202008901389323,-0.0107764190381018,0.0067414310879047,0.0090721771121025,0.0057477205991745,0.0070826085284352,-0.2456141938269138,-0.2335866539552808,-9.807399158477784,14934.0
3.8,1.7999999523162842,45.0,25.35653114318848,-0.0636141896247863,-79.78279137663715,40.4589981082628,269.0205511367321,0.0005997316911816,0.0155078265815973,-0.7950049638748169,0.6064044237136841,-0.0207705580250061,-0.0103837924881022,0.0033670618984599,0.009761830791831,0.0003424309834372,0.0031086960807442,-0.2456496973894537,-0.2427779836021364,-9.806806250810624,14934.0
3.9,1.7000000476837158,44.0,25.35527801513672,-0.0636141896247863,-79.78279147438683,40.45899821841389,269.0086724078655,0.0006204975652508,0.0155305927619338,-0.7950181365013123,0.6063865423202515,-0.0196046032901192,-0.0131547468535187,0.0047368935572837,-0.0006471169181168,-0.0033099320717155,-0.0003244887047912,-0.2503006458096206,-0.2185993448831141,-9.80435509800911,14934.0
4.1,1.7000000476837158,45.0,25.35152244567871,-0.0954212844371795,-79.7827914835567,40.45899824009988,269.0092095649242,0.000626023276709,0.0155225489288568,-0.7950330376625061,0.6063671708106995,-0.0226765409681226,-0.0149018300614115,0.0045138387513654,0.0041484795510768,0.0027026168536394,0.002336076227948,-0.2484516100399196,-0.2281640192493796,-9.806048451662065,14934.0
4.2,1.600000023841858,46.0,25.346513748168945,-0.0795177370309829,-79.7827915621673,40.45899833288865,268.9950039899349,0.0006448458298109,0.0155377890914678,-0.795022189617157,0.6063810586929321,-0.0174829307637027,-0.0119546147668633,0.0016080958559965,0.0085755828768014,0.0047957808710634,0.0058245467953383,-0.2514337082952261,-0.2256774359755218,-9.804007773399354,14933.0
4.4,1.7000000476837158,47.0,25.347766876220703,-0.0795177370309829,-79.78279156997705,40.45899835177835,268.99523126244543,0.0006464586476795,0.015548619441688,-0.7950258851051331,0.6063759326934814,-0.0222421926985878,-0.013044610097988,0.0016401944790945,-0.0078977765515446,-0.0020117601379752,-0.0079011879861354,-0.2503490132465958,-0.2164102387055754,-9.803959241509435,14933.0
4.5,1.7000000476837158,46.0,25.35277557373047,-0.0795177370309829,-79.7827916308091,40.45899846141548,268.9821687555313,0.0006533790146932,0.015552113763988,-0.7950228452682495,0.6063798069953918,-0.0217596636193186,-0.0098870678326844,0.0023789229168219,-0.0016685123555362,-0.0016191094182431,-0.0009614710579626,-0.2460761604085565,-0.2420584654435516,-9.80679923415184,14933.0
4.7,1.7000000476837158,43.0,25.35653114318848,-0.0636141896247863,-79.78279163518215,40.45899848235589,268.98247023582456,0.0006390003254637,0.0155671667307615,-0.7950373291969299,0.6063604354858398,-0.0249114735040311,-0.0110135081578813,0.0023962902304684,-0.0017709612147882,-0.0028675736393779,0.0031449091620743,-0.249825084451586,-0.2393863609805703,-9.806040265560153,14933.0
4.8,1.7000000476837158,44.0,25.35277557373047,-0.0636141896247863,-79.78279170999457,40.45899859489533,268.9700649893284,0.0006733710761182,0.0155793186277151,-0.7950395345687866,0.6063571572303772,-0.0249654511925073,-0.0109139816551108,0.0038793811301846,-0.0042348145507276,-0.0016728857299312,-0.0048835356719791,-0.2483861943148077,-0.2287065677717328,-9.80629754304886,14933.0
5.0,2.0,43.0,25.347766876220703,-0.0795177370309829,-79.78279175445911,40.45899871005957,268.95513924121855,0.0006469992222264,0.0155869089066982,-0.7950514554977417,0.6063414812088013,-0.0250050944244558,-0.0045868778379078,0.0011986455169227,0.0027654264122247,0.0023436597548425,0.0055371136404573,-0.2464687278494239,-0.2390586610883474,-9.80629111111164,14933.0
5.1,2.0999999046325684,41.0,25.3577823638916,-0.0795177370309829,-79.78279175166156,40.45899873520234,268.9553275322914,0.0006430278881452,0.0155726810917258,-0.7950508594512941,0.606342613697052,-0.0299796664213333,-0.0057491684824502,0.0012241818090427,-0.0042721703648567,-0.0010067046387121,-0.0082693742588162,-0.2510796228423714,-0.2168489260599016,-9.80382241666317,14933.0
5.3,2.0999999046325684,39.0,25.33524703979492,-0.0397588685154914,-79.78279185953191,40.458998850645706,268.94246538639067,0.0006840017158538,0.0155728394165635,-0.7950578927993774,0.6063332557678223,-0.0236770399654715,-0.0110530086549936,0.0031230726331159,0.0028182060923427,0.0003143079811707,-0.004232975654304,-0.2481892345100641,-0.2202397812344134,-9.804517650604248,14933.0
5.4,2.200000047683716,41.0,25.342758178710927,-0.0636141896247863,-79.78279198947516,40.45899897445889,268.92884915232656,0.000732418266125,0.0155725134536623,-0.7950690984725952,0.6063185930252075,-0.0185079017216181,-0.018198131135278,0.0039499546705614,0.0088177174329757,0.0058474643155932,0.0042172097600996,-0.2501487643830478,-0.2352365006692708,-9.806243748664857,14933.0
5.6,2.299999952316284,39.0,25.346513748168945,-0.0715659633278846,-79.78279200430894,40.45899899705203,268.92933743357656,0.0007290438516065,0.0155513500794768,-0.7950616478919983,0.6063288450241089,-0.0234823702805365,-0.0193986171906747,0.0040547975996857,-0.0084547773003578,-0.0010013678111135,-0.009368235245347,-0.2496678674407304,-0.217473627962172,-9.803899599909784,14933.0
5.71,2.400000095367432,38.0,25.33524703979492,-0.0715659633278846,-79.78279208772202,40.45899909780295,268.91762175321577,0.0007709309575147,0.0156006440520286,-0.7950555682182312,0.606335461139679,-0.018184010829694,-0.0147692602246091,0.0066281581904508,0.0005805725813843,0.004700653720647,0.0001761274470482,-0.2475113777630031,-0.2449511561170221,-9.807368168234824,14933.0
5.9,2.5,36.0,25.342758178710927,0.0238553211092948,-79.78279209832226,40.45899911698169,268.91836159586904,0.0007649168255738,0.0156032629311084,-0.7950519919395447,0.6063401103019714,-0.0222155503047356,-0.0156902180413392,0.0066264472280919,-0.008786461316049,-0.0022307864855974,-0.0065285665914416,-0.2517320259287953,-0.2264326038770377,-9.803963334560397,14933.0
6.01,2.5999999046325684,34.0,25.33900260925293,-0.0795177370309829,-79.78279218386844,40.45899926154528,268.905126503706,0.0007675170782022,0.0156113533303141,-0.7950503826141357,0.6063420176506042,-0.0245001890681756,-0.0147811401362835,0.0064692193058764,-0.0011738571338355,0.0005988822085782,-0.0048095798119902,-0.2454735134728253,-0.2448675957508385,-9.80697523534298,14933.0
6.2,2.700000047683716,34.0,25.34526252746582,0.0079517737030982,-79.7827921927414,40.45899928583085,268.9058590149879,0.0007649283506907,0.015614747069776,-0.7950472831726074,0.6063460111618042,-0.0277930192311129,-0.0159012704062279,0.0064431099899397,-0.0053079659119248,-0.0011886616703122,-0.0004697617841884,-0.2503993723914027,-0.2318049159832299,-9.804645119905471,14933.0
6.31,2.700000047683716,34.0,25.34150695800781,0.0,-79.78279228502353,40.45899941366604,268.8921077466011,0.0007898126496002,0.015636945143342,-0.7950405478477478,0.6063541769981384,-0.0261288033641026,-0.0147371441973574,0.0061370746599779,-0.0038309816736727,-0.0018923443276435,-0.0051914490759372,-0.2458940561860799,-0.2376439638063312,-9.80712492406368,14933.0
6.5,2.5999999046325684,33.0,25.320220947265625,0.0079517737030982,-79.7827923597344,40.458999517466886,268.87711890697483,0.0007918479386717,0.0156566593796014,-0.7950392961502075,0.6063553094863892,-0.0201950032720724,-0.0091190789921061,0.0055800760957055,-0.0013168547302484,-0.0034369234926998,0.0020822877995669,-0.2502260024473071,-0.2416932520084083,-9.805086584687231,14933.0
6.6,2.5999999046325684,36.0,25.31270980834961,0.0159035474061965,-79.78279236409901,40.458999538573714,268.8777379608154,0.0007948430720716,0.0156585648655891,-0.7950531840324402,0.6063370704650879,-0.022765955156285,-0.0108622215099405,0.0053643598426227,0.0059157200157642,0.00536734983325,0.0046678972430527,-0.2471455065160989,-0.2312310483120382,-9.806485238671304,14933.0
6.8,2.5999999046325684,38.0,25.31521415710449,-0.0159035474061965,-79.78279251071687,40.45899967764561,268.86259009599684,0.0008133212686516,0.0156808253377676,-0.7950441241264343,0.6063483357429504,-0.0199937899871188,-0.0178473941473568,0.0047305744220796,0.0051031517796218,0.0019204235868528,0.0062268460169434,-0.2452752928622067,-0.2445566700585187,-9.806871154904366,14933.0
6.9,2.5999999046325684,40.0,25.33148956298828,0.0159035474061965,-79.78279261431993,40.4589998011201,268.8481292045116,0.0008225171477533,0.0156903825700283,-0.7950435280799866,0.6063488125801086,-0.0185081096743948,-0.014916349136057,0.0050746264622574,-0.0060501499101519,-0.004557036794722,-0.0031842938624322,-0.2482373095862567,-0.2200793299823999,-9.804850357174876,14933.0
7.1,2.400000095367432,40.0,25.32522964477539,-0.0318070948123931,-79.78279262616256,40.45899982175778,268.8486996805668,0.0008191356319002,0.0157004445791244,-0.7950445413589478,0.6063472628593445,-0.020381753545758,-0.0167693293988613,0.004754256053906,0.006836689542979,0.0041004917584359,0.0068927458487451,-0.2451468368433416,-0.2367089026607573,-9.806165395975112,14933.0
7.2,2.400000095367432,39.0,25.321474075317383,0.0238553211092948,-79.78279263826384,40.45899984370839,268.84925811648367,0.0008248504600487,0.0157139990478754,-0.7950494885444641,0.6063404679298401,-0.0248170100454324,-0.0178871023238417,0.0046974861828615,-0.0086881006136536,-0.0018382183043286,-0.0087703308090567,-0.2523298489116132,-0.2174007022194564,-9.802712030410769,14933.0
7.41,2.200000047683716,40.0,25.33649826049805,-0.0079517737030982,-79.78279275720173,40.45899999845985,268.83409794330595,0.0008273212588392,0.0157316103577613,-0.795053243637085,0.6063351035118103,-0.0256152485594902,-0.0202718813121724,0.0045545912168011,0.0018255076138302,0.0016757112462073,-0.0018838018877431,-0.2501454205065966,-0.2207209705375135,-9.803020178675652,14933.0
7.51,2.0999999046325684,40.0,25.327733993530277,-0.0079517737030982,-79.78279285318864,40.45900009457149,268.8189007258415,0.0008614310063421,0.0157403536140918,-0.7950356602668762,0.6063579320907593,-0.0157965762947221,-0.0147921152283158,0.0048156440245796,0.0092967506498098,0.0048965513706207,0.0060734720900654,-0.2497504959069192,-0.2342694077454507,-9.804380241036416,14933.0
7.7,1.8999999761581416,40.0,25.327733993530277,0.0079517737030982,-79.78279286474844,40.45900011245393,268.8194591617584,0.0008923703571781,0.0157434269785881,-0.7950454950332642,0.6063448786735535,-0.0201191657743919,-0.0160113199851234,0.0049529230598752,-0.0078659579157829,-0.0014023114927113,-0.0097202733159065,-0.2523338140547275,-0.2209384138695896,-9.804304811954498,14933.0
7.8,1.7999999523162842,40.0,25.34025382995605,0.0079517737030982,-79.78279291700447,40.45900026211038,268.803223631382,0.0008971506613306,0.0157456677407026,-0.7950497269630432,0.6063392758369446,-0.0235444883003619,-0.0100261069138735,0.0042449409314926,-0.0046035968698561,-0.0017038431251421,-0.004307139199227,-0.2455201450176537,-0.2410327907279134,-9.806995115876198,14933.0
8.0,1.7000000476837158,42.0,25.32272529602051,0.0238553211092948,-79.78279299470086,40.45900038218928,268.78723158597944,0.0009004638995975,0.0157372597604989,-0.795043408870697,0.6063477993011475,-0.0201872620644877,-0.0075349297425367,0.0039946566368454,0.002156134461984,-0.0012144458014518,0.0016801576130092,-0.2486321610957385,-0.2413172029517591,-9.80589408516884,14933.0
8.1,1.600000023841858,43.0,25.33524703979492,0.0,-79.78279299723945,40.45900040310124,268.7876848196983,0.0009296180796809,0.0157396383583545,-0.7950411438941956,0.6063505411148071,-0.0234428621212957,-0.0091609476597926,0.0037709795953198,-0.0003322587872389,0.0001573431072756,0.0001246142783202,-0.2497275821305812,-0.2224444921687245,-9.805135701298717,14933.0
8.3,1.5,45.0,25.327733993530277,0.0715659633278846,-79.78279308871556,40.45900052325473,268.772043428421,0.0009634991874918,0.0157605223357677,-0.7950299978256226,0.6063647270202637,-0.016991798778622,-0.0088709579761221,0.0042644519903342,0.0049987463280558,0.0059157069772481,0.0030982836615294,-0.2462946452759206,-0.2304075045324862,-9.80670217037201,14933.0
8.4,1.5,43.0,25.323978424072266,0.0,-79.78279317787445,40.45900064310175,268.7565325117111,0.0010133089963346,0.0157675612717866,-0.7950140833854675,0.6063852310180664,-0.0120425098488736,-0.0082492988638012,0.0045570089552866,0.0066967159509658,0.0061789816245436,0.0067490832880139,-0.2505167735181749,-0.2261384706571698,-9.80462816298008,14933.0
8.6,1.399999976158142,42.0,25.33649826049805,-0.0318070948123931,-79.78279318352928,40.45900065738624,268.7570418930053,0.0010076010366901,0.0157541520893573,-0.795008659362793,0.6063926815986633,-0.0162190903151748,-0.0096278335031994,0.0046012921355097,-0.0095033925026655,-0.002520038280636,-0.0051883952692151,-0.2508651213906706,-0.2175277329795062,-9.804034670591356,14933.0
8.7,1.399999976158142,42.0,25.33649826049805,0.0238553211092948,-79.78279327573341,40.45900079871365,268.7413358902931,0.0010311396326869,0.0157653223723173,-0.7950054407119751,0.6063965559005737,-0.0162543775999322,-0.0101553692979613,0.0044842193870107,-0.0014562782598659,-6.6537999373395e-05,-0.0049663237296044,-0.2463613948971033,-0.2427485282532871,-9.806388174891474,14933.0
8.9,1.399999976158142,41.0,25.316465377807607,-0.0397588685154914,-79.78279328225048,40.459000815043225,268.7418388938904,0.0010376662248745,0.0157861039042472,-0.7950009703636169,0.606401801109314,-0.0185002998688251,-0.0114756370026501,0.0043708152412537,-0.0021248944103717,-0.0036467530298978,0.0029550953768193,-0.2489702763408422,-0.2399907620809973,-9.805087169408797,14933.0
9.0,1.5,41.0,25.33148956298828,-0.1113248318433761,-79.78279339292187,40.45900092800778,268.7269746875763,0.0010721752187237,0.0158081166446208,-0.7949894070625305,0.6064164042472839,-0.013847397808998,-0.0136619252442775,0.0044512212482542,-0.0052015981636941,-0.0045144190080463,-0.0036341664381325,-0.2489466499350965,-0.2268198540061712,-9.8051696151495,14933.0
9.2,1.5,39.0,25.321474075317383,-0.1431319266557693,-79.78279340436785,40.45900094273134,268.72746666431425,0.0010817830916494,0.0158116314560174,-0.7949943542480469,0.6064098477363586,-0.0151635571613993,-0.0154635347217303,0.004055565593891,0.0040194150060415,0.0037873587571084,0.0053566223941743,-0.2452032076567412,-0.2352056931518018,-9.805513431429864,14933.0
9.3,1.600000023841858,37.0,25.317716598510746,-0.1510837078094482,-79.78279347838756,40.45900109230836,268.71270295143125,0.0010812757536768,0.0158297196030616,-0.794978141784668,0.6064306497573853,-0.0185736505313625,-0.0132197463258169,0.0037674208682646,0.0039228843525052,0.0028059342876076,0.0048451060429215,-0.252544167637825,-0.2210841009020805,-9.803437669873238,14933.0
9.5,1.600000023841858,36.0,25.35152244567871,-0.0715659633278846,-79.78279354430525,40.45900120668677,268.6978023266792,0.0010976972989737,0.015833169221878,-0.7949779629707336,0.6064307689666748,-0.0162008286449773,-0.0084641635678434,0.0037939368210054,-0.0075023579411208,-6.782517448300496e-05,-0.0067637357860803,-0.2505302769318223,-0.2178005786798894,-9.802833652496338,14933.0
9.61,1.7000000476837158,35.0,25.33900260925293,-0.0636141896247863,-79.78279354945376,40.459001223575655,268.69823183774946,0.0010841962648555,0.0158292278647422,-0.7949699163436891,0.6064414381980896,-0.0181056565932897,-0.0100269305300139,0.0037042997164639,0.001091223093681,-0.0006259159417822,0.0049723554402589,-0.2486823375150561,-0.2431550376489758,-9.806675857901574,14933.0
9.8,1.7000000476837158,31.0,25.346513748168945,-0.0636141896247863,-79.78279366573746,40.45900135781772,268.6842457270622,0.0011082479031756,0.0158117599785327,-0.7949670553207397,0.6064456105232239,-0.0158813219101764,-0.0139423361669138,0.0044261392251804,-0.0061283879913389,-0.0018961657769978,-0.0024279740173369,-0.2491199650615453,-0.2337079836800694,-9.804041102528572,14933.0
9.9,1.7000000476837158,30.0,25.34150695800781,-0.0636141896247863,-79.78279374238153,40.45900149667385,268.6705758786201,0.0011196096893399,0.0158470459282398,-0.7949674129486084,0.606444239616394,-0.0170815621922386,-0.0118618184442226,0.0043478049643707,-0.0066453339532017,-0.002834026934579,-0.0079040816053748,-0.2454586944356561,-0.2329115563631058,-9.806530846953391,14933.0
10.1,1.7000000476837158,26.0,25.350271224975582,-0.0636141896247863,-79.782793751362,40.45900151485368,268.6710590338707,0.0011170187499374,0.0158522706478834,-0.7949777841567993,0.6064303517341614,-0.0181410600051632,-0.0135801945967661,0.0040025759291298,0.0074904221110045,0.0041428389959037,0.0050207725726068,-0.2461010841652751,-0.2421481836587191,-9.806584056615833,14933.0
10.2,1.7000000476837158,25.0,25.350271224975582,-0.0795177370309829,-79.78279383298275,40.45900164202005,268.6573286867141,0.0011166250333189,0.0159025434404611,-0.7949832081794739,0.6064220070838928,-0.0144060443431991,-0.0115237546176365,0.0045208794941364,0.0017076331423595,-0.0011993621010333,0.0042093750089406,-0.2507617901265621,-0.2168143909424544,-9.803665711283683,14933.0
10.4,1.600000023841858,23.0,25.346513748168945,-0.0636141896247863,-79.78279384169338,40.45900165752192,268.65782483577726,0.0011306015076115,0.0159057006239891,-0.7950024604797363,0.6063966751098633,-0.0166469511672379,-0.0131899049107861,0.0042456554526517,0.0028537313919514,0.0003420914872549,0.0017741905758157,-0.2482696519978345,-0.2244658198021352,-9.804892457127572,14933.0
10.5,1.7000000476837158,21.0,25.350271224975582,-0.0715659633278846,-79.78279395153871,40.459001801671135,268.64427753448484,0.0011453527258709,0.015908358618617,-0.7949974536895752,0.6064031720161438,-0.0148002705474533,-0.0160313442276612,0.0045382180871569,0.0061225658282637,0.0058713271282613,0.0043704202398657,-0.2506669190526009,-0.2297155048325658,-9.804031162261962,14933.0
10.7,1.600000023841858,20.0,25.34401130676269,-0.0795177370309829,-79.78279396473657,40.45900181896259,268.6447963929176,0.0011553042568266,0.0159093141555786,-0.7950049638748169,0.6063932180404663,-0.0185351262221232,-0.0171144008708004,0.0044069574462053,-0.0080095781013369,-0.0041306298226118,-0.0069130226038396,-0.2501280615851283,-0.2198874134011566,-9.802604441642762,14933.0
10.82,1.5,21.0,25.360286712646484,-0.055662415921688,-79.78279403274486,40.45900194165822,268.63044454813,0.0011360457865521,0.0159298237413167,-0.7949950098991394,0.6064056754112244,-0.0143006752218016,-0.0116836736067596,0.0041383289671745,-0.0034206109121441,0.0010072526056319,-0.0101601742208004,-0.2453896424733102,-0.2406218959204853,-9.805529803633693,14933.0
11.0,1.5,22.0,25.354026794433597,-0.0795177370309829,-79.78279409634776,40.459002074924456,268.61677189826963,0.0011154316598549,0.0159437526017427,-0.7949976325035095,0.6064019799232483,-0.013047196030823,-0.0066835787716793,0.0049086781768773,0.002730717882514,0.0015440966235473,0.0018191298004239,-0.2464158105477691,-0.2416195770911872,-9.8058408755064,14933.0
11.1,1.399999976158142,21.0,25.354026794433597,-0.0795177370309829,-79.78279410008133,40.45900208926262,268.6172962999344,0.0011189962970092,0.0159462895244359,-0.7949995994567871,0.6063992977142334,-0.0162451893045215,-0.0082087755587439,0.0046043751217165,-0.0045744720846414,0.0019036473240703,-0.0048149758949875,-0.2515864850766957,-0.2188377833738923,-9.80269565820694,14933.0
11.3,1.399999976158142,21.0,25.33900260925293,0.0397588685154914,-79.78279418786674,40.4590022454188,268.60382767677305,0.0011383608216419,0.0159345399588346,-0.7950057983398438,0.6063914299011229,-0.0169686509437853,-0.0094909766677205,0.0044824737806917,-0.0018203537911176,0.0004411316185723,-0.0037013059481978,-0.251118378918618,-0.2206115545146167,-9.803048245310784,14933.0
11.4,1.2999999523162842,18.0,25.33023834228516,-0.0715659633278846,-79.7827942590032,40.459002398282976,268.5906539773941,0.0011160816065967,0.0159340966492891,-0.7949961423873901,0.606404185295105,-0.0176257553368064,-0.0066383846180711,0.0045239267468104,0.0010790140368044,-0.001011615153402,-0.0030760138761252,-0.2493233019858599,-0.2414462985098362,-9.805032205581666,14933.0
11.6,1.2999999523162842,19.0,25.34025382995605,-0.0795177370309829,-79.782794261358,40.45900241625453,268.5911480402946,0.0010949099669232,0.0159276034682989,-0.7949838042259216,0.606420636177063,-0.0199275530867896,-0.0078563477952676,0.0042754159440901,0.0008015868370421,-0.0005571303190663,0.0006088779773563,-0.2484098389931023,-0.2396114787831902,-9.804714701771736,14933.0
11.7,1.2999999523162842,19.0,25.34526252746582,-0.0874695107340812,-79.78279435920538,40.45900252083154,268.5786996102333,0.0011157140834257,0.0159586444497108,-0.7949835062026978,0.60642009973526,-0.010389044766849,-0.0065113383282784,0.0047719085398913,-0.0018651694990694,-0.00310038193129,0.0037232495378702,-0.2493999553285539,-0.2214243723079562,-9.80309034526348,14933.0
11.9,1.2999999523162842,19.0,25.35527801513672,-0.0636141896247863,-79.78279436347691,40.459002531452576,268.57919665336607,0.0011459996458142,0.0159741044044494,-0.7949895262718201,0.606411874294281,-0.0126025693698025,-0.0081404607032659,0.0043382254192223,-0.0018239414785057,0.002706975210458,-0.0001139335945481,-0.2499240120314061,-0.2219372279383242,-9.803271608948709,14933.0
12.0,1.2999999523162842,21.0,25.350271224975582,-0.0477106422185897,-79.78279444883441,40.45900267423571,268.5674221730232,0.0011345709208399,0.0159587599337101,-0.7949842810630798,0.6064190864562988,-0.0141062309585899,-0.0075511520001491,0.0039856934786687,0.0004519561771303,0.0019013072596862,-0.0004464550584089,-0.2491339252889156,-0.239879957344383,-9.804816443324093,14933.0
12.2,1.2999999523162842,24.0,25.342758178710927,-0.0715659633278846,-79.78279445277826,40.459002687841725,268.56786366462705,0.0011218613944947,0.0159614086151123,-0.7949909567832947,0.6064102649688721,-0.0164071712897452,-0.0086711865615027,0.0038321653597821,0.0013334853574633,0.0006372966454364,0.0007786806090734,-0.2507943883538246,-0.2380789601057768,-9.8041668176651,14933.0
12.3,1.2999999523162842,25.0,25.33524703979492,-0.0636141896247863,-79.78279458062212,40.45900280860875,268.5564351892471,0.001132381032221,0.0159584786742925,-0.7950099110603333,0.6063855290412903,-0.0116097740856658,-0.0122404672637892,0.004508966202426,-0.0002120658900821,-0.0032429476268589,-0.0023067593574523,-0.2487429841049016,-0.2242581888288259,-9.804009527564052,14933.0
12.5,1.2999999523162842,27.0,25.33774948120117,-0.0715659633278846,-79.7827946970311,40.45900294378856,268.54459347486494,0.0011470254976302,0.0159486643970012,-0.7950183153152466,0.6063746809959412,-0.0091975690023779,-0.0143074685551324,0.0051055854694982,0.0032258289866149,0.0043472261168062,0.0041329241357743,-0.2490142035484314,-0.2276219092682004,-9.804454500675202,14933.0
12.61,1.399999976158142,26.0,25.34526252746582,-0.0795177370309829,-79.78279471055659,40.459002956507824,268.54515310287474,0.0011372902663424,0.0159329697489738,-0.7950100898742676,0.6063859462738037,-0.0121285397982272,-0.0154152316477736,0.0049302953977621,-0.0057110390625894,-0.0023896330967545,-0.0015813146019354,-0.2495755179785192,-0.2334825917892158,-9.804414739608765,14933.0
12.8,1.399999976158142,28.0,25.346513748168945,-0.0715659633278846,-79.78279480692422,40.45900307977458,268.5357915973663,0.0011377034243196,0.0159268360584974,-0.7950134873390198,0.6063816547393799,-0.0088930425066278,-0.009614401354431,0.008265165785888,-0.0044220620766282,-0.0028968814294785,-0.0034836537670344,-0.251216685231775,-0.2289216356724501,-9.803486201763151,14933.0
12.9,1.2999999523162842,30.0,25.33274269104004,-0.0715659633278846,-79.78279492273305,40.45900321681805,268.52559407711027,0.0011579704005271,0.0159315355122089,-0.7950224280357361,0.60636967420578,-0.0096148194045296,-0.0100023531179473,0.0075694199452806,-0.0056025451049208,-0.0014580980641767,-0.0068753105588257,-0.2465569294430316,-0.2321598785184324,-9.806457172036172,14933.0
13.1,1.5,30.0,25.350271224975582,-0.0874695107340812,-79.78279493178695,40.45900322799357,268.52637811660765,0.0011341962963342,0.0159254800528287,-0.7950254678726196,0.606365978717804,-0.0106014821626885,-0.011788196846998,0.0071014352759377,0.0084914816543459,0.0020593914669007,0.0041937031783163,-0.2470823748596013,-0.2382124410755932,-9.805047408342364,14933.0
13.2,1.5,31.0,25.35152244567871,-0.0715659633278846,-79.78279502941295,40.45900337015673,268.5175824379921,0.0011532816570252,0.015954315662384,-0.7950301766395569,0.6063589453697205,-0.0111347699034468,-0.008892784321539,0.0092938981902163,0.0061922827735543,0.0035409072879701,0.0085670361295342,-0.2521797947399318,-0.2182152741774916,-9.802963460683824,14933.0
13.4,1.600000023841858,31.0,25.347766876220703,-0.0795177370309829,-79.78279503564244,40.4590033821052,268.51855137109754,0.0011617973214015,0.0159614346921443,-0.7950351238250732,0.6063522696495056,-0.0144377628223493,-0.0101468208638859,0.0091752323138944,-0.0043350313790142,0.0001908101112348,-0.0055130515247583,-0.2494032078422606,-0.2160790304839611,-9.803077481389048,14933.0
13.5,1.600000023841858,31.0,25.33900260925293,-0.0874695107340812,-79.78279515116122,40.459003514096594,268.5082406616211,0.0011850472074002,0.0159486066550016,-0.7950267791748047,0.6063635349273682,-0.011833635239532,-0.0101642285971817,0.0077625404927129,-0.0042081396095454,0.0019842609763145,-0.0038347984664142,-0.2447838526591659,-0.2404473565332592,-9.805411105155946,14933.0
13.7,1.600000023841858,30.0,25.349018096923828,-0.1033730581402778,-79.78279515893423,40.45900352626836,268.5090512251854,0.0011777599574998,0.0159400980919599,-0.7950301170349121,0.6063593029975891,-0.0135864727139718,-0.0113424880359673,0.0074553071211312,-0.0014384833630174,-0.0025051468983292,0.0021948567591607,-0.2486105994880199,-0.2412649617344141,-9.80439076602459,14933.0
13.8,1.600000023841858,29.0,25.34526252746582,-0.0795177370309829,-79.78279525798591,40.45900366709819,268.49856629133217,0.0011740582995116,0.0159520506858825,-0.7950243949890137,0.6063665747642517,-0.013903512826657,-0.0087019963191935,0.0065354034087837,0.000780172762461,-5.763423177995719e-05,0.0035406874958425,-0.2492143062315881,-0.223450158443302,-9.804220027327538,14933.0
14.0,1.600000023841858,27.0,25.33649826049805,-0.0795177370309829,-79.78279537029147,40.459003803337566,268.4900036072731,0.0011962658027186,0.0159388110041618,-0.7950214147567749,0.606370747089386,-0.0123790545797974,-0.0091828862575391,0.0092533722987916,0.0055364156141877,0.0046008876524865,0.0041679586283862,-0.2464132158458233,-0.2308034706674517,-9.80505617916584,14933.0
14.1,1.600000023841858,27.0,25.34526252746582,-0.0874695107340812,-79.78279538409035,40.45900383333864,268.4919362282753,0.0011721651535481,0.0159361977130174,-0.7950257062911987,0.6063652038574219,-0.0168112643739188,-0.0121984645345499,0.0087504100726624,0.0087204556912183,0.0015550397802144,0.0065924753434956,-0.2509262430667877,-0.2243694321066141,-9.803616594672205,14933.0
14.3,1.600000023841858,29.0,25.34401130676269,-0.0238553211092948,-79.7827955005,40.459003938541,268.4817632651329,0.0012003725860267,0.0159359518438577,-0.7950225472450256,0.6063693761825562,-0.0104389189127494,-0.009903757008658,0.0080956488565201,-0.0045098303817212,0.0009161296184174,-0.0021491339430212,-0.2502485873177648,-0.2175689923949539,-9.804104837179183,14933.0
14.4,1.7000000476837158,27.0,25.342758178710927,-0.0954212844371795,-79.7827956166486,40.45900407574764,268.4749655342102,0.0011986447498202,0.0159517228603363,-0.795017659664154,0.6063753366470337,-0.0093227565046961,-0.0093079760310474,0.0121452115947307,0.0039789979346096,0.0040066102519631,0.0054584871977567,-0.2492458994686603,-0.2398327228054405,-9.8046059435606,14933.0
14.6,1.7000000476837158,29.0,25.346513748168945,-0.0954212844371795,-79.78279562419954,40.45900408744274,268.47621824502943,0.0011862555984407,0.0159341040998697,-0.7950167655944824,0.6063770651817322,-0.0129796259855257,-0.0106103910959767,0.0119977447154597,-0.0110959755256772,-0.0008799689821898,-0.0081364708021283,-0.2519664444588125,-0.2221287607960403,-9.802759977579116,14933.0
14.7,1.7000000476837158,31.0,25.33774948120117,-0.0795177370309829,-79.78279577549317,40.45900421523017,268.4668516731262,0.0011963732540607,0.0159556940197944,-0.7950105667114258,0.6063845157623291,-0.0089083872747409,-0.0138287827719357,0.0097253004663419,-0.0010120182996615,-0.0002490392362233,-0.0035629353951662,-0.2468089627102017,-0.2428054106980562,-9.806077687740329,14933.0
14.9,1.600000023841858,32.0,25.33900260925293,-0.0636141896247863,-79.78279578837446,40.45900422599024,268.46786197185514,0.0012074939440935,0.0159573797136545,-0.7950087189674377,0.6063868999481201,-0.0106140997897142,-0.0150667425121024,0.0094331240583612,-0.0016748766647651,-0.0025943184737116,0.0049584484659135,-0.2486845850385725,-0.2401704543270171,-9.80521990120411,14933.0
15.0,1.600000023841858,32.0,25.33148956298828,-0.0795177370309829,-79.78279590982687,40.45900435329564,268.4599603629112,0.0012075923150405,0.0159651972353458,-0.7949904799461365,0.6064106225967407,-0.0109416705220877,-0.0128231941055222,0.0104831803578686,-0.0081601701676845,-0.0024659365881234,-0.0056900028139352,-0.2475716771744192,-0.2258210947550833,-9.80520528316498,14933.0
15.21,1.600000023841858,34.0,25.346513748168945,-0.0715659633278846,-79.7827959211903,40.459004365228,268.4610415315628,0.0012096154969185,0.0159635357558727,-0.7949962615966797,0.6064030528068542,-0.0118499875775338,-0.0145495495020602,0.0100102487202006,0.0072520980611443,0.0039654057472944,0.0046881092712283,-0.2451520079746842,-0.2343579565174877,-9.805622774362565,14933.0
15.3,1.600000023841858,32.0,25.33148956298828,-0.055662415921688,-79.78279603333529,40.45900448001274,268.4537289357185,0.0012080360902473,0.0159677416086196,-0.794986367225647,0.6064159274101257,-0.0096717274538933,-0.0109478841711548,0.0113929111521987,0.0070431903004646,0.001126573071815,0.0083826808258891,-0.2505031421966851,-0.2212261699698865,-9.802937148213386,14933.0
15.5,1.600000023841858,31.0,25.255115509033203,0.2385532110929489,-79.78279615211972,40.459004595580105,268.4452159619331,0.0012143077328801,0.0160004459321498,-0.7950396537780762,0.6063452363014221,-0.0090110869659432,-0.0087403127523341,0.0131700045366357,-0.0062023079954087,-0.0023134439252316,-0.0176250021904706,-0.2429902558028698,-0.2328422120399773,-9.800696495175362,14933.0
15.6,1.600000023841858,30.0,25.277650833129893,0.2226496636867523,-79.78279616094392,40.459004605119546,268.44655200004576,0.0012141749029979,0.0160007048398256,-0.7949395179748535,0.6064764857292175,-0.0088355484545622,-0.0108903194250399,0.0127379832163632,0.0080070113763213,-0.0036644837819039,0.0119152339175343,-0.2462330485135317,-0.2390157205983996,-9.805606402158736,14933.0
15.8,1.600000023841858,27.0,25.27013969421387,0.2306014448404312,-79.78279628207106,40.459004736968176,268.43706073522566,0.0012215251335874,0.0160208493471145,-0.7949750423431396,0.6064294576644897,-0.0113328009032947,-0.0091844609298545,0.0095484229952267,-0.0042989710345864,-0.0004139191005378,-0.0030699141789227,-0.2463025024719536,-0.2434288152493537,-9.796301727890969,14933.0
15.9,1.600000023841858,25.0,25.281408309936523,0.2306014448404312,-79.78279645482341,40.459004865420106,268.4285426354408,0.0012356827501207,0.0160326622426509,-0.7950032949447632,0.6063920259475708,-0.0077137084940267,-0.0181378306054812,0.0087787448721425,-0.0007996842614375,0.0003947149089071,-0.0042270706035196,-0.2493626427836716,-0.2176212336122989,-9.805961328148843,14933.0
16.1,1.600000023841858,24.0,25.273895263671875,0.2465049922466278,-79.78279647265022,40.45900487716997,268.4294800376892,0.0012617631582543,0.0160439386963844,-0.7949858903884888,0.6064143776893616,-0.0100450257975558,-0.0192378257085948,0.0084155878082072,0.0024271679576486,0.003014997113496,0.0034630487207323,-0.2480437119305134,-0.2251794541999698,-9.809644489288331,14933.0
16.2,1.600000023841858,23.0,25.25887107849121,0.2862638533115387,-79.78279658361386,40.45900501210501,268.4203676795959,0.0012570209801197,0.0160811841487884,-0.795009970664978,0.606381893157959,-0.0103924657874426,-0.0126607761905042,0.0077964364485994,0.0043307761661708,0.0009169263066723,0.0027282717637717,-0.2481438637711108,-0.2306022716313601,-9.806067747473715,14933.0
16.4,1.600000023841858,18.0,25.24635124206543,0.3657816052436829,-79.78279659442299,40.45900502463319,268.42117776632307,0.0012742173857986,0.0160871520638465,-0.795013964176178,0.606376588344574,-0.0138532474529557,-0.0137070117110338,0.0075407555391102,-0.0063300412148237,-0.0045491121709346,-0.0042481776326894,-0.2416862901672721,-0.2174353469721973,-9.806600428819657,14933.0
16.5,1.600000023841858,17.0,25.240089416503903,9.39104461669922,-79.78279668954437,40.45900516248717,268.4116767263412,0.0013439167523756,0.016193188726902,-0.7950900793075562,0.6062737107276917,-0.011055022582716,-0.0070141656928255,0.0112509988148399,0.0154361762106418,-0.0027385298162698,-0.007350297179073,-0.2444454998709261,-0.2391210801154375,-9.80212730884552,14933.0
16.7,1.600000023841858,15.0,24.892019271850582,0.6361418962478638,-79.78279669412893,40.45900517351885,268.41257943868635,0.0015588349197059,0.0166820082813501,-0.7951234579086304,0.6062161326408386,-0.0153548510286113,-0.010615949922894,0.004733690706241,0.0070921522565186,-0.0110801346600055,0.0221097264438867,-0.2600119391083717,-0.3034280817769468,-9.793085759282114,14933.0
16.8,1.600000023841858,14.0,25.14994239807129,0.2067461162805557,-79.782796831406,40.459005304836055,268.40249165058134,0.0015546367503702,0.0169720705598592,-0.7951102256774902,0.6062254309654236,-0.013205038536851,-0.008797912307837,0.004819008345943,0.0207356940954923,-0.0204496197402477,0.0052588209509849,-0.279403718188405,-0.3250396649166941,-9.78725550055504,14933.0
17.0,1.5,14.0,24.392452239990234,2.6240854263305664,-79.78279694754077,40.45900543270079,268.3946076250076,0.0016989349387586,0.0171855613589286,-0.7951758503913879,0.6061330437660217,-0.0148231599982545,-0.004136789753015,0.0133267123389693,-0.005217567551881,-0.0164197124540805,-0.0171040743589401,-0.2586786277592182,-0.1624866677820682,-9.806998039484023,14933.0
17.1,1.5,13.0,24.95587539672852,0.5407206416130066,-79.78279695240037,40.45900544684892,268.3954582428932,0.0016583453398197,0.0175188779830932,-0.7951373457908629,0.606174111366272,-0.0160596593669125,-0.0086922296725977,0.0071849663876722,0.0204861760139465,0.0197018273174762,0.0015505246119573,-0.2349686068296433,-0.2984679252840578,-9.819904013872147,14933.0
17.3,1.399999976158142,12.0,25.2363338470459,0.198794350028038,-79.7827970906458,40.45900556440339,268.3857495999336,0.0016339004505425,0.0174412466585636,-0.7951247692108154,0.6061928868293762,-0.0110147091192126,-0.0071805579797187,0.0062198332920213,-0.0078875431790947,-0.0356727130711078,0.0065286294557154,-0.2932786310277879,-0.222748912833631,-9.79896221101284,14933.0
17.4,1.399999976158142,11.0,25.17873954772949,1.1212000846862793,-79.78279725576324,40.45900570927938,268.37620343923567,0.0016292232321575,0.0174483861774206,-0.7950543761253357,0.6062850952148438,-0.0082529812934452,-0.0139777237131723,0.006660174187299,0.0098852477967739,0.0110382409766316,-0.0029521861579269,-0.2854463952966035,-0.2942525944299996,-9.80094266295433,14933.0
17.6,1.399999976158142,9.0,24.552715301513672,4.198536396026611,-79.78279726801105,40.45900572129012,268.37694462299345,0.0016444725915789,0.0174481216818094,-0.7950821518898009,0.6062484979629517,-0.0143180561418232,-0.0146590061284157,0.0064521707931644,-0.0263324435800314,-0.008544735610485,-0.0042015127837657,-0.2675367757491768,-0.2305343160219491,-9.809296579957008,14933.0
17.7,1.399999976158142,8.0,24.38994789123535,5.160701274871826,-79.78279740883251,40.4590058701135,268.3657908654213,0.001704117283225,0.0175189860165119,-0.7951669692993164,0.6061350703239441,-0.0094859878673608,-0.0148947061131295,0.0065874892005167,0.0068975281901657,0.0379005260765552,0.0157871097326278,-0.2655407373234629,-0.2243533888086676,-9.790552745461463,14933.0
17.9,1.399999976158142,7.0,24.06191062927246,8.158519744873049,-79.78279741947367,40.45900588335881,268.3664605236053,0.0018027338664978,0.0176092758774757,-0.7952333092689514,0.606045126914978,-0.0049166104836787,-0.0147573031985794,0.00575468391424,0.0887306258082389,0.0455580130219459,-0.0134203722700476,-0.2833065336383879,-0.3171303921192884,-9.812257025241852,14933.0
18.0,1.5,6.0,23.88286781311035,8.84237289428711,-79.78279756991559,40.45900602348654,268.35843904972074,0.0020090658217668,0.0174725577235221,-0.7953253388404846,0.6059277057647705,-0.0177560720012725,-0.0170117076599256,0.0107959749211729,-0.0270422883331775,0.0435071513056755,0.0203707050532102,-0.2555793841928244,-0.1570560662448406,-9.81421818137169,14933.0
18.2,1.600000023841858,3.0,23.499740600585927,11.498265266418455,-79.78279758442687,40.45900603677907,268.3595652794838,0.0022509500849992,0.0170807689428329,-0.7953795194625854,0.6058669090270996,-0.0069326953897904,-0.0164120971938081,0.0161884382305828,0.0434655882418155,0.0308785084635019,0.0620876811444759,-0.2923076643235981,-0.1924162075482308,-9.840662798881532,14933.0
18.3,1.600000023841858,3.0,23.344486236572266,13.772472381591797,-79.78279774416161,40.45900616406516,268.3488424038887,0.0039316951297223,0.0164490491151809,-0.7954365015029907,0.605800986289978,-0.0099279914274181,-0.0166796134007795,0.0198958894305473,-0.0580372363328933,0.0530070289969444,-0.0388605296611785,-0.243966649454087,-0.2313153213076293,-9.872640051841737,14933.0
18.5,1.7000000476837158,3.0,22.95635032653809,17.151975631713867,-79.78279787939017,40.45900626879515,268.33777245044706,0.0052638091146945,0.0154929915443062,-0.7952800989151001,0.6060214638710022,-0.0072824905371664,-0.0140427618883162,0.0219780200604858,-0.0829965993762016,-0.0009633466834202,0.0607013553380966,-0.2007923439703881,-0.2458885013312101,-9.832966693639756,14933.0
18.61,1.7000000476837158,4.0,22.77605438232422,18.32088661193848,-79.78279790032913,40.4590062663228,268.3399349069595,0.0067766713909804,0.0147742889821529,-0.7948164343833923,0.6066322326660156,0.0071914934766802,-0.0201045980238435,0.0219897596544993,-0.0139887351542711,0.0144753726199269,0.0791456699371337,-0.1934994225203991,-0.1361498948559165,-9.835714884996417,14933.0
18.8,1.7999999523162842,5.0,22.432992935180664,21.056297302246094,-79.78279802748617,40.45900638542209,268.334347448349,0.0096818637102842,0.0155664607882499,-0.7936990261077881,0.6080344915390015,0.0288674648304943,0.0128326931763161,0.0379154701587691,0.0334152653813362,0.0372461639344692,-0.0694487169384956,-0.0873887027241289,-0.2900623152405024,-9.92296352863312,14933.0
18.9,1.7999999523162842,6.0,22.28274726867676,23.49749183654785,-79.7827981816335,40.45900641486492,268.33466251850126,0.0097558768466115,0.0092304488644003,-0.7886549234390259,0.6146894097328186,0.0958093746176814,0.0446751739891419,0.1491768662296064,-0.1544753462076187,-0.0546001195907592,-0.0513136759400367,0.1547471469640731,0.0357349592470564,-10.3089195227623,14933.0
19.1,2.0,11.0,22.5106201171875,19.89533805847168,-79.78279816242505,40.45900628537164,268.3550689435005,0.008531330153346,0.008949858136475,-0.7873265147209167,0.6164124011993408,0.1445823308015756,0.0686168709471728,0.2645037610600273,-0.1453088968992233,-0.1286647468805313,0.0052422336302697,0.0863960830494761,0.2249927452951669,-10.812195221185684,14933.0
19.2,2.0999999046325684,14.0,22.51813125610352,19.43413543701172,-79.78279827717408,40.45900606517306,268.39124032020567,0.0010187216103076,-2.079542900901288e-05,-0.7873464226722717,0.6165101528167725,0.2137865039349024,0.0608428468546654,0.3470597823587848,-0.1604195088148117,0.0577789843082428,0.0091216946020722,0.0434703892981633,0.1871888515725732,-10.641667023897172,14933.0
19.4,2.0999999046325684,20.0,22.59951591491699,18.72642707824707,-79.7827982615937,40.459005870151074,268.42557015180586,-0.0027948201168328,-0.0064571294933557,-0.7880456447601318,0.6155767440795898,0.237417436631505,0.0576965886727416,0.3446055150238583,-0.1621756702661514,0.1530816256999969,0.0144745539873838,-0.0815349454991519,0.354291311390698,-9.91243620157242,14933.0
19.5,2.200000047683716,24.0,22.51688003540039,19.680641174316406,-79.78279840569205,40.459005594941225,268.45244821071617,-0.0107261380180716,-0.0203929599374532,-0.7892586588859558,0.6136285066604614,0.2123249114205128,0.0559243582558057,0.2132591444314894,-0.0623202472925186,0.0893114954233169,0.0304163713008165,0.0174858882743865,0.2941659277305007,-9.66512646138668,14933.0
19.7,2.200000047683716,28.0,22.391674041748047,21.239187240600582,-79.782798394563,40.459005410568736,268.4725796794891,-0.0124609554186463,-0.0240041445940732,-0.7898125648498535,0.612751841545105,0.1932133682363554,0.055713114330679,0.1731631975980416,-0.0155949983745813,-0.0091913258656859,0.0701572149991989,0.0950824325345456,0.0075172535330057,-9.461398358345033,14933.0
19.8,2.299999952316284,33.0,22.325315475463867,21.84352302551269,-79.7827986506788,40.45900532828533,268.48997094392774,-0.0102938646450638,-0.0184294655919075,-0.7913697957992554,0.6109732389450073,0.1549848084431383,0.0121491984154536,0.1369152219041242,0.1509600579738617,-0.0272106938064098,0.0482189916074276,0.0876305947266519,0.2485277882963419,-9.475921087861062,14933.0
20.0,2.400000095367432,39.0,22.190093994140625,22.718217849731445,-79.78279867255064,40.45900510471153,268.5269042468071,-0.0094000613316893,-0.0142860300838947,-0.7916516661643982,0.6107333898544312,0.1568847862404041,0.0263923235857116,0.1833507002485441,0.077724665403366,-0.0676132068037986,0.0069452761672437,-0.0934565137233585,0.3678522835671902,-9.97240758419037,14933.0
20.1,2.400000095367432,42.0,22.306535720825195,21.398223876953125,-79.78279868706261,40.45900497362085,268.5480570411682,-0.0097003793343901,-0.0097606442868709,-0.7913621068000793,0.6111928224563599,0.1506893772539403,0.0224307881592229,0.2338145242417572,0.0474448688328266,-0.0228250790387392,-0.0145502910017967,-0.0507151580136269,0.2113559785857796,-10.21188731789589,14933.0
20.3,2.5,46.0,22.310291290283203,21.310754776000977,-79.78279873240626,40.4590047755264,268.59379544019697,-0.0075593818910419,-0.0072911297902464,-0.790155827999115,0.6128160357475281,0.1563735744809595,0.038583298505699,0.2815082963725023,0.0383751131594181,0.0150066893547773,0.0150647526606917,0.0395412887865677,0.1417267681472003,-10.015310944318774,14933.0
20.4,2.5,47.0,22.386667251586918,20.030517578125,-79.78279875185319,40.45900461279856,268.6349193668365,-0.0105274636298418,-0.0123938666656613,-0.7888200879096985,0.6144090890884399,0.132587388384344,0.0519720073231317,0.2873746513739969,-0.03728012368083,-0.0068204798735678,-0.0526184774935245,0.089060284635052,0.0830925158411264,-9.913024431467056,14933.0
20.6,2.5,51.0,22.48056983947754,19.195581436157227,-79.78279873859744,40.45900449967243,268.66465117692945,-0.0111533235758543,-0.0152264637872576,-0.7882817387580872,0.6150251030921936,0.1183949303063537,0.0447626899781634,0.2941823853908553,-0.0633716657757759,0.0430230684578418,-0.0732235684990882,0.106600981419906,0.3704409921169281,-9.856468992233276,14933.0
20.7,2.5999999046325684,54.0,22.362876892089844,21.41412734985352,-79.78279892624712,40.45900441498539,268.7189818239212,-0.0106950858607888,-0.0181672498583793,-0.7878826856613159,0.6154645085334778,0.1011785024146377,0.0116188472799547,0.2720834392724525,-0.0236286427825689,0.066399797797203,-0.0626480132341384,0.0007653251546435,0.2680561364069581,-9.729070442318918,14933.0
20.9,2.700000047683716,57.0,22.292762756347656,20.952924728393555,-79.78279895028996,40.459004344685866,268.7464871025085,-0.0105459075421094,-0.0187906790524721,-0.7874424457550049,0.616011381149292,0.0845477348186676,-0.005180899335135,0.274920917455736,0.0364109054207801,0.0508121214807033,-0.0783455371856689,-0.0452867765910923,0.3073348806425929,-9.743794900774956,14933.0
21.0,2.700000047683716,56.0,23.427120208740234,10.210077285766602,-79.78279892445869,40.45900431751142,268.7847128129005,-0.0111678279936313,-0.0170075241476297,-0.7873713374137878,0.6161431670188904,0.0788102622392401,0.0039306526900625,0.2967191032425295,-0.0626220703125,-0.0878532975912094,0.0351367183029651,-0.1024314872547984,0.2956547750160098,-9.824108161926269,14933.0
21.2,2.799999952316284,56.0,22.14251708984375,23.410022735595703,-79.78279897962047,40.45900420559732,268.82533725261686,-0.0147748636081814,-0.0095923757180571,-0.7886319756507874,0.6146132349967957,0.0724339311494109,-0.0176502346928761,0.0718803915124223,0.1704996824264526,-0.1440721452236175,0.0020447040442377,-0.0965850390493869,0.2854901763238013,-8.689038473367692,14933.0
21.3,2.799999952316284,57.0,21.959716796875,24.626644134521484,-79.78279909362121,40.4590040623735,268.84753658533094,-0.014311408624053,-0.0036576788406819,-0.7892521619796753,0.6138915419578552,0.0856856759523555,-0.0379113407057783,0.0630794533836694,0.1163828819990158,-0.0210479889065027,0.0770931392908096,-0.1941117539070546,0.1484972774237394,-9.366330817937852,14933.0
21.5,2.799999952316284,52.0,21.769405364990234,26.23290252685547,-79.78279917481609,40.459004086082565,268.87595074534414,-0.0158162433654069,-0.0052812141366302,-0.7896853685379028,0.6132854819297789,0.0977009640158965,-0.0052104899194338,0.2329156789106715,-0.0449165627360343,0.0939012095332145,0.003740566316992,-0.0681178742134943,0.1986632631160318,-10.631310435533525,14933.0
21.6,2.900000095367432,50.0,21.56782531738281,28.817228317260746,-79.78279919530472,40.45900400330749,268.90533282518385,-0.0169381760060787,-0.0085723474621772,-0.7894651889801025,0.613501787185669,0.1070308975525754,-0.0014567571885845,0.3508157874205898,0.0215491466224193,0.0944288223981857,0.061374794691801,0.0169817760586738,0.1756709148176014,-10.966757011413575,14933.0
21.7,2.900000095367432,47.0,21.473920822143555,28.149280548095703,-79.78279920444137,40.45900392179488,268.9473107373714,-0.0184771660715341,-0.012261857278645,-0.7890275120735168,0.6139576435089111,0.100152612128219,0.0110617572831258,0.4898422082176003,-0.1421273499727249,0.0071120280772447,0.0934831276535988,0.0714322816114872,0.2871088866144419,-11.418183109760284,14933.0
21.9,3.0999999046325684,45.0,20.988126754760746,32.952152252197266,-79.78279915853783,40.459003799208745,269.0488824164867,-0.0187270808964967,-0.0165965352207422,-0.7889226078987122,0.6139829754829407,0.1113463421682816,0.0468550278831694,0.8218202118629324,-0.0244703236967325,0.0346909165382385,0.0848837867379188,0.0436273824702948,0.3849007909744978,-11.828891537189484,14934.0
22.1,3.2000000476837163,48.0,20.92552375793457,35.17069625854492,-79.78279912373874,40.459003884185655,269.2444068035483,-0.0183243658393621,-0.0160797759890556,-0.7895146608352661,0.613247275352478,0.083656403826793,0.0612602499667642,1.2901367300900397,0.0030485123861581,-0.0138875674456357,0.0115657979622483,0.017273474461399,0.2728897737711668,-12.231705054044724,14934.0
22.2,3.299999952316284,47.0,20.777782440185547,35.40129852294922,-79.78279906504648,40.459003857556574,269.38641530185936,-0.016634464263916,-0.0163979493081569,-0.7902554869651794,0.6123321056365967,0.0881093361396386,0.0605853201690223,1.546107627207489,0.0442291237413883,0.0292930621653795,0.0470593683421611,0.0920377873443067,0.3552570156008005,-12.367849284410472,14934.0
22.4,3.400000095367432,44.0,20.78404235839844,35.289974212646484,-79.78279900931284,40.45900404727097,269.7279206430912,-0.0120138712227344,-0.0148846032097935,-0.7928558588027954,0.6091090440750122,0.060584239851597,0.0707616017747265,2.037299000941569,0.0175580400973558,-0.0810364931821823,-0.0068472274579107,0.0708566095260903,0.5523491866886616,-12.231700376272205,14934.0
22.5,3.299999952316284,43.0,20.787797927856445,35.67165756225586,-79.7827990049753,40.45900437984636,270.14133533000944,-0.0144174061715602,-0.009318646043539,-0.7937880158424377,0.6079521775245667,0.0397135010447497,0.0476895382144351,2.4876386491269886,0.024515226483345,-0.0658082142472267,0.0021929331123828,0.0608441160991788,0.2972628689557314,-12.27003823041916,14935.0
22.7,3.299999952316284,43.0,21.192211151123047,30.892641067504893,-79.78279894214855,40.45900442038421,270.4012351846695,-0.0183978900313377,-0.0059951934963464,-0.7930358052253723,0.6088677048683167,0.0377926623212949,0.0367671744450097,2.701207155616732,0.0600135549902916,-0.0434830002486705,-0.0678436756134033,0.0825681576412171,0.3316544372588396,-12.01334663271904,14935.0
22.8,3.299999952316284,40.0,21.17092514038086,30.868785858154297,-79.78279905482833,40.45900483678136,270.6029373025894,-0.0188725125044584,-0.0031343190930783,-0.791713297367096,0.610593318939209,0.0241416413913244,0.0031448582500788,2.8180600406946006,0.0449196323752403,0.0015018970007076,-0.0568652488291263,-0.0051898744096979,0.4130891943722964,-11.629734202623368,14935.0
23.0,3.400000095367432,38.0,21.58159828186035,26.23290252685547,-79.78279903855059,40.45900530020481,271.1140468931198,-0.0102257942780852,-0.0039685619994997,-0.788263738155365,0.6152399182319641,-0.0234109341672687,0.0213166296973942,2.999566594787783,0.0786148756742477,0.0881980061531066,-0.0043126326054334,0.1659782412461936,0.1428868009150028,-11.002294049263003,14936.0
23.1,3.400000095367432,38.0,21.53026390075684,27.05988693237305,-79.7827989261505,40.45900537223057,271.4176904773712,-0.0098437014967203,-0.0049808090552687,-0.7863427996635437,0.6176919937133789,-0.0383004887780779,0.0657413731513283,3.067626286199442,-0.0982451811432838,-0.0843858122825622,-0.0215262174606323,0.171098209451884,0.2095013879612088,-10.606320605278016,14936.0
23.2,3.5,38.0,21.55655670166016,25.946638107299805,-79.78279878957211,40.459005436351866,271.7264225101471,-0.0121854050084948,-0.0045075891539454,-0.7847223877906799,0.6197113394737244,-0.0322353477798403,0.0940982523796678,3.1146512734776253,-0.0842508971691131,-0.0346833877265453,-0.0534829869866371,0.0757453431934118,0.2880895012244582,-10.37963340997696,14936.0
23.41,3.5,38.0,21.696786880493164,25.286640167236328,-79.7827983905342,40.45900608339206,272.6006137943268,-0.0069184978492558,-0.0090070683509111,-0.7838712930679321,0.6208194494247437,-0.0411027361305244,0.1133419523586565,3.1510690656356286,-0.0727189034223556,0.0692447945475578,-0.0202016104012727,0.0249257804034277,0.2985882134735585,-10.23517210006714,14937.0
23.6,3.5,38.0,21.735599517822266,24.03821182250977,-79.78279823205952,40.45900614988373,272.9152972316742,-0.0075076147913932,-0.0073859151452779,-0.7845229506492615,0.6200104355812073,-0.0247928735663506,0.1296145079429056,3.1414898363981423,0.0836205258965492,-0.0631816610693931,0.1089915111660957,0.113787620589137,-0.0305324059724807,-9.870999323129654,14937.0
23.7,3.5,35.0,21.870820999145508,23.56905746459961,-79.78279806687287,40.459006214643786,273.2277431106567,-0.0078971795737743,-0.0050839865580201,-0.785653829574585,0.6185951828956604,-0.0434294124634982,0.1302711521768679,3.1090810310296457,0.0048937741667032,-0.0244790650904178,-0.0080464873462915,0.0287872268026694,0.226739838514477,-9.530458652973175,14938.0
23.9,3.400000095367432,36.0,21.859554290771484,23.07604789733887,-79.78279802702444,40.459006569402746,273.8104400253296,-0.0047817449085414,-0.0050465557724237,-0.7879019975662231,0.6157614588737488,-0.0743219940078673,0.1082399352809049,2.9649738765555416,-0.0654579997062683,0.0270047038793563,0.0182380490005016,-0.0031457197945564,0.2527744565717876,-9.258399403095243,14938.0
24.02,3.299999952316284,34.0,21.79820251464844,24.165441513061523,-79.78279721838295,40.45900663687026,274.44802947998045,0.0051354863680899,-0.0061586489900946,-0.7890359163284302,0.6142947673797607,-0.0790445469085237,0.158871025164801,2.868214274385496,0.1027912274003028,0.1640792787075042,0.0471664443612098,0.1008836287725716,0.0769854828156531,-9.330973289608956,14939.0
24.2,3.2000000476837163,29.0,21.67174530029297,24.332427978515625,-79.78279703073272,40.459006690079065,274.7332248306274,0.0089849969372153,-0.0097562987357378,-0.7889312505722046,0.6143383979797363,-0.0939751902150278,0.1841055997969898,2.8345335989659066,-0.0542988590896129,0.1196217611432075,0.0065312469378113,0.1046125717833638,0.2213840996101498,-9.425090657472609,14939.0
24.3,3.2000000476837163,27.0,21.78192710876465,23.664478302001957,-79.7827961226095,40.459006391798894,275.1629480934143,0.0089354356750845,-0.0130361216142773,-0.7885961532592773,0.6147084236145021,-0.0712772386679194,0.2578445648356081,2.8704273434187786,-0.188350960612297,-0.0250917617231607,-0.0490027442574501,0.1546197324804961,0.2061286774277687,-9.518004668354989,14940.0
24.5,3.0999999046325684,25.0,21.81447982788086,23.50544357299805,-79.7827950561302,40.45900610223156,275.8601245498657,0.0030196085572242,-0.0189906135201454,-0.7878701686859131,0.6155411005020142,-0.0139574129359798,0.2871974606508481,2.8857108950444674,-0.1923427432775497,-0.0251312758773565,0.0029078864026814,0.1434763829782605,0.2799562800675631,-9.655152865648269,14940.0
24.6,3.0,22.0,21.7205753326416,23.91098403930664,-79.78279483794653,40.45900609212636,276.1486301040649,0.0002615285338833,-0.0214857086539268,-0.7875363230705261,0.6158936619758606,0.012213639009846,0.2771488768061694,2.8707258596070586,-0.1555302441120147,-0.0023789219558238,-0.0677986666560173,0.2100429863110184,0.279754752125591,-9.628846827149392,14941.0
24.7,2.900000095367432,10.0,21.72433280944824,25.040136337280277,-79.78279463513933,40.45900609206517,276.43529554367063,-0.0001955838379217,-0.0236195176839828,-0.787143886089325,0.6163170337677002,0.029861798830368,0.260201943662704,2.84819337739758,-0.0202284473925828,0.0267658568918705,-0.001797886332497,0.2084451615437865,0.0864012359082698,-9.601224580407145,14941.0
24.9,2.900000095367432,4.0,21.66924095153809,24.483510971069336,-79.78279221121286,40.45900507413615,277.6288137054443,0.0077410386875271,-0.0224884673953056,-0.7867924571037292,0.6167593002319336,0.0624734815505918,0.3634172026393647,2.8862640422681887,0.1783601641654968,0.0011102402349933,0.0237373951822519,0.3173919819295406,0.0502903669327497,-9.441275165677071,14942.0
25.1,2.799999952316284,354.0,21.57158088684082,25.382062911987305,-79.7827919445201,40.45900503671263,277.9171886062622,0.0095240706577897,-0.0217237956821918,-0.7869614362716675,0.616546094417572,0.0286298973308345,0.3520916456102093,2.852588459391148,-0.0033562085591256,0.0343173667788505,-0.0411555096507072,0.3665561385825277,0.2275155447609723,-9.433728749155998,14942.0
25.2,2.700000047683716,348.0,21.495206832885746,25.64447021484375,-79.78279169751276,40.45900500055053,278.2026242828369,0.0114008327946066,-0.023202920332551,-0.7869846820831299,0.6164307594299316,0.0140312649142821,0.3360653846487277,2.8337804012514414,-0.0962017923593521,0.0510337799787521,-0.0283016115427017,0.2518255631066859,0.2797334646061063,-9.546733793020248,14943.0
25.4,2.700000047683716,339.0,21.749372482299805,24.29266929626465,-79.78279056956148,40.45900448960587,278.9525231933593,0.0121982414275407,-0.0269575715065002,-0.7867864370346069,0.6165157556533813,0.0501830191394648,0.3613234596330809,2.9042402880903286,-0.119245707988739,-0.0077504678629338,0.0254305470734834,0.3120840988308192,0.0853974425699561,-9.725717648863792,14943.0
25.5,2.700000047683716,334.0,21.54904556274414,25.54109764099121,-79.78278953183266,40.45900389038748,279.7187394714355,0.0064675714820623,-0.0306535996496677,-0.7874113917350769,0.6156312823295593,0.1278270672515589,0.364748175040252,2.9652949337435737,0.0416067689657211,0.0189418774098157,0.003852701280266,0.4146352712810039,0.0817624113243073,-9.592947261929512,14944.0
25.7,2.799999952316284,325.0,21.500215530395508,26.28061294555664,-79.78278933532276,40.4590038037745,280.01663871765135,0.0064259311184287,-0.0308256149291992,-0.7877365946769714,0.6152069568634033,0.1203673123406777,0.3436279647454935,2.9572706689861787,-0.1171177253127098,0.0162541326135396,0.0201276279985904,0.3254376410320401,0.1765140467695892,-9.64949042201042,14945.0
25.8,2.799999952316284,322.0,21.45889663696289,26.20109558105469,-79.78278913757606,40.45900357650453,280.3867873764038,0.0064160963520407,-0.0318232364952564,-0.7878721356391907,0.6149827241897583,0.1327367304123783,0.3195774769037894,3.0031711633465696,-0.0274597462266683,0.0137772457674145,0.0279811806976795,0.3760325017198921,0.0863138748519122,-9.763692975640296,14945.0
26.0,2.900000095367432,314.0,21.41632652282715,26.638442993164062,-79.78278894641744,40.45900331611272,281.0001620864868,0.0041733081452548,-0.0336310751736164,-0.7876030802726746,0.6152504086494446,0.1359903172499185,0.2676774961890153,3.018051717763268,0.0298468898981809,0.0096492385491728,-0.0080931270495057,0.3375465302914381,0.0187977841962128,-9.82579332947731,14946.0
26.1,2.900000095367432,313.0,21.47892951965332,26.38398551940918,-79.7827888626899,40.45900327815137,281.3031167602539,0.0042071798816323,-0.0328018777072429,-0.7873093485832214,0.6156707406044006,0.1312059800595714,0.2397041125271053,3.0145108927952764,0.1894248574972152,0.010608822107315,0.0664932802319526,0.3520864725485444,0.0072869554627686,-9.81915557026863,14946.0
26.2,2.900000095367432,315.0,21.435108184814453,26.58278083801269,-79.78278879046317,40.45900325082125,281.6057052230835,0.0058551183901727,-0.0292434133589267,-0.7874650955200195,0.6156374216079712,0.1002844991584225,0.2104521028661992,3.0124441494440903,0.0168750397861003,-0.0010234980145469,0.0307768508791923,0.2485092964768409,0.257585636973381,-9.705843547582628,14946.0
26.4,3.0,316.0,21.38126945495605,27.298439025878903,-79.78278951366231,40.459003323190544,282.471754989624,0.005143784917891,-0.0206876825541257,-0.7893353700637817,0.6135920286178589,0.0420581786252613,0.056695561186345,2.9743639110907965,-0.0863489881157875,-0.0215542614459991,0.0318854451179504,0.3636910394579173,-0.100851167589426,-9.763170819282532,14947.0
26.6,2.900000095367432,318.0,21.40756225585937,26.33627510070801,-79.7827896065611,40.45900334398711,282.76888938903807,0.0052371900528669,-0.0213107224553823,-0.7889324426651001,0.6140880584716797,0.0530531696161491,0.0227498760109233,2.9656741102707325,0.0175342448055744,0.0294673945754766,0.022059304639697,0.0929442793596536,0.040904964543879,-9.69982793211937,14947.0
26.7,3.0999999046325684,317.0,21.39253807067871,26.36808204650879,-79.78278970923195,40.45900336916585,283.0637664413452,0.0044000232592225,-0.0216489620506763,-0.7886175513267517,0.6144871711730957,0.0536508912945579,0.0112661857587684,2.9343021406714667,0.0542833991348743,-0.0105247423052787,0.0748583376407623,0.3057570277713239,0.0380931116268038,-9.579288166165352,14948.0
26.9,3.0999999046325684,317.0,21.34746551513672,27.560848236083984,-79.78279002519942,40.45900336927858,283.6292237854004,-0.0035187858156859,-0.0186145715415477,-0.7884225249290466,0.6148423552513123,0.0791737265093073,-0.0173613937418078,2.9009674420522544,0.1235363706946373,-0.030082069337368,0.0518851019442081,0.3305333432927728,0.0324824021430686,-9.757294367551804,14948.0
27.0,3.0999999046325684,317.0,21.334943771362305,26.773622512817383,-79.78279045551422,40.4590034902909,284.1900901412964,-0.0110961804166436,-0.014885801821947,-0.7880576848983765,0.6153214573860168,0.0778162382909117,-0.0356872418146162,2.8905401559584645,0.0245257671922445,-0.0630415081977844,0.0417069271206855,0.2763518553413451,0.3050843604281545,-9.6958079713583,14949.0
27.2,3.0999999046325684,321.0,21.258569717407227,27.28253555297852,-79.78279055030332,40.45900352675896,284.4798993682861,-0.008900505490601,-0.0136116752400994,-0.7877293825149536,0.6158067584037781,0.0849681697156855,-0.0572933715487211,2.9082525618351656,0.0818861722946167,0.0670249760150909,-0.0125757018104195,0.2409249461442232,0.1734675560519099,-9.999090768098831,14949.0
27.3,3.0999999046325684,325.0,21.31991958618164,26.95651435852051,-79.78279088258243,40.45900358014704,284.76122756958006,-0.0030852807685732,-0.0161275155842304,-0.7869290709495544,0.6168249845504761,0.0759546337654304,-0.0748764447144544,2.9363350183744283,0.039370734244585,0.1278779655694961,0.0228023845702409,0.1767753259465098,0.2228496493957937,-10.03382439851761,14949.0
27.5,3.0999999046325684,332.0,21.3599853515625,26.344226837158203,-79.78279110463845,40.4590037313204,285.3222951507568,0.0021241935901343,-0.0228762347251176,-0.7859843969345093,0.6178193092346191,0.0629198994749212,-0.0246045128727892,2.945188992138992,0.0198600720614194,0.0053485208190977,-0.0014753160066902,0.2399602286517621,0.1237130864337086,-9.966617671251296,14950.0
27.6,3.2000000476837163,339.0,21.46640968322754,25.024232864379893,-79.78279124952411,40.45900377010622,285.61724182128904,0.0027572235558182,-0.0232722219079732,-0.7857130765914917,0.618147075176239,0.0674182474352683,-0.0251708144993197,2.95627012442314,0.0511039681732654,-0.0328035838901996,0.0035658017732203,0.2497840443067253,0.3109926429390907,-9.921776543855668,14950.0
27.7,3.400000095367432,348.0,21.395042419433597,25.906879425048828,-79.78279141543806,40.45900380609871,285.91342445373533,-0.0011187769705429,-0.0209390930831432,-0.7857663631439209,0.6181678771972656,0.0604719927863254,-0.0294108040744518,2.9690270687057527,-0.169600024819374,-0.1188453584909439,-0.1106274202466011,0.2302514935098588,0.5571984288096428,-9.839549489021303,14950.0
27.9,3.5,352.0,21.405059814453125,25.723989486694336,-79.7827926983475,40.45900410590544,286.6959237670898,-0.0168309658765792,-0.0137398028746247,-0.7888470888137817,0.6142054200172424,0.1259695185467342,-0.2047126580785889,2.8945669607715714,-0.0429387353360652,-0.0815824568271637,0.0089742550626397,0.1217974746320396,0.5326240432262421,-9.800779525637626,14951.0
28.1,3.5999999046325684,357.0,21.427595138549805,25.533145904541016,-79.78279297546378,40.459004149161466,286.9859552001953,-0.0188154987990856,-0.011935799382627,-0.7908252477645874,0.6116362810134888,0.1428937659675015,-0.2350642947617738,2.902771963892244,0.0091135706752538,-0.0608241111040115,0.1320196539163589,0.0684478810150176,0.3443625930324197,-9.90440212726593,14951.0
28.21,3.700000047683716,359.0,21.301137924194336,26.86109161376953,-79.78279324679556,40.45900418949319,287.277081451416,-0.0185601525008678,-0.0112299583852291,-0.7934508919715881,0.6082476377487183,0.1452814170715847,-0.2347807712307345,2.9117492949210657,0.0069127138704061,0.0047162096016108,0.0465288423001766,0.1049464843422174,0.5579827231541277,-9.848378784656523,14952.0
28.4,3.900000095367432,7.0,21.47642517089844,25.10375022888184,-79.78279369225513,40.45900426807504,287.8290147399902,-0.0225267112255096,-0.0079112397506833,-0.7979763746261597,0.6022157073020935,0.150841894442761,-0.1831625158687831,2.894301008346792,0.007107715588063,-0.093522235751152,0.0427094362676143,0.2082574659213424,0.4716419693827629,-9.736013426184655,14952.0
28.5,4.0,9.0,21.37125396728516,25.07194328308105,-79.78279435333658,40.45900431295211,288.3698377227783,-0.0188308451324701,-0.0143876774236559,-0.7982226014137268,0.6018962264060974,0.1891809528596936,-0.2027990244892185,2.824331694072366,-0.0579934902489185,0.1435343921184539,-0.0040434328839182,0.1875465367175638,0.6440542126446963,-9.51559093773365,14953.0
28.7,4.099999904632568,16.0,21.59161376953125,23.1953239440918,-79.78279454944013,40.45900429767675,288.65272994995115,-0.0097252130508422,-0.0189133621752262,-0.7972142100334167,0.6033217906951904,0.2057182745847182,-0.1487366632217404,2.8183511644834662,0.014677126891911,0.1748445332050323,-0.1360673308372497,0.1373720177449286,0.7560289040207864,-9.623244609832764,14953.0
28.8,4.199999809265137,19.0,21.66548538208008,23.147613525390625,-79.78279479890841,40.45900422914321,288.91600128173826,-0.0118892258033156,-0.0240994226187467,-0.7960100173950195,0.6046866178512573,0.2085463523428939,-0.0769354270855915,2.8048535280683304,-0.0991744473576545,0.0577955916523933,-0.0588683262467384,0.2893412439152598,0.5052680640667677,-9.563631076812744,14953.0
29.0,4.5,22.0,21.66548538208008,22.37629127502441,-79.78279492658433,40.45900421248299,289.4618558502197,-0.0322772338986396,-0.0342664159834384,-0.7905532121658325,0.6105813980102539,0.3047918644865318,-0.0669294358364116,2.6981070154083966,-0.1551999151706695,0.0150986723601818,-0.0768657699227333,-0.0327754298737272,0.9909690787643196,-9.272320454120637,14954.0
29.1,4.599999904632568,22.0,21.72182846069336,21.445934295654297,-79.78279510285032,40.459004131076654,289.73056884765623,-0.0346332155168056,-0.034938246011734,-0.7884132266044617,0.6131756901741028,0.3873408190643099,-0.0968103197701598,2.642773651462319,0.136231392621994,0.0247594881802797,0.0921301245689392,-0.070401947395876,0.7251015917211772,-9.33891673207283,14954.0
29.2,4.699999809265137,19.0,21.706802368164062,21.92304039001465,-79.78279528546645,40.45900405210728,289.9948281860352,-0.035569179803133,-0.0333505049347877,-0.7873443365097046,0.6145824790000916,0.3775502456530477,-0.1028842795729136,2.5942059954456007,0.0987752228975296,-0.0069726118817925,-0.0284520387649536,0.1164026050642132,0.8134097508341075,-9.334304448366163,14954.0
29.4,4.699999809265137,17.0,21.76690101623535,21.676536560058597,-79.78279558991116,40.459003832127685,290.7669858551025,-0.0404256358742713,-0.0297513902187347,-0.7851635217666626,0.6172512173652649,0.3163133174266906,-0.1144318981131492,2.5238112071406658,-0.1255299597978592,0.0512815080583095,0.0159676428884267,0.0245138303562998,0.9669124641269444,-9.32180485546589,14955.0
29.6,4.800000190734863,15.0,21.815731048583984,21.23123550415039,-79.78279572883683,40.45900378520231,291.019175491333,-0.0393081754446029,-0.031827189028263,-0.7855734825134277,0.6166977882385254,0.3276425909317237,-0.1047319034378187,2.478326864966345,0.0790485441684722,0.0197894126176834,0.0733061656355857,0.1042625885177403,0.9126028673350812,-9.32864025056362,14956.0
29.7,4.900000095367432,15.0,21.848285675048828,21.223283767700195,-79.78279585017786,40.45900374072888,291.26695915222166,-0.0357465669512748,-0.0294274389743804,-0.7867897152900696,0.6154821515083313,0.3171014052420304,-0.072633074939372,2.446026651587942,0.0600992739200592,0.061509121209383,-0.1448679566383361,0.2824675861001015,0.9966796157509088,-9.42261728525162,14956.0
29.9,4.900000095367432,12.0,21.679258346557614,22.551231384277344,-79.78279605919907,40.45900347126676,291.76164527893064,-0.036607414484024,-0.0293748844414949,-0.7900007367134094,0.6113067269325256,0.2943662721993027,-0.0315657835710757,2.3857837007192098,0.0426264144480228,0.0097582098096609,0.1367184221744537,0.2890415010228753,0.8042196819931269,-9.355121705532074,14956.0
30.0,4.900000095367432,11.0,21.63167953491211,22.55918312072754,-79.78279592019733,40.45900320462911,292.2497777557373,-0.0349635332822799,-0.0288266092538833,-0.7916094660758972,0.6093448400497437,0.2772102598530894,0.0572187057792312,2.3848991618490323,-0.083536796271801,0.0657686069607734,-0.0728062391281127,0.2373619087412953,0.8569394939392806,-9.425541477799417,14957.0
30.2,4.800000190734863,10.0,21.540281295776367,23.306650161743164,-79.78279587403799,40.45900314194528,292.49030586242674,-0.0317178890109062,-0.0347092524170875,-0.7902317047119141,0.6110018491744995,0.2701127798432517,0.069614376486244,2.395756483960234,-0.0078056994825601,0.1405888199806213,0.0071315537206828,0.3194964679330587,0.7422039666026831,-9.880467134714127,14957.0
30.3,4.800000190734863,9.0,21.496458053588867,24.85724449157715,-79.78279585536184,40.459003027391326,292.7471913909912,-0.0298515949398279,-0.0419053807854652,-0.7887426018714905,0.6125666499137878,0.2712130683203786,0.1351193888201388,2.443492320316227,-0.098787635564804,0.0745304897427558,-0.0225105602294206,0.3397886451333761,0.9980522496253252,-9.688167999386788,14957.0
30.5,4.800000190734863,12.0,21.281105041503903,26.01025199890137,-79.78279560322885,40.45900288990558,293.22375198364256,-0.0246267151087522,-0.0448694415390491,-0.7851492762565613,0.6171878576278687,0.2693104758233395,0.1879522938436904,2.457908281381848,0.0457910150289535,0.0016738193808123,-0.1215830147266388,0.2735674295201897,0.7882079590111971,-9.88953148841858,14958.0
30.61,4.800000190734863,11.0,21.289871215820312,25.175315856933597,-79.78279550834206,40.4590028532899,293.47343727111814,-0.0216383524239063,-0.0434702597558498,-0.7844824194908142,0.6182471513748169,0.2567504581549669,0.1782555594827622,2.4941614563211507,0.0976636856794357,-0.0389379411935806,0.055122934281826,0.3068970338255167,0.8703269134461881,-10.109007897377015,14958.0
30.7,4.900000095367432,10.0,21.362489700317383,24.63459587097168,-79.78279543323819,40.45900281205535,293.7258882141113,-0.0217660274356603,-0.0394661873579025,-0.7849324345588684,0.6179400682449341,0.2576544268539708,0.1767454212188652,2.5129276736013906,-0.0393896996974945,-0.1224147006869316,-0.0866830870509147,0.2832019050233066,0.997794679775834,-9.772633953094482,14958.0
30.9,4.900000095367432,10.0,21.14087677001953,27.34615135192871,-79.78279527354806,40.459002521578725,294.1968412017822,-0.0293900743126869,-0.0353951305150985,-0.7874417901039124,0.6146698594093323,0.2824848696599187,0.1412666813552109,2.4717172637029563,-0.2089310139417649,-0.0977924093604087,-0.0416540578007698,0.173697095811367,0.8994474361091853,-9.71447579205036,14959.0
31.1,5.0,9.0,21.147136688232425,28.80132484436035,-79.78279520750357,40.459002592580326,294.6588658905029,-0.0365337766706943,-0.0387344881892204,-0.7880115509033203,0.6133537888526917,0.2766981382510715,0.1065176512373115,2.4977785549656724,-0.0625035911798477,-0.0573888421058654,-0.0033310044091194,0.2349933661334217,0.8014429854601622,-10.079371869564056,14959.0
31.2,5.0,8.0,21.089542388916016,27.664220809936523,-79.78279513970419,40.4590025609346,294.91262145996086,-0.0356368795037269,-0.0385249592363834,-0.7874430418014526,0.6141493320465088,0.2775812758568337,0.1079253966902987,2.546180278118903,0.0547293424606323,0.0170229077339172,-0.0508160889148712,0.1338802981004119,0.9316031753271818,-10.18383588552475,14959.0
31.4,5.0,8.0,21.04572105407715,28.06180953979492,-79.7827951340541,40.45900274836936,295.4042100524902,-0.0265107899904251,-0.0368205048143863,-0.7867428660392761,0.6156113147735596,0.2120521016431829,0.0986752458153297,2.6724917546682985,-0.0710196569561958,-0.0969310775399208,0.0392005518078804,0.1253063156548887,0.809251576513052,-10.436460160017011,14960.0
31.5,5.0,10.0,20.92552375793457,29.381805419921875,-79.78279522655794,40.45900296071824,295.61881156921385,-0.0246567279100418,-0.0361926034092903,-0.7867336869239807,0.6157371401786804,0.1855290966568465,0.0798868856066,2.6973901285151776,0.0511282831430435,0.047532133758068,-0.0555237755179405,0.2473369662836194,0.8468241032212973,-10.52150908112526,14960.0
31.7,5.099999904632568,12.0,20.986873626708984,28.554821014404297,-79.78279518071975,40.4590030679442,296.1763982391357,-0.0289139952510595,-0.0296008605509996,-0.7884048223495483,0.6137635707855225,0.1614654134252253,0.0687859199575109,2.8781283284472434,-0.103432685136795,-0.2041143923997879,0.1264477670192718,0.168392081502825,0.8221395707130432,-10.687497500181196,14961.0
31.8,5.099999904632568,13.0,21.11082649230957,27.457475662231445,-79.78279532212251,40.4590033083124,296.7098664855957,-0.0310686491429805,-0.0211160201579332,-0.7908098101615906,0.6109080910682678,0.1542845430855745,0.0154527236490821,3.015619407977713,0.0364571325480938,-0.0018606680678203,-0.0568948835134506,0.2083011921308935,0.71625014975667,-10.773333456516266,14961.0
32.0,5.099999904632568,15.0,21.035703659057614,28.149280548095703,-79.78279541684346,40.45900354228337,296.9529313659668,-0.0296120252460241,-0.0233850199729204,-0.7917061448097229,0.6097357869148254,0.1261648787452012,-0.0042169754530895,3.0235701539026407,-0.0815303474664688,0.0614717788994312,-0.0157055240124464,0.0340406074561178,0.8684932997077703,-10.317680990695951,14961.0
32.11,5.0,15.0,21.06324958801269,27.56879997253418,-79.78279537310816,40.45900363016099,297.25691314697264,-0.0291730109602212,-0.0296169351786375,-0.7918212413787842,0.6093366146087646,0.119143209240054,0.0117293640716118,3.0514217888456647,-0.0375694669783115,0.1221478208899498,-0.072146289050579,0.0408968606684356,0.7044045679271221,-10.055495349168778,14962.0
32.3,5.0,14.0,20.815343856811523,30.336017608642567,-79.7827954956974,40.45900391393873,297.7995290374756,-0.0267930421978235,-0.0254905633628368,-0.7910765409469604,0.6105982661247253,0.1219446265429174,0.0343535102128955,2.9856855319849145,0.0471703968942165,-0.0445194616913795,-0.0434717945754528,0.0541362177114933,0.7111765207350255,-9.836874972581864,14962.0
32.4,5.0,17.0,20.68638229370117,32.07745742797852,-79.78279547101175,40.45900402830373,298.0991620635986,-0.0253504943102598,-0.0206712242215871,-0.7905648946762085,0.6115040779113771,0.0927703089261462,0.0048798256631595,3.0129889417891658,0.0355890840291976,0.0910322144627571,0.0170707404613494,-0.0001462671859189,0.6489690897613765,-9.973421491384508,14963.0
32.6,4.900000095367432,20.0,20.627534866333008,32.13311767578125,-79.78279596387183,40.45900466907338,298.61730476379387,-0.0182261504232883,-0.0265429094433784,-0.7892227172851562,0.613262414932251,0.0307335290691936,-0.0538213003930198,3.0679990632110394,0.0137393064796924,0.0873015746474266,0.0083660054951906,0.0149044613353908,0.5742417833581567,-10.496457270383836,14963.0
32.7,4.900000095367432,22.0,20.592477798461918,32.920345306396484,-79.78279601261616,40.45900483424996,298.9280233001709,-0.0157485697418451,-0.0284092593938112,-0.7896406650543213,0.6127091646194458,0.0167540360460343,-0.0352218881813199,3.162333072951562,-0.0858719944953918,0.0339641980826854,-0.0186885204166174,0.055214663548395,0.6474896711111069,-10.649074276685717,14963.0
32.9,4.900000095367432,24.0,20.588722229003903,32.46709442138672,-79.78279634684267,40.459005229828016,299.46272560119627,-0.0211955569684505,-0.0189686212688684,-0.7899911403656006,0.6124582290649414,-0.0038924038272402,-0.0694429271773001,3.2770792971437728,0.0727792233228683,-0.1950112730264664,0.0986535921692848,0.0648569414298981,0.4076117420196533,-10.896379923820495,14964.0
33.0,4.900000095367432,24.0,20.5949821472168,32.061553955078125,-79.78279668895934,40.45900569928904,299.7672299957275,-0.0264441948384046,-0.011158431880176,-0.7909489870071411,0.6112086176872253,-0.0201818557848123,-0.1443795245038784,3.3490490762206813,-0.1155701726675033,-0.1292827129364013,-0.1283574849367141,-0.0515562068950384,0.8322138116508723,-10.660476347208023,14964.0
33.2,4.900000095367432,26.0,20.841636657714844,29.77144241333008,-79.78279689384874,40.45900611795996,300.4500817871093,-0.0247732605785131,-0.0096375932916998,-0.7928258776664734,0.6088682413101196,-0.001454246486055,-0.1966172693467046,3.4788740183431783,0.1624467968940735,0.1334480047225952,0.0103700924664735,-0.0129098607308696,0.587704851217568,-10.464233264923095,14965.0
33.32,4.900000095367432,28.0,20.59748649597168,31.838903427124023,-79.78279726898829,40.45900655342529,300.7540444946289,-0.0173667222261428,-0.0122599378228187,-0.7932606339454651,0.6085110902786255,-0.0252992790004002,-0.2023407670225008,3.483277188486268,0.0958317592740058,0.2040846347808838,-0.014806343242526,-0.0091628838563337,0.4883213713020086,-10.319762599468232,14965.0
33.5,4.900000095367432,28.0,20.95181655883789,27.48928260803223,-79.78279770387819,40.45900704796093,301.39748092651365,-0.0122261093929409,-0.0211044233292341,-0.7924732565879822,0.6094189286231995,-0.0591305853926514,-0.1349444965225124,3.5286485392484543,0.0144849913194775,0.0187121033668518,-0.1276961266994476,0.1449628731049597,0.5518224256485701,-10.334416891336444,14966.0
33.61,4.900000095367432,30.0,21.13837242126465,25.49338722229004,-79.78279784900094,40.4590072693726,301.7517022705078,-0.0105650955811142,-0.0176493544131517,-0.7912071347236633,0.6112022399902344,-0.0427640794582047,-0.1145108035756997,3.5631420645083938,0.1100699678063392,-0.0787898451089859,-0.0470832958817482,0.1790149009041488,0.3676882326230407,-10.178691505193711,14966.0
33.7,4.800000190734863,32.0,21.095802307128903,26.25675773620605,-79.78279798848872,40.459007493903975,302.10697647094725,-0.0149364508688449,-0.0135490493848919,-0.7904489636421204,0.6121959090232849,-0.0797003540672434,-0.1248237736797072,3.5455685554832987,-0.1420433074235916,-0.1505882740020752,0.0155548444017767,0.1033341877162456,0.4076626858860254,-9.697260419726373,14967.0
33.9,4.699999809265137,33.0,21.08453369140625,27.028079986572266,-79.78279819085607,40.45900795945626,302.78469177246086,-0.0209245551377534,-0.008133690804243,-0.7894133925437927,0.6134514212608337,-0.0503326532482668,-0.1807547905439867,3.4346058075334325,-0.0155372470617294,0.0808348059654235,0.0018140645697712,-0.061145832426846,0.4280392091721297,-9.510495089292524,14967.0
34.1,4.599999904632568,29.0,21.04822540283203,25.994348526000977,-79.78279849872874,40.45900881357103,303.5199517822265,-0.0130495270714163,-0.0161471534520387,-0.7885482311248779,0.6146223545074463,-0.0845473079901775,-0.1813743226259302,3.420067246387056,-0.0213864184916019,0.118622824549675,0.0342915803194046,-0.0359940617065876,0.6480784126371145,-9.46227953374386,14968.0
34.2,4.699999809265137,30.0,21.04446792602539,27.11554908752441,-79.78279862718442,40.45900904685281,303.8599557495117,-0.0065742153674364,-0.0166857875883579,-0.7881851196289062,0.6151770353317261,-0.0771588641934749,-0.1416794036830301,3.3953758841802584,0.0589079819619655,0.1087213456630706,-0.03264981508255,0.1079838936030864,0.6009607449173927,-9.562116647958756,14968.0
34.4,4.800000190734863,28.0,21.2385368347168,24.539175033569336,-79.78279892740767,40.45900923345933,304.5956735229492,-0.0060444748960435,-0.0163617618381977,-0.7888869047164917,0.6142908334732056,-0.0331192327488115,-0.1065561691349093,3.3837211547222825,-0.0681828930974006,-0.044475007802248,0.1135568246245384,-0.0785851713828742,0.6041222978755832,-9.475075580477712,14969.0
34.5,4.900000095367432,26.0,21.42884826660156,21.71629524230957,-79.78279904761345,40.45900930746145,305.30857940673826,-0.0231627374887466,-0.0229787584394216,-0.7893211841583252,0.6131129860877991,0.1053873452131677,-0.0788467124428866,3.255827037990336,-0.2229159474372864,-0.2170875817537308,0.0270555913448333,0.219129193983972,0.8064977572113275,-9.349792553186417,14970.0
34.7,4.900000095367432,25.0,21.61164665222168,21.278947830200195,-79.78279919795013,40.45900936212492,305.62650390625,-0.0363352857530117,-0.0275745559483766,-0.7883298993110657,0.6135597229003906,0.1916234528336829,-0.116573943363196,3.094372832464416,-0.0917296484112739,0.0753257572650909,0.0358183942735195,0.1768550308048725,0.6324507786333561,-8.470525685548782,14970.0
34.8,5.0,21.0,21.594118118286133,21.15966987609864,-79.78279905036429,40.45900933665202,305.9893846130371,-0.0383898802101612,-0.0391293093562126,-0.7867149114608765,0.6148779988288879,0.2716600263968344,-0.1272623098950936,2.962338369780848,-0.0931433960795402,0.1799986362457275,0.003651860402897,0.1095143292099237,0.8812693928182126,-8.246617087125781,14970.0
35.0,5.099999904632568,18.0,21.301137924194336,24.793630599975582,-79.78279911351497,40.459009185602106,306.6100358581543,-0.0294565670192241,-0.0507997460663318,-0.7868292331695557,0.6143708229064941,0.31627868078024,-0.0232445369590416,2.6256520196814552,0.0135299274697899,0.0713028907775878,0.0144886635243892,0.1695221838355064,0.8476343811303377,-7.927654981613159,14971.0
35.1,5.199999809265137,16.0,21.2134952545166,24.69025802612305,-79.7827992583544,40.45900919735413,306.8661508178712,-0.027878725901246,-0.04944858700037,-0.7877591252326965,0.6133622527122498,0.2944387563178368,-0.0243009639463572,2.4733685824146487,0.1214228644967079,0.0047924164682626,0.0104370936751365,0.2801561452075839,0.8271284881979227,-8.226184576749803,14971.0
35.2,5.300000190734863,16.0,21.35247230529785,23.46568489074707,-79.78279940615882,40.45900921123605,307.1094140625,-0.0283540450036525,-0.0428406819701194,-0.7886914610862732,0.6126390695571899,0.2688787293154539,-0.0336134156839549,2.368963107763339,0.1010327190160751,-0.1140328496694564,-0.009674915112555,0.2192529722303152,1.0405827766656877,-8.591243206858636,14972.0
35.4,5.400000095367432,13.0,21.39754676818848,23.34640884399414,-79.78279889298192,40.45900863398436,308.0321282958984,-0.0379808098077774,-0.0435098074376583,-0.787611722946167,0.6134591102600098,0.2786719860741869,-0.0307655056617283,2.3369033336545524,0.0226521119475364,0.1415214836597442,0.011885792016983,0.1848304502293468,0.7029752891510725,-9.141268563866618,14973.0
35.6,5.5,9.0,21.24730110168457,24.87314796447754,-79.78279897512549,40.4590086272565,308.2639283752441,-0.0370603986084461,-0.0485156513750553,-0.7864580154418945,0.6146190166473389,0.2690940561548974,-0.0143148965303659,2.2639400329690966,-0.0048354361206293,0.1009883880615234,0.0011583564337342,0.3769000092521311,0.8910213790833951,-9.083589289784433,14973.0
35.7,5.5,8.0,21.229772567749023,24.88905143737793,-79.78279905226601,40.45900863831394,308.4885148620605,-0.0336869433522224,-0.0508153326809406,-0.785586953163147,0.6157402992248535,0.2460540669086029,0.0036823344380922,2.205152277971292,-0.055440280586481,0.0505172275006771,-0.0128300506621599,0.3162416884303093,0.9492492681741715,-9.098024311065677,14973.0
35.9,5.300000190734863,6.0,21.04947662353516,27.21096992492676,-79.78279837656191,40.45900812709983,309.1242265319824,-0.0281367376446724,-0.0507383644580841,-0.7840102910995483,0.6180307269096375,0.2221867602033648,0.0591780128913367,2.213603467179736,0.1013056114315986,0.002200148301199,0.0637390464544296,0.3165214046090841,0.6750353924185037,-9.267080179452895,14974.0
36.0,5.300000190734863,4.0,20.89923095703125,28.1572322845459,-79.7827976952251,40.45900760679713,309.5122232055664,-0.0257072355598211,-0.0479928441345691,-0.7842751741409302,0.618019700050354,0.2319167684540492,0.110497079507442,2.280773126668721,0.0660328194499015,-0.0181264728307724,0.009490892291069,0.3898855788633228,0.7020156879723073,-9.405867351293566,14974.0
36.2,5.199999809265137,5.0,20.74648094177246,30.359872817993164,-79.78279767139254,40.45900768167851,309.9710168457031,-0.02453039214015,-0.0411383397877216,-0.7857123613357544,0.6167349219322205,0.1577615598135311,0.0718194269294422,2.296718220399261,0.167862057685852,0.0171903148293495,0.1387062668800354,0.2544275923445821,0.4213511639088393,-9.931618577241895,14974.0
36.3,5.099999904632568,5.0,20.648820877075195,30.43939018249512,-79.78279704274887,40.45900729256422,310.5733499145508,-0.0184097737073898,-0.0366568937897682,-0.7872464060783386,0.6152728199958801,0.1286514254566164,0.107930775109415,2.480283158563622,0.0228245165199041,-0.0660688057541847,0.0230615194886922,0.2652439363114536,0.7917097102850676,-10.07617578148842,14975.0
36.5,5.0,3.0,20.54239654541016,33.03166961669922,-79.78279641706436,40.45900661851921,310.9327096557617,-0.0180440470576286,-0.033926498144865,-0.7887517213821411,0.6135097146034241,0.1730074148880706,0.1655238785959884,2.606931000123255,-0.0579803958535194,-0.0855189189314842,0.1082615032792091,0.2985984461009503,0.5992581818997861,-10.26768612742424,14975.0
36.6,4.900000095367432,2.0,20.503582000732425,31.34589195251465,-79.78279632768175,40.459006626850936,311.19673248291014,-0.0206329263746738,-0.03262934461236,-0.7900611758232117,0.6118111610412598,0.1533667885383106,0.1526221518741343,2.6671239305565173,-0.0810927078127861,0.0195652116090059,0.1253842413425445,0.1948383435420692,0.570870680809021,-10.390911519527435,14976.0
36.7,4.900000095367432,1.0,20.582462310791016,30.31216239929199,-79.78279623584258,40.459006645847175,311.4677629089355,-0.0226880609989166,-0.0330343581736087,-0.7907518148422241,0.6108238101005554,0.1605392227873819,0.1433854687548659,2.7427138826735216,0.0438470877707004,0.0266068037599325,0.0294962376356124,0.175167067553848,0.7185397732257843,-10.435277853012083,14976.0
36.9,4.900000095367432,1.0,20.761505126953125,29.56469535827637,-79.78279650402337,40.45900732907845,312.0937661743164,-0.0205996483564376,-0.0330145545303821,-0.7919695377349854,0.6093192100524902,0.1129656532908534,0.1075371787351679,2.750647626157462,-0.0343470498919487,0.0158523768186569,-0.1406620889902115,0.2033869180083275,0.5516671089828015,-10.225897246599198,14977.0
37.1,4.900000095367432,0.0,20.695146560668945,29.278430938720703,-79.7827964378651,40.45900739000383,312.37070175170896,-0.0189377963542938,-0.0339054837822914,-0.7917463183403015,0.6096142530441284,0.1133733776508159,0.1150705339150076,2.7821818144650408,-0.1248063519597053,-0.0376040711998939,-0.0848949551582336,0.3466152328625321,0.8668176338821652,-10.055115280151368,14977.0
37.2,4.900000095367432,1.0,20.622528076171875,31.083484649658203,-79.78279637295381,40.45900745432481,312.6499833679199,-0.0198423638939857,-0.0364239439368248,-0.7911896109580994,0.6101629137992859,0.1143371911516768,0.1192145144803166,2.78886059406698,-0.0978473871946334,0.0023017895873636,0.1097006872296333,0.2160371680743992,0.6526325165480376,-9.88277444601059,14977.0
37.4,4.900000095367432,1.0,20.413434982299805,33.03961944580078,-79.78279659047244,40.45900764660821,313.11222549438475,-0.0188683662563562,-0.0375469923019409,-0.7899869084358215,0.6116820573806763,0.1228103002607571,0.106036583288578,2.726504222566384,0.1212494820356369,-0.0541473366320133,-0.0171323679387569,0.3381053048372269,0.6229646214097738,-9.854431822299958,14978.0
37.5,5.0,2.0,20.47102928161621,32.053600311279304,-79.78279662559656,40.45900800393935,313.32934280395506,-0.0197979994118213,-0.0362867824733257,-0.7895182967185974,0.6123334169387817,0.0835819588027758,0.0785626337032905,2.7191992176104014,0.013605872169137,-0.0837551951408386,0.1027901992201805,0.2957541959546506,0.5441484667360783,-10.028552548885346,14978.0
37.7,5.0,1.0,20.310766220092773,34.256240844726555,-79.78279659692801,40.45900823501071,313.8808717346191,-0.0243363007903099,-0.0357200130820274,-0.7886208891868591,0.613358736038208,0.0839703135651066,0.0621402461820292,2.7839116005575466,0.0200648941099643,-0.1486431956291198,-0.0863714665174484,0.3580000906437635,0.8894514747709036,-9.960617258548735,14978.0
37.8,5.099999904632568,2.0,20.2481632232666,34.057449340820305,-79.7827968185293,40.45900845635261,314.3837785339355,-0.0260769836604595,-0.0338931381702423,-0.7891239523887634,0.6127435564994812,0.0712933557911161,0.0377348753142252,2.8178897607566724,-0.0093636624515056,-0.0613232515752315,-0.0070836395025253,0.3884315590560437,0.6783175076544286,-10.117562373876574,14979.0
38.0,5.099999904632568,2.0,20.313270568847656,32.522754669189446,-79.78279700203451,40.459008560952704,314.6209725952148,-0.0264336057007312,-0.0331648103892803,-0.789612889289856,0.6121380925178528,0.0868365219141884,0.0125964974872477,2.816685134689404,0.1094785258173942,0.0842925459146499,0.1101634800434112,0.3071524840593338,0.6645517732948065,-10.186175941228868,14979.0
38.1,5.199999809265137,3.0,20.174293518066406,35.218406677246094,-79.78279700615055,40.45900870882064,314.9046105957031,-0.0221634153276681,-0.0317444093525409,-0.79010009765625,0.6117540597915649,0.0818426177615283,0.0176176346675975,2.8612333414232247,0.1803969144821167,0.0540353544056415,0.051620677113533,0.2385394283384085,0.5549797759205103,-10.25141917347908,14979.0
38.2,5.199999809265137,3.0,20.188066482543945,34.192626953125,-79.78279700768469,40.45900886167087,315.1929521179199,-0.0162959806621074,-0.0297584906220436,-0.7906668782234192,0.611305832862854,0.0552357519002252,0.0236297650448831,2.9176965099656345,0.1263842433691024,0.0346582159399986,0.1825823187828064,0.1924601530283689,0.5099292451143265,-10.292781207561491,14980.0
38.4,5.199999809265137,5.0,20.293237686157227,33.65985870361328,-79.78279719766337,40.45900937148079,316.0370492553712,-0.0175176057964563,-0.0271302070468664,-0.7918655276298523,0.6098411679267883,0.007196797054189,0.0152872208472786,3.012872218678692,-0.1373623460531234,-0.1214486584067344,0.0217924155294895,0.3797563740983605,0.7939850080758334,-10.309815316200256,14981.0
38.61,5.199999809265137,3.0,20.14173889160156,35.266117095947266,-79.78279724406416,40.45900950720272,316.34061904907225,-0.0243865326046943,-0.0270608551800251,-0.7908769249916077,0.6108902096748352,0.0497604172029415,-0.0076133535447972,3.0596177302180885,-0.0589557774364948,-0.0630509182810783,-0.076169915497303,0.3771252366900445,0.7504013974964621,-10.290534707307817,14981.0
38.7,5.300000190734863,3.0,20.24941635131836,32.578418731689446,-79.78279727627934,40.459009636581136,316.6480912780761,-0.0256791468709707,-0.026915930211544,-0.7893016934394836,0.6128776669502258,0.0909640277280693,-0.0188713453959031,3.0980072426223773,0.0581496730446815,0.0729813575744628,-0.0872300937771797,0.2969417837262154,0.799516474083066,-10.223257813453674,14981.0
38.91,5.300000190734863,358.0,20.692642211914062,28.30036354064941,-79.78279748955971,40.45900994922307,317.24322601318363,-0.0166408829391002,-0.0310695953667163,-0.7868416905403137,0.6161476373672485,0.0731403773054559,0.0115356735467729,3.1200418109802937,0.0035430260468274,0.1288764923810959,-0.1436114907264709,0.280605686455965,0.77446283608675,-9.9607692861557,14982.0
39.0,5.300000190734863,358.0,20.70015525817871,29.636260986328125,-79.78279746118403,40.45901000636853,317.5531015014648,-0.0113419760018587,-0.0333419181406498,-0.7857846021652222,0.6174967288970947,0.0726810935130311,0.0445637109368333,3.0708086528836454,0.0049779918044805,0.0820434018969535,-0.1298734694719314,0.4499959424883128,0.7347152182459832,-9.610907569527628,14982.0
39.2,5.400000095367432,357.0,20.94305229187012,25.60471153259277,-79.78279751466626,40.45901022044365,318.1583642578125,-0.0090719992294907,-0.0370718277990818,-0.7848109602928162,0.6185588836669922,0.0768424576913932,0.0735205337711774,2.985360019338492,-0.1294205486774444,0.0148677313700318,-0.1199432983994484,0.3919100311025977,0.7775443918257953,-9.341315259933474,14983.0
39.31,5.400000095367432,357.0,20.983118057250977,26.376033782958984,-79.78279759491433,40.45901038737225,318.7623681640625,-0.0181829594075679,-0.0421162359416484,-0.7857179641723633,0.6168816089630127,0.1262024951775258,0.0459505507186742,2.7974790881698217,0.0415274463593959,-0.0029832958243787,0.1223625987768173,0.2402906328812241,0.5931663333624602,-8.976256629824638,14983.0
39.5,5.400000095367432,359.0,20.74648094177246,28.825180053710927,-79.78279754645774,40.4590104792316,319.0815591430664,-0.0247657485306262,-0.0460939221084117,-0.7866538763046265,0.6151729822158813,0.1347588184127724,0.0423810331615289,2.7115848566863625,-0.2425453066825867,-0.0720142871141433,-0.0215276516973972,0.2583687070570886,0.9014632637053728,-8.468251118659973,14984.0
39.6,5.5,357.0,20.529874801635746,31.0914363861084,-79.78279761889074,40.4590105593776,319.3460816955566,-0.0273674260824918,-0.045021902769804,-0.7880042791366577,0.6134111881256104,0.1881213475321148,0.0261605606847236,2.5796812947335583,0.2038444876670837,-0.0633202046155929,0.109680600464344,0.4064321758970618,0.7242185159772635,-8.618260266780856,14984.0
39.8,5.5,355.0,20.41719055175781,30.72565460205078,-79.78279759694362,40.4590105924887,319.8902787780761,-0.0208336450159549,-0.0350908860564231,-0.7904863953590393,0.6111186146736145,0.1245380399827281,0.0125122126453037,2.4965753440515632,-0.0726421475410461,-0.0241407882422208,-0.1715144217014312,0.3547094969451427,0.8429930075258018,-9.352496890425682,14984.0
39.9,5.400000095367432,354.0,20.529874801635746,29.42951583862305,-79.78279751176744,40.45901056160304,320.44650741577146,-0.0179696679115295,-0.0352579839527606,-0.790347695350647,0.6113792657852173,0.1128418233638406,0.0283593907318789,2.5360244096588613,-0.0765696391463279,-0.0468756631016731,-0.003227206878364,0.3449360221624374,0.9332239504158496,-9.609464476704597,14985.0
40.1,5.5,354.0,20.61125946044922,29.365901947021484,-79.78279755372503,40.45901062980486,320.7005776977539,-0.018169967457652,-0.0369976237416267,-0.789372444152832,0.6125293970108032,0.1203100187806398,0.0292555973619057,2.5438357064256443,-0.1161854341626167,0.0455923825502395,0.0105923470109701,0.2444495198316872,0.8414413026720285,-9.761435950398443,14985.0
40.2,5.5,354.0,20.638803482055664,28.284460067749023,-79.7827975999465,40.459010697110266,320.955189666748,-0.018847519531846,-0.0411259159445762,-0.7883231043815613,0.6135960221290588,0.1282776863780411,0.0357185926947629,2.5499886330200545,-0.1006784439086914,0.0241097528487443,0.0490881875157356,0.3124812344089151,0.8229464133828879,-9.803387968540193,14985.0
40.4,5.599999904632568,355.0,20.748985290527344,27.94253349304199,-79.78279740243464,40.459010573593375,321.5579995727539,-0.023092295974493,-0.044746994972229,-0.7868900895118713,0.6150354743003845,0.1950533277698716,0.0696572172154241,2.632291401066467,0.0444208532571792,-0.0331262685358524,0.1455506980419159,0.3458029449731111,0.6948236127197743,-9.840513110160828,14986.0
40.5,5.599999904632568,355.0,20.8917179107666,25.668325424194336,-79.78279707055903,40.459010370016365,321.9033288574218,-0.0254787523299455,-0.0455058291554451,-0.7865672707557678,0.615298330783844,0.2236238554886121,0.1175496736356657,2.6861775111943835,-0.187479019165039,-0.0929129943251609,-0.0304278135299682,0.3561903043091297,0.9852660700678826,-9.61094908475876,14986.0
40.7,5.699999809265138,353.0,20.728952407836918,28.499156951904297,-79.78279702236559,40.45901038145062,322.43078323364256,-0.0294798910617828,-0.0455235727131366,-0.7871780991554259,0.6143364906311035,0.2478070627900405,0.1303586538418774,2.555682028122924,0.022393437102437,-0.0391484014689922,0.0570038259029388,0.3395494940131903,0.7490922059118749,-9.075243558883669,14987.0
40.8,5.699999809265138,352.0,20.54740333557129,30.4711971282959,-79.78279678932475,40.45901016014307,322.7523469543457,-0.0274299997836351,-0.0463030338287353,-0.787211000919342,0.6143309473991394,0.2592570805881005,0.1540241478688761,2.554484624036049,0.0419995076954364,0.011382077820599,-0.1028374210000038,0.570314720235765,0.9239923663437368,-9.245970561504365,14987.0
41.0,5.800000190734862,349.0,20.345823287963867,32.029747009277344,-79.78279647520533,40.45900998993053,323.3080072021484,-0.0189752355217933,-0.045869693160057,-0.7877510786056519,0.6139903664588928,0.2473514111236992,0.2093909122588335,2.543559760682582,0.1185185983777046,-0.0026361136697232,0.1282671093940735,0.4798454667627812,0.7510378669202328,-9.620342636704445,14988.0
41.1,5.800000190734862,348.0,20.375873565673828,31.457218170166016,-79.78279636086327,40.45900997326494,323.56489654541014,-0.0173725020140409,-0.0464309267699718,-0.7873003482818604,0.61457359790802,0.215958036506825,0.2296083949174397,2.564561932100127,-0.0632607564330101,0.0693413242697715,-0.0697232112288475,0.6452303800731898,0.9493471359461546,-9.8017104023695,14988.0
41.2,5.800000190734862,348.0,20.512346267700195,30.495052337646484,-79.78279624088044,40.45900996003145,323.82440277099613,-0.0171311032027006,-0.0494741275906562,-0.7869561314582825,0.6147837042808533,0.2082925344860556,0.2381979153645469,2.595070359583619,-0.0259411893784999,0.0309532936662435,-0.0666452720761299,0.6517913214862346,0.8440050143748522,-10.053406723737716,14988.0
41.4,5.800000190734862,349.0,20.586217880249023,29.548791885375977,-79.78279597616715,40.459009868587536,324.3636178588867,-0.0123095456510782,-0.0560901574790477,-0.7854838967323303,0.6162123084068298,0.2227229978576417,0.2493588846529069,2.634498761571665,0.0385142713785171,-0.0163728315383195,0.084221713244915,0.5591523124650121,0.5584775803238153,-9.894459521770475,14989.0
41.6,5.800000190734862,348.0,20.19557762145996,34.02564239501953,-79.78279574987306,40.45900985608943,324.87711807250975,-0.015896875411272,-0.0561681389808654,-0.7861642241477966,0.6152545809745789,0.1924847331096456,0.2392898098933267,2.5160354150557187,-0.0226466655731201,-0.1466543674468994,0.0397016629576683,0.5822655519470573,0.7290939974784851,-9.173774405121804,14989.0
41.71,5.800000190734862,346.0,20.012779235839844,35.647804260253906,-79.78279568343748,40.45900987697939,325.1281518554688,-0.0201956015080213,-0.0513914786279201,-0.7878150939941406,0.6134317517280579,0.1752903513428217,0.2069715789826207,2.4696348739039897,0.0237114150077104,-0.1685332953929901,-0.0060466974973678,0.5631990607827903,0.8139939607679845,-9.345037012696269,14990.0
41.9,5.699999809265138,342.0,20.04282760620117,35.7670783996582,-79.78279545724327,40.459009906492,325.637547454834,-0.0153121165931224,-0.0338603369891643,-0.7908430099487305,0.6108899116516113,0.1166231058029217,0.1498873236978566,2.5033459211824773,0.1442341804504394,-0.0280243065208196,-0.0836215615272522,0.4001940007880329,0.7071378488838673,-9.871386408805847,14990.0
42.0,5.699999809265138,342.0,20.04282760620117,35.10708236694336,-79.78279540385762,40.45900978604542,325.89603515625,-0.0085697602480649,-0.0281520336866378,-0.7907803058624268,0.6113923788070679,0.0985124648991125,0.1409207335585438,2.5550855461727147,0.2248196601867676,0.0790278688073158,-0.0207578763365745,0.5675105052441359,0.5964417243003846,-10.192148287296297,14990.0
42.2,5.699999809265138,343.0,20.23063468933105,33.0078125,-79.78279525396051,40.45900985328857,326.42631240844725,0.0004552053578663,-0.0333860889077186,-0.7864629626274109,0.6167344450950623,0.0592596012144645,0.1543543693852771,2.718797179149014,-0.2200860530138016,0.1183215230703354,-0.0816646665334701,0.4137164544314145,0.5743022654950619,-10.438190935850145,14991.0
42.3,5.699999809265138,344.0,20.36210060119629,31.66396331787109,-79.78279515642198,40.45900982987687,326.67184158325193,-0.0050692548975348,-0.0500095076858997,-0.7852193117141724,0.6171743869781494,0.0875500620660925,0.156577627178837,2.7305789204644784,-0.3711303174495697,0.2784797549247741,-0.0724329799413681,0.3118289409577847,0.5808872170373798,-10.184445165395736,14991.0
42.5,5.5,347.0,20.065364837646484,34.74129867553711,-79.78279534712213,40.459009724249405,327.17863174438475,-0.017509052529931,-0.0625300183892249,-0.7860932350158691,0.6146876215934753,0.2136393665757472,0.1752685226935103,2.602061715888658,-0.0312117002904415,-0.3047962486743927,-0.1577889770269394,0.4724704832956195,0.9675189665704966,-9.381549366116523,14992.0
42.61,5.400000095367432,349.0,20.054096221923828,34.26419448852539,-79.78279540969234,40.45900979051563,327.438946685791,-0.0228314902633428,-0.0473035275936126,-0.7881838083267212,0.6131944060325623,0.1964346552818964,0.1151570731043301,2.5919274579588483,0.1339672207832336,-0.2716078460216522,0.0379796177148819,0.3062061852961779,0.7414342537522316,-9.606357851028443,14992.0
42.7,5.400000095367432,350.0,20.21561050415039,32.888538360595696,-79.7827954718724,40.45900987233419,327.7003984069824,-0.021923067048192,-0.0302989054471254,-0.7896365523338318,0.6124342083930969,0.1585107156048438,0.0415633709804477,2.6330017906210568,0.2660581469535828,-0.1887267231941223,0.0512566678225994,0.2850873214378953,0.5618625334650278,-10.031920545101164,14992.0
42.9,5.5,349.0,20.503582000732425,29.02397537231445,-79.7827956816473,40.45900994033311,328.232762298584,-0.0137771507725119,-0.0157413128763437,-0.7916149497032166,0.6106622219085693,0.1112950851721312,0.0014354976283567,2.762783231111092,0.1881875395774841,0.0358404964208602,0.1583219468593597,0.6336199294030667,0.8430025823414327,-10.49525625228882,14993.0
43.1,5.699999809265138,342.0,20.533632278442383,28.77746963500977,-79.7827956341742,40.45900983064338,328.7672814941406,-0.0164306368678808,-0.0379940643906593,-0.7929967045783997,0.6078179478645325,0.1396602775877836,0.1436107972956569,2.8270611106292574,-0.3891432583332062,0.2361107766628265,-0.1362900286912918,0.8458609937131405,0.9338121803104878,-10.210703841447833,14993.0
43.2,5.800000190734862,343.0,20.562429428100582,28.682048797607425,-79.78279554304609,40.45900977918123,329.0516481018066,-0.019525783136487,-0.0527778565883636,-0.7908740043640137,0.6093863248825073,0.2514291691980361,0.2097205639050772,2.8385181991329658,-0.1971985846757888,0.163479670882225,-0.121766984462738,0.7390093403309584,1.1511869537830353,-10.067151188850405,14994.0
43.4,5.800000190734862,344.0,20.78654670715332,26.455551147460927,-79.78279542060356,40.45900938407982,329.6037721252441,-0.0206556189805269,-0.0673415660858154,-0.7877684235572815,0.6119308471679688,0.3285996739409826,0.2755292211060546,2.759503626932724,-0.08583515137434,0.0722413882613182,-0.0323670022189617,0.7290657846629621,1.061821033358574,-9.402283592820169,14994.0
43.5,5.9000000953674325,345.0,20.80657958984375,26.43964767456055,-79.78279538069724,40.45900938804117,330.1296472167968,-0.0191970840096473,-0.060301873832941,-0.7867880463600159,0.6139704585075378,0.3239728601647501,0.2246086308737078,2.542158744463627,0.1855721920728683,-0.1429798156023025,0.0982829555869102,0.5374483250454068,1.0608291263133287,-8.990284684896471,14995.0
43.7,5.800000190734862,347.0,20.642560958862305,28.42759132385254,-79.78279534423882,40.45900936278621,330.3814744567871,-0.0093202590942382,-0.050657108426094,-0.7884784936904907,0.6129018664360046,0.2804002692568229,0.1966457629355272,2.448281724353773,0.3118437230587005,0.0467282310128212,0.0532478541135788,0.5746633310616017,0.9081309898942712,-8.795460721850395,14995.0
43.8,5.9000000953674325,344.0,20.61626625061035,28.97626495361328,-79.78279529103996,40.45900917178355,330.662880859375,-0.0018710473086684,-0.0433569103479385,-0.7917129993438721,0.6093499064445496,0.1999741816200938,0.2027367972580965,2.4587061086863744,0.1551576405763626,-0.0540760308504104,0.1883680075407028,0.6656096076965332,0.459320278018713,-9.32019219338894,14995.0
44.0,6.099999904632568,341.0,20.63003921508789,28.18903923034668,-79.78279516617951,40.45900884200688,331.1952180480957,-0.0062436698935925,-0.0403577946126461,-0.7977352738380432,0.6016233563423157,0.1534321098396951,0.2671016966662869,2.5666887905685667,-0.2857518196105957,-0.0248361565172672,-0.1031959354877472,0.7933224454522133,0.5313525296375156,-10.124415310621265,14996.0
44.1,6.099999904632568,339.0,20.5699405670166,29.365901947021484,-79.78279506454497,40.45900879740571,331.4567994689941,-0.0129157593473792,-0.0489470623433589,-0.7976892590522766,0.600940465927124,0.1788427799496449,0.2427644100730716,2.635137275653981,-0.1970741897821426,0.0466653928160667,0.0332953222095966,0.5621866153925658,0.7306209978461266,-10.403457305431369,14996.0
44.2,6.300000190734862,338.0,20.63629913330078,28.26060485839844,-79.78279497324542,40.45900874011425,331.72456069946287,-0.0076573323458433,-0.057466484606266,-0.7963558435440063,0.6020435094833374,0.2604305387304052,0.2674389216195611,2.6781390008946686,0.0425083003938198,0.1862504333257675,-0.1393947601318359,0.9094545802474022,1.072905453890562,-10.204487081766128,14996.0
44.4,6.300000190734862,341.0,20.695146560668945,26.646394729614247,-79.78279476589933,40.45900853106972,332.5487641906738,0.0037404631730169,-0.0640840604901313,-0.784626841545105,0.6166361570358276,0.2769752232204664,0.3418509591595352,2.7700819209986984,-0.1075151264667511,-0.0322378762066364,-0.2191464900970459,0.7124572071433067,0.6906196108460426,-10.285115507841107,14997.0
44.6,6.300000190734862,340.0,20.70391082763672,27.71988296508789,-79.78279472009555,40.45900844862099,332.8293695068358,-0.0019392633112147,-0.0637992769479751,-0.7808375358581543,0.6214649081230164,0.2975532640139853,0.3455145662309335,2.771407763936777,-0.0650202259421348,-0.0770324766635894,-0.2518357634544373,0.874986559599638,1.069215495362878,-9.760057176947594,14997.0
44.7,6.199999809265138,340.0,20.748985290527344,26.95651435852051,-79.7827946965926,40.45900835590496,333.1104211425781,-0.0073094544932246,-0.0651982650160789,-0.7779989242553711,0.6248308420181274,0.3223908145908113,0.3076185571737517,2.7834285064759205,-0.2022588104009628,-0.033645961433649,-0.1688354313373565,0.7232411538809538,1.0232349649071697,-9.815785235166553,14998.0
44.9,6.199999809265138,338.0,20.89797782897949,26.01820373535156,-79.7827947627843,40.45900814887116,333.66304870605467,-0.0084766205400228,-0.0621248856186866,-0.7763938307762146,0.6271213889122009,0.3636709311064951,0.2767118330129756,2.788931277798827,-0.0552587397396564,-0.1102609112858772,-0.2611714899539947,0.8385494159907103,1.2313323998451229,-9.947608373165131,14998.0
45.0,6.300000190734862,336.0,20.83287239074707,26.16133689880371,-79.78279471515752,40.459007921311326,333.9457406616212,-0.008733557537198,-0.0564942471683025,-0.7770873308181763,0.6267913579940796,0.3747549574262679,0.2495165583509833,2.8056875892292865,-0.0547149255871772,-0.0628414005041122,-0.1275220364332199,0.6869306755810977,0.9383271078765392,-9.967638595104216,14998.0
45.2,6.4000000953674325,335.0,20.817846298217773,27.05193519592285,-79.78279479867598,40.45900769266617,334.51790710449217,-0.0103656277060508,-0.0596780367195606,-0.7801671624183655,0.622631847858429,0.3845697496681193,0.2094056460663526,2.8412365164228466,-0.0962709039449691,-0.0191790126264095,0.0491606146097183,0.8222219433635474,0.8430392005294561,-9.879376044273377,14999.0
45.3,6.4000000953674325,334.0,20.81033515930176,26.51916694641113,-79.78279481816445,40.459007447368286,335.0914163208008,-0.0186017733067274,-0.0666213706135749,-0.7849992513656616,0.6156231760978699,0.3984190153540969,0.2568499212692856,2.832130526047456,-0.1615004390478134,-0.1451025903224945,0.0093835983425378,1.0359764863550665,1.0120576467365028,-9.779595648050307,15000.0
45.5,6.300000190734862,334.0,20.8917179107666,25.708086013793945,-79.7827949253094,40.459007297987725,335.38481994628904,-0.0196316856890916,-0.0655100345611572,-0.7873062491416931,0.6127576231956482,0.4147384883883661,0.2503885837386521,2.8349785562329832,-0.0594176538288593,-0.0725168287754058,0.1118748039007186,0.8375151166319847,0.985091603770852,-9.750330333709718,15000.0
45.6,6.300000190734862,334.0,20.800317764282227,26.28856468200684,-79.78279493090257,40.45900721117293,335.67215057373045,-0.0148512637242674,-0.0650340318679809,-0.7888420224189758,0.6109651327133179,0.4008521935042449,0.251026240827578,2.8337193524890973,0.0318277291953563,0.0744346305727958,0.0540231764316558,0.8136999920010567,0.905670773908496,-9.655676191449167,15000.0
45.7,6.4000000953674325,333.0,20.81283950805664,25.88302421569824,-79.7827949272967,40.459007141018354,335.9585122680664,-0.0080573493614792,-0.0672614574432373,-0.7892023324966431,0.6103857755661011,0.3561346130554944,0.2634253875648059,2.826339752346924,-0.0195489954203367,0.1859556287527084,0.0024291276931762,0.908854948282242,0.8823507622629404,-9.640061202049257,15000.0
45.9,6.4000000953674325,332.0,20.90048217773437,24.952667236328125,-79.78279511744186,40.459006982116605,336.8431787109375,0.0041401316411793,-0.0741763338446617,-0.7883329987525941,0.6107470989227295,0.2912762255427228,0.29570129200598,2.823344870749297,0.0671802908182144,0.0939392670989036,-0.0408545695245266,0.9480003029108048,0.7307222277671099,-9.807030783891678,15001.0
46.1,6.300000190734862,336.0,21.046972274780277,23.88712882995605,-79.78279518562387,40.45900695457392,337.1272134399414,0.0040602730587124,-0.0753554180264473,-0.7879445552825928,0.6111043691635132,0.290042625165478,0.2833247264640306,2.792657211636708,0.1015247106552124,0.0425403118133544,0.0428365468978881,0.9388488256931306,0.7040454027056694,-9.486246685981753,15002.0
46.2,6.300000190734862,336.0,21.37250518798828,20.56328773498535,-79.78279528279593,40.45900692846013,337.40804382324217,0.0025290055200457,-0.0758837163448333,-0.7878878712654114,0.6111204028129578,0.2868351456003844,0.2612894512635717,2.768527867667389,-0.0445039570331573,-0.0286285895854234,-0.1947787404060364,0.8884859532862902,1.0011563171446325,-9.384748962521554,15002.0
46.4,6.4000000953674325,337.0,21.44011688232422,20.6507568359375,-79.78279553153847,40.45900690072101,337.9722146606445,-0.0073563298210501,-0.0803378745913505,-0.787553608417511,0.6109427809715271,0.3049264439926815,0.1842447376382454,2.601351754907728,-0.0273680966347456,-0.0038528381846845,-0.0203681215643882,0.7744974808394909,0.938953856304288,-8.699058262109757,15002.0
46.5,6.4000000953674325,336.0,21.34370803833008,21.54930686950684,-79.78279557525742,40.45900688040968,338.2708749389648,-0.0115500856190919,-0.0816016122698783,-0.7876911163330078,0.6105329990386963,0.313866540323115,0.165312253921734,2.519396225983596,-0.0446172505617141,-0.1168638467788696,0.1583749949932098,0.8344934948533774,0.6885358093678952,-8.554839611649513,15003.0
46.7,6.300000190734862,333.0,21.73184394836425,17.923297882080078,-79.78279591161514,40.45900689614774,338.7579736328125,-0.0186009053140878,-0.0762137621641159,-0.788199245929718,0.6103995442390442,0.2899607819856547,0.1084750785651005,2.3158091375698424,-0.0658376738429069,-0.1051622480154037,-0.0658443421125412,0.8366264129430057,0.8410734397172929,-8.592752373218536,15003.0
46.8,6.300000190734862,333.0,21.94344139099121,16.32499122619629,-79.78279615874051,40.45900684318478,339.2381677246093,-0.018923919647932,-0.0712943375110626,-0.7890197634696959,0.6099236607551575,0.2449573054425008,0.0610219768419108,2.104718978392917,0.0764784291386604,-0.0775665193796157,0.0500776320695877,0.7376875772327185,0.9422348020970822,-8.572243849039076,15004.0
47.0,6.300000190734862,334.0,23.415851593017567,2.7990243434906006,-79.78279626954482,40.45900679806079,339.47620483398435,-0.0193033311516046,-0.0725013390183448,-0.7890447378158569,0.6097372174263,0.2251993156535213,0.0617885412424745,1.9650131214164528,-0.0462825745344162,-0.0141182392835617,0.0836483091115951,0.8665914197266102,0.853118996322155,-7.933608031868935,15004.0
47.1,6.4000000953674325,334.0,22.80860710144043,9.39104461669922,-79.78279638346675,40.45900681165714,339.6579141235352,-0.0174041055142879,-0.064332403242588,-0.7889838218688965,0.610788881778717,0.2290297210131715,0.0699239425930292,1.6157082142363337,0.2473331838846207,-0.1184338331222534,-0.0705666169524192,0.8188098737597466,0.9955667444318532,-6.505924960970877,15004.0
47.31,6.300000190734862,336.0,22.52439308166504,13.00910186767578,-79.78279655818909,40.459006700177824,339.92952819824217,-0.0215419325977563,-0.047995388507843,-0.7891578674316406,0.6119332909584045,0.107903351566488,-0.0214895537371803,0.8564202785625459,-0.0816389769315719,-0.0562781617045402,-0.0854139700531959,0.3550122365355492,0.5513158740475774,-5.873301250934602,15004.0
47.4,6.300000190734862,333.0,22.31780433654785,14.710782051086426,-79.78279670338388,40.45900655690785,340.06968017578123,-0.0330936498939991,-0.0616290457546711,-0.789026141166687,0.6103643178939819,0.0820353894445237,-0.0259884228016706,0.2606215611743894,-0.1779519766569137,-0.1439510583877563,0.0650307387113571,0.5761329556256533,0.9719933290779592,-6.332124661803245,15005.0
