time,wind_speed,wind_angle,battery_voltage,battery_current,position_x,position_y,position_z,orientation_x,orientation_y,orientation_z,orientation_w,velocity_x,velocity_y,velocity_z,angular_x,angular_y,angular_z,linear_acceleration_x,linear_acceleration_y,linear_acceleration_z,node_ids
0.0,0.4000000059604645,134.0,25.412872314453125,0.0,-79.78236496994305,40.45805951041178,268.8112959098816,-0.0008014007471501,0.0063225678168237,0.3240967988967895,0.9460024237632751,-0.0034592228844826,3.255672561148083e-05,0.002204176913382,-0.0033455905504524,-0.0013631298206746,5.804220563732088e-05,0.022461891635321,-0.1236133914068341,-9.811720250844957,14933.0
0.1,0.4000000059604645,121.0,25.40536117553711,-0.0079517737030982,-79.78236492314224,40.45805945947996,268.79729024887087,-0.0007997776265256,0.0063239289447665,0.3240958154201508,0.9460028409957886,-0.0017461579782791,-0.0007230253089571,0.0024457212521086,-0.0059318067505955,-0.0035948450677096,-0.0056516006588935,0.0277438848163001,-0.1215010207984596,-9.815636715888978,14933.0
0.3,0.5,136.0,25.39784812927246,-0.0079517737030982,-79.78236492380279,40.45805945816595,268.7975763511658,-0.0007997776265256,0.0063239289447665,0.3240958154201508,0.9460028409957886,-0.0009437077595821,-0.0008511974685805,0.003322229383213,0.0038393584545701,0.0001188008754979,0.0027395093347877,0.0271887190989218,-0.1241077186726033,-9.815319796800614,14933.0
0.4,0.5,126.0,25.39910125732422,-0.0079517737030982,-79.782364923261,40.458059396241104,268.7821325492859,-0.0007972416933625,0.0063170013017952,0.3240938484668732,0.946003556251526,-0.0078524377562025,0.0003704142943276,-0.0001062610893585,-0.0014250616077333,-0.0029552278574556,-0.0047147283330559,0.0232187748723663,-0.1221697321347892,-9.812122539281846,14933.0
0.6,0.6000000238418579,144.0,25.400352478027344,-0.0079517737030982,-79.7823649289811,40.4580593556034,268.7670401763916,-0.0008033305639401,0.0063133547082543,0.3240934312343597,0.9460037350654602,-0.0084232672956427,0.0077761887964678,-0.0029953082053393,-0.0031047249212861,-0.0037922405172139,-0.0006616407772526,0.0244517790642567,-0.1213177654054016,-9.81255874156952,14933.0
0.7,0.699999988079071,140.0,25.40786552429199,-0.0079517737030982,-79.78236495496118,40.45805935777947,268.76665203094484,-0.0008034331258386,0.0063135777600109,0.3240934312343597,0.9460037350654602,-0.0080484188499351,0.0077577386828714,-0.0010623873968985,-0.0051591806113719,0.0014862865209579,-0.0033763935789465,0.0274040291109122,-0.1227442484814673,-9.815755999088289,14933.0
0.9,0.699999988079071,140.0,25.39910125732422,0.0079517737030982,-79.78236493110894,40.45805930186428,268.75122634887697,-0.0008005592389963,0.0063141686841845,0.3240914344787597,0.9460043907165528,-0.0073581126685125,0.006430342757162,-0.0042343101472393,0.0016745248576626,0.0025258308742195,0.0045648934319615,0.0279161424189806,-0.1236925754975527,-9.816555898189543,14933.0
1.1,1.0,141.0,25.39784812927246,0.0,-79.78236492086405,40.45805924335005,268.73524896621706,-0.0007973311003297,0.0063139651902019,0.3240896165370941,0.9460049867630004,-0.0071776836596831,0.0056043822260614,-0.0060769864516126,0.0020470777526497,-0.0018719867803156,0.0025550241116434,0.0228969130595214,-0.1226376829762012,-9.81191905617714,14933.0
1.2,1.100000023841858,140.0,25.40285682678223,-0.0079517737030982,-79.78236493191845,40.45805924320834,268.7347032260895,-0.0007972537423484,0.0063130240887403,0.3240895867347717,0.9460049867630004,-0.0075709475987724,0.0056452744194033,-0.0050331945692783,-0.0027643982321023,0.0009139644680544,-0.0019428755622357,0.0234515443048439,-0.1190939687937498,-9.812072253227234,14933.0
1.4,1.2000000476837158,141.0,25.406612396240234,-0.0079517737030982,-79.78236491212719,40.45805918067694,268.71922938346864,-0.0007940381765365,0.0063157742843031,0.3240881264209747,0.9460055828094482,-0.005394883338054,0.003279397536228,-0.0054442975435144,-0.0026807631365954,0.0013310998911038,-0.0023840756621211,0.0266520840302109,-0.1264522876963019,-9.8140076816082,14933.0
1.5,1.2999999523162842,144.0,25.40285682678223,0.0079517737030982,-79.78236490998674,40.45805911333717,268.70166127204897,-0.0007924396777525,0.006313697900623,0.3240852952003479,0.9460064172744752,-0.0057639360772119,0.0036478314313772,-0.0099622243679323,0.0016310147475451,0.0041468390263617,0.0051005212590098,0.0240367752173915,-0.1288647666480392,-9.814041595458985,14933.0
1.7,1.2999999523162842,146.0,25.267635345458984,0.278312087059021,-79.7823649177468,40.45805911278107,268.7007323932648,-0.000773464445956,0.0063084843568503,0.3239343166351318,0.9460582733154296,-0.0028870415563916,0.0036189800383399,-0.008434934244932,-0.0041928854770958,0.0004896917380392,0.0457853227853775,0.0271257313387468,-0.1198806568421423,-9.813843959569931,14933.0
1.8,1.5,140.0,25.31145668029785,0.3021674156188965,-79.78236492569732,40.45805911232589,268.69989196777345,-0.0007211556076072,0.0063392780721187,0.3237850964069366,0.946109175682068,-0.0019003546555608,0.0016708060106345,-0.0078663160060908,0.0079200379550457,0.0024112639948725,0.0197650976479053,0.017903578185942,-0.1293933640792966,-9.812543538808823,14933.0
2.0,1.5,141.0,25.33148956298828,0.3021674156188965,-79.78236499575024,40.45805902385247,268.68300406455995,-0.0007665296434424,0.0063112825155258,0.3242509663105011,0.9459497928619384,-0.0172475001272012,0.0054763372035783,-0.0080070632572093,0.0031856545247137,-0.0056814714334905,-0.0290645286440849,0.0442198835732415,-0.1583663907274604,-9.80541929125786,14933.0
2.11,1.7000000476837158,150.0,25.33023834228516,0.2862638533115387,-79.78236499272786,40.45805894912567,268.6645766925812,-0.0007669855258427,0.0063113090582191,0.324205219745636,0.9459654092788696,-0.0116076425395404,0.003123212197438,-0.0126687871051956,0.0024088188074529,0.0036217621527612,0.0240208432078361,0.0001315379768857,-0.092795001771301,-9.8216932618618,14933.0
2.21,1.7999999523162842,143.0,25.31145668029785,0.2862638533115387,-79.78236500673155,40.45805894531031,268.66336576461794,-0.0007256678072735,0.0063437297940254,0.3240023553371429,0.9460347890853882,-0.0113237541502127,0.0047536785666985,-0.011638919200315,0.000248112657573,0.0032466745469719,0.0191690251231193,0.0325535554485395,-0.1263828154653311,-9.815586429834369,14933.0
2.4,2.0,140.0,25.31270980834961,0.3578298389911652,-79.7823650245264,40.45805887307843,268.644582195282,-0.0007268205517902,0.0063606300391256,0.3240823745727539,0.946007251739502,-0.0113220331662017,0.0069448205007325,-0.0132780121024844,-0.0036033715587109,-0.0032671177759766,-0.0197975151240825,0.0346597362309694,-0.1362356662005186,-9.810651379823684,14933.0
2.5,2.0,141.0,25.29768371582031,0.4134922325611114,-79.7823650376222,40.45805887217666,268.643325252533,-0.0007209932664409,0.0063489228487014,0.3241598606109619,0.9459807872772216,-0.0085973632529314,0.0056725069792499,-0.0123101718155319,-0.002459293231368,-0.0022201950196176,0.0028668853919953,0.0190416964574251,-0.1158967752289027,-9.811197509765623,14933.0
2.7,1.8999999761581416,140.0,24.64286231994629,23.23508262634277,-79.78236513671129,40.458058766377405,268.6239015293121,-0.0007066007819958,0.0063624628819525,0.3239608108997345,0.9460489153862,-0.0207419627548712,0.0089825874878627,-0.0142288270742086,0.003827232401818,0.003988339100033,-0.0044339671730995,0.0239631596859544,-0.1357527044601738,-9.814566675424576,14933.0
2.9,2.0,140.0,24.999696731567383,0.6440936923027039,-79.78236519308798,40.45805867715679,268.6042465400696,-0.0011126360623165,0.006881327368319,0.3238528966903686,0.946081817150116,-0.0196083082931051,0.0057341694246108,-0.0171626748099726,-0.0120091261342167,0.0003091530234087,0.0551129132509231,0.0899031790439039,-0.0279412763100117,-9.828556723594666,14933.0
3.01,2.0999999046325684,137.0,25.23007392883301,0.2306014448404312,-79.78236521822829,40.45805867366994,268.60268775939943,-0.0010765723418444,0.0068185860291123,0.3238612413406372,0.946079432964325,-0.0199432836182127,0.0095099753423051,-0.0150046425840025,0.0039755254983901,0.023062253370881,-0.0050877695903182,0.0085145646845921,-0.1357206909544766,-9.80133384168148,14933.0
3.11,2.0999999046325684,133.0,23.81024742126465,20.8177433013916,-79.78236525675324,40.45805857658029,268.582666797638,-0.0010464302031323,0.006868727505207,0.3241530358791351,0.9459792375564576,-0.009504233886684,0.0084148437920272,-0.0140288802826652,-0.0069677415303885,0.0027134486008435,0.014834095723927,0.0266834739851765,-0.1355367229320108,-9.79072816193104,14933.0
3.3,2.0999999046325684,133.0,25.06605529785156,0.5725277066230774,-79.78236527322909,40.458058573506754,268.5811700057984,-0.0011910506291314,0.0069914427585899,0.3242524266242981,0.94594407081604,-0.0179258309871538,0.0058649061923568,-0.0147001856846335,0.0053875711746513,0.00938415620476,0.0015615888405591,0.0194593669543974,-0.1486650194227695,-9.788563522696496,14933.0
3.4,2.200000047683716,130.0,25.23257827758789,0.2544567584991455,-79.78236530689827,40.458058468512654,268.5631760787964,-0.0010354885598644,0.0068990942090749,0.3241159319877624,0.9459916353225708,-0.0153150945776859,0.0022395439292626,-0.0177778748994294,0.0076899221166968,-0.0005618659197352,0.0016902729403227,-0.0398172225477173,-0.1678612091392278,-9.833021657466888,14933.0
3.6,2.299999952316284,124.0,25.157455444335927,1.8209562301635744,-79.7823653347876,40.4580583711922,268.5438293647766,-0.0009364311117678,0.0067332349717617,0.3243501484394073,0.9459127187728882,-0.0075237216542214,-4.0445628225966965e-05,-0.0186770773695966,0.0109546678140759,-0.0139904683455824,-0.0186036359518766,0.0239245041087269,-0.0785219118185341,-9.84108964562416,14933.0
3.7,2.0999999046325684,120.0,24.76931953430176,3.379503965377808,-79.78236535324088,40.45805836370428,268.5405575466156,-0.0009691609302535,0.006788202561438,0.3244054019451141,0.9458933472633362,-0.0021544006263328,0.0031155775954171,-0.0150850726379231,0.0542538240551948,-0.0097832316532731,0.0043001445010304,0.0233559217723086,-0.0934963204711675,-9.81656408429146,14933.0
3.9,2.200000047683716,121.0,24.334857940673828,5.224315643310547,-79.78236538714756,40.45805828972574,268.52062122344967,-0.001109087257646,0.0069961459375917,0.3244349360466003,0.9458815455436708,-0.0058720530054046,0.0080972747209138,-0.0150849440612838,0.0217433255165815,-0.070639818906784,-0.0423668287694454,-0.0262329483032226,-0.1439761463273316,-9.801809220314029,14933.0
4.1,2.200000047683716,116.0,23.980527877807607,7.4667158126831055,-79.78236547659402,40.45805818364522,268.5037106704712,-0.0012098394799977,0.0071707959286868,0.3243999779224396,0.9458920359611512,-0.0086019775096781,0.0101341124910741,-0.0100602391090891,0.0450864024460315,0.0271000117063522,-0.0001247292530024,-0.0002078799367882,-0.1112050059344619,-9.85057382941246,14933.0
4.2,2.299999952316284,113.0,23.783954620361328,9.239961624145508,-79.78236549290544,40.45805818530169,268.5027124118805,-0.0014493832131847,0.0079777548089623,0.3244940042495727,0.945853054523468,-0.0046649450700771,0.0086758220168526,-0.010287804561255,0.0429241843521595,-0.0204592570662498,-0.0490065217018127,0.024853382280562,-0.1658343266509473,-9.813446348905565,14933.0
4.3,2.200000047683716,109.0,23.582374572753903,10.57585906982422,-79.78236552927724,40.45805807273056,268.48658244133,-0.0020428246352821,0.0097821187227964,0.3246278762817383,0.945789098739624,-0.0057209367397757,0.0005443955195686,-0.0080983974381293,0.0075532761402428,-0.0054345028474926,-0.0265876315534114,-0.0051841299771331,-0.2202868147753179,-9.832414716482162,14933.0
4.5,2.200000047683716,105.0,23.2030029296875,13.335124969482422,-79.78236553737673,40.458058072711246,268.4860860538483,-0.0024826002772897,0.0111008323729038,0.324852705001831,0.945696234703064,-0.0041856117201718,0.0013472222677709,-0.0026441780503925,0.0179718751460313,-0.0494278743863105,0.0233644768595695,-0.0889614666905254,-0.2340234775096178,-9.858910789489746,14933.0
4.72,2.299999952316284,105.0,22.79733848571777,16.937278747558597,-79.78236554963348,40.45805798417554,268.46983067512514,-0.0027410828042775,0.0139289069920778,0.3252278864383697,0.9455291032791138,-0.0016916767251031,-0.0052974541297242,-0.0025038883374362,0.0054876436479389,-0.0015721892705187,0.051719781011343,-0.1798246854543686,-0.3076657965034247,-9.781909391283987,14933.0
4.8,2.299999952316284,103.0,22.62956428527832,17.68474578857422,-79.78236562447118,40.458057876372,268.45248858451845,-0.0015634363517165,0.0134342592209577,0.3261826038360596,0.9452100396156312,-0.014660231280216,0.0221236666432178,0.0003552880151986,-0.0768109783530235,-0.0459763035178184,-0.0261544790118932,-0.0623155998950824,-0.211578245870769,-9.839908508062363,14933.0
5.0,2.400000095367432,105.0,22.26772117614746,20.905214309692383,-79.78236564926719,40.45805788490553,268.4528521728516,-0.0004208390600979,0.0100117614492774,0.3304603695869446,0.943766713142395,-0.0103506746792784,0.0298071418559089,0.0065990285634371,-0.0984184592962265,-0.018091581761837,-0.072332814335823,0.2924462250620127,-0.3150039425119758,-9.848360073566438,14933.0
5.1,2.299999952316284,107.0,22.06614112854004,22.980627059936523,-79.78236564106088,40.458057832259264,268.4343144130707,-0.0017744537908583,0.0035889870487153,0.3356198072433472,0.9419890642166138,-0.0134041722247794,0.0662991568703798,0.0410789574353119,-0.1749956905841827,-0.2317309677600861,-0.0737664774060249,0.3403724165260792,-0.1683119198307395,-10.06522511601448,14933.0
5.2,2.299999952316284,108.0,21.89711570739746,24.18929672241211,-79.78236583677466,40.45805792596728,268.4625329208374,-0.0043178689666092,-0.0183257889002561,0.343456357717514,0.9389799237251282,-0.0405517961903911,0.1223437349087346,0.2642792820478119,-0.0567583926022052,-0.0456595532596111,-0.0299315359443426,0.2478190692141652,-0.2635966842994094,-10.615598967075348,14933.0
5.4,2.400000095367432,113.0,22.466798782348643,18.69462013244629,-79.78236557566063,40.4580580077515,268.4472402763367,-0.0034624908585101,-0.0147577282041311,0.3454571664333343,0.9383121728897096,-0.0236514820860856,0.1404896146958801,0.3242863978659173,0.2130269408226012,0.138360783457756,-0.0571705363690853,0.154729349501431,0.0882421952113509,-10.711231348514556,14933.0
5.6,2.400000095367432,116.0,22.322813034057614,19.96690368652344,-79.78236619190417,40.45805809498714,268.4994291496277,0.0071668601594865,0.0025667804293334,0.3460634648799896,0.9381802678108216,-0.0722492615448806,0.1922335633785236,0.3013427466660565,-0.0298829171806573,0.1440648734569549,0.0423097610473632,0.1645691170915961,-0.0083394805470015,-9.665819941163065,14933.0
5.7,2.5,122.0,22.29401588439941,20.17365074157715,-79.78236640679785,40.45805818452767,268.52733938217165,0.0170656517148017,0.0063205664046108,0.3455337285995483,0.9382299780845642,-0.0789761403747934,0.1969812151955934,0.254976481860558,-0.0038386578671634,0.2317136377096176,0.0401875488460063,0.3201215352863073,-0.1869728334993124,-9.555924446582797,14933.0
5.8,2.5,125.0,22.206371307373047,20.51557731628418,-79.78236675353907,40.45805842617772,268.5624984931946,0.0186617076396942,0.0125496517866849,0.3424378931522369,0.9392713308334352,-0.0345866050163139,0.2030930084501653,0.1933229763650424,-8.951118070399389e-05,-0.1116798520088195,0.0871279835700988,0.4249036032333969,-0.1460227631684393,-9.57063838005066,14933.0
6.0,2.700000047683716,120.0,22.20136260986328,20.78593635559082,-79.7823667866039,40.45805879982238,268.6109000873566,0.0099839204922318,0.0130243767052888,0.3417867124080658,0.9396342635154724,0.042698676567883,0.2021133830326879,0.2243109420741458,0.0464625805616378,-0.049996580928564,0.0625690296292305,0.4516025015339256,-0.0667451626807451,-9.780746380090712,14933.0
6.2,2.799999952316284,121.0,22.28900718688965,19.64088249206543,-79.78236689665253,40.45805896142089,268.6346182060242,0.0110139362514019,0.0122700473293662,0.3419642150402069,0.9395683407783508,0.0428438337144294,0.2139472448417732,0.238453919465326,-0.0457401983439922,0.0220399349927902,0.0052906279452145,0.4502554492279888,0.0586018824856728,-9.91791504263878,14933.0
6.3,3.0,124.0,22.19510269165039,20.706418991088867,-79.78236700591202,40.45805913660824,268.6587573719025,0.0138643877580761,0.0106658302247524,0.3413600325584412,0.9397698640823364,0.0568835778248892,0.2236569142288767,0.2321079891654436,-0.0677254125475883,0.0401906780898571,-0.036047376692295,0.4612530751526356,-0.0117182587087154,-9.776763256788254,14933.0
6.4,3.0,125.0,22.044857025146484,21.620872497558597,-79.78236697480706,40.45805911243325,268.67273180007936,0.0197733081877231,0.0075945169664919,0.3401696681976318,0.9401254653930664,0.0663167867983659,0.1969673019857311,0.2357994470169319,-0.1016012504696846,0.0882293805480003,0.0441363900899887,0.322060910537839,-0.1474728086963296,-9.709804451465606,14933.0
6.6,3.0999999046325684,132.0,22.081167221069336,21.19942855834961,-79.78236699533899,40.45805952912999,268.70987002372743,0.0255251880735158,0.0044895792379975,0.3383655250072479,0.9406577944755554,0.1165169294664375,0.2224157377130478,0.2420155905399086,0.0048066740855574,-0.0600225664675235,0.084896944463253,0.495796232521534,-0.0487765730498358,-9.781767303943637,14933.0
6.7,3.299999952316284,130.0,22.014806747436523,21.73219871520996,-79.78236705817291,40.45805973734257,268.7353696060181,0.0238793157041072,0.0033547142520546,0.3382094800472259,0.9407618641853333,0.0948060801463564,0.2298929438629747,0.2394865515772855,-0.0889104232192039,-0.1400084793567657,0.1087264046072959,0.4001088872551918,-0.1194917621836066,-9.701052923798562,14933.0
6.9,3.5,131.0,22.137508392333984,20.55533599853516,-79.78236694226433,40.45806023556053,268.79315487861635,0.0264015365391969,-0.0017745590303093,0.3363287150859833,0.9413728713989258,0.0903981658948966,0.2097408103021334,0.2214952689358649,0.068805418908596,0.039018090814352,0.0081138452515006,0.5493702495843172,0.2736557042039931,-9.754879467487337,14933.0
7.11,3.5,132.0,21.99602699279785,22.54327964782715,-79.78236662346586,40.45806044132864,268.8240098190308,0.0267740525305271,0.0007815099088475,0.3360765278339386,0.941453754901886,0.120645458409232,0.2090124851609869,0.2176124243336084,0.06909641623497,0.0541741102933883,0.0023963688872754,0.4173269639164209,-0.0263948133937083,-9.639057819843291,14933.0
7.2,3.5999999046325684,138.0,21.988513946533203,21.461837768554688,-79.78236668139064,40.45806064470708,268.8457619380951,0.0276096686720848,0.0043453606776893,0.3368827402591705,0.9411317110061646,0.0980380152992784,0.214152569373581,0.1949117895550185,0.0163557324558496,0.0737909451127052,0.0514994822442531,0.3961090993881225,0.0255098578613251,-9.545261464118958,14933.0
7.3,3.5999999046325684,137.0,21.83952140808105,23.37026405334473,-79.7823668236201,40.45806114650205,268.8908435535431,0.0272757317870855,0.0078288596123456,0.3377397656440735,0.9408117532730104,0.081634068420444,0.2517570936833797,0.1940155105750258,-0.0582111254334449,-0.0606656074523925,0.0247686188668012,0.5391264759376645,-0.1345837181434035,-9.583054357767104,14933.0
7.5,3.700000047683716,137.0,22.74350166320801,15.927403450012209,-79.78236693394209,40.45806136102809,268.91227929115297,0.0262799113988876,0.0054771900177001,0.3383854627609253,0.9406246542930604,0.0736907647477623,0.2506274029324004,0.2032822265865546,-0.0361736230552196,-0.0402996577322483,0.0056166304275393,0.4522423696517944,-0.0885437379498034,-9.781322915554046,14933.0
7.7,3.700000047683716,137.0,21.7744140625,23.63267135620117,-79.78236704714801,40.45806179742103,268.91608969688417,0.0313093960285186,0.0096991099417209,0.3381732702255249,0.9405128955841064,0.0826871955861214,0.2374237118186501,0.0431972201509688,0.0087092276662588,0.1074059829115867,-0.0543455183506012,0.4538658490777016,0.0510455439705401,-9.20553881943226,14933.0
7.8,3.5999999046325684,138.0,21.470165252685547,26.41579246520996,-79.78236715264165,40.45806200063629,268.92165820121767,0.0339849591255188,0.0099058309569954,0.3376131355762481,0.940619170665741,0.0693206624181224,0.2250522753587634,0.0527089771967979,-0.0426984801888465,0.0641751736402511,-0.0146860228851437,0.5410382596403359,-0.0846536767389625,-9.794311920404432,14933.0
7.9,3.5,134.0,21.23728370666504,28.79337310791016,-79.78236719930966,40.45806219069321,268.93246237754823,0.0358529537916183,0.0076946672052145,0.3372166752815246,0.9407126307487488,0.0689433504708411,0.2314997302349196,0.1603654811581077,-0.1849793940782547,-0.0139131108298897,-0.0056352051906287,0.4706596736982465,0.0267437208630144,-10.331458200216296,14933.0
8.11,3.400000095367432,131.0,21.108322143554688,29.763490676879893,-79.78236738140903,40.45806268329011,268.96843759536745,0.038837231695652,0.0025198739022016,0.3384352624416351,0.9401845335960388,0.0747150693805126,0.2370173176523155,0.4443026594829182,-0.0599949806928634,0.0107616642490029,-0.0031395275145769,0.4494251811504365,-0.0210598800703883,-11.370451118946074,14933.0
8.2,3.299999952316284,131.0,21.03069496154785,30.41553497314453,-79.78236747015275,40.4580628395016,269.0243682098389,0.0396377965807914,0.0023742076009511,0.3401324152946472,0.9395387768745422,0.050051700015206,0.2197785064478278,0.6428551227443781,0.0053685838356614,-0.0613732486963272,-0.0670705735683441,0.5701540679857136,0.0497416194481775,-11.652817840576173,14934.0
8.4,3.2000000476837163,131.0,20.787797927856445,32.78516387939453,-79.78236772039226,40.45806299798471,269.17211596488954,0.0397688262164592,0.0054302997887134,0.3418514430522919,0.9388964772224426,0.0164877567623467,0.1957487514806133,1.0623764297095208,0.0438645631074905,-0.0189979691058397,-0.0452032722532749,0.7085822573304177,0.0940998262166977,-12.036920267343524,14934.0
8.5,3.0999999046325684,133.0,20.751487731933597,33.810943603515625,-79.78236799353677,40.458063017283685,269.4081174564362,0.0370910912752151,0.0134902792051434,0.343036949634552,0.9384924173355104,-0.005426826894145,0.1650866654983185,1.5470512830142888,0.0999982059001922,0.0064063924364745,0.0198644641786813,0.6656020794063807,0.0468573569878935,-12.216989951133726,14934.0
8.7,3.2000000476837163,133.0,20.400915145874023,36.22032928466797,-79.78236802891949,40.45806302208669,269.577532453537,0.0365088693797588,0.0164310187101364,0.3433004319667816,0.938372015953064,-0.005970445966825,0.1464299897716571,1.829023025165724,0.1434516012668609,0.0325401239097118,-0.1038275435566902,0.5882197351008654,0.1316438020672649,-12.548162212371825,14934.0
8.8,3.0999999046325684,134.0,20.33205223083496,36.78490447998047,-79.78236835221641,40.458062934337896,269.94602553367616,0.0379618220031261,0.0155750438570976,0.3420594930648804,0.9387820363044742,-0.0312672880559254,0.1304878230386147,2.396362347353756,-0.1366124004125595,0.0570760816335678,-0.1044205576181411,0.4179450511559844,-0.030686096381396,-12.745429726839069,14934.0
9.0,3.2000000476837163,130.0,20.40592193603516,35.87045288085937,-79.78236829488297,40.45806287374207,270.2005433273316,0.0402328111231327,0.0106610711663961,0.3425315022468567,0.93858402967453,-0.0112469197781794,0.1053773206976438,2.6796706718919534,-0.0181220453232526,0.0549382269382476,0.0456217415630817,0.5497312786057592,0.0533498585689812,-12.619850245714188,14935.0
9.2,3.2000000476837163,134.0,21.08077812194824,28.85698699951172,-79.78236887107074,40.45806277077159,270.6508344841004,0.0368565022945404,0.0202754400670528,0.3423984944820404,0.9386127591133118,0.0126093514951849,0.0862223037311955,2.990490311526512,0.1750014424324035,0.0095384335145354,0.0057825613766908,0.5503892000019549,0.2131488262675702,-12.306915450096133,14935.0
9.3,3.299999952316284,135.0,20.99188232421875,29.96228408813477,-79.78236871976536,40.45806264862989,270.95383493423464,0.0329823680222034,0.0284825563430786,0.3426322638988495,0.9384583234786988,-0.017861058515319,0.0449392753438455,3.072182693538553,0.1980001777410507,-0.0074546318501234,-0.0638714134693145,0.4745552349463105,0.0506127906264737,-10.814035924673083,14935.0
9.4,3.299999952316284,135.0,21.153396606445312,27.89482307434082,-79.78236983102434,40.458062592068416,271.0787052345276,0.0290841907262802,0.0327355563640594,0.34021857380867,0.939326286315918,-0.083827289588877,0.0495712279229496,3.00424454666095,0.0330491140484809,-0.0735817104578018,0.0874194055795669,0.5162338957563043,-0.169794298633933,-10.496927386522293,14936.0
9.6,3.5,139.0,21.19721794128418,27.19506645202637,-79.78237062054046,40.4580622631559,271.5592788887024,0.02390350215137,0.031248427927494,0.336246132850647,0.9409520626068116,-0.0952579460172237,-0.0031334011423698,2.9608080022210657,-0.030560340732336,-0.0895985662937164,0.072094477713108,0.4101819952949881,-0.1058493766654282,-9.949509887695315,14936.0
9.7,3.5,139.0,21.39754676818848,24.97652244567871,-79.78237038617422,40.45806213702277,271.8552860450745,0.0240253191441297,0.0307742655277252,0.3355174660682678,0.9412246942520142,-0.0431453579717173,-0.0428405999697335,2.965974834251185,-0.0373922400176525,-0.0033095856197178,-0.0580958016216754,0.4654682598263026,0.1270093172136694,-9.80009364724159,14936.0
9.91,3.5999999046325684,140.0,21.2773494720459,26.43169593811035,-79.78237109705991,40.458061618931495,272.6294078063965,0.0243766158819198,0.0337933227419853,0.334019124507904,0.9416449666023254,0.0255888682902498,-0.0780369972813145,2.8581962662919413,0.073559783399105,-0.0197250451892614,0.0010503246448934,0.4937378298863769,-0.0039158574817702,-9.635662341713903,14937.0
10.1,3.5999999046325684,139.0,21.26357650756836,26.36808204650879,-79.78237249145924,40.4580611160458,272.89445392608644,0.0234143733978271,0.032463900744915,0.3331577777862549,0.9420210719108582,-0.0496637602523486,-0.0711845840358738,2.8561625634182533,-0.0361960344016552,-0.018401239067316,-0.0840156897902488,0.4685703173652291,-0.0486681848578155,-9.881583952903748,14937.0
10.2,3.700000047683716,143.0,21.25356101989746,26.60663604736328,-79.78237218745704,40.45806098166576,273.17980997085573,0.021571597084403,0.0324592366814613,0.3353689908981323,0.9412803649902344,0.00112179982345,-0.0977277555987379,2.8751721320639243,0.1068219393491745,-0.0331840775907039,-0.0704322755336761,0.4879044648259878,0.0118451718392316,-9.963512799739838,14938.0
10.4,3.700000047683716,145.0,21.35247230529785,25.588808059692383,-79.78237347474328,40.45806009550254,273.78505508422853,0.0105814328417181,0.0452897809445858,0.3351395726203918,0.941019892692566,-0.0597389216188573,-0.1096549320227775,2.9268016412712425,0.1126979067921638,-0.0434363670647144,-0.0662000775337219,0.3647342558205128,-0.0327049595047719,-9.879854346513753,14938.0
10.5,3.700000047683716,140.0,21.3987979888916,24.96857070922852,-79.78237312715595,40.45805999062116,274.07654039382936,0.0073695494793355,0.0507219694554805,0.3362176418304443,0.9403886198997498,-0.0403195457020526,-0.1345161587150937,2.92737469693442,0.0716211348772049,0.0409495159983634,0.0829781740903854,0.4713944859802723,-0.2458784514293075,-9.87023333787918,14939.0
10.7,3.700000047683716,138.0,21.314910888671875,25.46953201293945,-79.78237373503552,40.45805919652987,274.72044078826906,0.0069169350899755,0.0500209331512451,0.3306452929973602,0.942403256893158,-0.0332578424318783,-0.1196345188974823,2.9072288444420664,0.0004514797183219,-0.0187645349651575,0.0299238208681345,0.5406200740858913,-0.3247934971377254,-9.685849578380584,14939.0
10.81,3.700000047683716,129.0,21.336196899414062,25.15146064758301,-79.78237330225375,40.4580591679158,275.0083636474609,0.0058096097782254,0.0496512204408645,0.3284404277801513,0.943200945854187,0.0412493375208749,-0.118068395754678,2.8947788572529323,0.0256453901529312,-0.0297320745885372,0.054352730512619,0.4412996344640851,-0.2070941623672843,-9.594480986595157,14940.0
11.0,3.700000047683716,130.0,21.38001823425293,24.49941635131836,-79.78237423719982,40.4580583404214,275.6911973190308,0.0020454283803701,0.0468780435621738,0.3212060034275055,0.9458462595939636,0.0416658604806304,-0.0900091797602012,2.926945999857314,-0.0569178573787212,-0.1324626803398132,0.0904296934604644,0.4865038008615375,-0.3655576899647713,-9.765014446377757,14940.0
11.11,3.700000047683716,125.0,21.32617950439453,25.67627716064453,-79.78237520057849,40.45805733790283,276.1083563995361,-0.0022723609581589,0.0454081594944,0.3180580139160156,0.9469805359840392,0.0097178066256709,-0.1112412963306812,2.9821731487636858,0.036736786365509,-0.0959975868463516,-0.0164028592407703,0.5713737606257201,-0.2701373431831598,-9.781702984571456,14941.0
11.2,3.700000047683716,123.0,21.26482963562012,25.77169990539551,-79.78237477790323,40.45805735811646,276.40488903045656,-0.0080893598496913,0.0467790365219116,0.3200998604297638,0.9461936950683594,0.0751295144659169,-0.1044439038244881,2.9875353800646125,0.1058247685432434,-0.0669201090931892,-0.1217386722564697,0.5844961550831795,-0.1795262399129569,-9.810646702051164,14941.0
11.4,3.799999952316284,123.0,21.312406539916992,25.135557174682607,-79.7823747250799,40.45805637429462,277.1328267288208,-0.0185716021806001,0.0467522703111171,0.3232552111148834,0.9449737668037416,0.0781004434861979,-0.112898030432279,3.040803445090936,0.0209960583597421,-0.1185385957360267,0.0076136225834488,0.5607124226912856,-0.5290969296544791,-9.8095743227005,14942.0
11.5,3.900000095367432,121.0,21.3599853515625,24.61869239807129,-79.78237398371519,40.45805581309974,277.84163848876955,-0.0216405019164085,0.0412017554044723,0.32566237449646,0.9443400502204896,0.1625611129900848,-0.09222868980856,3.0837547275876744,-0.0134190628305077,0.0044808825477957,-0.0406348034739494,0.6756378018110991,-0.3507132904976606,-9.805525710582732,14942.0
11.7,4.0,119.0,21.358732223510746,24.93676376342773,-79.78237352231122,40.45805606803749,278.1464280319214,-0.0196890160441398,0.0397312939167022,0.3271592557430267,0.943928360939026,0.2309898334659809,-0.0195034215452292,3.0742522790856834,-0.016690319404006,0.0150261167436838,-0.0445976592600345,0.6338642699271441,-0.2632969779521227,-9.665250422358511,14943.0
11.8,4.0,119.0,21.294878005981445,25.07194328308105,-79.78237266877366,40.45805537585978,278.876467628479,-0.0177688300609588,0.0343862324953079,0.3250323534011841,0.9449105262756348,0.3128258757933972,0.0472254326947032,3.0821980974468675,0.1053480133414268,0.0043195039033889,0.0255111344158649,0.5323004729300738,-0.5010455703735351,-9.60968199312687,14943.0
12.0,4.0,126.0,21.2773494720459,25.588808059692383,-79.78237122442907,40.45805442601594,279.6036614608765,-0.0299259647727012,0.0327114649116992,0.3191048204898834,0.9466818571090698,0.3265948634350349,0.0729787263875171,3.0740238157680047,-0.0678160861134529,-0.2151143252849578,0.0585157051682472,0.7251328743249178,-0.3496619976684451,-9.514621469378472,14944.0
12.2,4.099999904632568,124.0,21.33995246887207,24.75387191772461,-79.78237080317075,40.45805487844323,279.9066886138916,-0.0355531498789787,0.0282664354890584,0.3182957172393799,0.9469027519226074,0.3447108117966209,0.1298905603205001,3.072083334936564,-0.1211564913392067,-0.201712816953659,0.0466788224875927,0.5134389997646213,-0.5283082864433527,-9.647490089535712,14944.0
12.3,4.199999809265137,121.0,21.34621238708496,24.411945343017567,-79.78237044076987,40.45805541831819,280.2089862060547,-0.0396791249513626,0.0218578483909368,0.3187595903873444,0.9467523694038392,0.3768016460795832,0.2004519153439788,3.0761651568105552,-0.1942678540945053,-0.1108117029070854,3.964091956731863e-05,0.5125189038366079,-0.5517872327193618,-9.750247887969016,14945.0
12.4,4.300000190734863,121.0,21.3987979888916,24.181344985961918,-79.78236855539231,40.45805469401166,280.9277114105225,-0.0388076044619083,0.0098095517605543,0.3162203133106232,0.9478409886360168,0.4330320272693064,0.2377131912852942,3.0815714659278965,-0.0587630607187748,-0.0874844491481781,0.0014237887226045,0.4953238505870104,-0.6128582573309541,-9.781828699707985,14945.0
12.6,4.5,127.0,21.229772567749023,25.7876033782959,-79.78236678350844,40.45805387893432,281.30535404205324,-0.0391345433890819,0.002828013850376,0.3125160634517669,0.9491018652915956,0.466047543298085,0.215159867281069,3.0761364033053264,-0.1127507537603378,-0.0145754376426339,-0.0144724352285265,0.4497289805486798,-0.6390936541557313,-9.567129465937615,14946.0
12.8,4.5,128.0,21.32617950439453,24.55507850646973,-79.78236649698566,40.45805525646741,281.9077452850342,-0.0346679389476776,-0.0091267824172973,0.3175238668918609,0.9475724101066588,0.458058573999212,0.4487745393454395,3.0425966759185625,-0.102225661277771,-0.0041719144210219,-0.014416754245758,0.4993162563443184,-0.6159032314270735,-9.654257072210314,14946.0
12.9,4.699999809265137,126.0,21.13211250305176,26.28061294555664,-79.78236394344411,40.45805444032887,282.2729796600342,-0.0328803807497024,-0.0129114240407943,0.3114483058452606,0.9496062994003296,0.5021219421985167,0.4166163754727121,3.0393384070818548,-0.0291410163044929,0.0282040666788816,0.019906498491764,0.5389459431543947,-0.6396264816820622,-9.64685566663742,14947.0
13.1,4.699999809265137,125.0,21.29863548278809,24.403993606567383,-79.78236087344028,40.45805474628863,282.9151858520508,-0.0280791092664003,-0.0230769794434309,0.3055265247821808,0.9514897465705872,0.5027745284628646,0.5210622781677593,3.0395732501556494,-0.1392528414726257,0.0412090681493282,-0.040919404476881,0.5405295518785715,-0.5353359818458557,-9.819254972934724,14947.0
13.2,4.699999809265137,132.0,21.401302337646484,23.79170799255371,-79.78236102181287,40.45805554452324,283.21527282714845,-0.0235607028007507,-0.0299681033939123,0.3063904941082001,0.951142430305481,0.4358048970828792,0.6500061492412263,3.040653655101304,-0.2181930541992187,-0.038848340511322,0.0251386724412441,0.3638542133197189,-0.5060353649407625,-9.82149796485901,14948.0
13.3,4.800000190734863,138.0,21.342456817626957,24.141586303710927,-79.78235794196753,40.45805651690869,283.8386458587646,-0.0098786167800426,-0.0414656586945056,0.2965138256549835,0.954076886177063,0.4693502407367326,0.7752637117710477,3.024984869793084,-0.0597997829318046,0.1205353960394859,0.010610057041049,0.4617186596989632,-0.475314970985055,-9.823696517944336,14948.0
13.5,4.800000190734863,137.0,21.39754676818848,23.29869842529297,-79.78235542904713,40.458058028007,284.44105522155763,0.0048517324030399,-0.050115630030632,0.2873159945011139,0.956511616706848,0.4015190601194058,0.9183042350105284,2.994309135700436,-0.1768356412649154,0.0972708985209465,-0.06047373265028,0.3891758365184069,-0.6073216019198299,-9.795395409464836,14949.0
13.7,4.699999809265137,136.0,21.271089553833008,24.69820976257324,-79.78235603983127,40.45805883943592,284.7385920715332,0.0127389477565884,-0.0566869266331195,0.2888882756233215,0.9555981755256652,0.2789419276757337,1.0133443738202548,2.9746538492679195,-0.1567602455615997,0.1334322690963745,-0.022458616644144,0.4588563014566899,-0.4831390571594239,-9.756269350647926,14949.0
13.8,4.599999904632568,149.0,21.33369255065918,23.63267135620117,-79.78235684494977,40.45805961226043,285.0348281097412,0.0206943787634372,-0.0631066709756851,0.2915128767490387,0.9542587399482728,0.1756793573337992,1.0855630806566976,2.9682394340285434,-0.1227966994047164,0.134051576256752,0.030584430322051,0.5255898427963257,-0.6075729591026903,-9.899758268594743,14950.0
13.9,4.400000095367432,154.0,21.28736686706543,24.66640281677246,-79.78235306686884,40.458060913642136,285.3163279724121,0.0265629384666681,-0.0682706832885742,0.281724601984024,0.956694722175598,0.2766795000953385,1.0995201561072518,2.945482837551132,-0.1133402064442634,0.0999075546860694,-0.0235302709043026,0.4955039082840085,-0.4756261890381575,-9.89875839471817,14950.0
14.1,4.300000190734863,155.0,21.145883560180664,25.668325424194336,-79.78235039690856,40.4580636865784,285.88257781982423,0.0387424454092979,-0.0749876052141189,0.2750994563102722,0.9577036499977112,0.2098957350580984,1.1869006850740411,2.9265819922905263,-0.042961910367012,0.163681149482727,-0.1612574905157089,0.4351470845192671,-0.2072992717288434,-9.935034520626068,14950.0
14.2,4.099999904632568,156.0,21.05824089050293,26.773622512817383,-79.78235146205539,40.45806435904757,286.1777495574952,0.045568224042654,-0.0780094563961029,0.2777081429958343,0.9564080238342284,0.0249153441716234,1.2129263703665878,2.956929139040253,-0.0339971259236335,0.1292065680027008,-0.0087018283084034,0.3822231316566467,-0.3541253601014614,-10.070689923763275,14951.0
14.4,3.799999952316284,170.0,21.08453369140625,26.224950790405277,-79.78234995877156,40.458067631653215,286.7431315612793,0.0664317235350608,-0.0820184722542762,0.2663453221321106,0.9580814242362976,-0.0982632903067523,1.3104806943786451,3.0144430883183886,-0.1082664728164672,0.2797192335128784,-0.0555889345705509,0.3112820070236921,-0.0033517062384635,-10.234176903963087,14951.0
14.51,3.5999999046325684,175.0,21.039459228515625,26.98036956787109,-79.78235019279242,40.45807042180043,287.31369010925295,0.0902457386255264,-0.0740412920713424,0.2559233903884888,0.9596232771873474,-0.3168303765481671,1.4015620384352243,3.010680169677205,0.0943246483802795,0.2155912071466446,-0.0093847746029496,0.4229697097465396,-0.0122044455539435,-10.156323566436768,14952.0
14.7,3.400000095367432,177.0,21.32117080688477,23.529298782348643,-79.78235181611397,40.45807073299529,287.61708633422853,0.0992866978049278,-0.0700636208057403,0.2560808956623077,0.9589869379997252,-0.5644518179409237,1.350341945756762,3.0499013837929865,-0.0157257914543151,0.1733509600162506,-0.0479180067777633,0.3846962846070528,-0.0232621059380471,-10.142511273622514,14952.0
14.9,3.299999952316284,179.0,21.3987979888916,22.72616958618164,-79.78235252470898,40.45807357916613,288.1841181945801,0.1212143227458,-0.0738966390490531,0.2428632974624633,0.9596165418624878,-0.7888000866085662,1.3243004209311402,2.9858540193488854,-0.1396190226078033,0.2630688548088074,-0.0253619607537984,0.2967390863411128,-0.0577061712741851,-9.873392003774644,14953.0
15.0,3.2000000476837163,205.0,21.32868385314941,23.52134704589844,-79.78234661322557,40.458078778320434,288.4131697845458,0.13248972594738,-0.0789885595440864,0.1985794454813003,0.9678707122802734,-0.5511619250499984,1.5292312333373312,2.8107032422103573,-0.0289437714964151,0.3860231041908264,0.0018636361928656,0.3158748487383127,-0.1359696270246058,-9.416049107909204,14953.0
15.1,3.0999999046325684,215.0,21.619159698486328,21.032442092895508,-79.7823485567967,40.45808232992985,288.9407481384277,0.169505700469017,-0.0755633413791656,0.1902040839195251,0.9640437960624696,-0.9218858489684262,1.3265538861449528,2.673162884094844,0.1004172563552856,0.4660294950008392,0.0043512340635061,0.1837005123496056,0.1248532203957438,-9.259775837659836,14953.0
15.3,3.0999999046325684,224.0,21.331188201904297,23.529298782348643,-79.78235051517684,40.458082204721045,289.20074073791505,0.1890467405319214,-0.0678240656852722,0.1929116398096085,0.960440754890442,-1.123441111126958,1.1663647208011187,2.596487692715479,0.0512681677937507,0.4444193542003632,-0.0936994478106498,0.3534495316073298,0.3505971501767636,-8.948071296215057,14954.0
15.4,3.0999999046325684,230.0,21.332439422607425,23.91893577575684,-79.78235276844839,40.45808439690366,289.43749801635744,0.2063112407922744,-0.0591958835721015,0.1858561784029007,0.9588477611541748,-1.2999923578756205,1.1311810531265716,2.487694507284844,0.1916941404342651,0.4107158780097961,-0.0283740628510713,0.4128041060641408,0.2189525349810719,-8.996785034537316,14954.0
15.6,3.2000000476837163,277.0,21.056989669799805,26.272661209106445,-79.78235050919814,40.458095219208005,289.88789169311525,0.2271713614463806,-0.041203249245882,0.1236237213015556,0.9650973081588744,-1.593843524724963,1.1604666481481876,2.2375611502662784,0.3697438538074493,0.2775463461875915,0.0071798395365476,0.4646997895091772,0.3375814308598637,-9.178801841139794,14954.0
15.71,3.2000000476837163,299.0,20.837879180908203,28.67409706115723,-79.78234900421795,40.45810314819608,290.1472090911865,0.231354221701622,-0.0311127733439207,0.0819844752550125,0.9689096212387084,-1.814204007185426,1.3952283950197693,2.075323491986313,0.3698311448097229,0.1795057952404022,0.1123958751559257,0.5333475630730391,0.2527553069405258,-9.446851070523262,14955.0
15.9,3.400000095367432,310.0,20.86542510986328,28.03000259399414,-79.78235589224853,40.45810236401567,290.5851420593262,0.2419410496950149,0.0162882562726736,0.0805446654558181,0.9668049812316896,-2.1326346592877456,0.5200764636312938,2.2035460842273973,0.5400961041450499,0.0774905607104301,0.1169468015432357,0.6142292466759682,0.4203401803225279,-9.94267215371132,14955.0
16.1,3.5,315.0,20.95181655883789,27.505186080932607,-79.78236240427685,40.45810151433662,290.994239730835,0.2436324805021286,0.0670822113752365,0.0731993839144706,0.9647720456123352,-2.2969978632598167,-0.1874261144374545,2.187075627230528,0.5327976346015929,0.0712546855211258,0.0959084182977676,0.8523771308362484,0.4109116912633181,-9.822951582670212,14955.0
16.2,3.900000095367432,8.0,20.89797782897949,27.37795829772949,-79.78236459593299,40.45809991186311,291.1816729736328,0.2432275116443634,0.0942660942673683,0.0749803930521011,0.9624616503715516,-2.208053874708936,-0.6298851060136982,2.1950890158926866,0.5803917050361633,-0.0036360067315399,0.0269451737403869,0.8726635339111091,0.5037859776243567,-9.7166421854496,14956.0
16.3,4.0,32.0,20.721439361572266,28.77746963500977,-79.78237044996982,40.45809697775668,291.5354441833496,0.2278530597686768,0.142210304737091,0.070674329996109,0.960658311843872,-2.090319710098305,-1.3286313038040802,2.190777281844868,0.4685800671577454,-0.2677810788154602,0.0544228516519069,1.1377258593589068,0.380210300758481,-9.740215820074082,14956.0
16.5,4.400000095367432,38.0,20.87293815612793,27.393861770629893,-79.7823717740447,40.458094538417846,291.6966780853272,0.2119421511888504,0.1617320328950882,0.0716594010591507,0.9611390233039856,-1.8513316558641688,-1.7337259420670763,2.2408773410423737,0.3296556770801544,-0.3884499967098236,0.1784783750772476,1.0144093237817289,0.2980493742786348,-9.891209639310835,14956.0
16.7,4.699999809265137,40.0,21.475173950195312,21.764005661010746,-79.78237541888583,40.45808956739023,291.998483581543,0.173671007156372,0.1858826726675033,0.0657704472541809,0.9648628830909728,-1.3724845103184191,-2.4345504534818576,2.2399178153046324,0.1784733086824417,-0.3275478184223175,0.1016364768147468,1.2341511963307858,0.3551702940836549,-9.76903382241726,14956.0
16.81,5.099999904632568,80.0,21.68927383422852,17.120168685913086,-79.78237556748681,40.458086538185576,292.13130943298336,0.1562078595161438,0.1966166347265243,0.0636741146445274,0.9658606648445128,-1.0414589114542565,-2.7296212864750533,2.1752873687615844,0.0429574251174926,-0.4535362720489502,0.0365260727703571,1.6077885688841345,0.0504194350820034,-9.181257086992265,14957.0
16.9,5.300000190734863,95.0,21.94719696044922,18.392452239990234,-79.78237877217646,40.45808441497344,292.26233474731447,0.1021205931901931,0.1557465493679046,0.0624033585190773,0.9805203676223756,-1.023058373687636,-2.789229096673948,1.9167382419968528,-1.577495813369751,-1.82921302318573,-0.0670106709003448,2.6474029004573825,-0.7087997737526894,-8.179623783230783,14957.0
17.1,5.800000190734862,92.0,21.50897979736328,21.756053924560547,-79.78238211683173,40.45807972727808,292.48232070922853,-0.1242856457829475,-0.0799610465764999,0.0377517975866794,0.9882985949516296,-0.4304542505458767,-2.992185825876292,0.7694357825936337,-1.631197452545166,-2.0270297527313232,0.4356897175312042,0.8411626828461886,0.660430363342166,-8.939032670259477,14957.0
17.31,6.0,90.0,21.970985412597656,12.524044036865234,-79.78238226477217,40.45807496344961,292.66351501464845,-0.2049713879823684,-0.0584721751511097,-0.0222539436072111,0.9767664074897766,-0.0430238088141204,-2.503455523921497,0.0392746640494865,2.333138227462769,0.7953188419342041,0.5559521317481995,-1.1181501122564077,2.1641468989849093,-10.852660292387007,14957.0
17.4,6.5,220.0,21.61415100097656,22.59894180297852,-79.78238884105532,40.45807133851974,292.84874145507814,0.0638421475887298,0.2154678851366043,-0.1578738391399383,0.9615475535392758,0.2431490361402007,-2.2427451194293,0.122799417674406,2.5612952709198,2.8336644172668457,0.8575003147125244,-1.6316196271777157,1.3450841331481935,-8.774764502048493,14957.0
17.6,6.599999904632568,207.0,20.18305778503418,35.42515182495117,-79.78239216174626,40.45806832642512,292.91641036987306,0.1656068116426468,0.2744843959808349,-0.2189370393753052,0.9215743541717528,0.4457874247013752,-2.035845471292865,0.7043174691702226,0.454420268535614,1.1983520984649658,1.1222655773162842,1.70802782535553,-1.8775587800145148,-7.0918206471204766,14957.0
17.7,6.5,199.0,20.36335182189941,31.28227806091309,-79.78239347464644,40.45806726277075,292.97710792541505,0.1499051600694656,0.2467533349990845,-0.2847321927547455,0.9140945672988892,0.7401864842991348,-1.71973177877996,1.284631984874241,-1.6393318176269531,-0.6349092125892639,1.1605483293533323,2.510837962925434,-2.038698541671038,-8.626525306105615,14957.0
17.9,6.5,194.0,21.45889663696289,20.52352905273437,-79.7824009166537,40.45806383456123,293.13892547607423,-0.0239685866981744,0.0912958607077598,-0.4274576902389526,0.8990944027900696,1.8529889135211584,-1.571066406483124,1.1654348494128492,-1.625949501991272,-0.4378990232944489,1.547478437423706,1.611488394588232,-1.0351481551676989,-10.087900618314745,14958.0
18.0,6.5,157.0,21.86330986022949,17.414384841918945,-79.78240984044173,40.45805930078001,293.3052119445801,-0.0599628165364265,0.0211012382060289,-0.5776434540748596,0.8138104081153871,2.472824754891372,-0.8928806666157606,0.5669111991714489,0.0567641630768776,0.2511633634567261,1.6205003261566162,0.3301424569264054,-0.3604342134296894,-10.964856666326522,14958.0
18.2,6.5,233.0,22.21138000488281,15.124274253845217,-79.78241095030371,40.45805785018412,293.40051071166994,-0.0442853979766368,0.0196578260511159,-0.6454377770423889,0.7622746825218201,2.4995222945255784,-0.3521674356001117,0.4755626700326263,0.4391604661941528,0.2268281579017639,1.5217715501785278,0.2678704324923456,-0.7424225793778897,-9.150636972784996,14958.0
18.31,6.4000000953674325,218.0,21.99352264404297,16.810050964355472,-79.78241025958856,40.45805573625809,293.45351783752443,-0.0356719568371772,0.0212843809276819,-0.7034672498703003,0.7095128297805786,2.360093470533997,0.1924082769968971,0.4060828844520152,0.1411868333816528,0.0792435929179191,1.4831525087356567,0.2626520666107536,-1.0324656718969345,-8.623521591424941,14958.0
18.41,6.300000190734862,210.0,21.89210700988769,18.32088661193848,-79.78241653935633,40.45805001861931,293.4346198272705,-0.0395280346274375,0.0162189155817031,-0.7597937583923341,0.6487588286399841,2.2955881449154374,0.4532648534541496,0.3047233840410579,-0.07737348228693,-0.0149329407140612,1.4572099447250366,0.031242116340436,-1.243878624290228,-8.563393503427504,14958.0
18.6,6.300000190734862,242.0,21.89461135864257,17.8835391998291,-79.78242624004606,40.45804109751553,293.41829292297365,-0.0609378442168235,-0.0096072060987353,-0.8543787598609924,0.5159760117530823,2.044664138874365,0.9800791266140484,0.1351362426505897,-0.3485722839832306,0.2379201203584671,1.2823566198349,-0.2697454700991512,-0.4037021474540234,-9.32912381529808,14958.0
18.8,6.199999809265138,244.0,21.664234161376957,19.48979759216309,-79.78242577406752,40.458037475884645,293.4717578125,-0.0673598051071167,-0.0394525043666362,-0.921122431755066,0.3813656270503998,1.3130662493134964,1.4913752166268994,0.0678493207084202,0.0112073924392461,0.0545628704130649,1.5574162006378174,-0.4657895277813077,-0.4867939323931933,-10.06974969148636,14958.0
18.9,6.099999904632568,223.0,21.537776947021484,21.167621612548828,-79.7824332628812,40.45802840074839,293.3351153564453,-0.0679357349872589,-0.0546232014894485,-0.9646763801574708,0.2485973685979843,0.6926419212395492,1.618127302665258,0.1302221781116979,-0.0910460278391838,0.0547577589750289,1.1258621215820312,-0.5003802303224802,-0.3132236115261913,-10.339278266429902,14958.0
19.1,6.099999904632568,213.0,21.34996795654297,16.881616592407227,-79.78243538109943,40.45802153611036,293.0843371582032,-0.0698243901133537,-0.0581855624914169,-0.9741517305374146,0.2068030685186386,0.3918814180629544,1.6238451056559118,0.1008371737470898,-0.030763080343604,0.0255863927304744,0.839752197265625,-0.9137624432891608,-0.355931601561606,-10.654750753641132,14958.0
19.2,6.199999809265138,222.0,22.20136260986328,16.348846435546875,-79.78243477211001,40.458020236110286,293.1137885284424,-0.0899274945259094,-0.0561097711324691,-0.9795504212379456,0.171014130115509,-0.0455688466192756,1.5225173127547853,0.1475756889854639,-1.142539620399475,-0.2319381237030029,0.7167279720306396,-0.6912701866775751,-1.0986052092164755,-10.106652638912204,14958.0
19.3,6.300000190734862,213.0,21.57032966613769,21.461837768554688,-79.7824339216397,40.458013770967725,292.8749026489258,-0.2204806506633758,-0.0894736126065254,-0.9618058800697328,0.1353228390216827,-0.7831933146983859,1.2272580273825284,0.0917967459720734,-0.8691586256027222,0.3235983252525329,0.0925715491175651,-0.8905481200665236,-0.5651523962616921,-9.383587705492976,14957.0
19.5,6.4000000953674325,197.0,21.073265075683597,26.15338516235352,-79.78243243271655,40.45801306521568,292.86508934021,-0.2462948411703109,-0.105303831398487,-0.954642653465271,0.1300282031297683,-1.1902497888875847,1.0349111329513163,0.3219667908444314,-0.3278888761997223,0.1032073572278022,0.0759116485714912,-0.6671742495149374,0.6510181003063917,-10.151790804862976,14957.0
19.6,6.4000000953674325,190.0,20.841636657714844,28.03000259399414,-79.78243223590022,40.458008769194,292.5442637634277,-0.250933438539505,-0.109564334154129,-0.9529283046722412,0.1302145421504974,-1.6047930496825622,0.9397012131870908,0.512599105987247,0.0796436667442321,-0.028636896982789,0.0114595154300332,-0.7746018536388874,0.3989484342187643,-10.715526713132856,14957.0
19.8,6.4000000953674325,157.0,20.274457931518555,34.03359222412109,-79.78242679530874,40.45800864011185,292.49741165161134,-0.247492104768753,-0.1067173480987548,-0.9524144530296326,0.1423580050468444,-2.481102367066231,0.5417444557024663,1.1226857443246605,0.0138307195156812,0.0426335372030735,-0.1144131943583488,-0.8704208343476058,0.438550639115274,-11.410572373867035,14957.0
20.0,6.4000000953674325,151.0,20.054096221923828,35.71141815185547,-79.7824209986967,40.45800756693521,292.1801585388184,-0.2476616650819778,-0.1097868829965591,-0.9503116607666016,0.1533573716878891,-3.29379156124464,0.2336281305117958,1.827294178803132,0.0304569471627473,0.2105357646942138,0.026336358860135,-0.9176005556434392,0.6733093674480916,-12.526207087039948,14957.0
20.1,6.5,140.0,19.94391632080078,35.40129852294922,-79.78241682303383,40.45800669889866,291.93866149902345,-0.246273398399353,-0.1207612603902816,-0.94886976480484,0.1562447249889373,-3.684157827678011,0.1373324488941095,2.194232020281608,0.1093177273869514,0.3402660191059112,0.082536980509758,-1.0220136277377605,0.926611992046237,-12.700656427145006,14956.0
20.3,6.4000000953674325,136.0,20.57119369506836,28.92855262756348,-79.7824063744111,40.45800997741735,291.9799880218506,-0.182952046394348,-0.1497214138507843,-0.9573100209236144,0.1663418263196945,-4.361816438697916,-0.2417677646787244,2.9236584788544784,1.0596672296524048,0.3577430248260498,0.0304291453212499,-0.4817810413241387,1.7707801437377932,-12.572759109735491,14956.0
20.4,6.4000000953674325,125.0,21.03695678710937,24.05411529541016,-79.78240048700269,40.45801041664442,291.81189910888673,-0.1201487183570861,-0.1529085785150528,-0.966847002506256,0.1654999852180481,-4.761876769431856,-0.3984089255726406,2.8145994100493312,1.3481552600860596,0.218800351023674,0.2789667844772339,-0.5854367528110743,1.4142591793835164,-12.249708631038668,14956.0
20.5,6.300000190734862,132.0,21.48393821716309,20.01461410522461,-79.7823947285902,40.458012938695,291.8686103057861,-0.049776904284954,-0.1562995612621307,-0.9728034734725952,0.163543090224266,-5.13853305433834,-0.7983489480250221,2.4633212711668246,1.2793402671813965,0.316646009683609,0.2518157362937927,-0.7136901656538248,1.3869401107728483,-11.697641426324846,14956.0
20.7,6.300000190734862,122.0,22.43048858642578,13.07271671295166,-79.78238320225823,40.45801737785357,291.8121585083008,0.0582785047590732,-0.1845303326845169,-0.9693268537521362,0.1515175700187683,-5.414591888118124,-1.6887116952651202,1.3005900332640674,0.713354229927063,0.7207093834877014,0.1319383084774017,-0.5458427705615759,0.959951134622097,-10.036974878311158,14956.0
20.8,6.199999809265138,118.0,22.475563049316406,13.454401016235352,-79.78237801694753,40.45802075727189,291.85447875976564,0.0988436639308929,-0.2136124670505524,-0.9607317447662354,0.1469495296478271,-5.2750570464610655,-2.18427487990881,0.8869959512125926,0.6718202233314514,0.7085765600204468,0.0510636791586875,-0.2647007847949863,1.2994814059138298,-8.872532286643981,14956.0
21.0,6.099999904632568,143.0,21.832008361816406,18.17775535583496,-79.7823676251653,40.45802627977351,291.6522807312012,0.16668201982975,-0.2344933748245239,-0.9461284875869752,0.1485630124807357,-4.765216173722023,-3.0341993020870937,0.2392103377641696,0.6627626419067383,-0.0541133359074592,-0.0336680226027965,0.5593153766915202,0.5845282416790724,-8.115150044560432,14956.0
21.1,6.0,143.0,21.54904556274414,20.579191207885746,-79.7823634884012,40.45803024452733,291.6039427947998,0.1898774057626724,-0.2182345986366272,-0.9441142678260804,0.1580145508050918,-4.455434900122255,-3.459700361098597,-0.0040240904987018,0.5418910980224609,-0.3846494555473328,-0.1008186414837837,0.4653745216503739,0.6008879836276174,-8.363164958953858,14956.0
21.3,5.699999809265138,132.0,21.38252258300781,21.565210342407227,-79.78235487527141,40.45803724897321,291.3190745544434,0.2194239944219588,-0.160985991358757,-0.946216344833374,0.1749613583087921,-3.7557614838906006,-4.078907950974114,-0.5872722181986002,0.3360422551631927,-0.5631316900253296,0.0069939298555254,0.3801246025040746,0.2248171461001038,-9.321863327622417,14956.0
21.4,5.5,126.0,21.000646591186523,33.795040130615234,-79.78235017967695,40.458040600175735,291.1557635498047,0.2299171835184097,-0.1349188238382339,-0.947174906730652,0.1783110499382019,-3.4265649228307486,-4.230620427653111,-0.8949166821641835,0.2568152844905853,-0.4857980012893677,0.0598850473761558,0.218251928910613,0.3445551491528749,-9.602415073513985,14956.0
21.6,5.199999809265137,126.0,21.23352813720703,22.14569091796875,-79.78234404263898,40.45804888169011,290.91756050109865,0.1719980835914611,-0.0137203112244606,-0.9605778455734252,0.2179876267910004,-2.819663704356893,-4.189108561721313,-1.2445681923772796,-1.159423828125,-2.599411964416504,-0.8063472509384155,1.4098573954403402,-0.3441125149279833,-10.451226718425753,14955.0
21.8,5.0,125.0,20.459760665893555,31.767335891723643,-79.78234106301903,40.45805745816048,290.7105082702637,0.0664491206407547,0.0555627197027206,-0.9443621039390564,0.317297101020813,-2.9447819528653563,-3.384806147205041,-1.8283534876309129,-0.1723913103342056,0.7645677924156189,-0.9827795028686525,-1.2021196373552083,0.8536649800837041,-11.123904440402985,14955.0
21.9,4.599999904632568,114.0,20.4384765625,30.59047508239746,-79.78233618356771,40.458060900377504,290.74675933837887,0.1006960794329643,-0.0017166029429063,-0.9316664934158324,0.3490774035453796,-3.277226774677433,-2.966980787253348,-1.4529218347101849,0.6430740356445312,1.4649529457092283,-1.0702341794967651,-0.5925242725387216,1.081874790340662,-11.394862074851993,14955.0
22.0,4.400000095367432,108.0,20.483549118041992,31.04372596740723,-79.78233529013343,40.458064898995,290.6811961364746,0.1631100624799728,-0.0627611577510833,-0.9020140767097472,0.3947489559650421,-3.1793882923539782,-2.953005629156552,-0.9900891059217912,0.7563348412513733,1.2632297277450562,-1.1655060052871704,0.42943903259933,0.6742183171212673,-11.474634468555449,14955.0
22.2,3.900000095367432,79.0,20.41468620300293,30.39963150024414,-79.78233196958723,40.45807318203245,290.54474060058595,0.2039711326360702,-0.1089876070618629,-0.8349562287330627,0.499365359544754,-3.3137586468912925,-2.654815999404394,-0.3384948820690916,-0.0388530045747756,-0.4964170753955841,-1.3679893016815186,1.3648420210182668,-0.1171699607558548,-11.719727529287338,14955.0
22.3,3.700000047683716,67.0,20.638803482055664,28.276508331298828,-79.78233225652251,40.45807696601976,290.51566497802736,0.1739378422498703,-0.0944952964782714,-0.8014705777168274,0.5643236637115479,-3.409312308405277,-2.4256268237440004,-0.0759919149507453,-0.1060758158564567,-0.9829252362251282,-1.3665648698806765,0.8483019138872624,-0.040811938997358,-11.939840115308762,14955.0
22.5,3.299999952316284,58.0,20.800317764282227,26.84518814086914,-79.78233238418609,40.45808499470508,290.4209937286377,0.1250626146793365,-0.0567044988274574,-0.7149474620819092,0.6855611801147461,-3.707965642862721,-1.82308848325694,0.1324143573266945,0.2681227326393127,-0.4057353734970093,-1.55301034450531,0.2953290668316186,0.3538813484832645,-11.889592652320864,14955.0
22.61,3.2000000476837163,54.0,20.866676330566406,26.7497673034668,-79.78233265364626,40.45808929820718,290.3280696105957,0.1218546703457832,-0.048070915043354,-0.6612067222595215,0.7386787533760071,-3.8456898995169433,-1.4177460937923425,0.1243827049716071,0.2912390232086181,-0.1461814641952514,-1.4523895978927612,0.2056564051285386,0.2743121455237269,-11.63056684613228,14955.0
22.8,3.0,20.0,20.8917179107666,26.12157821655273,-79.78233609503691,40.458095976541394,290.38211433410646,0.1300367563962936,-0.0451609343290329,-0.5385156273841858,0.8312954306602478,-3.872021593399456,-0.6265841642320007,0.2089714340469115,0.2724808156490326,-0.0002587837807368,-1.522326946258545,0.5096872069314122,0.3089623069390654,-11.1109961271286,14955.0
23.0,3.0,9.0,20.9993953704834,24.6027889251709,-79.7823393162614,40.458103014974384,290.29049865722664,0.1339674890041351,-0.047079611569643,-0.4084470272064209,0.9016690850257874,-3.7583600872998857,0.165840612775308,0.2238183300873816,0.1961262822151184,-0.0131916021928191,-1.4313549995422363,0.6011883843317628,0.4524086133018136,-11.01776812076569,14955.0
23.1,3.0,7.0,20.96558952331543,25.382062911987305,-79.78234102481666,40.458106665130224,290.14331047058107,0.133781611919403,-0.0480461381375789,-0.3470526337623596,0.9270105361938475,-3.6556236707444665,0.5367252255227648,0.1607057665140155,0.1106031388044357,-0.0255925375968217,-1.4114471673965454,0.5870877141505481,0.6707618817687035,-10.776795008182528,14955.0
23.2,3.0,5.0,21.01191520690918,24.268814086914062,-79.7823434461916,40.45810928999777,290.1858786773682,0.1344817131757736,-0.0481371954083442,-0.2910643219947815,0.945980429649353,-3.4814358912799417,0.7993192359239765,0.2106928098289994,0.1544878780841827,0.0373172387480735,-1.0567795038223269,0.6703176395595074,0.5508907449245453,-10.719242033958436,14955.0
23.4,3.0999999046325684,346.0,20.83913230895996,32.419384002685554,-79.78235097769101,40.45811832540778,290.0820635986328,0.1323040723800659,-0.0494391396641731,-0.1901495903730392,0.9715424180030824,-3.178927603674792,1.1669315239267806,0.1941499081974304,-0.2610986828804016,-0.0850938856601715,-0.2948471009731293,0.5662890949845314,0.6776613769680262,-10.435439236164092,14955.0
23.6,3.2000000476837163,344.0,20.55241203308105,29.23072052001953,-79.78235408857385,40.45812098429359,290.0176219177246,0.1331388354301452,-0.0792375728487968,-0.1798246800899505,0.97142094373703,-3.205235750297758,1.125973409862792,0.2794077389381396,-0.6613152623176575,0.6056888103485107,-0.3264049291610718,0.2190056532807648,0.3012884211167693,-10.9805950319767,14955.0
23.7,3.5,344.0,20.48104476928711,29.914573669433597,-79.78235722829609,40.45812284565278,290.0644110870361,0.1522284299135208,-0.1212507039308548,-0.1761979758739471,0.964924454689026,-3.221747666524576,0.970531970092351,0.583579264080331,-0.5374963283538818,0.7356250882148743,-0.1580944955348968,0.6310216460376978,0.8209568251669407,-10.932824449539185,14955.0
23.9,3.700000047683716,343.0,20.349580764770508,31.767335891723643,-79.78236516568633,40.45812608964221,290.1156825256348,0.1879046261310577,-0.1447213292121887,-0.1871087700128556,0.9532774686813354,-3.4693000600232744,0.5137312469519179,1.1034614849874298,0.2237644493579864,0.3088692128658295,0.1765763014554977,0.8205842113494873,0.9684306936711072,-10.54847176194191,14955.0
24.0,4.0,336.0,20.3846378326416,30.24854850769043,-79.7823692109654,40.45812732988704,290.1599806976318,0.2004839926958084,-0.127164140343666,-0.1938110738992691,0.951878547668457,-3.5964848984318536,0.1490565988628591,1.2583119297217829,0.4959446787834168,0.1478450298309326,0.3399241864681244,0.8346257150173187,0.77096949018538,-10.432532000541688,14955.0
24.1,4.199999809265137,347.0,20.59623336791992,27.37795829772949,-79.78237284403984,40.45812870118072,290.2379340362549,0.2105415761470794,-0.1002905517816543,-0.2021849155426025,0.9511758089065552,-3.702614350606407,-0.1821932666491861,1.2681665909269133,0.5805516839027405,0.0667405128479003,0.2340412139892578,1.0048627209663392,0.6168596897274256,-10.614288021326066,14955.0
24.3,4.599999904632568,346.0,20.638803482055664,27.012176513671875,-79.78238210360314,40.45812989203424,290.32463638305666,0.2211310565471648,-0.0364774949848651,-0.2130757868289947,0.9509833455085754,-3.800159318307162,-1.0117649508623612,1.1175484503300028,0.5124024152755737,-0.1760111898183822,0.1266194581985473,1.3188114237785342,0.5685486418381334,-10.011472831964491,14955.0
24.4,4.900000095367432,344.0,20.867929458618164,25.14350891113281,-79.78238661923727,40.45813044568752,290.46069328308107,0.2138590812683104,-0.0067353248596191,-0.2195685654878617,0.9518448114395142,-3.7514721507426847,-1.331245535864106,0.9662223574674806,0.4846289753913879,-0.3442783653736114,0.0984444245696067,1.3449999332427978,0.5718070393055678,-9.808604854345322,14955.0
24.6,5.300000190734863,25.0,21.016923904418945,23.99845314025879,-79.78239668570406,40.458130155952674,290.62709228515627,0.1940361410379409,0.0486133769154548,-0.2255129367113113,0.9534834027290344,-3.4723325877490514,-2.0003546571194724,0.6658373667399701,0.4848783016204834,-0.2657880783081055,0.1305996626615524,1.2881005315482617,0.3944776165857911,-9.641116039752962,14955.0
24.7,5.599999904632568,54.0,21.23728370666504,21.597017288208008,-79.78240136070755,40.45812961041533,290.6550769042969,0.1871375888586045,0.0731828585267067,-0.2251521348953247,0.9533783793449402,-3.2238767151065044,-2.2765415771519684,0.4906005613587353,0.3921652734279633,-0.205568790435791,0.1135641857981681,1.3642039436101914,0.2877453194931149,-9.54641395032406,14955.0
24.9,6.099999904632568,50.0,21.229772567749023,22.04231643676757,-79.7824109625703,40.458127617036816,290.7469672393799,0.1750972867012024,0.1144016608595848,-0.2239351570606232,0.9518961906433104,-2.687846224142852,-2.6610008706468267,0.1926866333065068,0.2633762061595917,-0.3285023272037506,0.2374423742294311,1.3606222316622736,0.1248554861918091,-9.329616735577584,14955.0
25.0,6.4000000953674325,47.0,21.214746475219727,22.44785690307617,-79.78241503185622,40.45812638861807,290.74971954345705,0.1659973710775375,0.1335585862398147,-0.2214342355728149,0.9516164660453796,-2.3303437362199246,-2.7950594410912983,0.088177058190301,0.3177756667137146,-0.3611864149570465,-0.0214872136712074,1.5945845326781274,0.342856679186225,-9.434098293185237,14955.0
25.21,6.800000190734862,92.0,21.258569717407227,22.51942443847656,-79.78242300510738,40.45812284347994,290.7932318878174,0.1410075426101684,0.1705112606287002,-0.2142042815685272,0.9513986110687256,-1.6134716529454438,-2.9585362847569225,-0.0548093136943161,0.2701444029808044,-0.3572890162467956,-0.1003544777631759,1.6447159284353257,0.2027018801495433,-9.597913302183152,14955.0
25.3,7.0,105.0,21.23102378845215,22.153642654418945,-79.78242606881416,40.458121031220045,290.7742003631592,0.1237479522824287,0.1821552067995071,-0.2096897214651108,0.9526469111442566,-1.2231590882442658,-2.9715158960722072,-0.1312650493756925,0.0757436081767082,-0.4399169385433197,0.0703011825680732,1.6378013035655024,-0.1145320625044405,-9.667263618707658,14955.0
25.5,7.400000095367432,101.0,21.14463233947754,23.48158836364746,-79.78243195236327,40.45811655251666,290.7944277954102,0.09048642963171,0.1891520172357559,-0.1996517479419708,0.9571692943572998,-0.5132301293435626,-2.9178765539336213,-0.1660821998302616,-0.0264678839594125,-0.426517128944397,0.1182558089494705,1.4665604768693448,-0.1936452374607324,-9.943137592077257,14955.0
25.6,7.5,99.0,21.296131134033203,21.4379825592041,-79.78243460190126,40.45811395671621,290.834306640625,0.0756880491971969,0.1913464367389679,-0.1947908103466034,0.9590173959732056,-0.2044612646053116,-2.8572475602200686,-0.1254247314626878,0.0090784123167395,-0.3144719302654266,0.0847831442952156,1.6294729681313038,-0.1769146358594298,-10.2195424926281,14955.0
25.8,7.699999809265138,124.0,21.13711929321289,23.13966178894043,-79.78243694982848,40.45810942206005,290.76737205505367,0.0368087142705917,0.202599212527275,-0.1803415268659592,0.9618085026741028,0.5015119990143607,-2.5794535485406818,-0.0619011076836036,0.0214003100991249,-0.554974377155304,-0.0935855209827423,1.6728072680532933,-0.279261027853936,-10.389174896478654,14955.0
25.9,7.699999809265138,126.0,21.099557876586918,23.61676788330078,-79.7824386577344,40.45810667206957,290.839641494751,0.0101416772231459,0.2040822058916092,-0.1745232939720153,0.9632182121276855,0.7426270716012991,-2.436757072016822,0.0015234927747922,-0.0770575106143951,-0.6497166156768799,0.0498498864471912,1.619140645712614,-0.6355285336822272,-10.59715217113495,14955.0
26.1,7.699999809265138,121.0,21.085786819458008,23.71219062805176,-79.78243977416817,40.45810177310637,290.9001940917969,-0.0434163734316825,0.191046729683876,-0.162811130285263,0.9670102000236512,1.2505222260755249,-2.021968175586735,0.0998992721602227,-0.3756501972675324,-0.6299447417259216,0.1422408819198608,1.281183421611786,-0.6027869034558535,-10.902527686357498,14955.0
26.3,7.699999809265138,118.0,20.841636657714844,25.962541580200195,-79.78243763540819,40.45809796774277,290.87401000976564,-0.0859803929924964,0.1699373722076416,-0.1555408090353012,0.9692965149879456,1.7942146482568757,-1.3804655970747577,0.2721351990792592,-0.3108294308185577,-0.1852601766586304,0.083240658044815,1.0784434980154038,-0.8989531271159651,-11.128478132486345,14955.0
26.4,7.599999904632567,134.0,20.91550636291504,25.262784957885746,-79.78243733697369,40.458095499092096,290.9542311859131,-0.0973765403032302,0.1570651680231094,-0.1598318219184875,0.969691812992096,1.94433249583608,-1.1328341509555655,0.3936875860425207,-0.2359859198331833,-0.3085707426071167,0.2557841241359711,1.2029052107781173,-0.8381112402677536,-11.278660358190534,14955.0
26.5,7.599999904632567,140.0,20.941801071166992,25.50929069519043,-79.78243528743597,40.45809413407216,290.9599036407471,-0.1045447364449501,0.1446356624364853,-0.1639581620693206,0.9701899886131288,2.143894557624104,-0.7480956353457442,0.5293561257408329,-0.3056078851222992,0.0008398243808187,0.1238190531730652,1.2796853649616242,-0.7495257769525051,-11.27176766037941,14955.0
26.7,7.300000190734862,134.0,20.56743621826172,28.316267013549805,-79.78243110087543,40.45809140564261,291.0375422668457,-0.1155769601464271,0.1180798262357711,-0.1799578070640564,0.969698131084442,2.4051099969382017,-0.0203767340939264,0.8022861293639333,-0.3115974366664886,-0.1711567193269729,0.2116080224514008,1.1415497922152282,-0.6660040754824877,-11.30604988574982,14956.0
26.8,7.199999809265138,130.0,20.77652931213379,26.86109161376953,-79.78242810918285,40.45809087282025,291.06516639709474,-0.1217487528920173,0.1022436469793319,-0.1871514618396759,0.9693801999092102,2.521056128950787,0.3966543187915818,0.9539420106375784,-0.2361396551132202,0.0900120139122009,-0.0657374262809753,1.4858836242556572,-0.6877920435369015,-11.503311553001405,14956.0
27.0,6.9000000953674325,138.0,21.149641036987305,23.06014442443848,-79.78242219411277,40.45808966037145,291.1728800964356,-0.1305968463420868,0.0799179151654243,-0.2073607295751572,0.9662086963653564,2.575932228956855,1.1551482448763664,1.2096040889747866,-0.1848437190055847,-0.0412416160106658,0.3570675551891327,1.2110131792724133,-0.488927179388702,-11.536248918771744,14956.0
27.1,6.800000190734862,142.0,20.904237747192383,25.191219329833984,-79.78241909349659,40.458088922043984,291.22193519592287,-0.1344374716281891,0.0701913386583328,-0.2179455757141113,0.9641056060791016,2.5452409464908645,1.4776794476392938,1.280204951133304,-0.1986121237277984,-0.1792696863412857,0.2866697311401367,0.6191748947650194,-1.3258207735419274,-10.968911125659943,14956.0
27.3,6.599999904632568,134.0,21.20097541809082,23.00448226928711,-79.78241145632296,40.458090481799296,291.3371257019043,-0.1438991874456405,0.0407376773655414,-0.2263376563787461,0.9624992609024048,2.3918009825844777,2.24911252542782,1.4455434615618832,-0.3675360381603241,-0.0103019280359148,0.0800782665610313,0.4056457253918052,-1.2047512498497963,-10.636234960556031,14956.0
27.4,6.4000000953674325,129.0,21.337448120117188,21.056297302246094,-79.78240804141059,40.45809063041981,291.37356941223146,-0.1462100893259048,0.020870653912425,-0.2289995551109314,0.9621570706367492,2.3093779893965665,2.529648053928713,1.4069312742325266,-0.4421631991863251,0.0357396565377712,-0.0144217479974031,0.2598109958879649,-1.1889110695570708,-10.362541998624804,14956.0
27.6,6.199999809265138,135.0,21.27359390258789,21.461837768554688,-79.78240103579476,40.45809272622238,291.4793776702881,-0.1437108516693115,-0.0196820069104433,-0.2246169000864029,0.9635907411575316,2.066597830426074,3.087514798979212,1.2324267134380948,-0.3926191926002502,0.1447287201881408,0.0106023382395505,0.2443459510244429,-0.85798314884305,-9.828343884944916,14956.0
27.7,6.0,139.0,21.281105041503903,21.70834350585937,-79.78239719732673,40.45809475840285,291.5216674041748,-0.141530692577362,-0.0392929092049598,-0.2190513610839844,0.9645940065383912,1.909915367003428,3.3899449310140177,1.15869124419839,-0.3051150739192962,0.2643561065196991,-0.2009741812944412,0.4348003811761737,-0.8064517834782601,-9.921647905111314,14956.0
27.81,5.699999809265138,131.0,21.357481002807614,21.533403396606445,-79.7823903272758,40.45809891718781,291.64677421569826,-0.1340676248073578,-0.073912426829338,-0.2084351927042007,0.9659801721572876,1.5495639104757717,3.826426662080232,0.9939377567422104,-0.3187735378742218,0.0923846215009689,-0.0534370802342891,0.1340890436992049,-0.6188117826730013,-9.761401451826096,14956.0
28.0,5.5,127.0,21.077022552490234,23.990501403808597,-79.78238690042012,40.45810177228617,291.6724242401123,-0.1329628229141235,-0.0894582346081733,-0.2015532851219176,0.9662786722183228,1.3239817162403291,4.065923948553487,0.9373105332775408,-0.2778489887714386,0.1163408234715461,-0.053353551775217,0.1519485050998628,-0.7829597175121308,-9.890208595991137,14956.0
28.2,5.099999904632568,131.0,21.009410858154297,24.85724449157715,-79.78238013736174,40.45810827166171,291.7970389556885,-0.1348070949316024,-0.1198094263672828,-0.1898257732391357,0.965110957622528,0.8641793099274206,4.4809744655162085,1.0140459662040873,-0.3694866597652435,0.0084783397614955,0.050499889999628,-0.1184106302820146,-0.6529517014324665,-10.19213659286499,14956.0
28.31,4.900000095367432,130.0,20.941801071166992,27.07579040527344,-79.78237738893209,40.45811200335057,291.8164653015137,-0.1342389583587646,-0.134724736213684,-0.1843816488981247,0.964278280735016,0.595556703725127,4.679611690249144,1.0945516814001326,-0.2700984179973602,0.0997100099921226,0.0091647999361157,-0.0116815491579473,-0.6048266315460206,-10.463176088333132,14956.0
28.4,4.599999904632568,121.0,20.50107765197754,29.85095977783203,-79.78237276803388,40.4581202970665,291.95574562072755,-0.1267531514167785,-0.1626501977443695,-0.1771010756492614,0.9623481035232544,-0.001721609565366,5.040651961803613,1.3780030019955951,-0.1768907457590103,0.1943442374467849,-0.0159585084766149,-0.0669832905381918,-0.3555184592306614,-11.072426723241806,14956.0
28.7,4.5,116.0,20.443483352661133,29.61240577697754,-79.78236955368251,40.45812957948887,292.09309761047365,-0.0949412733316421,-0.1663201302289962,-0.1795565038919448,0.964926540851593,-0.6588470737368005,5.32166972108496,1.7100265878314451,0.2800358533859253,0.4623079895973206,0.1761561781167984,-0.2385304747894406,-0.0614344656094908,-11.662335938215255,14957.0
28.8,4.099999904632568,115.0,20.653827667236328,27.55289649963379,-79.78236862814752,40.45813467455729,292.1448706817627,-0.0697380155324935,-0.1566031873226165,-0.1835308372974396,0.967950701713562,-1.0704987469136975,5.457525971434461,1.7572132598579533,0.3664286434650421,0.4782210886478424,0.0612508878111839,-0.0818780491501093,0.0525114135257899,-11.67408416390419,14957.0
28.9,4.0,113.0,20.83913230895996,25.70013236999512,-79.7823679482953,40.45813989393276,292.2413520050049,-0.0444255769252777,-0.1471754163503646,-0.1893462836742401,0.96980082988739,-1.47813553449186,5.542388726337391,1.6805732952618944,0.23338583111763,0.3764198124408722,0.1153454631567001,-0.1146333289705217,0.0562639372609555,-11.392987457513811,14957.0
29.1,3.700000047683716,100.0,20.877944946289062,25.88302421569824,-79.78236798439795,40.45815094181737,292.3681201171875,-0.010393145494163,-0.1335578113794326,-0.2004666924476623,0.9704985618591307,-2.277971787066309,5.565909354849064,1.3941508088629564,0.0811412259936332,0.2045769989490509,0.0502236410975456,0.0030674219224601,0.1600090015120804,-10.690569627285004,14957.0
29.3,3.5999999046325684,93.0,21.08828926086425,23.29869842529297,-79.78236916402476,40.4581620454744,292.52114097595216,0.0133364722132682,-0.1345889270305633,-0.2078427225351333,0.9687670469284058,-2.9348226011773657,5.414065412676791,1.278287395520176,0.0146501436829566,0.1937565207481384,0.1078577414155006,-0.0676950976811349,0.0506639309227466,-10.501574753522872,14957.0
29.4,3.5,91.0,21.112079620361328,23.25893783569336,-79.78237087803024,40.45816801244411,292.57346145629884,0.0244851466268301,-0.1382795125246048,-0.2085358649492264,0.9678802490234376,-3.2490770079236784,5.293140946929019,1.2147957661318292,-0.0349931754171848,0.2130578458309173,0.0690351948142051,-0.1422163993678987,0.2296634646132588,-10.238385729789734,14957.0
29.5,3.400000095367432,90.0,21.11082649230957,23.4179744720459,-79.78237228287217,40.45817357219104,292.65073768615724,0.0355439446866512,-0.1400129497051239,-0.2095744162797928,0.9670634269714355,-3.483488293403831,5.176300433400363,1.1688652633882664,0.0898915082216262,0.2051322311162949,0.0095130102708935,-0.1640580338984728,0.3970294145867229,-10.10389976978302,14957.0
29.71,3.400000095367432,74.0,21.24104118347168,22.257015228271484,-79.7823765515743,40.45818499471442,292.7855185699463,0.0541760176420211,-0.1310760676860809,-0.2095079869031906,0.9674659967422484,-3.953278141517072,4.884144474328193,1.0231554441599355,0.1991580426692962,0.1055706292390823,0.0579171217978,-0.0281725519616156,0.3927896350622177,-10.00406674861908,14957.0
29.81,3.299999952316284,66.0,21.282358169555664,21.92304039001465,-79.78237883579251,40.45819041568303,292.85583869934084,0.0587561577558517,-0.1202530860900878,-0.2090379446744918,0.968705415725708,-4.143699914592143,4.726465088110364,0.9212096736622776,0.2654478847980499,-0.0044093802571296,0.0344609022140502,0.038677486013621,0.3866565636545421,-9.817589685916902,14957.0
30.0,3.400000095367432,59.0,21.403806686401367,20.610998153686523,-79.78238403692447,40.458201611758746,292.9929103088379,0.0675546675920486,-0.1041542887687683,-0.2047804594039917,0.9709033966064452,-4.451111152890535,4.4193189001215964,0.7118185176409807,0.0884607881307601,0.1490040272474289,-0.0422222279012203,-0.0791291086189448,0.4630324559658766,-9.564093006849289,14957.0
30.1,3.400000095367432,54.0,21.417579650878903,20.65870857238769,-79.78238768721604,40.458207108338726,293.06794921875,0.0750167220830917,-0.1025434508919716,-0.2010477483272552,0.9713069200515748,-4.583855164257021,4.262331972212756,0.6004982337493636,0.0388337597250938,0.1722218245267868,0.0113958166912198,-0.1687482317537069,0.4866809714958072,-9.375526733994484,14958.0
30.3,3.5999999046325684,42.0,21.67800521850586,17.98691177368164,-79.78239419094602,40.45821713382072,293.15669052124025,0.0880106166005134,-0.0966481566429138,-0.1937880665063858,0.9722959995269777,-4.7224997762884255,3.939602154520893,0.3607173170241657,0.2236108928918838,0.1461907625198364,-0.1053898707032203,0.1367879814002663,0.7108739273250103,-9.238443440794946,14958.0
30.5,3.5999999046325684,37.0,21.816984176635746,17.167879104614258,-79.78240194688966,40.458227182954886,293.2502211761475,0.0900269746780395,-0.0768911242485046,-0.1878174990415573,0.9750423431396484,-4.851954665228484,3.6408762061216713,0.0633392017809308,0.2246982306241989,-0.0634848773479461,-0.0823047533631324,0.0656237946264445,0.7448927356302738,-8.753819775581361,14958.0
30.6,3.700000047683716,33.0,21.77316093444824,17.485950469970707,-79.78240643501884,40.4582319829723,293.3140238952637,0.0891742929816246,-0.0622726082801818,-0.1848504394292831,0.9767295122146606,-4.889155720437104,3.4756977574353223,-0.0883462571633593,0.3063703775405884,-0.1560857743024826,0.0562306605279445,0.093274948541075,0.5946015689894557,-8.583740644454956,14958.0
30.72,3.799999952316284,26.0,22.043603897094727,15.641139030456545,-79.78241029089591,40.45823646113463,293.3130072784424,0.0871221348643302,-0.0440169014036655,-0.1821030080318451,0.9784225821495056,-4.879140841208746,3.3254708334676475,-0.3046719701451589,0.3330897390842438,-0.1747548729181289,-0.0014162982115522,0.1677995575591921,0.7227193629741671,-8.594514724016191,14958.0
30.81,3.799999952316284,18.0,21.98350715637207,15.402585983276367,-79.78241873141019,40.45824516128752,293.3036250305176,0.0804857388138771,-0.0029517197981476,-0.1776952892541885,0.9807842373847958,-4.752560292491318,3.0545850958104905,-0.8070598071108559,0.3703834712505341,-0.0768278837203979,0.0146168619394302,0.0733968775486573,0.6662815258651972,-8.413687241077424,14958.0
31.1,3.799999952316284,14.0,21.94719696044922,16.39655876159668,-79.78242710168672,40.458253282881046,293.2305392456055,0.0760760307312011,0.0314409621059894,-0.173939362168312,0.9813098907470704,-4.498786416298887,2.8187627557341366,-1.3480988759261696,0.3637217581272125,-0.1131442114710807,0.0146093694493174,0.3079035223647952,0.4744057654961944,-8.213185631632806,14958.0
31.2,3.900000095367432,289.0,21.77190971374512,17.827877044677734,-79.78243087789002,40.45825716187211,293.1571063232422,0.0755822286009788,0.04655497148633,-0.1716129034757614,0.9811569452285768,-4.320872395637288,2.7344010595490484,-1.5918215809391862,0.2571577429771423,-0.0518153309822082,0.0342281907796859,0.2312429437413812,0.2975713461264968,-8.350790496468544,14958.0
31.3,3.900000095367432,250.0,21.63167953491211,19.43413543701172,-79.78243454341292,40.45826093052072,293.06885139465334,0.0750894919037818,0.057992186397314,-0.1691369861364364,0.98101544380188,-4.115557085084548,2.6625666738270763,-1.811664211034776,0.1549497842788696,-0.0811082422733306,-0.0266192350536584,0.3919285594671965,0.3992914099618793,-8.467099801898003,14958.0
31.5,3.799999952316284,244.0,21.358732223510746,22.034364700317383,-79.7824423515233,40.458268263279024,292.899642868042,0.0675441101193428,0.0764348283410072,-0.1631935238838195,0.9813070297241212,-3.68604710002747,2.569636851300736,-2.0285158893285,0.1407456547021865,-0.1954246312379837,-0.0490411072969436,0.4197428141534328,0.2760321588255465,-9.052799021601675,14957.0
31.6,3.799999952316284,241.0,21.155900955200195,24.21315193176269,-79.78244941414334,40.45827495887141,292.731450958252,0.0379351377487182,0.0856387242674827,-0.1563602238893509,0.9832489490509032,-3.2346692390001976,2.601283541329491,-1.9565336898400767,-0.0717049539089202,-0.4455502331256866,0.0627868995070457,0.6015181307494639,0.3239080459624529,-9.527829160094262,14957.0
31.8,3.700000047683716,223.0,21.188453674316406,23.473636627197266,-79.78245219529137,40.45827826631119,292.6207484436036,0.0156289152801036,0.0869967862963676,-0.1543657332658767,0.9840521216392516,-3.015895543167085,2.7005238278195427,-1.8003456382337952,-0.1274135112762451,-0.4462509155273437,-0.1363723278045654,0.3871006962284446,0.6398474333435298,-10.128435856103897,14957.0
32.0,3.5999999046325684,233.0,21.099557876586918,24.70616149902344,-79.78245793529554,40.45828475863573,292.4941901397705,-0.0194409098476171,0.0857240855693817,-0.1532191932201385,0.9842750430107116,-2.6688641665320785,2.9387580657807817,-1.3426961771815928,-0.1082999855279922,-0.2776700258255005,-0.032027069479227,0.4319076539576054,0.3525973364710808,-10.521744139194489,14957.0
32.1,3.299999952316284,229.0,20.830368041992188,27.29048728942871,-79.78246118787519,40.45828790238253,292.46077911376955,-0.0340996831655502,0.0804205387830734,-0.1545923948287964,0.9841092228889464,-2.57366868056067,3.0489085867709043,-1.081254985983772,-0.134214699268341,-0.1695273220539093,-0.0237326584756374,0.4625973134860397,0.3890436894446612,-10.667592408657075,14957.0
32.2,3.2000000476837163,228.0,20.87544059753418,26.72591209411621,-79.78246306418527,40.45829124831506,292.3812255096436,-0.0473947003483772,0.0735805854201316,-0.1565632373094558,0.9837822914123536,-2.449405796653616,3.196285305494897,-0.8260611574083522,-0.2112332731485366,-0.2072409242391586,0.1028113886713981,0.4405081772804261,0.2701522535830736,-10.9942786860466,14957.0
32.4,2.900000095367432,247.0,20.653827667236328,28.578676223754893,-79.78246722056284,40.45829784711733,292.2000807952881,-0.0776630267500877,0.0621551685035228,-0.1607938706874847,0.9819626808166504,-2.2944708755549885,3.4997432560149546,-0.2844436506168538,-0.1395782679319381,-0.3235079646110535,0.0430678725242614,0.3526679781451821,0.222186154872179,-11.108919196128843,14957.0
32.5,2.799999952316284,256.0,20.74397659301757,27.656269073486328,-79.78247014512088,40.45830503502537,292.01215927124025,-0.1018068939447403,0.0580894351005554,-0.1646016240119934,0.979370892047882,-2.1446479015074744,3.857547602826621,0.2931222254658494,-0.0523205660283565,-0.0967645272612571,0.0802213549613952,0.1326241699978709,0.1713633624091744,-11.421829433441165,14957.0
32.7,2.5,260.0,20.82285499572754,26.61458778381348,-79.78247097074879,40.45830904083125,291.98858825683595,-0.1046609207987785,0.0515615865588188,-0.166254773736,0.979156255722046,-2.093071285790112,4.060725979286056,0.5579041328832044,-0.2495629042387009,0.0196839123964309,0.1121438667178154,-0.0008774609322426,0.0445237149484455,-11.341543654203416,14956.0
32.8,2.400000095367432,264.0,20.92927932739257,25.37411117553711,-79.78247161518878,40.45831323503008,291.976245803833,-0.1031082421541214,0.0380896963179111,-0.1671104282140731,0.9797918796539308,-2.0412152267543737,4.262143667116563,0.7587846318807491,-0.2591799795627594,0.1229735016822815,-0.0623373538255691,0.1643084409087896,0.1444350157119333,-11.20259626865387,14956.0
33.01,2.200000047683716,280.0,21.019428253173828,24.17339324951172,-79.78247304835573,40.45832191737083,291.893560333252,-0.0979887917637825,0.0037943252827972,-0.1659645289182663,0.9812439680099488,-2.010747609044563,4.660984016742146,0.9830513792307642,-0.3386650681495666,0.0257465448230505,-0.0091143064200878,0.0521618688013404,0.1522038731072098,-10.661728820800784,14956.0
33.1,2.200000047683716,293.0,21.06324958801269,24.63459587097168,-79.78247442225855,40.45833123996926,291.8079795074463,-0.0984300747513771,-0.0283067282289266,-0.1617958843708038,0.9814950227737428,-2.0561414337429578,5.0138658057046905,1.1553910959812494,-0.3142745196819305,0.0329913198947906,-0.0620727725327014,-0.0304556338582187,0.1337829419597983,-10.508932889699937,14956.0
33.3,2.0999999046325684,304.0,21.07827377319336,24.26086235046387,-79.78247479251611,40.45833630917832,291.8174475860596,-0.0987406075000763,-0.0414714962244033,-0.1593102663755417,0.9814023971557616,-2.0860746183402994,5.191827567983334,1.2745299608341156,-0.2066927254199981,0.0137658705934882,-0.0917779877781868,0.0754895823262632,0.2344426680542529,-10.414167065620424,14956.0
33.4,2.0999999046325684,309.0,21.155900955200195,23.38616752624512,-79.78247611529503,40.45834113930631,291.70312301635744,-0.097936101257801,-0.0514419004321098,-0.1573316901922226,0.9813302159309388,-2.1816217918079945,5.330393185734644,1.313920215267574,-0.1872447729110717,0.0463586896657943,0.0904712155461311,-0.0893005229718983,0.0585681056790053,-10.286187887191774,14956.0
33.6,2.299999952316284,336.0,21.254812240600582,22.757976531982425,-79.78247818414332,40.45835157378028,291.59420959472664,-0.0921703204512596,-0.0671811178326606,-0.1537468284368515,0.9815056324005128,-2.3999108595601544,5.610074034965559,1.3805917046824625,-0.1213258355855941,0.0732893347740173,0.0878419429063797,-0.2514316252246499,0.1410566315520554,-10.038781667947768,14956.0
33.7,2.400000095367432,343.0,21.192211151123047,23.17942047119141,-79.7824787666207,40.45835680718043,291.59352676391603,-0.0856254398822784,-0.0717310234904289,-0.1526931971311569,0.9819408655166626,-2.483511596382744,5.726010555413313,1.383074657346485,-0.0410908423364162,0.1431093066930771,-0.0261896960437297,-0.1202878423221409,0.2197311648353934,-9.99723603129387,14956.0
33.9,2.700000047683716,352.0,21.401302337646484,21.35846519470215,-79.78248116269795,40.458368371565335,291.5606192779541,-0.0699543803930282,-0.0804258957505226,-0.1508690863847732,0.982790231704712,-2.7688445394488923,5.944428489378475,1.2964447188154653,-0.0643781125545501,0.1979687362909317,-0.0157719254493713,-0.3060294166579843,0.2938138339854777,-9.892148702144622,14956.0
34.0,2.799999952316284,355.0,21.308650970458984,22.47171401977539,-79.78248411472933,40.45838046203508,291.55811492919923,-0.0498939752578735,-0.0894852206110954,-0.1497823297977447,0.983396291732788,-3.0851303698293866,6.089398829177803,1.1017613620715108,-0.013117903843522,0.2127052545547485,0.016568724066019,-0.2010430067963898,0.219155963268131,-9.758249217867853,14956.0
34.2,3.2000000476837163,8.0,21.26482963562012,22.47171401977539,-79.78248562291249,40.45838662781532,291.55263893127443,-0.040658202022314,-0.0919349864125251,-0.1494308710098266,0.9836490154266356,-3.247350530447988,6.137199514891683,1.0250556283042218,-0.0327981635928154,0.1943412274122238,0.0556794144213199,-0.2680465067736805,0.3114381642267108,-9.898357275724411,14956.0
34.3,3.400000095367432,13.0,21.31866836547852,21.294851303100582,-79.78248730416584,40.45839285168681,291.54760543823244,-0.0309009049087762,-0.0930653661489486,-0.1488285660743713,0.983988881111145,-3.4025854129972286,6.1531736547117655,0.9557855481495828,0.0598167330026626,0.1699031889438629,0.1029693111777305,-0.4174817689508201,0.2378292657248676,-10.070698109865187,14956.0
34.5,3.700000047683716,13.0,21.417579650878903,21.398223876953125,-79.78249166366167,40.458405436773866,291.563259048462,-0.0105527509003877,-0.0893640220165252,-0.1474287658929824,0.9849708676338196,-3.696733192488625,6.121077912913346,0.7495381337240855,0.1595365852117538,0.2700632214546204,-0.0471304170787334,-0.2604333771765232,0.4697097935155034,-9.897102463245393,14956.0
34.6,3.900000095367432,12.0,21.51523971557617,19.87943458557129,-79.78249425295735,40.45841185233617,291.5876235198975,-0.0009128609090112,-0.0845643430948257,-0.1467938125133514,0.9855454564094543,-3.828713032153056,6.080714284061543,0.6383430086891932,0.1610267162322998,0.2058846801519394,-0.0444764085114002,-0.1727225111424923,0.5938852485269308,-9.927937170267104,14956.0
34.81,4.199999809265137,16.0,21.56532096862793,19.887386322021484,-79.78249911136938,40.4584242858226,291.58172218322755,0.0205021165311336,-0.0782381445169448,-0.1449864506721496,0.9861224889755248,-4.044608678437276,5.919915859824048,0.3392492781739492,0.03210174664855,0.2619597911834717,0.0395344980061054,-0.4091708655282855,0.4949331469461322,-9.758721088171006,14956.0
34.9,4.300000190734863,19.0,21.76064109802246,18.201610565185547,-79.78250468191811,40.45843675551726,291.6015567016602,0.0495516993105411,-0.0766140669584274,-0.1422104835510254,0.985622227191925,-4.1786645276181895,5.686340965346378,0.001768227295227,0.1164022386074066,0.311245322227478,0.0120492791756987,-0.2584366809390485,0.63094219699502,-9.82363453745842,14956.0
35.1,4.599999904632568,15.0,21.99352264404297,15.79222297668457,-79.78250808486744,40.45844286468343,291.62330047607423,0.0631621405482292,-0.0716632455587387,-0.1417914628982544,0.985276699066162,-4.243623814058599,5.536691928245952,-0.2064125769572449,0.2018444687128067,0.2521500289440155,-0.0430894792079925,-0.0429320845752954,0.7281938186287881,-9.465860368609428,14956.0
35.2,4.699999809265137,13.0,22.280242919921875,12.985246658325195,-79.7825110527071,40.45844867514857,291.60732833862306,0.0719767957925796,-0.0619329512119293,-0.1426378488540649,0.9852097034454346,-4.2923348395074,5.34698951819582,-0.4576934182632657,0.215817853808403,0.1282693892717361,0.0363482274115085,-0.1743450952135026,0.6909507094323636,-9.239636272788047,14956.0
35.31,4.900000095367432,17.0,22.38165855407715,13.47030544281006,-79.78251767672073,40.458460000091705,291.5899733734131,0.0857798904180526,-0.047642208635807,-0.1418326497077942,0.9850155711174012,-4.369265840737093,4.927112431059078,-0.9506749291116834,0.1338436305522918,0.1926628351211548,-0.0998901426792144,-0.2505462471395731,0.4056942572817207,-8.825457522869108,14956.0
35.5,4.900000095367432,18.0,21.83576393127441,17.931249618530273,-79.78252088672149,40.45846538684452,291.5357569885254,0.0973948314785957,-0.041946206241846,-0.1403939127922058,0.9844004511833192,-4.364848988328851,4.716712377425658,-1.1935231889624576,0.1706242859363556,0.3134553134441376,-0.004624577704817,-0.147050530090928,0.6202744636684656,-8.50445356965065,14956.0
35.7,5.0,14.0,21.90337562561035,17.438240051269528,-79.78252786719699,40.458475778823576,291.4731578063965,0.1124325692653656,-0.0149485878646373,-0.1340404897928238,0.9844636321067808,-4.235509515744304,4.288472941043577,-1.633126530242654,0.4512601494789124,0.0432333014905452,-0.0312440246343612,0.393590191975236,0.6272777469456197,-9.10557423591614,14956.0
35.8,4.900000095367432,12.0,21.679258346557614,19.80786895751953,-79.7825311593985,40.45848067861985,291.3918818664551,0.1077944785356521,0.0035007605329155,-0.1291266381740569,0.9857456684112548,-4.113524428462034,4.096331776261906,-1.8323045399556133,0.3578189015388489,-0.2230809330940246,-0.0806161686778068,0.198741798531264,0.3193869788199663,-9.113826996088028,14956.0
36.0,4.900000095367432,321.0,21.634183883666992,20.00666236877441,-79.78253800160223,40.45849005913777,291.26856605529787,0.1131317466497421,0.0085720065981149,-0.1230011954903602,0.9858998656272888,-3.8192288633009976,3.771331655857773,-1.979629951837636,0.1203032806515693,0.1105972155928611,0.0259725246578454,0.0704725525248795,0.3898849941417575,-9.183718764781952,14956.0
36.1,4.800000190734863,323.0,21.456392288208008,21.660633087158203,-79.78254165273917,40.45849440876762,291.2236575317383,0.1163398995995521,0.0156244616955518,-0.121246613562107,0.9856573343276978,-3.718356724288725,3.57530857256605,-2.0295199574074467,0.2561312019824981,-0.0470468029379844,0.0834730342030525,0.2083841677755116,0.5346881103515625,-9.138815656900409,14956.0
36.31,4.5,322.0,21.302391052246094,22.7977352142334,-79.78254789329544,40.4585025858244,291.007480545044,0.0891825556755065,0.0497804321348667,-0.1163425296545028,0.9879438281059264,-3.3819257731647503,3.2786374190413663,-2.125103634455137,0.4186107218265533,-0.5268524885177612,-0.0992226600646972,0.2719478604197502,0.4841422200948,-9.685968276858327,14956.0
36.4,4.400000095367432,321.0,21.31866836547852,23.17942047119141,-79.78255107924649,40.45850666069739,290.9653109741211,0.0656213611364364,0.0728809684514999,-0.1125566065311432,0.9887938499450684,-3.159067907156933,3.2740584084796613,-2.011789601272723,0.2515165507793426,-0.5978478789329529,0.0083880517631769,0.1814372378960252,0.2656310037150979,-10.03299760222435,14955.0
36.6,4.099999904632568,270.0,21.22100830078125,23.82351493835449,-79.78255684574582,40.45851419864732,290.8172206115723,0.0288537293672561,0.0852540433406829,-0.1088617369532585,0.9899739623069764,-2.6793524200397827,3.3247487458385363,-1.6672717997019797,-0.1296151131391525,-0.293156236410141,0.0957965776324272,-0.2818409473076463,0.1830330526828766,-10.432520306110384,14955.0
36.7,3.900000095367432,272.0,21.0920467376709,24.69025802612305,-79.78255921541222,40.45851772706402,290.7271022033692,0.0173158347606658,0.0778094455599784,-0.1103361770510673,0.990692675113678,-2.493595685306872,3.3256836279300592,-1.4621732291006757,-0.0863187313079834,-0.1798045486211776,-0.0317608304321765,0.073416963648051,0.4484504503011704,-10.559036511182788,14955.0
36.91,3.5999999046325684,275.0,20.87418937683105,27.77554702758789,-79.7825638646064,40.45852448255121,290.5757350158692,-0.0100422305986285,0.0706477314233779,-0.1134334132075309,0.9909798502922058,-2.255290107135364,3.3621025351879017,-1.0127901682572806,-0.1170457005500793,-0.2833495736122131,-0.0134174395352602,-0.0568820701818913,0.2731233700364828,-10.781459916830066,14955.0
37.0,3.5,277.0,20.755245208740234,28.483253479003903,-79.78256766794574,40.45853114102498,290.42775527954103,-0.0421397313475608,0.0610391236841678,-0.1176260188221931,0.9902840852737428,-2.0509859500185104,3.48767261566094,-0.4188147893269845,-0.1678341776132583,-0.270528495311737,0.1400624811649322,-0.017670212611556,0.136231116335839,-11.279526915550232,14955.0
37.1,3.2000000476837163,300.0,20.70265769958496,29.23072052001953,-79.78256904196097,40.458534642165255,290.3989943695068,-0.0537345744669437,0.0560676418244838,-0.120162658393383,0.989712119102478,-1.9552894632867968,3.579832963979368,-0.0461888101759525,-0.0723670721054077,-0.1476395726203918,0.0981208309531212,-0.2075311138294637,0.1558769021183252,-11.962401012182234,14955.0
37.3,3.0999999046325684,310.0,20.973100662231445,26.209047317504893,-79.78257022796349,40.45853822231789,290.3913230133057,-0.0583354905247688,0.0515544489026069,-0.1228056922554969,0.989372491836548,-1.8798208694008312,3.665454376185997,0.2802390384507467,-0.1050785332918167,-0.0087716048583388,0.1143009811639785,-0.1029783115535974,0.1180409492086619,-11.90943459391594,14955.0
37.51,3.0,317.0,21.00440216064453,25.80350685119629,-79.78257253277776,40.45854543779435,290.3673991394043,-0.0587287619709968,0.0399965047836303,-0.1282225549221038,0.9891967177391052,-1.7807884179398916,3.8574992828238206,0.6842111824300827,-0.0552406720817089,0.0122894737869501,0.0657819733023643,-0.0589673471683636,0.0249162832461297,-11.574742308855058,14955.0
37.61,3.0,321.0,21.14463233947754,23.64062309265137,-79.78257359959986,40.45854910602857,290.3592032623291,-0.0591527745127677,0.0357669405639171,-0.1311763823032379,0.9889461994171144,-1.7353450725628108,3.9521165194081993,0.8196287969855759,-0.0396397449076175,0.074126586318016,0.063624769449234,0.0179671689402312,0.1340506530739367,-11.365774515867232,14955.0
37.8,2.900000095367432,337.0,21.29237365722656,22.71026611328125,-79.78257485020715,40.45855710963606,290.46357528686525,-0.0654908567667007,0.0269095171242952,-0.1343110501766204,0.9884064793586732,-1.6854891456785597,4.16374312103408,1.0577579234722858,-0.1328860372304916,-0.068891704082489,0.0757895782589912,-0.0447376727918163,-0.1776009893417358,-10.70848783493042,14955.0
37.9,3.0,343.0,21.34370803833008,22.05821990966797,-79.78257558995773,40.458561074269646,290.47570793151857,-0.0715474858880043,0.0179545395076274,-0.1339767873287201,0.9882352352142334,-1.6688367996275046,4.25950924716828,1.1334369279131908,-0.1801567673683166,-0.0989219397306442,0.0920503363013267,-0.1096346904896199,-0.1266557890735566,-10.404776437282562,14955.0
38.1,3.0999999046325684,350.0,21.34621238708496,22.090028762817383,-79.78257679136377,40.45856947125558,290.52315704345705,-0.0838473886251449,0.0009659279021434,-0.1312383860349655,0.9877981543540956,-1.6416201164668385,4.4853826033927495,1.299502704610535,-0.1708956211805343,-0.0882466584444046,0.0668011605739593,-0.2373746812529862,-0.0565578420739621,-10.111094183921814,14955.0
38.31,3.0999999046325684,353.0,21.448881149291992,20.921117782592773,-79.78257780084435,40.458578142311296,290.6186465454102,-0.090445339679718,-0.013656054623425,-0.126663476228714,0.9877193570137024,-1.6431274707540466,4.714356239632567,1.449909425779879,-0.0899184793233871,-0.0272233448922634,-0.013382164761424,-0.2061867110431194,-0.0782406424731016,-9.924473279714585,14955.0
38.41,3.299999952316284,7.0,21.58660697937012,19.91124153137207,-79.78257866024757,40.4585826268805,290.5927104187012,-0.0937613397836685,-0.0186899565160274,-0.1247162446379661,0.9875754714012146,-1.6811150295361117,4.841742306076697,1.4466926713828494,-0.091739535331726,-0.0830279886722564,-0.0443762689828872,-0.2464624238200485,-0.0257996970321983,-9.807286307215689,14955.0
38.5,3.400000095367432,11.0,21.580345153808597,20.58714294433593,-79.78257917236355,40.45858724058336,290.63303749084474,-0.0945121869444847,-0.0223098862916231,-0.1227187812328338,0.9876790642738342,-1.711680479210013,4.956311529687572,1.4881135799005851,-0.1300457417964935,-0.0256450455635786,0.0417945981025695,-0.4641596529632807,0.0093298561242409,-9.712155616879464,14955.0
38.7,3.5999999046325684,14.0,21.70054244995117,18.41630744934082,-79.7825805194845,40.45859717298537,290.7420195770264,-0.0892704650759697,-0.0303539428859949,-0.1192148625850677,0.9883811473846436,-1.7979373890553951,5.212278551223489,1.4866172097158312,-0.0177748464047908,0.05462346971035,0.0315181426703929,-0.4173202396184206,-0.1299947502091527,-9.666459041833876,14955.0
38.9,3.700000047683716,15.0,21.65171241760254,19.6965446472168,-79.78258199885073,40.45860769904496,290.8906439971924,-0.08085797727108,-0.0372048430144786,-0.1193043068051338,0.9888600707054138,-1.938348110690068,5.465074113161704,1.3849995334879952,-0.1255308538675308,0.0369689129292964,0.0181405171751976,-0.2384570556879044,0.1355319537967443,-9.494671939015388,14955.0
39.0,4.0,18.0,21.652965545654297,19.322811126708984,-79.78258277019536,40.458613075251336,290.92007057189943,-0.0778501629829406,-0.0418284125626087,-0.1186946257948875,0.9889901280403136,-2.0300635324902085,5.569540955381799,1.3179710756995275,-0.1330437213182449,0.0902655273675918,-0.0058061298914253,-0.4942316637933255,0.0307275659311562,-9.35390197634697,14955.0
39.1,4.099999904632568,21.0,21.679258346557614,19.61702537536621,-79.78258379820512,40.45861866272988,291.0474337768555,-0.0741462036967277,-0.0488848537206649,-0.1166199222207069,0.9891979098320008,-2.11362105212886,5.646986096220707,1.3137052610073292,-0.0988816767930984,0.1643040925264358,0.0536853522062301,-0.4880994329228998,0.0210174740524962,-9.49244648873806,14956.0
39.3,4.300000190734863,20.0,21.89711570739746,17.438240051269528,-79.78258582591369,40.45862983620978,291.0924452972412,-0.0580331310629844,-0.0585413612425327,-0.1118649467825889,0.990298628807068,-2.280524703312518,5.8186612834653175,1.1857118269242122,-0.0642611980438232,0.1936367303133011,-0.0839959606528282,-0.4593718431517482,0.0347298845462501,-9.52322623193264,14956.0
39.41,4.5,20.0,22.143768310546875,14.877769470214846,-79.78258733035278,40.458635624310986,291.2212771606445,-0.0505545251071453,-0.0625215321779251,-0.1093432605266571,0.9907469153404236,-2.3842635233614016,5.881266024761348,1.0970924913386146,-0.0213210675865411,0.1513211131095886,-0.0969860106706619,-0.4037209316343069,0.1278094995394349,-9.350471414923668,14956.0
39.61,4.699999809265137,26.0,21.823244094848643,18.122093200683597,-79.78259039376162,40.4586473144973,291.34737007141115,-0.0440223664045333,-0.0557169616222381,-0.1099014654755592,0.9914027452468872,-2.57863947144128,5.946081314114051,0.8441569816361983,0.2295445799827576,0.0388554595410823,0.1041755974292755,-0.5365555648505688,0.0491081147454679,-8.727857553362847,14956.0
39.8,4.800000190734863,25.0,21.632932662963867,19.99871063232422,-79.78259360713541,40.458658903272976,291.3330706787109,-0.0352103747427463,-0.0433318652212619,-0.1121116504073143,0.9921258091926576,-2.8080172070863543,5.957584706068219,0.5790785820157546,0.071404829621315,0.144290491938591,-0.0664937123656272,-0.5084539926052094,0.2225743734464049,-9.233491433858871,14956.0
39.9,4.900000095367432,23.0,21.72933959960937,19.513652801513672,-79.78259552890833,40.45866485544504,291.4211043548584,-0.0276721008121967,-0.0460865087807178,-0.1115787774324417,0.9923006296157836,-2.9099237156716744,5.947208470514822,0.5285424186763524,-0.0613279342651367,0.1423422694206237,0.0159563589841127,-0.3761837618798018,0.1020940846391022,-9.567004335522652,14956.0
40.1,5.0,22.0,21.686769485473643,19.83172416687012,-79.78259963449365,40.45867657558736,291.4836959075928,-0.0096325296908617,-0.0535539872944355,-0.1070780754089355,0.9927605986595154,-3.0307192863520447,5.910351798306893,0.389120363051685,0.0424097292125225,0.1745615154504776,0.0547780133783817,-0.4375726192072034,0.13739571724087,-9.807940610647202,14956.0
40.21,5.099999904632568,16.0,21.670494079589844,20.141843795776367,-79.78260165885169,40.45868236286407,291.4755934906006,-0.0024252813309431,-0.0519571863114833,-0.104033850133419,0.9932128190994264,-3.0634535398989846,5.896058572438724,0.3012654240118341,0.1330971866846084,0.1176568940281868,-0.1795086115598678,-0.420255834236741,0.6105539792776108,-9.83556402683258,14956.0
40.4,5.099999904632568,19.0,21.48518943786621,21.40617561340332,-79.78260638572678,40.45869405373745,291.52195350646974,0.0024565623607486,-0.0390592217445373,-0.0978626832365989,0.9944301843643188,-3.1379243932744045,5.837401988456707,0.1659511687150022,0.0429254360496997,-0.0261593535542488,-0.1497686207294464,-0.4171465407684445,0.4856221503764391,-9.845827059745789,14956.0
40.5,5.099999904632568,17.0,21.60163116455078,20.412202835083008,-79.78260865197606,40.45869974654288,291.5175322723389,0.0021482529118657,-0.0339134857058525,-0.0951524004340171,0.9948826432228088,-3.1418945098769844,5.795805332521192,0.1354496294129517,0.0204413253813982,-0.0797106772661209,0.0490220971405506,-0.5594126962870359,0.1890715088322759,-9.875702823400498,14956.0
40.6,5.099999904632568,15.0,21.584102630615234,20.595094680786133,-79.78261134927617,40.45870558129573,291.55956260681154,0.0030934261158108,-0.0306178387254476,-0.0938022434711456,0.9951151609420776,-3.147156436121502,5.7639243788871575,0.1567224914995682,0.1237519457936286,0.0462156645953655,-0.0560537762939929,-0.3867471224069596,0.3242196294665336,-9.963013447523116,14956.0
40.8,5.199999809265137,4.0,21.72433280944824,19.33871459960937,-79.78261614419652,40.45871675590928,291.56643287658693,0.0088951587677001,-0.0216339007019996,-0.0949700623750686,0.9952053427696228,-3.166432873564709,5.662622276047284,0.1271518697941442,0.0764390677213668,0.0176948942244052,0.0552842020988464,-0.1866613413579762,0.3320032602176071,-10.11658471941948,14956.0
40.9,5.099999904632568,355.0,21.789438247680664,18.980884552001957,-79.78261901304896,40.45872239835294,291.5985755157471,0.0106764500960707,-0.0189693998545408,-0.0967532321810722,0.9950703382492064,-3.2021261302961803,5.59995051298487,0.0902346101377289,0.076096624135971,0.0357692278921604,-0.091267891228199,-0.1419600537791848,0.3706426114216447,-10.04821907401085,14956.0
41.1,5.0,352.0,21.74812126159668,19.116064071655277,-79.78262443346411,40.45873332926492,291.62688247680666,0.0101516032591462,-0.0160127412527799,-0.1013829559087753,0.9946668148040771,-3.26006661183652,5.453931992851664,0.0442215178797662,0.0791208520531654,0.0241664927452802,0.0476219914853572,-0.480024099200964,0.4469021806865931,-9.70577688932419,14956.0
41.2,5.0,351.0,21.66548538208008,19.990758895874023,-79.78262693982819,40.45873869949385,291.6327552032471,0.0114125786349177,-0.0115801272913813,-0.1041005700826644,0.9944339394569396,-3.2774832468012733,5.382362433269926,0.0257510408292995,0.0785323157906532,0.0081088943406939,0.0662360563874244,-0.3661972291767597,0.3685809197276831,-9.732923757433891,14956.0
41.3,4.900000095367432,349.0,21.607891082763672,21.18352508544922,-79.78263237231879,40.45874942414925,291.65621368408205,0.0108365006744861,-0.0032402083743363,-0.1079908683896064,0.99408757686615,-3.3049179125318013,5.248785533378818,-0.039578816489175,0.0671535283327102,-0.0127875078469514,-0.0789640843868255,-0.2627897868119181,0.4891393236815929,-9.74322479724884,14956.0
41.5,4.900000095367432,342.0,21.607891082763672,20.626901626586918,-79.78263486179523,40.45875464397989,291.66182891845705,0.0104471296072006,0.0003715925849974,-0.1093565225601196,0.9939476251602172,-3.2911566466992563,5.182221631090344,-0.0459699569265217,0.0753106325864791,-0.0116246556863188,-0.0912094488739967,-0.3694044635072351,0.5239120573550463,-9.812184519767762,14956.0
41.7,4.699999809265137,341.0,21.65546989440918,20.37244415283203,-79.78264025758726,40.45876489607274,291.6844844055176,0.0086913555860519,0.0069814212620258,-0.1100932508707046,0.993858814239502,-3.256705321428272,5.065986707547582,-0.0738330046404718,0.0186646711081266,-0.1528352200984954,-0.0241785757243633,-0.2431420641392469,0.3506706423684955,-9.92690689086914,14956.0
41.9,4.699999809265137,341.0,21.584102630615234,21.040393829345703,-79.78264553012873,40.45877504373187,291.7059401702881,0.001121497596614,0.0093869501724839,-0.1070597246289253,0.9942076802253724,-3.16636956381314,4.997354568714936,-0.0374194445753375,-0.0344868898391723,-0.1441721022129058,0.0110773667693138,-0.3527656997367739,0.2595209739916027,-9.836492564678194,14956.0
42.0,4.5,339.0,21.686769485473643,19.76015853881836,-79.78264786736908,40.45878004109122,291.71159355163576,-0.0017107487656176,0.0088791213929653,-0.1047947481274604,0.9944528341293336,-3.1024721053312656,4.990306486681387,-0.0036239896800941,-0.0798820853233337,-0.1332616955041885,-0.0720861032605171,-0.3838692690432072,0.2549983536824584,-9.723063597679136,14956.0
42.1,4.5,336.0,21.577842712402344,21.47774124145508,-79.78265066736671,40.4587849935166,291.7226885986328,-0.0051893722265958,0.0067271562293171,-0.1025437414646148,0.9946922063827516,-3.0578038941240893,4.985982360939809,0.0151252358195513,-0.0665614530444145,-0.1104263737797737,-0.0665495470166206,-0.2363425197824836,0.3561184931918979,-9.733600865006446,14956.0
42.31,4.300000190734863,337.0,21.526508331298828,21.8355712890625,-79.78265515790478,40.45879488043497,291.73012535095216,-0.0078646522015333,0.0097754746675491,-0.098977543413639,0.9950106143951416,-2.9235952329398143,4.991625713580296,0.0801006961734708,0.0429429374635219,-0.0864853486418724,0.0033201584592461,-0.1871562898904085,0.2832163768820465,-9.813429976701736,14956.0
42.41,4.199999809265137,337.0,21.542783737182614,21.278947830200195,-79.78265788443781,40.45879979555277,291.74429122924806,-0.0105356443673372,0.0132250627502799,-0.0975401252508163,0.99508798122406,-2.8909203110877013,4.994430514291991,0.090955876231791,0.0215555094182491,-0.0884008705615997,-0.0787091255187988,-0.1854495972767472,0.2623833870515227,-9.8572139275074,14956.0
42.6,4.099999904632568,337.0,21.646705627441406,20.33268547058105,-79.78266256348334,40.45880956828112,291.76296798706056,-0.0128224566578865,0.0136420167982578,-0.0958843454718589,0.9952164888381958,-2.7828721520431667,5.0035181599874505,0.1351684588536047,-0.0104676960036158,-0.0002970237692352,-0.075513020157814,-0.1838321660645306,0.4081119713187218,-9.886227811574935,14956.0
42.8,4.099999904632568,337.0,21.64795684814453,20.436058044433597,-79.78266662301557,40.45881936169009,291.77881996154787,-0.0164188314229249,0.0132441520690917,-0.0976496338844299,0.9949973225593568,-2.6920142590145204,5.015306908257573,0.1781564889389916,-0.0167460311204195,-0.0801250487565994,0.0105190491303801,-0.2013036647066474,0.1541906747594476,-9.837422271966933,14956.0
42.9,4.0,338.0,21.686769485473643,20.300878524780277,-79.7826689905682,40.45882422404138,291.7905883026123,-0.0188512355089187,0.0110458526760339,-0.0984029322862625,0.9949067831039428,-2.6752151187168223,5.0116790711682215,0.203842450178148,-0.0265000201761722,-0.0526202172040939,-0.0237035546451807,-0.0706989494059234,0.2079051529057324,-9.859329450130463,14956.0
43.0,4.0,339.0,21.659225463867188,19.60112190246582,-79.7826709058649,40.45882912466215,291.79931442260744,-0.021709319204092,0.0085315546020865,-0.0986535623669624,0.9948484301567078,-2.6410436612821497,5.021909943657227,0.2339149385244816,-0.0272702760994434,-0.1336060613393783,0.0914820507168769,-0.1630542862415313,0.1080057749804109,-9.78751628637314,14956.0
43.2,3.900000095367432,339.0,21.71431541442871,20.141843795776367,-79.78267502995695,40.458838882756034,291.8239211273193,-0.0254535060375928,0.0050230827182531,-0.0970629081130027,0.9949401021003724,-2.581856937036746,5.051885471756454,0.2947839504714944,0.03718301653862,0.0126711344346404,-0.0974645018577575,-0.1419976952299475,0.3039384888857603,-9.672124993801116,14956.0
43.3,3.900000095367432,343.0,21.630428314208984,20.37244415283203,-79.78267683187485,40.45884381498172,291.8296412658692,-0.0257305596023798,0.0042222025804221,-0.0952516198158264,0.9951117038726808,-2.5497856887056742,5.074643223417395,0.2985109668556403,-0.0412748642265796,-0.0552203133702278,0.0677245482802391,-0.3735200993344188,0.1917717164754868,-9.645814277529716,14956.0
43.5,3.900000095367432,343.0,21.5452880859375,21.49364471435547,-79.78268077562218,40.458853657515775,291.8558024597168,-0.0276062618941068,0.0007355272537097,-0.0903206542134285,0.99552983045578,-2.4697230916511543,5.1312745827220585,0.3143709609950819,-0.0004576929786708,-0.0068353097885847,-0.0111346337944269,-0.3380265866965055,0.2549934931844473,-9.74068476676941,14956.0
43.6,4.0,343.0,21.560312271118164,21.00858688354492,-79.78268467115767,40.45886360228492,291.883098526001,-0.0315190330147743,-0.0015300405211746,-0.0839248374104499,0.9959723353385924,-2.4027937565051967,5.202348169445079,0.3887516326450314,-0.0476240515708923,-0.0411765091121196,0.049556627869606,-0.3017011249065399,0.1969014056771993,-9.834996846914292,14956.0
43.8,4.0,344.0,21.58785820007324,21.072200775146484,-79.78268638090186,40.45886862059972,291.8899974060059,-0.0322501920163631,-0.0034477128647267,-0.0815920308232307,0.996138036251068,-2.3583050222011965,5.247363597037568,0.4208937844326788,-0.0590871125459671,-0.040300153195858,-0.0159879680722951,-0.2999934821203351,0.1765518161281943,-9.855828137397769,14956.0
43.9,4.0,345.0,21.64545249938965,20.579191207885746,-79.78268844672569,40.45887373798914,291.9138488006592,-0.0320427827537059,-0.0060239415615797,-0.080283336341381,0.9962387084960938,-2.3476152442654463,5.292840240262839,0.4455833129834209,-0.0910732969641685,-0.0182075314223766,-0.1473921686410904,-0.3049551186896861,0.2729103852063417,-9.891885577440265,14956.0
44.1,4.0,347.0,21.52525520324707,22.48761749267578,-79.7826922195953,40.45888384545504,291.94370643615724,-0.0325100570917129,-0.0054567819461226,-0.0821451023221015,0.9960750937461852,-2.3409854779534216,5.340788299937506,0.4906629319482277,0.0200180392712354,-0.0464158318936824,0.0174642987549304,-0.4220769495517016,0.2359885805100203,-10.0366965508461,14956.0
44.2,4.099999904632568,349.0,21.54153251647949,21.28689956665039,-79.78269392870989,40.45888895803499,291.9553698730469,-0.0319465957581996,-0.0023987251333892,-0.0839216411113739,0.9959572553634644,-2.36114248360419,5.358281252726567,0.5116805326515095,0.0398967340588569,-0.0284281801432371,-0.04514816775918,-0.4161084772646427,0.2472352795489132,-10.085195696353912,14956.0
44.3,4.099999904632568,352.0,21.497711181640625,21.95484733581543,-79.78269765282795,40.45889926200115,291.9959315490723,-0.0315797924995422,-0.0014839028008282,-0.0861954391002655,0.9957765340805054,-2.409279546300285,5.389993259177487,0.5065711513048292,-0.0289040990173816,-0.055063396692276,-0.048920065164566,-0.3247593640163541,0.1870635384321212,-9.911094850301742,14956.0
44.6,4.099999904632568,353.0,21.57032966613769,21.461837768554688,-79.78270146235116,40.45890963268123,292.0409163665772,-0.0315119624137878,-0.002625314053148,-0.0870579034090042,0.9957013130187988,-2.442784908468977,5.414178318442252,0.5181516538447472,-0.0321545898914337,-0.0233723428100347,0.056944340467453,-0.3765075149014592,0.0786447581648826,-9.834672911167145,14957.0
44.7,4.099999904632568,355.0,21.540281295776367,21.30280303955078,-79.78270319008487,40.45891484406099,292.0565852355957,-0.0298224221915006,-0.0032988612074404,-0.0863595679402351,0.9958121776580808,-2.446830700208128,5.433763534647462,0.5247168557093003,-0.0308202039450407,-0.0311533920466899,0.0378619581460952,-0.4532733799517155,0.0011699913069605,-9.80680683553219,14957.0
44.8,4.099999904632568,356.0,21.527759552001957,21.71629524230957,-79.78270491626701,40.45892007412889,292.07315818786617,-0.0278737973421812,-0.0041752168908715,-0.0846484899520874,0.996012270450592,-2.4382449497794667,5.454368983364577,0.5186843403441227,-0.0127054965123534,0.0211222469806671,0.0588278695940971,-0.4375866890698672,-0.0417239401862025,-9.923572808504105,14957.0
45.0,4.099999904632568,359.0,21.55154800415039,21.37436866760254,-79.78270871040918,40.45893064240854,292.12490455627443,-0.0243920627981424,-0.0092379581183195,-0.0797939598560333,0.9964700937271118,-2.421704607464888,5.510256489506375,0.5145752517905461,-0.0083128958940505,0.0327587276697158,-0.0494478419423103,-0.2863291604071856,0.0613443362619727,-9.854772130250929,14957.0
45.1,4.099999904632568,359.0,21.596622467041016,20.841598510742188,-79.78271085217115,40.45893598749093,292.16139785766603,-0.023149088025093,-0.0108163515105843,-0.0776788368821144,0.9966509938240052,-2.4313657328492875,5.538643640753159,0.4926872460034919,-0.0304464995861053,-0.030670715495944,-0.0911150425672531,-0.3684738060459495,0.1924535018205642,-9.700647127032278,14957.0
45.3,4.099999904632568,0.0,21.42008399963379,22.90110969543457,-79.78271444901355,40.45894655405293,292.1947478485108,-0.0195797551423311,-0.0069143492728471,-0.0747411251068115,0.9969868063926696,-2.4109745516239776,5.5660569145652365,0.4587181321417921,0.0629946365952491,0.0688822194933891,-0.0814725384116172,-0.3013639598339796,0.148444689027965,-9.836372112035752,14957.0
45.4,4.099999904632568,0.0,21.626672744750977,20.30883026123047,-79.78271661946877,40.45895188766136,292.23348991394045,-0.0163031797856092,-0.0040030572563409,-0.0735038742423057,0.9971536993980408,-2.4100940988956805,5.5749664709839655,0.4398792652185031,0.0969911143183708,0.107439786195755,-0.0706093683838844,-0.2015790502913296,0.1388096744846552,-10.00788381099701,14957.0
45.6,4.099999904632568,358.0,21.59161376953125,21.18352508544922,-79.78272063389231,40.45896254835111,292.292974395752,-0.0152397444471716,-0.0024033200461417,-0.0726442784070968,0.9972386360168456,-2.4136681744403963,5.590591320702461,0.3776207030161538,-0.0140044335275888,-0.0169689152389764,0.1068074330687522,-0.2647345524653792,-0.1435498203523457,-9.84248245239258,14957.0
45.7,4.0,356.0,21.74186134338379,19.561363220214844,-79.78272249661472,40.45896785461439,292.3130358886719,-0.0148085728287696,-0.0050927433185279,-0.0727247819304466,0.9972290992736816,-2.4152129161814977,5.591813456887058,0.3872058709424962,-0.0311635937541723,0.0127526186406612,-0.0900396630167961,-0.2335358745418489,0.12193299299106,-9.82334919333458,14957.0
45.9,4.0,355.0,21.70304679870605,19.887386322021484,-79.7827265985347,40.458978530900495,292.369520111084,-0.0129893589764833,-0.0072414977476,-0.0744673758745193,0.9971125721931458,-2.444355541184833,5.5789119561624085,0.3484231781304372,0.0437516383826732,0.0169297531247138,-0.0114495623856782,-0.280327285900712,0.075016469489783,-9.585157016515732,14957.0
46.1,4.0,354.0,21.710559844970703,20.10208511352539,-79.78273084794606,40.45898924744853,292.42513267517086,-0.0111200734972953,-0.0056595699861645,-0.07516361027956,0.9970932006835938,-2.501066739381073,5.572541238844682,0.2905250773996122,-0.0123712299391627,-0.0063022621907293,-0.027485940605402,-0.2716360759176314,0.1155083739291876,-9.49157817721367,14957.0
46.2,3.900000095367432,354.0,21.73810386657715,19.784013748168945,-79.78273278393068,40.45899454361197,292.4363879394532,-0.0097377160564064,-0.0056677833199501,-0.0758176892995834,0.9970580935478208,-2.5046002893217887,5.561856692008091,0.2567927234009194,0.0008778716437518,0.0275051668286323,-0.0718386769294738,-0.3562313079088926,0.247909792419523,-9.5705670440197,14957.0
46.3,3.900000095367432,355.0,21.73184394836425,19.89533805847168,-79.78273471676715,40.458999826927325,292.4464778137207,-0.0067835538648068,-0.0046118735335767,-0.0769449695944786,0.997001588344574,-2.5007640006742915,5.542412987772257,0.2312609094708308,0.0472967959940433,0.0100786359980702,-0.0693340450525283,-0.2904261399619281,0.2752576220221817,-9.689681843519214,14957.0
46.5,3.900000095367432,354.0,21.82449531555176,19.05245018005371,-79.78273897793916,40.459010412383584,292.4986876678467,-0.0076063005253672,-0.0081935003399848,-0.0783451050519943,0.9968636631965636,-2.524267430788337,5.500549011546212,0.1479167973843705,-0.042373988777399,0.0397932939231395,-0.0373362265527248,-0.1003314414806664,0.1344178125355392,-9.610992938876151,14957.0
46.6,3.900000095367432,353.0,21.849536895751957,18.996788024902344,-79.7827413242192,40.45901576873383,292.5383376312256,-0.0112968059256672,-0.0130183212459087,-0.077826976776123,0.9968178868293762,-2.546635772333575,5.481936592740898,0.1546424049960238,-0.0448791831731796,-0.0257706567645072,0.1018625497817993,-0.2801273476704955,0.0599536719499155,-9.419426459670069,14957.0
46.8,3.900000095367432,358.0,21.72808837890625,19.97485542297364,-79.78274527262133,40.45902622419759,292.53696243286134,-0.0173711013048887,-0.0137291215360164,-0.0750398561358451,0.9969347715377808,-2.5496037570705794,5.467827742264657,0.1855569097150943,0.0588824935257434,-0.0366091653704643,-0.076127290725708,-0.4037069714069367,0.3225153853744269,-9.313808203339578,14957.0
47.0,3.900000095367432,356.0,21.753129959106445,20.14979553222656,-79.78274953941505,40.45903672088518,292.5594329071045,-0.0157807115465402,-0.0060373721644282,-0.0722031518816948,0.9972468614578248,-2.53952512325034,5.4672125922015855,0.127200878607312,0.0182544980198144,-0.0565142817795276,0.0391116552054882,-0.2726763686724007,0.175162810049951,-9.463707423806191,14957.0
47.1,4.0,356.0,21.622915267944336,20.63485336303711,-79.78275187370959,40.45904195535029,292.5878161621094,-0.0154319098219275,-0.0055245752446353,-0.0706658586859703,0.997365415096283,-2.5396608199499067,5.466944198502689,0.0980580030654642,-0.0568863302469253,-0.0285003073513507,-0.0113384332507848,-0.3739469826221466,0.1531116807460785,-9.503738631606105,14957.0
47.2,4.0,356.0,21.811975479125977,18.96498107910156,-79.78275390256498,40.4590471500344,292.5766276550293,-0.015637382864952,-0.0060450844466686,-0.0691988319158554,0.9974620938301086,-2.5253574616155348,5.469914670362203,0.0846980530374353,-0.1000819951295852,-0.0501975528895854,-0.0602922439575195,-0.4153452694416047,0.2644393228925765,-9.642507677078248,14957.0
47.4,4.0,352.0,21.743112564086918,19.752206802368164,-79.78275822804945,40.45905761759048,292.5903758239746,-0.0189787801355123,-0.0034247476141899,-0.0665491446852684,0.9975968003273008,-2.4826786259228832,5.476173281118085,0.0859203603808556,0.000271081662504,-0.0581878423690795,-0.025149617344141,-0.4145405098423362,0.2252669431641698,-9.657126885652543,14957.0
47.5,4.0,350.0,21.620410919189453,21.056297302246094,-79.78276262841516,40.45906801966937,292.597339553833,-0.0212670937180519,-0.0040161800570786,-0.0643954128026962,0.9976897835731506,-2.4594994966642445,5.486418551923664,0.1209332905079798,-0.0457943305373191,0.0224760100245475,-0.0958990603685379,-0.3358848612383008,0.0265402880078181,-9.716997696161268,14957.0
