time,wind_speed,wind_angle,battery_voltage,battery_current,position_x,position_y,position_z,orientation_x,orientation_y,orientation_z,orientation_w,velocity_x,velocity_y,velocity_z,angular_x,angular_y,angular_z,linear_acceleration_x,linear_acceleration_y,linear_acceleration_z,node_ids
0.0,0.4000000059604645,188.0,24.43752479553223,-0.0954212844371795,-79.78277634249163,40.45899664899857,272.6396917648315,0.0114493807777762,0.019096378237009,-0.7945623993873596,0.6067742109298706,-0.008257431975279,-0.007963679268423,0.0008845040290952,0.0091004054993391,0.0059349960647523,0.0024896620307117,-0.1731804760359227,-0.4420860484242439,-9.802301555871962,14937.0
0.11,0.5,202.0,24.44002914428711,-0.1113248318433761,-79.78277634894505,40.45899666020882,272.6398443527221,0.0114338379353284,0.0191096607595682,-0.7945466637611389,0.6067946553230286,-0.01267057418934,-0.0091354138271099,0.0010834151264425,-0.0060045076534152,0.0003646175027824,-0.0074980105273425,-0.1768647518008947,-0.4397232251241803,-9.799734043478969,14937.0
0.21,0.5,204.0,24.44378662109375,-0.0636141896247863,-79.78277629437943,40.458996701126615,272.6299923009872,0.0114348689094185,0.0191518776118755,-0.7945427298545837,0.6067984700202942,-0.0136280655795497,-0.0073581124781275,-0.0002369702819281,0.0001735426048981,-0.0003561847261153,0.0039811613969504,-0.1748385636694729,-0.4494733110442758,-9.800763738155368,14937.0
0.4,0.6000000238418579,199.0,24.438777923583984,-0.0636141896247863,-79.78277629885896,40.45899671646197,272.6300408787727,0.0114407110959291,0.0191422253847122,-0.7945361137390137,0.6068073511123657,-0.0175277540019187,-0.0088567304476934,-0.0002988038246372,-0.0036682819481939,0.00052110850811,-0.0091729015111923,-0.1766486971825361,-0.4247345456108451,-9.799473257660868,14937.0
0.5,0.6000000238418579,201.0,24.448793411254893,-0.0477106422185897,-79.78277627006412,40.45899672859394,272.6199650712013,0.0114810857921838,0.0191678591072559,-0.7945151329040527,0.6068332195281982,-0.010633049961195,-0.0098683306972345,-0.000707328750168,-0.005316121969372,-0.0016742165898904,-0.0088944090530276,-0.1746912686526775,-0.4473998883739114,-9.802768163681028,14937.0
0.7,0.699999988079071,209.0,24.43752479553223,-0.0477106422185897,-79.78277627847446,40.458996739590894,272.619954044342,0.0115089593455195,0.019185846671462,-0.7945183515548706,0.6068278551101685,-0.0121399243739606,-0.0112882227228423,-0.0007899991603317,0.0078267659991979,0.0020058888476341,0.004867133218795,-0.1728235217928886,-0.4398895784094929,-9.802015042304992,14937.0
0.8,0.699999988079071,215.0,24.43376922607422,-0.0636141896247863,-79.78277622069287,40.45899673598702,272.6097476429939,0.0115166194736957,0.0192073862999677,-0.7944948077201843,0.60685795545578,-0.0062221845692658,-0.0075093110953879,-0.0008479893962223,0.0042420560494065,0.0038658385165035,0.0012300364905968,-0.1768316236697137,-0.4414569611102343,-9.79975801706314,14937.0
1.0,0.8999999761581421,215.0,24.45004653930664,-0.055662415921688,-79.78277619025805,40.45899676558505,272.599308306694,0.0115305241197347,0.0192196667194366,-0.7944818735122681,0.6068741679191589,-0.0028962595705552,-0.0110983229503897,-0.0011349999423875,-0.000460911396658,-0.0021859789267182,0.0024443578440696,-0.1753652698919177,-0.4502933099493385,-9.800284851193428,14937.0
1.11,0.8999999761581421,218.0,24.446290969848643,-0.0715659633278846,-79.78277620233234,40.458996772241385,272.5992312378883,0.011539302766323,0.0192023869603872,-0.7944828271865845,0.6068732738494873,-0.0063066704161594,-0.0125000378880718,-0.0011667966908183,-0.0002681339683476,-0.0009196666069328,-0.0010729794157668,-0.1759911412373185,-0.4251298173889518,-9.800014709830284,14937.0
1.3,0.8999999761581421,228.0,24.438777923583984,-0.0715659633278846,-79.78277616786154,40.45899681791791,272.5883523173332,0.0115444269031286,0.0192290544509887,-0.7944666743278503,0.6068934798240662,-0.0085481941336083,-0.0129064661501659,-0.0015386761863637,-0.0055564744397997,-0.0004213612410239,-0.0048641278408467,-0.1773203412629664,-0.4301918616145849,-9.799212471842766,14937.0
1.4,0.8999999761581421,230.0,24.44128227233887,-0.055662415921688,-79.78277613389646,40.458996846696905,272.5769700951576,0.0115790804848074,0.0192633736878633,-0.7944743037223816,0.606881856918335,-0.0033991181160455,-0.0115779422168573,-0.0013861909008587,-0.0052841710858047,-0.0035506484564393,-0.0022447858937084,-0.1761501489579677,-0.4410313569009304,-9.799950390458108,14937.0
1.6,1.0,234.0,24.44253349304199,-0.0636141896247863,-79.7827761465952,40.45899685347091,272.57686101865767,0.0116043519228696,0.0192740466445684,-0.7944768667221069,0.6068776249885559,-0.0056953311433771,-0.0130885897454263,-0.0015469206362937,0.0012706137495115,0.000384615821531,-0.0006194562301971,-0.1736806870624423,-0.4316028312966228,-9.801647252440452,14937.0
1.72,1.0,236.0,24.445037841796875,-0.055662415921688,-79.78277609643534,40.45899691297088,272.56636279296873,0.0115948636084795,0.0192919932305812,-0.7944689393043518,0.6068875789642334,-0.0100115615493949,-0.0107103040704869,-0.0014518391324073,-0.0036032451316714,-0.002475747372955,-0.0043105166405439,-0.1749928936176002,-0.426352981813252,-9.800759060382845,14937.0
1.9,1.2000000476837158,245.0,24.45004653930664,-0.0477106422185897,-79.78277610583116,40.45899692518634,272.56628971767424,0.0115872491151094,0.019281193614006,-0.7944616079330444,0.6068977117538452,-0.0115742024177122,-0.0120491495270925,-0.0013986840102993,0.0048767859116196,0.0026771505363285,0.0057961400598287,-0.1744488284736871,-0.4462567211687565,-9.801750748157502,14937.0
2.01,1.2000000476837158,251.0,24.44378662109375,-0.055662415921688,-79.78277605267651,40.458996967863456,272.55543583107004,0.0116176260635256,0.019329022616148,-0.7944584488868713,0.6068997383117676,-0.0091073690886631,-0.0082326177221804,-0.0012519366121377,0.0026282069738954,0.0028936122544109,0.0001891470747068,-0.1784352225624025,-0.4357570587471128,-9.799538161754606,14937.0
2.2,1.600000023841858,260.0,24.446290969848643,-0.055662415921688,-79.78277605916502,40.45899697805096,272.555386657238,0.0116118183359503,0.019323281943798,-0.7944580316543579,0.6069006323814392,-0.0114128112637628,-0.0091645762806219,-0.0010100849833774,0.0038851294666528,0.0019985211547464,0.0076557924039661,-0.1730466661602258,-0.4453862169384957,-9.801146730780602,14937.0
2.3,1.7999999523162842,262.0,24.438777923583984,-0.055662415921688,-79.78277600210049,40.4589970026457,272.5466837234497,0.0116387959569692,0.0193419381976127,-0.794455885887146,0.6069021821022034,-0.0053733503934859,-0.00618045436248,0.0028062839288891,0.0076355217024683,0.0011194868711754,0.0052773607894778,-0.1739833901077509,-0.4256353457272053,-9.799179727435114,14937.0
2.5,1.8999999761581416,263.0,24.448793411254893,-0.055662415921688,-79.7827759592688,40.458997057080616,272.5366216845512,0.0116490377113223,0.0193412117660045,-0.794455349445343,0.6069028377532959,-0.0068066984941042,-0.0080663521577863,0.0044026339569433,-0.0073423357680439,-0.00011480460671,-0.0057727890089154,-0.1761840079911053,-0.4341180476546288,-9.798587404489515,14937.0
2.6,2.0,265.0,24.44754219055176,-0.055662415921688,-79.7827759750128,40.45899707559028,272.5376138038635,0.0116795664653182,0.0193469505757093,-0.7944533228874207,0.6069045662879944,-0.0115977359437716,-0.0105687388650535,0.004565703419098,-0.0067733055911958,-0.0032319133169949,-0.0036950737703591,-0.1777628475800156,-0.4451571157202125,-9.7998580044508,14937.0
2.8,2.299999952316284,264.0,24.44754219055176,-0.0477106422185897,-79.78277592200105,40.45899710510662,272.5262861795425,0.0117172459140419,0.0193598121404647,-0.7944412231445312,0.6069194078445435,-0.0049873562688096,-0.0070139535312153,0.0027017249827833,0.0036865558940917,9.132651757681742e-05,-0.0018384122522547,-0.1733625619858503,-0.4303359954804182,-9.801618016362196,14937.0
2.91,2.5,262.0,24.43376922607422,-0.0397588685154914,-79.78277588819721,40.458997130496286,272.51487618160246,0.0117445020005106,0.0193795524537563,-0.7944318652153015,0.6069304347038269,0.0028308405847153,-0.0074919299035849,0.0012119633307061,-0.0005618801224045,-0.0005206414498388,-0.0022169367875903,-0.1748373211361468,-0.4265624217689037,-9.799949221014977,14937.0
3.1,2.700000047683716,264.0,24.446290969848643,-0.0715659633278846,-79.7827758979723,40.458997130836096,272.5150122590065,0.0117283733561635,0.0193756762892007,-0.7944208979606628,0.6069452166557312,0.0008144690259569,-0.0085791280807492,0.0013997646321756,0.001168004469946,-0.0001598710223333,0.0061190766282379,-0.1731532133929431,-0.4504121546074748,-9.800331628918649,14937.0
3.2,2.700000047683716,263.0,24.43376922607422,-0.0477106422185897,-79.78277586557539,40.45899719082628,272.5033961482048,0.0117518855258822,0.0193939171731472,-0.7944144606590271,0.6069526076316833,-0.0031119918728563,-0.0110131842370844,-0.0001435082788937,0.0009825519518926,-0.0013942964142188,0.0047517651692032,-0.1739547752961516,-0.451327390037477,-9.801287648677826,14937.0
3.4,2.799999952316284,261.0,24.445037841796875,-0.0636141896247863,-79.7827758774346,40.45899719742381,272.50342142057417,0.0117633696645498,0.0194149613380432,-0.7944211959838867,0.606942892074585,-0.0060241087035301,-0.0124076612532763,-0.0001468260345346,-0.0030808059964329,-0.0027358927763998,-0.0034414820838719,-0.1777376680076122,-0.4251078172400594,-9.800157966613767,14937.0
3.5,2.799999952316284,262.0,24.445037841796875,-0.0477106422185897,-79.78277582267555,40.45899724896542,272.4914829678535,0.011751215904951,0.0194336902350187,-0.7944022417068481,0.6069673299789429,-0.0063862660106316,-0.0091835719348809,-0.0009898045550225,-0.0041934247128665,-0.001508199959062,-0.0068552368320524,-0.174012882001698,-0.4504283806309104,-9.800463775992394,14937.0
3.7,2.700000047683716,258.0,24.45004653930664,-0.0636141896247863,-79.78277583127888,40.45899725627677,272.4914408869743,0.011760382913053,0.0194456111639738,-0.7944085597991943,0.6069585680961609,-0.0079051681859232,-0.0099800693919367,-0.0008458043596621,0.0026379320770502,0.0009222123189829,0.0052400273270905,-0.1736338362470269,-0.4535684450715781,-9.801549603939057,14937.0
3.8,2.700000047683716,256.0,24.45505523681641,-0.055662415921688,-79.78277576538825,40.458997313188576,272.4798689432144,0.0117557542398571,0.0194587521255016,-0.7943861484527588,0.6069875359535217,-0.0097270530401214,-0.0066369316663207,-0.0012929417039736,0.0016930749407038,-0.0009969095699489,0.0034684583079069,-0.1770929942093789,-0.4251949772983789,-9.800850276947024,14937.0
4.0,2.5999999046325684,255.0,24.43752479553223,-0.0636141896247863,-79.78277572091363,40.45899733204135,272.46974342536924,0.011807925067842,0.0195013843476772,-0.7943916916847229,0.6069779396057129,0.0018389607771528,-0.0067135888578478,0.0033699612201795,-0.0006751095643267,0.0013583238469436,-0.004569511860609,-0.1755927631258964,-0.4274975742772222,-9.80030063867569,14937.0
4.1,2.5,254.0,24.43001365661621,-0.0636141896247863,-79.78277573795103,40.45899733465996,272.4704726285934,0.0117965918034315,0.019514026120305,-0.79437255859375,0.6070027947425842,-0.0023854636988017,-0.0087933827724248,0.0034019505828924,0.002652677707374,0.0002794989559333,-0.0011104884324595,-0.173820910602808,-0.4292163633182645,-9.8007497048378,14937.0
4.3,2.400000095367432,254.0,24.44378662109375,-0.1033730581402778,-79.78277569008542,40.45899737967304,272.460592979908,0.0117801837623119,0.0195139478892088,-0.794360876083374,0.6070183515548706,0.0004650010685604,-0.0091394755413017,0.0056884606794875,-0.0031322601716965,0.0008876248612068,0.0011347974650561,-0.1787281863391399,-0.447667544670403,-9.801396406888964,14937.0
4.4,2.299999952316284,254.0,24.438777923583984,-0.0477106422185897,-79.78277563192722,40.45899742934144,272.4507437295913,0.0117988409474492,0.019542196765542,-0.7943575978279114,0.6070213317871094,-0.0009818756809639,-0.0063235081719039,0.0062621896708045,-0.0033749134745448,-0.0020274792332202,-0.0035641558934003,-0.1738590088672936,-0.4318190320953727,-9.80147534430027,14937.0
4.6,2.0,254.0,24.446290969848643,-0.0636141896247863,-79.7827756393131,40.45899743219742,272.45138108205794,0.011812912300229,0.0195409804582595,-0.7943544387817383,0.6070253849029541,-0.0023122118128937,-0.0075670477645176,0.0061009828806322,0.0060475897043943,0.0027601837646216,0.0044272094964981,-0.1721302612870931,-0.4369012492150069,-9.802119122743608,14937.0
4.7,1.8999999761581416,252.0,24.44754219055176,-0.0715659633278846,-79.78277558659275,40.4589975020644,272.4407797999382,0.0118033848702907,0.0195427481085062,-0.7943245172500609,0.6070646643638611,-0.0058876703448043,-0.0074821320017729,0.0038041566166512,0.0045912414789199,0.0040796045213937,0.0051416684873402,-0.172016039583832,-0.4396710021793842,-9.803196764588357,14937.0
4.9,1.7999999523162842,252.0,24.44378662109375,-0.055662415921688,-79.78277559324245,40.45899751057664,272.4412120528221,0.011796380393207,0.0195315442979335,-0.7943128943443298,0.6070802211761475,-0.00966265529307,-0.0084272952677216,0.0039384669446488,-0.0080831218510866,-0.0049350364133715,-0.0066999257542192,-0.1771538966149091,-0.4326266787573696,-9.798685052990914,14937.0
5.0,1.7000000476837158,251.0,24.44378662109375,-0.055662415921688,-79.78277553067292,40.45899756376394,272.4319920487404,0.0117948930710554,0.0195576883852481,-0.794305682182312,0.6070888042449951,-0.0078714328549743,-0.0062123960915225,0.0054631185856209,-0.0080662183463573,-0.0034181619994342,-0.0087085431441664,-0.1724860095418989,-0.4447455082833767,-9.803435330986977,14937.0
5.2,1.600000023841858,254.0,24.44754219055176,-0.055662415921688,-79.7827755355584,40.45899757106689,272.43257867765425,0.0118013834580779,0.0195618513971567,-0.7943010926246643,0.6070946455001831,-0.0084707729419709,-0.0072628230162192,0.005360311767187,0.0081008998677134,-9.267611312679946e-05,0.0069790366105735,-0.1725584601983428,-0.4448896421492101,-9.802698581814766,14937.0
5.3,1.5,259.0,24.43752479553223,-0.0636141896247863,-79.78277550254812,40.458997589597466,272.42089974355696,0.011808943003416,0.0195656176656484,-0.7942827939987183,0.6071183085441589,0.0010405637818749,-0.0079128147660743,0.0023197847790585,0.0103511037304997,0.002819501562044,0.0042396327480673,-0.1770068756863475,-0.4300836515799165,-9.799073892831805,14937.0
5.5,1.2999999523162842,263.0,24.427509307861328,-0.0874695107340812,-79.78277547619166,40.45899764452568,272.40943031978605,0.0118138631805777,0.0195720698684454,-0.7942718267440796,0.6071323156356812,0.0022734627048969,-0.0118563999492429,0.0006237554647598,-0.0074202632531523,-0.0035129303578287,-0.0076607135124504,-0.1765676401555538,-0.4295937645435334,-9.799429988265038,14937.0
5.61,1.2000000476837158,265.0,24.44002914428711,-0.0874695107340812,-79.7827755061085,40.45899764848239,272.4095741457939,0.011791106313467,0.0195809546858072,-0.7942742705345154,0.6071293354034424,-0.0019686455524375,-0.013961110121285,0.0005786652824138,-0.0080227768048644,0.0004809390229638,-0.0053303390741348,-0.1776629881002009,-0.4307358719408512,-9.798631843328478,14937.0
5.8,1.100000023841858,267.0,24.44378662109375,-0.0795177370309829,-79.78277544074031,40.45899771198336,272.4005002923012,0.0117902951315045,0.0196040924638509,-0.7942678332328796,0.6071369647979736,-0.0021157561784599,-0.0100982929809251,0.0015243627832297,0.0076031708158552,0.0008741617784835,0.0082205114886164,-0.1721356882341206,-0.4429508150741458,-9.80281143307686,14937.0
5.9,1.100000023841858,266.0,24.445037841796875,-0.0636141896247863,-79.78277542650004,40.45899774878032,272.3945065088272,0.0118140373378992,0.0196209959685802,-0.794256329536438,0.6071510910987854,0.0053373052060675,-0.0132731425430404,0.0089247054348233,0.0081827351823449,0.0031698478851467,0.0040842508897185,-0.1746084209159016,-0.4429330176115036,-9.802537783384324,14937.0
6.1,1.0,269.0,24.44378662109375,-0.0795177370309829,-79.78277544310886,40.45899774846403,272.3954184002876,0.0118156103417277,0.0196282491087913,-0.7942433357238771,0.6071678996086121,0.0020313350072066,-0.0140414322298238,0.0091531685355936,-0.0102185029536485,-0.0010555618209764,-0.0051762592047452,-0.1782999874278903,-0.433303786329925,-9.799279130101205,14937.0
6.2,1.0,269.0,24.44378662109375,-0.055662415921688,-79.78277536204229,40.45899781864625,272.38566177558897,0.0117988800629973,0.0196500308811664,-0.7942405939102173,0.6071709990501404,-0.0045116799232203,-0.0047498785298235,0.0043485301145372,-0.0061302329413592,-0.0012402194552123,-0.0029333536513149,-0.1772075448185205,-0.4381381180509925,-9.799384379982945,14937.0
6.41,0.8999999761581421,275.0,24.44128227233887,-0.0715659633278846,-79.78277536660983,40.45899782405171,272.38612126779555,0.0117922415956854,0.0196364186704158,-0.7942418456077576,0.6071699857711792,-0.0055315594096273,-0.0059823488171301,0.0042102175126099,0.0062193516641855,0.003112623700872,0.0024864461738616,-0.1734870894066989,-0.4356312339752913,-9.80198580622673,14937.0
6.5,0.8000000119209291,279.0,24.43752479553223,-0.055662415921688,-79.7827753356159,40.458997882130944,272.37848782014845,0.0118340579792857,0.019644096493721,-0.7942416071891785,0.6071691513061523,-0.0031715103348651,-0.0080928670210231,0.0057554536881789,0.0036024739965796,0.000941480975598,-0.0015697791241109,-0.1776926627196371,-0.4408937280625105,-9.799757432341575,14937.0
6.7,0.8000000119209291,277.0,24.438777923583984,-0.0636141896247863,-79.78277534366859,40.458997886974615,272.37910443019865,0.0118483062833547,0.0196556318551302,-0.7942416071891785,0.6071686148643494,-0.0055095402839409,-0.0088010439526699,0.0059404237091702,-0.0047249682247638,-7.325348269660026e-05,-0.002292561577633,-0.1765595636889338,-0.4457111394032836,-9.800076105594636,14937.0
6.8,0.699999988079071,278.0,24.44378662109375,-0.055662415921688,-79.78277531468821,40.458997945433545,272.3721998877525,0.011857483536005,0.019667437300086,-0.79422527551651,0.6071892976760864,-0.0045470422119503,-0.0102250285831699,0.00677281738155,0.0015189404366537,0.0017744506476446,0.0020723212510347,-0.1752739985100925,-0.429328374043107,-9.801171289086342,14937.0
7.0,0.6000000238418579,278.0,24.445037841796875,-0.0636141896247863,-79.78277526143364,40.45899801250661,272.36487227153776,0.0118854586035013,0.0196904204785823,-0.7942295670509338,0.6071823835372925,-0.0058670499278314,-0.0076865408578608,0.0070978292091899,-0.0032536722719669,0.0007842023624107,-0.0030609499663114,-0.1771556507796049,-0.4267007084190846,-9.800164983272555,14937.0
7.11,0.6000000238418579,279.0,24.44253349304199,-0.0795177370309829,-79.78277527577372,40.45899802815017,272.36638968658445,0.0118799656629562,0.0196807645261287,-0.7942354083061218,0.6071751713752747,-0.009714864985466,-0.0093415854950098,0.0071359048724585,-0.0034276833757758,0.001810748479329,-0.007446626201272,-0.1745744522474706,-0.4489873343333601,-9.801333256959916,14937.0
7.3,0.5,276.0,24.44378662109375,-0.0715659633278846,-79.78277521470801,40.45899807836194,272.35943299007414,0.011875600554049,0.0196853782981634,-0.7942276000976562,0.6071853041648865,-0.0038358397914059,-0.0052305632811412,0.0077258078649431,0.0052177291363477,-0.0002229197270935,0.0053553511388599,-0.172840222902596,-0.4481890066713095,-9.801551942825318,14937.0
7.4,0.5,273.0,24.445037841796875,-0.0715659633278846,-79.78277514575315,40.45899812526565,272.35475772094725,0.0118758250027894,0.019714156165719,-0.7942307591438293,0.6071802973747253,-0.0009271732059642,0.000325105737141,0.0112779382258405,0.0067269499413669,0.0025167940184473,0.0076412786729633,-0.1726174074411392,-0.4432569168135524,-9.802558248639109,14937.0
7.6,0.5,266.0,24.43752479553223,-0.0715659633278846,-79.78277514494167,40.45899812711663,272.35590266656874,0.0118861300870776,0.0197072960436344,-0.7942267060279846,0.6071856021881104,-0.0042107019496487,-0.0004035472213522,0.0113611153530637,-0.0039009049069136,-0.000788054196164,-0.0064622838981449,-0.1771569298580289,-0.4348090058192611,-9.798347668647766,14937.0
7.7,0.6000000238418579,262.0,24.438777923583984,-0.0636141896247863,-79.78277511590737,40.45899818443801,272.3504930682182,0.0118930805474519,0.0197229981422424,-0.7942257523536682,0.6071861386299133,-0.0021551254215344,-0.0042074612423295,0.0103367669866844,-0.0055025368928909,-0.001291770604439,-0.0025075408630073,-0.1769765067100525,-0.4455144902318716,-9.798675112724304,14937.0
7.9,0.6000000238418579,255.0,24.446290969848643,-0.0477106422185897,-79.78277512032436,40.45899818770163,272.35153185796736,0.0118806194514036,0.0197371449321508,-0.7942382693290709,0.6071696281433105,-0.0040701157965264,-0.0052807505832051,0.0101229159757245,-0.0001649413607083,0.0020240433514118,-0.0027652899734675,-0.1759153284318745,-0.4278677761182189,-9.800020557045936,14937.0
8.0,0.6000000238418579,250.0,24.438777923583984,-0.0477106422185897,-79.78277505874144,40.45899824386984,272.3461709566116,0.0118692433461546,0.0197549760341644,-0.7942348122596741,0.6071737408638,-0.0039382760532176,-0.0013707992036048,0.0094611078453125,-0.0070836064405739,0.000533033220563,-0.005312817171216,-0.1747932294756174,-0.4508352006599307,-9.8001187902689,14937.0
8.2,0.6000000238418579,242.0,24.44253349304199,-0.055662415921688,-79.78277505926584,40.458998246210406,272.34713106822966,0.0118698589503765,0.0197691787034273,-0.7942460775375366,0.6071586012840271,-0.0043485960400028,-0.0021685516709302,0.0093047672167345,0.0083749135956168,0.0010399095481261,0.0074162152595818,-0.1722870945744216,-0.4427206175029278,-9.801247302889823,14937.0
8.31,0.699999988079071,237.0,24.438777923583984,-0.0477106422185897,-79.782774987107,40.45899829117592,272.3418300695419,0.0118748359382152,0.0197763927280902,-0.7942385077476501,0.6071680784225464,-0.0031595497824042,0.0019226160008578,0.0086618617373017,-0.0013986940030008,0.0005466350121423,-0.001196164288558,-0.1765154172107577,-0.4418779606372118,-9.798835326433183,14937.0
8.5,0.699999988079071,230.0,24.44378662109375,-0.0636141896247863,-79.78277498257408,40.45899838213324,272.3355479784012,0.0118661802262067,0.0197723899036645,-0.7942359447479248,0.6071717143058777,-0.0064053945486983,-0.006909784445848,0.0078280797524106,0.000395627139369,0.0011912643676623,0.0041207447648048,-0.1741481354087591,-0.4484565898776055,-9.800688309073449,14937.0
8.61,0.8000000119209291,227.0,24.44128227233887,-0.0636141896247863,-79.78277499466375,40.45899839932687,272.33719491434096,0.0118549279868602,0.0198085289448499,-0.7942374348640442,0.6071689128875732,-0.0101897307288037,-0.0085778132720226,0.0076376240321156,0.0045654238201677,-0.0020900634117424,0.0036193674895912,-0.1745358788967132,-0.4349368040263653,-9.80163555800915,14937.0
8.81,0.8000000119209291,221.0,24.445037841796875,-0.0477106422185897,-79.78277493093816,40.45899844371804,272.33172785711287,0.0118282865732908,0.019823657348752,-0.7942298650741577,0.6071787476539612,-0.0064846695904162,-0.0029199443933391,0.0078548092238006,0.0007884734077379,-0.0025734254159033,-0.0008531113271601,-0.1751876058988273,-0.4497789742425085,-9.800081368088724,14937.0
8.9,0.8000000119209291,223.0,24.446290969848643,-0.0477106422185897,-79.78277488632769,40.45899849988188,272.3271083779335,0.0118459891527891,0.0198520813137292,-0.7942196130752563,0.6071909666061401,-0.0034094897746944,-0.0016092593075169,0.008015322121833,0.006975695490837,0.0026216066908091,0.0081982398405671,-0.1761516655795276,-0.4280264183878899,-9.798918356895449,14937.0
9.1,0.8000000119209291,219.0,24.44128227233887,-0.0715659633278846,-79.78277488688012,40.45899850420609,272.32793366384504,0.0118261706084013,0.0198351200670003,-0.7942065596580505,0.6072089076042175,-0.0059396766965701,-0.0020026813764281,0.0079960862829883,-0.0022079211194068,-0.0039311149157583,-0.0032453399617224,-0.1762047838792205,-0.4470285901799798,-9.79860553085804,14937.0
9.2,0.8000000119209291,214.0,24.445037841796875,-0.0477106422185897,-79.78277486894228,40.458998558907375,272.3232045717239,0.011855355463922,0.0198463015258312,-0.7942031621932983,0.6072124838829039,-0.0011357852068371,-0.0054134416360447,0.0081879822329406,0.0075240060687065,0.0013461074559018,0.0064353020861744,-0.1733524755388498,-0.4473026053234935,-9.801384127736092,14937.0
9.4,0.699999988079071,211.0,24.43376922607422,-0.0477106422185897,-79.78277487462847,40.45899856225654,272.3240406460762,0.0118557522073388,0.0198427904397249,-0.7941999435424805,0.6072167158126831,-0.0041342511654054,-0.0060333451276869,0.0081614906306632,-0.0080094533041119,-0.0024652676656842,-0.0039310664869844,-0.1778255041502416,-0.4396456398814917,-9.799035885930062,14937.0
9.51,0.699999988079071,211.0,24.44128227233887,-0.0477106422185897,-79.78277479022124,40.458998614223255,272.3189086265564,0.0118502732366323,0.0198581013828516,-0.7941990494728088,0.6072176098823547,-0.0025785251418037,0.0019335867485438,0.0078381881744732,0.0033617762383073,0.0003049910010304,0.0027043886948376,-0.1754761111736297,-0.4304215840995312,-9.799805379509928,14937.0
9.7,0.699999988079071,211.0,24.44002914428711,-0.0715659633278846,-79.78277478710183,40.45899861618489,272.3196935601234,0.0118692545220255,0.0198704842478036,-0.7941951751708984,0.6072219014167786,-0.0052761369690406,0.001328668237005,0.0076767267688869,-0.0054497658275067,-0.0021530967205762,-0.0053710043430328,-0.1770856669172644,-0.4332517461106181,-9.797941871881486,14937.0
9.8,0.6000000238418579,206.0,24.44128227233887,-0.0636141896247863,-79.78277474482277,40.45899867420044,272.31483059597014,0.0118576539680361,0.019871886819601,-0.7941678762435913,0.6072577238082886,-0.0034738153811161,0.0005165756705178,0.0078057543495502,0.0020623912569135,-0.0010891748825088,0.0040624761022627,-0.1739714033156633,-0.4323926439508796,-9.800407642722131,14937.0
10.0,0.6000000238418579,202.0,24.445037841796875,-0.055662415921688,-79.78277472056163,40.45899871326444,272.310402030468,0.0118967741727828,0.0198900736868381,-0.7941699028015137,0.6072537302970886,0.0039665085971038,-0.0022946440556414,0.0125475509581132,-0.0066815139725804,-0.0037880442105233,-0.0082431267946958,-0.1778123844601214,-0.4318449425697327,-9.79765126526356,14937.0
10.1,0.6000000238418579,205.0,24.44253349304199,-0.0715659633278846,-79.78277472868609,40.45899870790011,272.31287055683134,0.0118888951838016,0.0198910608887672,-0.7941597104072571,0.6072672605514526,0.0015249145653062,-0.0034730221916979,0.0123879100130803,0.0003640098730102,0.0022300267592072,0.0022456697188317,-0.1749757905118167,-0.449938968680799,-9.800048038959504,14937.0
10.3,0.6000000238418579,199.0,24.44253349304199,-0.0636141896247863,-79.7827747218406,40.45899878601082,272.30654060316084,0.0118926223367452,0.0198696721345186,-0.7941656112670898,0.6072601675987244,-0.000906500931561,-0.0099118933689372,0.0107435801362822,-0.0061274701729416,-0.0015223532682284,-0.0074058845639228,-0.1766396888159215,-0.4286831337958574,-9.799661538004877,14937.0
10.4,0.6000000238418579,198.0,24.44002914428711,-0.0477106422185897,-79.78277468017218,40.45899884511883,272.30323183012007,0.011873073875904,0.0198788996785879,-0.7941616177558899,0.6072653532028198,-0.000551690000477,-0.0060626712187262,0.0135491323925524,-0.0023073849733918,-0.0028639319352805,-0.0006803048891015,-0.1763228610903024,-0.4468195522204041,-9.799590201973915,14937.0
10.6,0.5,200.0,24.44128227233887,-0.0636141896247863,-79.7827746870429,40.45899884727556,272.3045858092308,0.0118798604235053,0.019873147830367,-0.7941597104072571,0.6072679162025452,-0.0026908568394201,-0.0068981680021051,0.0132886127607,-0.0039549996145069,-0.0016928354743868,-0.0083937291055917,-0.1760410983860492,-0.4269067862257362,-9.799286731481551,14937.0
10.7,0.6000000238418579,199.0,24.4362735748291,-0.0636141896247863,-79.78277463513156,40.45899889843096,272.30031144094465,0.0118788331747055,0.0198872275650501,-0.7941548228263855,0.6072738170623779,-0.002110982906278,-0.0027267164779462,0.0119749957006438,-0.0008220627205446,-0.0052464692853391,-5.165824768482707e-05,-0.1769844187237322,-0.4426370388641953,-9.798134245276447,14937.0
10.9,0.6000000238418579,203.0,24.44754219055176,-0.0397588685154914,-79.78277463780053,40.458998900976034,272.3015065140724,0.0118692396208643,0.0198821108788251,-0.7941607236862183,0.6072665452957153,-0.0037269639957133,-0.0035049397161012,0.0116358216490314,-0.0030174194835126,0.0026951767504215,-0.0036452119238674,-0.1756460458785295,-0.4272256787493825,-9.799096112251284,14937.0
11.01,0.6000000238418579,204.0,24.45004653930664,-0.0477106422185897,-79.78277458900371,40.45899895175421,272.29712575149534,0.0118692684918642,0.019908731803298,-0.7941483855247498,0.6072818636894226,-0.0031545676198696,-0.0019304418525846,0.0103768837631682,-0.0078290738165378,-0.0017258488805964,-0.0031289798207581,-0.1733782763779163,-0.4468552567809821,-9.800383669137958,14937.0
11.2,0.6000000238418579,208.0,24.431264877319336,-0.055662415921688,-79.78277459050453,40.45899895386224,272.2981692500114,0.0118814557790756,0.0199215449392795,-0.7941565513610841,0.6072705388069153,-0.0039897911299168,-0.0026884882084701,0.0100975942527777,0.0047990772873163,-0.0009199594496749,-0.0005295207374729,-0.1740877811796963,-0.4329984520375729,-9.800585398077962,14937.0
11.3,0.6000000238418579,211.0,24.4362735748291,-0.055662415921688,-79.78277454077956,40.45899900162176,272.29368501377104,0.0118965078145265,0.0199210587888956,-0.794152557849884,0.6072754263877869,-0.0034824671945576,-0.0017699511230202,0.0092950286889597,-0.0039379703812301,-0.0028452882543206,-0.0105583621188998,-0.1764311076700687,-0.4498556458577514,-9.799009573459626,14937.0
11.4,0.6000000238418579,219.0,24.43752479553223,-0.055662415921688,-79.78277447184665,40.458999050784136,272.28990601968763,0.0118964361026883,0.0199217777699232,-0.7941526770591736,0.6072752475738525,-0.0018438279061855,0.0027085943824304,0.0122359928670097,0.0054326527751982,0.0020866671111434,0.0070030484348535,-0.173771209269762,-0.4483298149332404,-9.801071301698686,14937.0
11.6,0.699999988079071,228.0,24.44378662109375,-0.0715659633278846,-79.78277446800416,40.45899905259076,272.2911356635093,0.0119126988574862,0.0199346803128719,-0.7941494584083557,0.6072786450386047,-0.004828451508282,0.0021125830375409,0.01223034108375,-0.0111128259450197,-0.0036239738110452,-0.0044909939169883,-0.1779044415615499,-0.4295221726968885,-9.79808395922184,14937.0
11.7,0.699999988079071,230.0,24.445037841796875,-0.055662415921688,-79.78277445268374,40.4589991127291,272.2871261782646,0.0119406869634985,0.0199557747691869,-0.7941541075706482,0.6072713732719421,-0.0052668274587396,-0.0052262377522469,0.010992650320058,-0.0060466579161584,-0.0013458667090162,-0.0060831871815025,-0.1728332610614598,-0.4413703492283821,-9.802013288140296,14937.0
11.9,0.8000000119209291,238.0,24.44378662109375,-0.0477106422185897,-79.7827744573447,40.45899911840248,272.2882417387962,0.0119607709348201,0.0199631303548812,-0.7941510081291199,0.6072747111320496,-0.0059730926967576,-0.0060817829817286,0.0106751225145645,0.0052494844421744,0.0007224071887321,0.0022386556956917,-0.1738961386866867,-0.4332139950245619,-9.801060191988944,14937.0
12.0,0.8000000119209291,249.0,24.44002914428711,-0.0477106422185897,-79.78277437507235,40.458999147920046,272.284487719059,0.011952762492001,0.0199850518256425,-0.7941467165946959,0.6072797775268555,-0.0027265783519331,0.002815595222748,0.013045134914562,-0.0008715483127161,-0.0033746974077075,-0.0002278223109897,-0.1752875932864845,-0.4480293776839972,-9.799049919247627,14937.0
12.1,0.8000000119209291,256.0,24.44253349304199,-0.0715659633278846,-79.78277436741213,40.45899915220454,272.2870938129425,0.0119588132947683,0.019994692876935,-0.7941544651985168,0.607269287109375,-0.0049482859486044,0.0015681099922156,0.0127650411600185,0.0043005682528018,-0.0001082054586731,0.0062634907662868,-0.1760388325899839,-0.4258086425811052,-9.799258080124854,14937.0
12.3,0.8000000119209291,260.0,24.445037841796875,-0.055662415921688,-79.78277431828465,40.45899918422615,272.2818080730438,0.0119801610708236,0.0200007911771535,-0.7941532135009766,0.6072702407836914,-0.0027534381735781,0.0016527020954257,0.0110937199297421,-0.0081982761621475,-0.0036691194400191,-0.009926538914442,-0.1767562859505415,-0.4319966047257185,-9.797861180305482,14937.0
12.4,0.8000000119209291,263.0,24.44128227233887,-0.0636141896247863,-79.78277426122042,40.45899921774009,272.2775125451088,0.0119871729984879,0.0199816524982452,-0.7941481471061707,0.6072773933410645,-0.0007603106512164,0.0015060434623369,0.0099833991330193,-0.0046773757785558,-0.0024180619511753,-0.0046993563883006,-0.1731510389596224,-0.4404923532530665,-9.80102043092251,14937.0
12.6,0.8999999761581421,272.0,24.4362735748291,-0.1113248318433761,-79.78277425954163,40.45899921800472,272.2784933991432,0.0119843101128935,0.0199940465390682,-0.7941473126411438,0.6072781682014465,-0.0017848827939391,0.0006871536293607,0.0096481402055026,0.0033076060935854,0.0015462883748114,0.0016625438584014,-0.1751437335088849,-0.4297074197977781,-9.800281342864036,14937.0
12.7,0.8999999761581421,273.0,24.426258087158203,-0.0636141896247863,-79.78277419972025,40.45899923135268,272.2740431375504,0.0120053943246603,0.020010307431221,-0.7941570281982422,0.6072644591331482,0.002423042215937,0.0018234362195595,0.0092694775060984,-0.0049287299625575,-0.0003709862357936,-0.0056654633954167,-0.1748988448083401,-0.4494323805347085,-9.799517696499825,14937.0
12.9,0.8999999761581421,279.0,24.445037841796875,-0.055662415921688,-79.78277419858604,40.45899922868427,272.274955327034,0.0120036229491233,0.0200069062411785,-0.7941513657569885,0.6072720289230347,0.0020654502490809,0.001262988711102,0.0092175823017458,0.0033276223111897,0.0027092900127172,0.0052052931860089,-0.1740839073993265,-0.4505251155048609,-9.801160764098167,14937.0
13.01,0.8999999761581421,278.0,24.43376922607422,-0.055662415921688,-79.78277416555291,40.45899925920265,272.27030264806746,0.0120197245851159,0.0200016777962446,-0.7941495180130005,0.6072742342948914,0.0026714198782826,-0.0024873647453572,0.0087309797095792,0.0041959341615438,0.0045951404608786,0.0056106182746589,-0.1772502843104303,-0.4264302016049624,-9.797948888540269,14937.0
13.2,0.8999999761581421,270.0,24.438777923583984,-0.055662415921688,-79.78277416881706,40.45899925790327,272.2711701340675,0.012008249759674,0.0200037583708763,-0.7941554188728333,0.6072666645050049,0.0001862213688971,-0.0029519911537014,0.0086985650174015,-0.0099772410467267,-0.0016053821891546,-0.005504242144525,-0.1780100934393704,-0.4341608419641853,-9.79797227740288,14937.0
13.3,0.8000000119209291,265.0,24.44002914428711,-0.055662415921688,-79.78277411141131,40.4589992852527,272.26607369852064,0.012024188414216,0.0199942421168088,-0.7941458225250244,0.6072793006896973,0.0002565027744091,-0.0019063195088338,0.0085035087901151,-0.0047685275785624,0.001243929262273,-0.000645050778985,-0.1740057557076215,-0.4358295276761055,-9.801394652724266,14937.0
13.51,0.8000000119209291,257.0,24.43752479553223,-0.0795177370309829,-79.78277407609923,40.45899930778947,272.2596631593704,0.0120458509773015,0.0199956633150577,-0.7941487431526184,0.6072750687599182,0.004026538096015,-0.0047955569130365,0.0084635404453023,0.001237430027686,0.0011052674381062,-0.0045430255122482,-0.1753597881272435,-0.4276902765780688,-9.7999252474308,14937.0
13.6,0.8000000119209291,251.0,24.43752479553223,-0.0636141896247863,-79.78277408954516,40.45899930451987,272.2613276786804,0.0120547255501151,0.019978979602456,-0.7941469550132751,0.6072777509689331,0.0008250000031846,-0.005896275245058,0.0081609348638316,-0.0044382847845554,-0.0010423508938401,-0.0072507038712501,-0.1740826831385493,-0.4493521274998784,-9.7993633300066,14937.0
13.8,0.699999988079071,247.0,24.438777923583984,-0.055662415921688,-79.78277402529014,40.45899933147936,272.2541695780754,0.0120427021756768,0.0199786704033613,-0.7941387295722961,0.607288658618927,0.002940786982598,-0.0032996134591007,0.0080425740903655,0.0063865925185382,0.0027240563649684,0.0041339541785419,-0.1738510785810649,-0.4462637012824416,-9.801589365005494,14937.0
13.91,0.699999988079071,240.0,24.44378662109375,-0.0397588685154914,-79.78277398809895,40.45899934299385,272.2481086797714,0.0120601970702409,0.0199584644287824,-0.794129490852356,0.6073011159896851,0.0067921524304267,-0.0048179305155105,0.0081712771694889,0.006976721342653,0.0022733104415237,0.002915964461863,-0.1774850500188768,-0.4320856651291252,-9.797125015854837,14937.0
14.1,0.6000000238418579,237.0,24.43376922607422,-0.0636141896247863,-79.7827739955178,40.458999339015975,272.24891077947615,0.0120580857619643,0.0199534520506858,-0.7941357493400574,0.6072931885719299,0.004588099346681,-0.005304736976279,0.0081961301018476,-0.003493683412671,-0.0006418999400921,0.0019588740542531,-0.176932433322072,-0.4430071676149965,-9.79861664056778,14937.0
14.21,0.699999988079071,236.0,24.44002914428711,-0.0636141896247863,-79.78277393845848,40.4589993624372,272.24220889282225,0.0120597407221794,0.0199599005281925,-0.794143795967102,0.6072824001312256,0.0036022412079057,-0.0037728711105032,0.0079225742492183,-0.0019229738973081,-0.0003699537192005,0.0025672181509435,-0.1737976679205894,-0.4312821115180849,-9.79944811463356,14937.0
14.4,0.6000000238418579,237.0,24.445037841796875,-0.0636141896247863,-79.78277394409733,40.458999360658886,272.2429805345535,0.0120538165792822,0.0199718587100505,-0.7941516637802124,0.6072718501091003,0.0018016908985293,-0.0046060934119634,0.0076527213353973,-0.0003812604118138,-0.0009625288657844,-0.0026649285573512,-0.1752707277238369,-0.4257201303541661,-9.798559922575947,14937.0
14.5,0.6000000238418579,239.0,24.4362735748291,-0.0477106422185897,-79.78277387929488,40.45899938202899,272.23570203256605,0.0120470160618424,0.0199811235070228,-0.7941718101501465,0.6072453856468201,0.0010283510476728,-0.0027674647711889,0.0075518307092119,-0.0066649210639297,-0.0008639382431283,-0.004352964926511,-0.1734472552500665,-0.4488857755064965,-9.8002684789896,14937.0
14.7,0.699999988079071,249.0,24.44253349304199,-0.0636141896247863,-79.78277388300526,40.458999380940426,272.2364454216957,0.012050281278789,0.0199883002787828,-0.7941856980323792,0.6072268486022949,0.0010196740152751,-0.0034915102563037,0.007278583358816,0.0059764678589999,0.0056914375163614,0.0054334248416125,-0.17226323062554,-0.4420693473145366,-9.800861971378326,14937.0
14.8,0.699999988079071,249.0,24.4362735748291,-0.055662415921688,-79.78277381395115,40.45899940103382,272.2260323114395,0.0120462113991379,0.020002719014883,-0.7941973209381104,0.607211172580719,0.0004772055198187,-0.0020164830862167,0.0031490753280923,0.0044765197671949,0.0008624696056358,-0.0019941283389925,-0.1762388804554939,-0.4408844821527601,-9.797521457076073,14937.0
15.0,0.8000000119209291,251.0,24.445037841796875,-0.0397588685154914,-79.78277374986901,40.45899940693936,272.21751927804945,0.0120538771152496,0.0200277641415596,-0.7942050099372864,0.6072002053260803,0.0048536733260596,-4.3478987185599765e-05,0.0047345055627783,0.0015204880619421,0.0011436371132731,0.0060285362415015,-0.1745363357104361,-0.4502204024791718,-9.79960832834244,14937.0
15.11,1.0,272.0,24.44128227233887,-0.0636141896247863,-79.78277375155973,40.45899940350189,272.21796029281614,0.0120530622079968,0.0200264621526002,-0.7942036986351013,0.6072019338607788,0.0025415135275368,-0.0008057497755038,0.0044927984110695,-0.0064554074779152,-0.0005440321401692,-0.0094913654029369,-0.1778269476816058,-0.4286464425176382,-9.797792767882347,14937.0
15.2,1.100000023841858,287.0,24.43752479553223,-0.055662415921688,-79.78277370470208,40.45899941643104,272.207901055336,0.0120747964829206,0.0200392138212919,-0.79420006275177,0.607205867767334,0.0043838659343099,-0.0041361222137352,0.0017355128675307,0.0009195193415507,-0.001480407314375,0.0014498899690806,-0.1765123656950891,-0.4474526229500771,-9.798480400443076,14937.0
15.4,1.2000000476837158,305.0,24.44253349304199,-0.0477106422185897,-79.7827737108734,40.458999414161575,272.2080484576225,0.0120891751721501,0.0200527347624301,-0.7942036986351013,0.6072004437446594,0.0025092034070775,-0.0048311553642898,0.0014701264219003,-0.0044609596952795,-0.0005861635436303,-0.0078158285468816,-0.177328070551157,-0.427198818102479,-9.798730661273003,14937.0
15.5,1.2999999523162842,309.0,24.44253349304199,-0.0636141896247863,-79.78277363883939,40.45899942738593,272.1995490736961,0.0120747219771146,0.0200614538043737,-0.7941985726356506,0.6072071194648743,0.002445464293252,-0.0025386858936154,0.0040797465926506,-0.002204873599112,0.0010504304664209,-0.0003302874974906,-0.1736272033117711,-0.4425302175432444,-9.80102043092251,14937.0
15.7,1.5,315.0,24.44002914428711,-0.0636141896247863,-79.78277364262463,40.45899942570773,272.1999391264916,0.0120794354006648,0.0200890842825174,-0.7942174673080444,0.6071813702583313,0.0010307965965355,-0.0030697593291949,0.0038519357866348,0.0001905148528749,-0.0022945993114262,-0.0044717243872582,-0.1751785244420171,-0.4277058082446456,-9.799489045143128,14937.0
15.8,1.5,318.0,24.44253349304199,-0.055662415921688,-79.782773596317,40.45899943351315,272.188745493412,0.0120726507157087,0.0201091393828392,-0.7941996455192566,0.6072040200233461,0.00323324746309,-0.005605881725518,0.0010694839270948,-0.0058417371474206,-0.0035331966355443,-0.0030166765209287,-0.1738024553284049,-0.4453407182916999,-9.800901732444764,14937.0
16.01,1.600000023841858,313.0,24.431264877319336,-0.0477106422185897,-79.78277352128708,40.45899945241331,272.17917257022856,0.0120981866493821,0.0201286133378744,-0.7941969633102417,0.6072065234184265,0.0030380948562745,-0.0026348423199663,0.0019216191254716,-0.0007915223250165,-2.688233143999241e-05,-0.0005897586233913,-0.1745171129889786,-0.4304061986133457,-9.800095986127854,14937.0
16.1,1.7000000476837158,313.0,24.43251800537109,-0.0715659633278846,-79.78277352516298,40.458999450927,272.1793631262779,0.012087726034224,0.0201355535537004,-0.7941940426826477,0.6072102189064026,0.0023597075758754,-0.0030000076347972,0.0019487242877592,0.0050646616145968,0.0041474150493741,0.0046398239210247,-0.1747298237308859,-0.4494658558443189,-9.8009970420599,14937.0
16.3,1.7000000476837158,314.0,24.445037841796875,-0.0477106422185897,-79.7827734792912,40.45899944409394,272.17065691423414,0.012089954689145,0.0201588459312915,-0.7941969633102417,0.6072055697441101,0.0089656464802634,-0.004402179590189,0.0049082116927288,0.0074177873320877,0.0005455320351757,0.0052509261295199,-0.1750608126819134,-0.4384958214685321,-9.80147183597088,14937.0
16.4,1.7000000476837158,318.0,24.445037841796875,-0.055662415921688,-79.78277342054521,40.45899948568169,272.1615206546783,0.0121167562901973,0.0201616380363702,-0.794193685054779,0.607209324836731,-0.0017210114112949,-0.0039844031742658,0.0056924849940877,-0.0012434384552761,-0.0012657933402806,-0.0045001339167356,-0.1757289484329521,-0.4273492377251386,-9.797690441608433,14937.0
16.6,1.7000000476837158,316.0,24.435022354125977,-0.0636141896247863,-79.78277342462486,40.45899948800482,272.1621042437553,0.0121093746274709,0.0201607514172792,-0.7941936254501343,0.6072095632553101,-0.0016476146331658,-0.0043986288313031,0.0055795774267578,0.0088046323508024,0.0052556712180376,0.0061377384699881,-0.1729259577021002,-0.4456820129603148,-9.80053686618805,14937.0
16.7,1.7000000476837158,313.0,24.44253349304199,-0.055662415921688,-79.7827733586761,40.45899948361728,272.15271684002875,0.0121097322553396,0.0202009342610836,-0.7941836714744568,0.607221245765686,0.0051195781574924,-0.0007527867782983,0.0068380564949548,0.0025478936731815,-0.0011955900117754,-0.0017478215740993,-0.1756176686100662,-0.4401718527451158,-9.798762236237527,14937.0
16.9,1.7000000476837158,310.0,24.43752479553223,-0.0477106422185897,-79.78277336091233,40.45899947961298,272.1533856935501,0.0121042877435684,0.0202129539102315,-0.7941774725914001,0.6072291135787964,0.0043633582488983,-0.0009302838542447,0.0068396470338406,0.0036082160659134,2.337777004868257e-05,0.0051078917458653,-0.1746061916649341,-0.4515454546362162,-9.80054563701153,14937.0
17.01,1.7000000476837158,309.0,24.44253349304199,-0.055662415921688,-79.78277330556381,40.458999497814816,272.1442169792652,0.0121002793312072,0.0202309265732765,-0.7941888570785522,0.6072137355804443,0.0041802681974948,-0.0005491695098771,0.0068277280555406,0.0074199200607836,0.0027891874779015,0.0029100135434418,-0.1768981357477605,-0.4306326320394874,-9.797827851176262,14937.0
17.2,1.7000000476837158,308.0,24.43251800537109,-0.0636141896247863,-79.78277330701546,40.45899949469538,272.14488848519323,0.0121003286913037,0.0202434919774532,-0.7941808104515076,0.6072236895561218,0.0026571990738982,-0.0005200806230975,0.0068732613346948,-0.0031280820257961,-0.0005817418568767,0.0025850262027233,-0.1748381616733968,-0.4488256588205695,-9.799135288596151,14937.0
17.3,1.7000000476837158,311.0,24.4362735748291,-0.0397588685154914,-79.78277323767534,40.45899951513579,272.1348141379356,0.012102480046451,0.0202753748744726,-0.7941763997077942,0.6072285175323486,0.0021191121656116,0.0023835540212884,0.0064658187219505,0.0048712533898651,-0.0001593624183442,0.0059034600853919,-0.1763217464648187,-0.4260244413837791,-9.798659325242042,14937.0
17.5,1.7000000476837158,313.0,24.44002914428711,-0.0636141896247863,-79.7827731857057,40.45899955253217,272.1237608141899,0.012107465416193,0.0202853120863437,-0.794170618057251,0.6072355508804321,-0.0006573434385005,0.0015471181631124,0.0065906559113799,-0.0026032873429358,-0.0014273684937506,0.0040084719657897,-0.1760771318525076,-0.4467323190718889,-9.798433622717855,14937.0
17.6,1.7000000476837158,312.0,24.44002914428711,-0.055662415921688,-79.78277318219875,40.45899955350561,272.1250439829826,0.0121312113478779,0.0202869996428489,-0.7941686511039734,0.6072375774383545,-0.0017459360912971,0.0007979490836047,0.0061524490818781,0.0062984097748994,0.0055339545942842,0.0026946945581585,-0.1765267827361822,-0.4262651639431715,-9.79941361606121,14937.0
17.8,1.600000023841858,317.0,24.44128227233887,-0.0636141896247863,-79.782773163975,40.45899955028045,272.11423703503607,0.0121496310457587,0.0203139632940292,-0.794164776802063,0.6072413921356201,0.0069127083508711,-0.0017687262281414,0.0070733390993958,-0.0029867403209209,9.063094330485907e-05,-0.0019766394980251,-0.1778646804951131,-0.4452707709744573,-9.79904348731041,14937.0
17.9,1.600000023841858,316.0,24.445037841796875,-0.0477106422185897,-79.78277311487949,40.45899956910896,272.1049991197586,0.0121420389041304,0.0203256271779537,-0.7941620349884033,0.6072447896003723,0.0055839347297209,0.0010280341046744,0.0088444488871515,0.0058966213837265,0.0065267174504697,0.0042809676378965,-0.1714003460481763,-0.4455469788238406,-9.801327409744264,14937.0
18.1,1.600000023841858,318.0,24.45129776000977,-0.0318070948123931,-79.7827731151539,40.45899956456815,272.10585808229445,0.0121378181502223,0.0203037038445472,-0.7941467761993408,0.6072655916213989,0.0039092624169419,0.000869546107047,0.0089197584644787,-0.0032810054253786,-0.0011589585337787,-0.0037329127080738,-0.1775995458103716,-0.4419551804289222,-9.80001529455185,14937.0
18.2,1.5,317.0,24.435022354125977,-0.055662415921688,-79.78277307227155,40.45899957104856,272.0955347366333,0.0121426964178681,0.0203469600528478,-0.7941443920135498,0.6072670817375183,0.0079330109667336,0.0017804210600621,0.0080754250503802,0.0075972671620547,0.0001633548672543,0.0073286206461489,-0.1747199200093746,-0.4464547955989837,-9.800961958765985,14937.0
18.41,1.399999976158142,320.0,24.44253349304199,-0.0477106422185897,-79.78277307231828,40.45899956432929,272.0963053650856,0.0121548492461442,0.0203464366495609,-0.7941297888755798,0.6072859168052673,0.0060447184052333,0.0017481273365138,0.0081214468884776,-0.0068117249757051,-0.0024327179417014,-0.0047178510576486,-0.177063246499747,-0.4375520808622241,-9.79962645471096,14937.0
18.5,1.399999976158142,319.0,24.44253349304199,-0.055662415921688,-79.78277308042139,40.45899959783331,272.0835195727348,0.0121546937152743,0.0203406475484371,-0.7941339612007141,0.6072807312011719,0.0047403763920565,-0.0058995065408424,0.0036254511270811,0.0014797440962865,0.000149828614667,0.0061971140094101,-0.175159210357815,-0.4294274843484164,-9.800480732917784,14937.0
18.7,1.2999999523162842,322.0,24.43752479553223,-0.0715659633278846,-79.78277308832247,40.45899959568758,272.08387186598776,0.012158527970314,0.0203528720885515,-0.7941431999206543,0.6072681546211243,0.0027617456273379,-0.0059678200191638,0.0035609063155084,-0.0084145842120051,-0.000944783561863,-0.0072012869641184,-0.1762724654003978,-0.4366651678830385,-9.798110271692275,14937.0
18.8,1.2000000476837158,324.0,24.44128227233887,-0.055662415921688,-79.78277302442548,40.458999614530846,272.07248231244085,0.0121391676366329,0.0203596279025077,-0.7941272854804993,0.6072890758514404,0.0028951001879307,7.101338912547573e-07,0.0038876131905709,0.0010300040012225,0.0015645710518583,0.0039968956261873,-0.1752903341688216,-0.4292808288708329,-9.80027608036995,14937.0
19.01,1.2000000476837158,328.0,24.44253349304199,-0.055662415921688,-79.7827729942698,40.458999646613776,272.06170868349074,0.012147000990808,0.0203682128340005,-0.7941266298294067,0.6072895526885986,-9.226202721334038e-05,-0.0001031510209747,0.0050254424951779,-0.0056406133808195,-0.0019691628403961,-0.0091858152300119,-0.1759119662828743,-0.4345588911697269,-9.797947134375573,14937.0
19.1,1.2000000476837158,325.0,24.44002914428711,-0.0636141896247863,-79.78277299486327,40.45899964663175,272.0626625962257,0.0121734635904431,0.0203926209360361,-0.7941111326217651,0.6073083281517029,-0.0007031208312088,-0.0004939696305286,0.0045707280423496,0.00457269186154,0.0018685836112126,0.0040944553911685,-0.1741616570949554,-0.450325688906014,-9.799400167465212,14937.0
19.3,1.2000000476837158,325.0,24.446290969848643,-0.0397588685154914,-79.78277299234576,40.45899964370931,272.05195104551314,0.0122011816129088,0.0204180143773555,-0.7941060662269592,0.6073136329650879,0.0067279703800862,-0.0024619260200454,0.0060277401817844,-0.0047188396565616,-0.0024771781172603,-0.0080483583733439,-0.1780292978882789,-0.4319120759144426,-9.79842719078064,14937.0
19.4,1.2000000476837158,328.0,24.44128227233887,-0.055662415921688,-79.78277297198713,40.45899962688457,272.04171499085425,0.0122089255601167,0.0204535033553838,-0.7940977811813354,0.6073231101036072,0.0142622698759594,0.0013702238679391,0.0067107870207455,0.0016481751808896,0.0048300763592123,0.002748358529061,-0.173805177938193,-0.4493969683349133,-9.799699544906618,14937.0
19.6,1.2999999523162842,324.0,24.43251800537109,-0.0636141896247863,-79.78277297487811,40.45899961447099,272.04230710339544,0.0122178141027688,0.0204542968422174,-0.794093132019043,0.6073290705680847,0.0128432095440943,0.00101012289241,0.0064474312911503,-0.0039455662481486,-0.0016249557957053,-0.0074330219067633,-0.1777983876876533,-0.4298935805261136,-9.797622613906858,14937.0
19.7,1.2999999523162842,322.0,24.44128227233887,-0.0636141896247863,-79.78277294911098,40.45899962654292,272.0296043701172,0.0122274961322546,0.0204622223973274,-0.7940908074378967,0.6073315739631653,0.0104999396120459,0.0017037290762479,0.0023837203265967,0.0007899272022768,0.0007893956499174,0.0037073716521263,-0.1759630928747356,-0.4485727667436004,-9.799680249094964,14937.0
19.9,1.5,319.0,24.42876052856445,-0.055662415921688,-79.7827729505231,40.45899961739745,272.02978127670286,0.0122261866927146,0.0204803179949522,-0.7940898537635803,0.6073322892189026,0.0091382762570671,0.0014777363184176,0.0021406300665473,-0.0049551329575479,-0.0038842468056827,-0.0060406415723264,-0.1761807006597519,-0.4284407667070628,-9.79865464746952,14937.0
20.01,1.600000023841858,317.0,24.438777923583984,-0.0636141896247863,-79.78277292901164,40.45899962733787,272.0181062467098,0.0122233219444751,0.0204690862447023,-0.7940894961357117,0.6073331236839294,0.0084725903122091,0.0014782158103008,0.0007135994614293,-0.0028057496529072,-0.0033310048747807,0.0010436311131343,-0.17854765355587,-0.4467337808758021,-9.79990829050541,14937.0
20.2,1.7000000476837158,319.0,24.435022354125977,-0.0715659633278846,-79.7827729298514,40.45899961962585,272.01812201213835,0.0122257126495242,0.0204736515879631,-0.7940964102745056,0.607323944568634,0.0074373584070896,0.0013550033848941,0.0004455732193166,-0.0037648449651896,-0.0026116883382201,-0.0050448887050151,-0.1758454542048275,-0.4282459447905421,-9.800070843100547,14937.0
20.3,1.7999999523162842,317.0,24.43376922607422,-0.0477106422185897,-79.78277293194165,40.45899966765886,272.0085435159206,0.0122059620916843,0.020467784255743,-0.7940885424613953,0.6073348522186279,0.0002930847304099,-0.0037892764000801,0.0027274275992148,-0.0088186049833893,-0.0025176529306918,-0.0031957826577126,-0.1752061159908771,-0.4461351356282831,-9.80133618056774,14937.0
20.5,2.0,308.0,24.438777923583984,-0.0715659633278846,-79.78277294936501,40.45899964283814,271.99846231412886,0.0122325466945767,0.0204825364053249,-0.7940883636474609,0.6073340773582458,0.0158700010399486,-0.0076075838992796,0.0056856407710257,0.0024910857900977,0.0016848511295393,-0.0008453800110146,-0.1735187374614179,-0.4306855493411422,-9.79994512796402,14936.0
20.6,2.0,305.0,24.438777923583984,-0.0874695107340812,-79.7827729627997,40.45899963085612,271.9989759273529,0.0122236013412475,0.0204785708338022,-0.794078528881073,0.6073472499847412,0.0159374006091877,-0.0075585542094824,0.0055949330638029,0.0028313412331044,0.000147129438119,0.0036627198569476,-0.1739875197038054,-0.4490458064898849,-9.79960423529148,14936.0
20.81,2.0,299.0,24.44002914428711,-0.0636141896247863,-79.78277295023743,40.458999638795206,271.9892700262069,0.0122215338051319,0.0204836446791887,-0.7940829992294312,0.6073411107063293,0.0128405253841668,-0.004462507529848,0.0059606464796983,0.0031549916602671,0.0047084968537092,0.0032568513415753,-0.1726717500016093,-0.4377845076844096,-9.801718003749848,14936.0
20.9,2.0999999046325684,298.0,24.43376922607422,-0.0477106422185897,-79.78277295888658,40.458999629145175,271.9898176438808,0.0122186709195375,0.0204843766987323,-0.7940685153007507,0.6073601245880127,0.0116729008486528,-0.0043800446182432,0.0059693928681248,-0.0013643973506987,-0.0011121387360617,-0.0005679600290022,-0.1761805179342627,-0.4471572289243341,-9.799891333580018,14936.0
21.11,2.0,295.0,24.4362735748291,-0.0636141896247863,-79.78277294628495,40.4589996368003,271.9809087760448,0.0122475661337375,0.0204765684902668,-0.7940705418586731,0.6073572039604187,0.0106846729036067,-0.0027391068736937,0.0063243991854714,0.0082930345088243,0.0029306507203727,0.0043160244822502,-0.1757806414738297,-0.4458483662456274,-9.802579298615456,14936.0
21.2,2.0,295.0,24.43001365661621,-0.055662415921688,-79.78277291850942,40.45899964120128,271.97232713770865,0.0122362105175852,0.0204946119338274,-0.7940582633018494,0.6073728203773499,0.0081126868982026,0.0017414836201419,0.0065126121656078,0.0009565277723595,0.0025509842671453,0.001789923175238,-0.1741753066889941,-0.4309512322023511,-9.80180746614933,14936.0
21.41,2.0,296.0,24.44128227233887,-0.0397588685154914,-79.78277291880879,40.45899963377453,271.97293868136404,0.0122362226247787,0.0204957704991102,-0.7940521240234375,0.6073808670043945,0.0079616777405471,0.0018361141545827,0.0064497848178632,0.0039804559201002,0.0007102627423591,0.0093206921592354,-0.1740225116349756,-0.4491147305443883,-9.800381330251694,14936.0
21.51,1.8999999761581416,300.0,24.4362735748291,-0.0318070948123931,-79.78277292435119,40.45899964352896,271.96408527565,0.0122565645724535,0.0204963758587837,-0.7940638065338135,0.6073651313781738,0.0086085461414509,-0.0025804458147385,0.0073570801007536,-0.0086445212364196,-0.0021141942124813,-0.0080013154074549,-0.1747566295601427,-0.4299632720276714,-9.797815572023392,14936.0
21.7,1.8999999761581416,297.0,24.44002914428711,-0.055662415921688,-79.78277293617593,40.45899962895167,271.96547242474554,0.0122430138289928,0.0205015707761049,-0.7940612435340881,0.6073685884475708,0.00834874298434,-0.0029354328125252,0.0072384866883895,-0.0009310686727985,-0.0016816409770399,0.0023325134534388,-0.1766287252865731,-0.4474039448797703,-9.799845725297928,14936.0
21.8,1.7999999523162842,294.0,24.44002914428711,-0.0715659633278846,-79.78277291417399,40.45899963609472,271.95678016018866,0.0122674759477376,0.0205113068222999,-0.7940567135810852,0.6073737740516663,0.0075295181769623,-0.0009476362773931,0.0073242658266158,-0.0030005080625414,-0.0027673358563333,-0.0051729246042668,-0.1753014073334634,-0.4259281450510025,-9.79966855466366,14936.0
22.0,1.7000000476837158,293.0,24.44378662109375,-0.0477106422185897,-79.78277291609943,40.45899963612264,271.94947307777403,0.0122540015727281,0.0205014292150735,-0.7940382957458496,0.6073984503746033,0.0083711148596267,-0.0031218977967505,0.0078015572744027,-0.0035351992119103,0.0008540610433556,-0.0011437317589297,-0.1768662136048078,-0.4447445215657353,-9.799869698882103,14936.0
22.1,1.600000023841858,293.0,24.44002914428711,-0.0715659633278846,-79.78277292898915,40.45899962238725,271.9509163148403,0.0122719202190637,0.0205064006149768,-0.7940404415130615,0.6073949933052063,0.0087278674482421,-0.0035980563437194,0.0073931151835309,0.007172514218837,0.0052527762018144,0.0066436296328902,-0.1737120793014764,-0.4430695135518909,-9.801464234590531,14936.0
22.3,1.5,295.0,24.44002914428711,-0.055662415921688,-79.78277293234608,40.458999629716025,271.9432374186516,0.0122551396489143,0.0205266643315553,-0.7940362095832825,0.6074002385139465,0.008617849922494,-0.0051310748269791,0.0080203313108204,-0.0043353331275284,-0.0017296009464189,-0.0027702804654836,-0.1767777744680643,-0.4424100572615862,-9.798455257415776,14936.0
22.41,1.5,291.0,24.438777923583984,-0.0636141896247863,-79.78277291201661,40.4589996301135,271.9363281674385,0.01224026363343,0.0205492116510868,-0.7940366864204407,0.6073991060256958,0.0079117328310375,0.0005696520688909,0.0080251169877354,0.00435008155182,0.0018279907526448,0.0060161692090332,-0.1730136659368872,-0.4449948189407587,-9.802163561582567,14936.0
22.6,1.399999976158142,288.0,24.43376922607422,-0.0715659633278846,-79.78277291365359,40.45899962348548,271.9370913751125,0.0122407656162977,0.0205503068864345,-0.7940330505371094,0.6074038147926331,0.0065392487989086,0.0004595131362421,0.0079439961353841,-0.0054380022920668,0.0022866476792842,-0.0016635347856208,-0.1783483183197677,-0.4422858404740692,-9.798771007061005,14936.0
22.71,1.399999976158142,289.0,24.438777923583984,-0.0477106422185897,-79.78277290133343,40.45899962485156,271.93021046590803,0.0122365429997444,0.020549351349473,-0.7940353155136108,0.6074009537696838,0.0072810915157926,0.0012084616527005,0.0077729094884351,0.0052055334672331,0.0037743947468698,0.0029691110830754,-0.1729295573942363,-0.4486868239939213,-9.80145429432392,14936.0
22.9,1.2000000476837158,287.0,24.431264877319336,-0.055662415921688,-79.78277290194269,40.458999618622094,271.93094968271254,0.0122466906905174,0.0205560270696878,-0.7940249443054199,0.6074141263961792,0.0058585733589428,0.0012005226642978,0.0077139010434104,-0.0074938838370144,-0.0041111707687377,-0.0011340378550812,-0.1773448082059621,-0.4420214001461864,-9.798986184597016,14936.0
23.0,1.100000023841858,287.0,24.438777923583984,-0.0636141896247863,-79.7827728906759,40.45899963680003,271.9240186758041,0.0122574148699641,0.0205622930079698,-0.7940236330032349,0.607415497303009,0.0033990953109628,0.0006555370615735,0.0076657135566276,-1.6467613022541627e-05,-0.0012540975585579,-0.0037120003253221,-0.1759060642495751,-0.4290740201622248,-9.800356771945951,14936.0
23.21,1.0,293.0,24.44378662109375,-0.055662415921688,-79.78277289098125,40.45899963013202,271.92551403713225,0.0122760329395532,0.0205868799239397,-0.7940131425857544,0.6074278950691223,0.0026067110247304,0.0007637610913799,0.0076254088403861,-0.0041070487350225,-0.0038060613442212,-0.0037909345701336,-0.177595854755491,-0.4413211595267057,-9.80011469721794,14936.0
23.3,0.8999999761581421,293.0,24.42375373840332,-0.055662415921688,-79.78277287896607,40.458999615450594,271.9184059746265,0.0122982822358608,0.0206069275736808,-0.7940194606781006,0.6074184775352478,0.0085461170549918,0.0024200753634441,0.0079182257907618,-0.0020703729242086,-0.0005902862758375,-0.0039335349574685,-0.1743575753644108,-0.4272318914160133,-9.800364958047869,14936.0
23.51,0.8000000119209291,293.0,24.44002914428711,-0.055662415921688,-79.7827728900793,40.45899961031426,271.91220893931387,0.0123230153694748,0.0206303279846906,-0.7940154671669006,0.6074225306510925,0.0097934669419626,-0.0021233800777571,0.0084045603341887,-0.0017821379005908,-0.0028954003937542,-0.0005576444673351,-0.1777123970724642,-0.4428427146747709,-9.799821751713754,14936.0
23.6,0.8000000119209291,299.0,24.44253349304199,-0.0477106422185897,-79.78277289571409,40.45899960170127,271.9129934854507,0.0123434141278266,0.0206301845610141,-0.7940115332603455,0.607427179813385,0.0096305296296257,-0.0023208266222644,0.008188564084316,-0.002339111175388,-0.0026190977077931,-0.0063455710187554,-0.1755838826671242,-0.4268752112612129,-9.800844429731368,14936.0
23.8,0.699999988079071,308.0,24.431264877319336,-0.0636141896247863,-79.78277290678095,40.45899959842698,271.9066868818998,0.0123368576169013,0.02062563970685,-0.7940047383308411,0.6074363589286804,0.0099869134649185,-0.0043409679998625,0.0083990001458539,-0.0025219486560672,-0.0037789733614772,-0.0049365470185875,-0.1777425467781722,-0.4399743264913559,-9.7996375644207,14936.0
23.9,0.699999988079071,311.0,24.44002914428711,-0.0477106422185897,-79.78277291503551,40.458999590128535,271.90747743320463,0.0123556107282638,0.0206430498510599,-0.7940016388893127,0.6074393391609192,0.0101456792015154,-0.0045985153793257,0.0081502813984179,0.0003844179445877,0.0008242299081757,-0.0023646680638194,-0.1756554014235735,-0.42842903573066,-9.799981380701066,14936.0
24.1,0.8000000119209291,308.0,24.431264877319336,-0.0636141896247863,-79.78277292884124,40.458999588458646,271.8998968697786,0.012374410405755,0.0206508189439773,-0.7940126657485962,0.6074244379997253,0.0099482766927028,-0.0053753843372497,0.0049064280577534,-0.0065225162543356,-0.001387407304719,-0.0079654660075902,-0.1771148299053311,-0.4330848811939359,-9.798159388303755,14936.0
24.21,0.8000000119209291,315.0,24.435022354125977,-0.055662415921688,-79.78277293835896,40.45899958020046,271.9003364242315,0.0124034844338893,0.0206547845155,-0.7940168976783752,0.6074182391166687,0.0109337215521449,-0.0056152759503996,0.00461321820724,0.0057961004786193,0.0025345205795019,0.0030165826901793,-0.1746489494293928,-0.4343770427629352,-9.801056683659557,14936.0
24.4,0.8000000119209291,324.0,24.44128227233887,-0.0636141896247863,-79.78277292848145,40.45899957225011,271.89432425272463,0.0124187571927905,0.0206664875149726,-0.7940142750740051,0.6074208617210388,0.0093469985091835,-0.0027122695874337,0.0059326697123623,-0.0044880295172333,-0.0029583140276372,-0.0039138137362897,-0.1753975209407508,-0.4272993536666036,-9.799163939952852,14936.0
24.5,0.8999999761581421,325.0,24.43752479553223,-0.0636141896247863,-79.78277291976099,40.458999582878405,271.88822787475584,0.012393033131957,0.020682668313384,-0.7940097451210022,0.6074267029762268,0.0047802088060643,-0.0015237979812006,0.0067465473995473,-0.0061390437185764,-0.0003580511547625,-0.0007572232862003,-0.1728056146949529,-0.4429994931444526,-9.801579424738884,14936.0
24.7,1.0,322.0,24.43001365661621,-0.0636141896247863,-79.78277292320925,40.458999578520384,271.8888643182516,0.0124232126399874,0.0206901021301746,-0.7940135002136229,0.6074209809303284,0.0047805750413627,-0.001801863871737,0.006400163180485,-0.0006867996999062,-0.0005053434288129,-0.0014047084841877,-0.1764445928111672,-0.4283581747859717,-9.79942238688469,14936.0
24.8,1.0,321.0,24.438777923583984,-0.055662415921688,-79.78277293447637,40.45899955127884,271.88210139644144,0.0124347917735576,0.02069628611207,-0.7940107583999634,0.6074240803718567,0.0134855140699619,-0.0030745647832088,0.0077275957773388,0.0072396607138216,0.0023190213833004,0.0091754412278532,-0.1741115903109312,-0.4478871076181531,-9.800779525637626,14936.0
25.0,1.100000023841858,323.0,24.44002914428711,-0.0636141896247863,-79.78277293483161,40.45899953365941,271.876326287508,0.0124291218817234,0.020693777129054,-0.7940056920051575,0.6074309349060059,0.0123916481404284,-0.0020884346813752,0.0077135489178131,0.000723109813407,-0.0009678057394921,-0.0028404437471181,-0.1756802703626454,-0.429938494451344,-9.800835074186326,14936.0
25.1,1.100000023841858,319.0,24.43251800537109,-0.0715659633278846,-79.78277294089192,40.45899952313231,271.87704221379755,0.0124267805367708,0.0206885132938623,-0.7939903736114502,0.6074510812759399,0.01276517035476,-0.0019591687619111,0.0076043271977834,0.004885833710432,0.0003048409125767,0.0031218132935464,-0.1737931911461055,-0.4494582544639707,-9.79989484190941,14936.0
25.3,1.100000023841858,313.0,24.44378662109375,-0.0159035474061965,-79.78277290759611,40.45899949513953,271.8711521424055,0.0124364458024501,0.0206901766359806,-0.7939976453781128,0.6074413657188416,0.0132030038910881,0.0050899293170332,0.0075809205331016,0.0083274701610207,0.0006912803510203,-0.0001784183550626,-0.1734606307558715,-0.4360906424000859,-9.800867233872417,14936.0
25.4,1.100000023841858,311.0,24.438777923583984,-0.055662415921688,-79.78277290555997,40.45899948238485,271.87184179794787,0.0124358721077442,0.0206963364034891,-0.7939984202384949,0.6074402332305908,0.013130172433719,0.0053566586806767,0.0075655634554969,-0.0005630668601952,-0.0007554437033832,0.0039251507259905,-0.1751004458405077,-0.4464136823639273,-9.799036470651629,14936.0
25.6,1.100000023841858,311.0,24.43001365661621,-0.0636141896247863,-79.7827729203467,40.458999439547775,271.8661641426086,0.0124424481764435,0.0206909291446208,-0.7939959764480591,0.6074433922767639,0.0180397829738476,0.0006500602662223,0.0079851866251681,0.0081693949177861,0.004582546185702,0.0067835422232747,-0.1720937344618141,-0.4434457087889314,-9.80118239879608,14936.0
25.71,1.0,315.0,24.4362735748291,-0.055662415921688,-79.78277292481812,40.45899942407569,271.86687643301485,0.0124498484656214,0.0206949394196271,-0.7939944267272949,0.6074452996253967,0.0171330612016515,0.000697800934531,0.0078953707243903,-0.0038306233473122,-0.0016582235693931,-0.0057184258475899,-0.1773977072350681,-0.4426246135309338,-9.798373981118203,14936.0
25.9,0.8999999761581421,318.0,24.44128227233887,-0.0636141896247863,-79.78277293931535,40.45899940254107,271.8611012495756,0.012461993843317,0.02067681401968,-0.7939866185188293,0.6074557304382324,0.0159223979201202,-0.0028769153291382,0.007973771437241,0.0039586569182574,0.0019113752059638,0.0074811829254031,-0.1735228122398257,-0.4493911576643586,-9.800994118452072,14936.0
26.01,0.8000000119209291,316.0,24.44128227233887,-0.055662415921688,-79.78277292622816,40.45899938953597,271.8549113817215,0.0124809425324201,0.0206746589392423,-0.7939842939376831,0.6074584722518921,0.0133239622941256,-0.0014266481850201,0.008075547678923,-0.0070635159499943,-0.0022949504200369,-0.0044261747971177,-0.1777392577193677,-0.4339531196281313,-9.799117746949197,14936.0
26.2,0.699999988079071,319.0,24.44002914428711,-0.0636141896247863,-79.7827729381506,40.4589993652794,271.8563643641472,0.012470930814743,0.0206623915582895,-0.7939761281013489,0.6074696779251099,0.0142701853298434,-0.0015648937915958,0.0077467721242016,0.0003802849096246,-0.0016726338071748,0.0028200794477015,-0.1738765687867999,-0.4510281953215599,-9.799100790023806,14936.0
26.31,0.699999988079071,321.0,24.4362735748291,-0.055662415921688,-79.78277292634058,40.458999338879366,271.85081256401537,0.0124815935268998,0.0206464435905218,-0.7939704656600952,0.6074774861335754,0.0131827329420554,-0.0003219561737531,0.0077570306669732,0.0045006652362644,0.0016897404566407,0.0069406474940478,-0.1754419049620628,-0.4272305392473936,-9.799310705065729,14936.0
26.5,0.6000000238418579,324.0,24.44253349304199,-0.0477106422185897,-79.78277291223235,40.45899932033482,271.8447178996801,0.0124682066962122,0.0206535346806049,-0.7939627170562744,0.607487678527832,0.0111078668185704,0.0007486982786431,0.008122134906166,-0.0080182319507002,-0.0048579038120806,-0.0036656151060014,-0.1779711729101837,-0.4420451910048723,-9.79911482334137,14936.0
26.6,0.6000000238418579,326.0,24.43001365661621,-0.0636141896247863,-79.78277291507591,40.45899930978759,271.8454585767984,0.0124765252694487,0.0206569414585828,-0.7939577102661133,0.6074939370155334,0.0116811294142274,0.0004270476422672,0.0078058256413146,-0.0009391139028593,-0.0016052711289376,-4.0074803109746426e-05,-0.1746383513510227,-0.4304930663108826,-9.80134144306183,14936.0
26.8,0.5,325.0,24.43752479553223,-0.0636141896247863,-79.78277289881592,40.458999261400045,271.83995039236544,0.0124822678044438,0.0206558797508478,-0.793944239616394,0.6075114607810974,0.0143120318484053,0.0022073490527734,0.0081116406111507,-0.0032196729443967,-0.0025374258402734,-0.0065251132473349,-0.1765019137971103,-0.4259071681648493,-9.79926626622677,14936.0
26.9,0.4000000059604645,326.0,24.44128227233887,-0.0477106422185897,-79.78277290066093,40.45899922492152,271.83466119539736,0.0125095415860414,0.020640093833208,-0.7939346432685852,0.6075239777565002,0.0137059290247443,-0.0010176772092698,0.0082660134353296,-0.0080923335626721,-0.0006346683949232,-0.0082375649362802,-0.1771375244110822,-0.4341886162385345,-9.798694408535958,14936.0
27.1,0.4000000059604645,330.0,24.43001365661621,-0.1033730581402778,-79.78277290650934,40.45899921233188,271.8354112602472,0.0125273782759904,0.0206369422376155,-0.7939271330833435,0.6075335741043091,0.0149619386897562,-0.0015315652456994,0.0080054687841026,0.0076028597541153,-0.0012948961229994,-4.805728167411871e-06,-0.1733295434899628,-0.4352943612635136,-9.801981713175774,14936.0
27.21,0.4000000059604645,331.0,24.43752479553223,-0.0636141896247863,-79.78277291244422,40.45899919968347,271.83614371192454,0.0125061515718698,0.020633352920413,-0.7939188480377197,0.6075449585914612,0.0146170477154912,-0.0014035140557796,0.0079654005136543,-0.0074469652026891,0.0012829640181735,-0.0012715619523078,-0.1760120998509228,-0.4462878575921059,-9.79953056037426,14936.0
27.4,0.4000000059604645,334.0,24.42876052856445,-0.0636141896247863,-79.78277288384474,40.458999148536,271.83078260195254,0.0125011224299669,0.0206369627267122,-0.7939215898513794,0.6075413823127747,0.016305302647856,0.0026799625582917,0.0079304082983969,0.0031750118359923,0.0026262030005455,0.0034048734232783,-0.1745950636826455,-0.4481639367341995,-9.80098827123642,14936.0
27.5,0.4000000059604645,333.0,24.42375373840332,-0.0636141896247863,-79.78277290609263,40.4589991202848,271.82515741360186,0.0125188920646905,0.0206213910132646,-0.7939127087593079,0.6075530052185059,0.0150792912199946,-0.0051305497217311,0.0079777632416076,-0.0040456601418554,-0.0017606421606615,-0.0076719229109585,-0.1772204086929559,-0.426637119948864,-9.798357608914376,14936.0
27.7,0.4000000059604645,334.0,24.43376922607422,-0.055662415921688,-79.78277292789959,40.45899909462725,271.8266005612612,0.0125207928940653,0.0206320323050022,-0.7939112782478333,0.60755455493927,0.0155429911237406,-0.0054692935644489,0.007862928471631,-0.006032817531377,-0.0031210619490593,-0.0038086455315351,-0.17666209096089,-0.4387848931923509,-9.799703637957574,14936.0
27.8,0.4000000059604645,335.0,24.431264877319336,-0.055662415921688,-79.78277288156123,40.45899903376226,271.8218645401001,0.0125388642773032,0.0206594951450824,-0.7939134836196899,0.607550323009491,0.017204971995231,0.0015998961731099,0.0080057103162772,0.000514832441695,-0.0024459683336317,0.0027554247062653,-0.1739860944449901,-0.4311851939186454,-9.801335595846176,14936.0
28.0,0.4000000059604645,335.0,24.431264877319336,-0.0715659633278846,-79.78277285753506,40.45899901561344,271.8169027514457,0.0125452065840363,0.0206512287259101,-0.7939144968986511,0.6075491309165955,0.0124254693642977,0.0010524620667742,0.0077453449611507,-0.0063605615869164,0.0005772576550953,-0.008137684315443,-0.176520241163671,-0.4259394374862313,-9.799041733145712,14936.0
28.11,0.4000000059604645,335.0,24.42250061035156,-0.0715659633278846,-79.78277286045909,40.45899900370468,271.81760619056223,0.0125335212796926,0.0206327382475137,-0.7939177155494691,0.6075458526611328,0.0139248419366176,0.0007296593243292,0.0074907039024938,0.00815115775913,0.0024632131680846,0.0058193001896142,-0.1736177746765315,-0.4447338138520718,-9.801071301698686,14936.0
28.3,0.5,336.0,24.44128227233887,-0.0636141896247863,-79.7827728855562,40.45899896290062,271.8140238918066,0.0125492559745907,0.0206125508993864,-0.7939072847366333,0.607559859752655,0.0146580165184105,-0.0068398896896725,0.0077705675459021,0.003780024126172,0.0029189900960773,0.0003563266363926,-0.174831108469516,-0.4330617481470108,-9.801151408553125,14936.0
28.4,0.5,339.0,24.431264877319336,-0.0477106422185897,-79.78277288367009,40.45899890175113,271.810821259737,0.0125697553157806,0.0206295605748891,-0.7939038872718811,0.607563316822052,0.017961594922366,-0.0059969128023487,0.0086269242166924,-0.0016451284755021,-0.0006079960730858,0.0002142066514352,-0.1761299943365156,-0.426970301605761,-9.80033279836178,14936.0
28.6,0.5,343.0,24.438777923583984,-0.055662415921688,-79.78277289621585,40.45899888673275,271.8115998454094,0.0125730074942111,0.0206181537359952,-0.7938995361328125,0.6075692772865295,0.0193006228661323,-0.0062545278610906,0.0083739729959148,0.0046195229515433,0.0014110386837273,0.0057446123100817,-0.1734228065796196,-0.4487909044325352,-9.800659072995186,14936.0
28.7,0.6000000238418579,346.0,24.4362735748291,-0.0636141896247863,-79.78277290898575,40.45899887170524,271.812355989933,0.0125662414357066,0.0206130854785442,-0.7939032316207886,0.6075647473335266,0.0181778905456215,-0.0065024878640713,0.0083215926037629,-0.008004505187273,-0.0015794306527823,-0.0088578499853611,-0.1773785393312573,-0.4331857456639409,-9.79848741710186,14936.0
28.9,0.6000000238418579,348.0,24.44002914428711,-0.055662415921688,-79.78277287649213,40.45899882620672,271.80957553756235,0.0125526022166013,0.0205898247659206,-0.7938947677612305,0.6075769066810608,0.0156163820504949,-0.0034288437424896,0.0085701496998501,-0.00436707213521,-0.0018846414750441,-0.0019439259776845,-0.1766900479607284,-0.4459165228530765,-9.80012463748455,14936.0
29.01,0.6000000238418579,348.0,24.438777923583984,-0.055662415921688,-79.78277286138001,40.45899879044331,271.80662439239023,0.0125608099624514,0.0205835383385419,-0.7938964962959291,0.6075747013092041,0.014843392751095,-0.004942735262231,0.0086705628214232,-0.0009256078628823,-0.0007524427492171,-0.0027573683764785,-0.1744418300874531,-0.4274294176697731,-9.800841506123543,14936.0
29.2,0.6000000238418579,351.0,24.44253349304199,-0.055662415921688,-79.78277288237146,40.45899876589205,271.80823564004896,0.0125596206635236,0.0205704569816589,-0.7938994765281677,0.6075712442398071,0.0147054397698754,-0.0055914946402378,0.0085996396644071,-0.0041327741928398,-0.0030635893344879,-0.0057731135748326,-0.1764813023619353,-0.4274841256812215,-9.799756847620008,14936.0
29.3,0.699999988079071,355.0,24.431264877319336,-0.055662415921688,-79.7827728465406,40.45899872732093,271.80592368018625,0.0125542255118489,0.0205753687769174,-0.7938927412033081,0.6075800657272339,0.0146067096967001,-0.0032131095575436,0.0086918533720778,0.0075021204538643,0.0003449991345405,0.0050826738588511,-0.1727059744857251,-0.442005978114903,-9.801760103702543,14936.0
29.5,0.8000000119209291,2.0,24.425004959106445,-0.1272283792495727,-79.78277281665406,40.45899867947808,271.80472705733774,0.0125868944451212,0.0205794107168912,-0.7938718795776367,0.6076063513755798,0.0127966028391905,-0.0011199675247594,0.0091114668624125,0.0032643254380673,0.0012395970989018,0.0018520065350458,-0.1738306133262813,-0.4356584966182709,-9.802520241737367,14936.0
29.6,0.8000000119209291,2.0,24.42250061035156,-0.1351801604032516,-79.78277282745844,40.45899865737744,271.80642617714403,0.012600103393197,0.0205830577760934,-0.79388427734375,0.6075899004936218,0.0128051799454477,-0.001963710034785,0.0088672840679756,0.000585637462791,0.0004849592514801,0.000527317286469,-0.1753242845647037,-0.428656894415617,-9.80119994044304,14936.0
29.8,1.0,3.0,24.42375373840332,-0.1431319266557693,-79.78277281375145,40.45899861878953,271.80474359762667,0.0125843612477183,0.0205764658749103,-0.7938822507858276,0.6075930595397949,0.0133214735181456,-0.0042807541589436,0.0092329714988924,0.0011409376747906,-0.0022139099892228,0.0036150072701275,-0.1755938046611845,-0.4509801750630141,-9.800808176994323,14936.0
29.9,1.0,5.0,24.41749382019043,-0.1351801604032516,-79.78277282291181,40.45899860807578,271.8055988646745,0.0125930039212107,0.0205781143158674,-0.7938775420188904,0.6075989603996277,0.0126531770135774,-0.0047979674823224,0.0089471753803274,-0.0031679417006671,-0.0033915273379534,-0.0067120362073183,-0.1767838592268526,-0.4270643321424723,-9.79887976527214,14936.0
30.1,1.2000000476837158,3.0,24.42375373840332,-0.1431319266557693,-79.78277279577084,40.45899856267925,271.80317995917795,0.0125768221914768,0.0205695424228906,-0.7938790321350098,0.6075977087020874,0.0116598665341935,-0.0029507509286353,0.0058407258413403,-0.0048047443851828,-0.006575068924576,-0.0039242398925125,-0.1768081617169082,-0.4267074692621827,-9.799420632719992,14936.0
30.2,1.2000000476837158,3.0,24.42124938964844,-0.1272283792495727,-79.7827727657898,40.45899850091865,271.8025873250961,0.0125972228124737,0.0205946397036314,-0.7938834428787231,0.6075904965400696,0.0146825677293353,-0.0003683321520604,0.0074361085804481,-0.0077054733410477,-0.0023907122667878,-0.0054690232500433,-0.17695770425722,-0.4355881473049521,-9.799858589172365,14936.0
30.4,1.2000000476837158,355.0,24.425004959106445,-0.1351801604032516,-79.78277277122574,40.45899848733089,271.80325909924505,0.0126025136560201,0.0205891821533441,-0.7938870787620544,0.6075859665870667,0.0159547500319209,-0.0010077401190334,0.0073116558899926,0.005629455205053,0.002476978348568,0.0039420840330421,-0.1744177468679845,-0.4333945643529296,-9.802803831696512,14936.0
30.51,1.2000000476837158,352.0,24.42250061035156,-0.1113248318433761,-79.78277274944126,40.45899845490497,271.80241052281855,0.0125916609540581,0.0205708276480436,-0.7938926219940186,0.6075795292854309,0.0143457597595111,-0.0036061508537308,0.0085719087577613,-0.002431207569316,-0.0016787445638328,0.0041412198916077,-0.175176203828305,-0.4481093749031425,-9.801896928548814,14936.0
30.7,1.2000000476837158,344.0,24.426258087158203,-0.1431319266557693,-79.78277276783403,40.45899843114088,271.8039793617725,0.0126156061887741,0.0205632895231246,-0.7938914895057678,0.6075807213783264,0.0152877214730829,-0.004753560176606,0.0082712769569304,0.0106516033411026,0.0043705264106392,0.0031490356195718,-0.1717893503420055,-0.442917010858655,-9.802181687951087,14936.0
30.81,1.2000000476837158,340.0,24.426258087158203,-0.1431319266557693,-79.78277270869344,40.45899838044752,271.8031779922247,0.0126124545931816,0.0205728206783533,-0.7938789129257202,0.6075969338417053,0.0150838253047282,0.0017382404127245,0.0088491145492838,-0.0048165386542677,0.0008065945003181,-0.0079053184017539,-0.1753036000393331,-0.4404450273513794,-9.799038224816323,14936.0
31.01,1.100000023841858,331.0,24.426258087158203,-0.1272283792495727,-79.78277268772342,40.45899833433521,271.8034212089777,0.0126022547483444,0.0205728095024824,-0.7938764691352844,0.6076002717018127,0.0148718668805565,-0.0019148386689581,0.0088608818855922,-0.0004346636414993,0.0004486835678108,0.0037424229085445,-0.1745229419320821,-0.4521477178484202,-9.79950366318226,14936.0
31.11,1.100000023841858,324.0,24.41498947143555,-0.1669872552156448,-79.78277270204214,40.45899830860413,271.80503394675253,0.0125961685553193,0.0205693282186985,-0.7938816547393799,0.607593834400177,0.0157593962915365,-0.0029040711891576,0.0084860731483095,0.005230292212218,0.0023457268252968,0.0100137563422322,-0.1751704479753971,-0.4467303456366062,-9.801128019690514,14936.0
31.3,1.100000023841858,317.0,24.427509307861328,-0.1192766055464744,-79.7827726448906,40.458998276872784,271.80590994131563,0.0125962570309638,0.0205748900771141,-0.7938627600669861,0.6076182723045349,0.0123125518118723,0.0012950962098104,0.011685582346754,-0.0077121593058109,-0.0012039772700518,-0.0033250781707465,-0.1778517069853842,-0.4401963379606605,-9.799107806682589,14936.0
31.41,1.0,311.0,24.42375373840332,-0.1113248318433761,-79.78277264781289,40.45899826482246,271.8070025093555,0.0125865582376718,0.0205843914300203,-0.7938611507415771,0.6076202392578125,0.0134281888877653,0.0005358470987797,0.0114274396917222,0.001849572174251,-0.0005573030211962,0.0030883662402629,-0.1753753197938204,-0.4337000448256732,-9.80154784977436,14936.0
31.6,0.8999999761581421,296.0,24.42124938964844,-0.1590354740619659,-79.78277265825538,40.45899822743022,271.80749335360525,0.0125877279788255,0.0205948688089847,-0.7938517928123474,0.6076322197914124,0.0137110160458977,-0.0068513269503754,0.0106775120496433,-0.0051948949694633,-0.0016971860313788,-0.0037998761981725,-0.1761174410954117,-0.4265532124042512,-9.80050002872944,14936.0
31.7,0.8999999761581421,294.0,24.41749382019043,-0.1033730581402778,-79.78277259373084,40.45899815327054,271.80825143527983,0.0125589845702052,0.0206272453069686,-0.7938415408134459,0.6076450347900391,0.0187865490504006,0.0023378174698992,0.0105556941769233,-0.0031890445388853,-0.0017704940401017,-0.0046217106282711,-0.1763244142569601,-0.4404283993318677,-9.7988552069664,14936.0
31.9,0.8000000119209291,284.0,24.42876052856445,-0.1272283792495727,-79.7827725972427,40.45899813554161,271.80920241248606,0.0125667173415422,0.0206271409988403,-0.7938379049301147,0.6076496839523315,0.0194288692946182,0.0017388964056941,0.0103092847088816,0.0035886149853467,0.0020136332605034,-3.14361896016635e-05,-0.1759033599123358,-0.4274927137792111,-9.800021726489067,14936.0
32.0,0.699999988079071,279.0,24.41373634338379,-0.1510837078094482,-79.78277258471594,40.45899808069091,271.81164647114275,0.0125612281262874,0.0206258594989776,-0.7938284277915955,0.6076620817184448,0.0198462685431167,-0.0005000143085453,0.0133762761353305,-0.0096207503229379,-0.0035709168296307,-0.0086434353142976,-0.1773180389218032,-0.4290950701385737,-9.799175634384156,14936.0
32.21,0.6000000238418579,268.0,24.412485122680664,-0.1351801604032516,-79.78277259166906,40.45899806231108,271.8128788269758,0.0125560266897082,0.0206254366785287,-0.7938346266746521,0.6076541543006897,0.0212730713714571,-0.0009222907748866,0.0131196346578587,0.00803745072335,0.0008748963009566,0.005054994020611,-0.1727758487127721,-0.4388881330937147,-9.80162561774254,14936.0
32.3,0.6000000238418579,267.0,24.41373634338379,-0.1510837078094482,-79.78277253858383,40.45899803386825,271.81257542443274,0.0125512843951582,0.0206510759890079,-0.7938179969787598,0.6076750755310059,0.0168959303377535,0.0029285371825905,0.0123685370944677,-0.0032704372424632,0.0015800945693627,-0.0023326973896473,-0.1764201075956225,-0.4442832493409515,-9.799967932105067,14936.0
32.51,0.5,276.0,24.42124938964844,-0.1113248318433761,-79.78277254137541,40.4589980076993,271.8117832340002,0.0125511586666107,0.0206540208309888,-0.7938296794891357,0.6076598167419434,0.0137526974885407,-0.0050805968276146,0.0075447265067694,0.0023978648241609,0.0005480627296492,0.006157043389976,-0.174521918669343,-0.4490835941210389,-9.800392439961431,14936.0
32.6,0.5,280.0,24.43251800537109,-0.0795177370309829,-79.78277255153364,40.45899799694179,271.8124783284664,0.0125488974153995,0.020659664645791,-0.7938287854194641,0.6076608300209045,0.012850342835099,-0.00549314537399,0.0074137386429306,-0.0077938544563949,-0.0010392933618277,-0.0068549294956028,-0.1772312991321087,-0.4289046336337925,-9.79938321053982,14936.0
32.8,0.699999988079071,294.0,24.425004959106445,-0.0795177370309829,-79.78277251655517,40.458997942151406,271.8136799879074,0.0125580821186304,0.020670847967267,-0.7938209176063538,0.6076705455780029,0.0156564587157635,-0.0012237963963705,0.0085874107443293,-0.0088386442512273,-0.0025379643775522,-0.004451893735677,-0.1768732302635908,-0.4397758866101504,-9.799404845237731,14936.0
32.91,0.6000000238418579,313.0,24.416240692138672,-0.1192766055464744,-79.78277247253897,40.45899789076319,271.8147281951904,0.0125675732269883,0.0206812303513288,-0.7938301563262941,0.6076578497886658,0.0167989733415037,0.0026997395026074,0.0089908676054912,-7.664438453502953e-05,0.0009660461219027,0.0005709799006581,-0.1759720281511545,-0.4486001390218735,-9.800604693889616,14936.0
33.1,0.6000000238418579,6.0,24.426258087158203,-0.0795177370309829,-79.78277247489696,40.45899787506761,271.8155358828306,0.0125666344538331,0.020693939179182,-0.7938283681869507,0.6076597571372986,0.0166377198559898,0.0023945873300189,0.008867223648729,-0.0072335638105869,0.0002989155764225,-0.0066622048616409,-0.1754306856170296,-0.4258167190477252,-9.800859632492068,14936.0
33.2,0.699999988079071,22.0,24.43752479553223,-0.055662415921688,-79.78277247738812,40.458997859023256,271.81633936834334,0.0125496201217174,0.0206947941333055,-0.7938341498374939,0.6076526045799255,0.0181543222965622,0.0022390414122786,0.0088517426861562,0.0050467457622289,0.0026868227869272,0.0069946660660207,-0.1728309404477477,-0.4450288058817387,-9.802537783384324,14936.0
33.4,0.6000000238418579,50.0,24.43752479553223,-0.0477106422185897,-79.78277252308455,40.4589978237479,271.8175921536684,0.0125466370955109,0.0206825900822877,-0.7938342094421387,0.6076529026031494,0.0181563915200266,-0.0088467616895758,0.0090860352526315,0.0040141972713172,0.0052127409726381,-0.0006364661967381,-0.1744812805205583,-0.432469644472003,-9.801553696990013,14936.0
33.51,0.699999988079071,56.0,24.4362735748291,-0.0477106422185897,-79.7827724495381,40.45899775911761,271.81900102865694,0.0125193279236555,0.0207276679575443,-0.7938243746757507,0.6076648235321045,0.0194526963689551,0.0028239964967502,0.0096532341349735,-0.00619233911857,-0.0001371420512441,-0.0057792994193732,-0.1756719928979873,-0.4484638258069754,-9.801113401651383,14936.0
33.71,0.8000000119209291,60.0,24.425004959106445,-0.0874695107340812,-79.7827724525229,40.458997740282335,271.81986791861056,0.0125217670574784,0.0207446608692407,-0.7938157320022583,0.6076754927635193,0.0210649724360994,0.0025957560314602,0.009546658856698,0.0069989576004445,0.0022393683902919,0.0070607722736895,-0.1737598254717886,-0.4418191595748067,-9.802745359539989,14936.0
33.81,1.0,57.0,24.43376922607422,-0.055662415921688,-79.78277244599917,40.458997728951424,271.82081396353243,0.0125197321176528,0.0207335893064737,-0.7938088178634644,0.6076850295066833,0.0164373148785922,-0.0017248848142995,0.0099965748491124,-0.0029738559387624,-0.0035091100726276,0.0010306424228474,-0.1768003776110708,-0.4441599461808801,-9.800210591554643,14936.0
34.0,1.100000023841858,58.0,24.43376922607422,-0.0715659633278846,-79.78277246072827,40.45899769970685,271.8226323671341,0.0125282481312751,0.0207571387290954,-0.7938232421875,0.6076651811599731,0.0176534855287831,-0.0020523002057494,0.009818380767707,0.0010940295178443,0.0016036860179156,0.004553189035505,-0.1749842689745128,-0.4510379163175822,-9.801562467813492,14936.0
34.1,1.100000023841858,61.0,24.431264877319336,-0.0715659633278846,-79.78277239308329,40.45899765386017,271.8252430356741,0.0125337513163685,0.0207747612148523,-0.7938249707221985,0.6076622605323792,0.0183133114474964,0.0049767839598434,0.0124068058449408,-0.0034522030036896,-0.0035224694292992,-0.0056326757185161,-0.1763617816194892,-0.4270997808873654,-9.800451496839525,14936.0
34.3,1.100000023841858,66.0,24.43001365661621,-0.0874695107340812,-79.78277233475119,40.45899763918855,271.8305848933458,0.0125131523236632,0.0207857862114906,-0.7938277721405029,0.6076586246490479,0.0102870209696486,0.0080743563782375,0.0165949671415146,-0.0075934655033051,-0.0024586671497672,-0.0075524458661675,-0.1770689475350082,-0.4314513518661261,-9.79957733809948,14936.0
34.4,1.2000000476837158,68.0,24.426258087158203,-0.055662415921688,-79.7827723273487,40.45899761043452,271.8375259138345,0.0125274704769253,0.0207701548933982,-0.7938295602798462,0.6076563596725464,0.0112435126668875,0.001666610399705,0.0223128540689988,-0.0041621760465204,-0.0014172930968925,-0.0027483629528433,-0.176554209832102,-0.4405804269388318,-9.79941361606121,14936.0
34.6,1.2000000476837158,75.0,24.4362735748291,-0.0874695107340812,-79.78277232906088,40.458997598886384,271.8396873421669,0.0125380866229534,0.0207767896354198,-0.7938275337219238,0.6076586246490479,0.0119112780269438,0.0013963088677624,0.0221054596266315,-0.0012037570122629,0.0014918406959623,0.0008553767693229,-0.1754032950662076,-0.4287193865329028,-9.801363077759744,14936.0
34.71,1.2999999523162842,78.0,24.4362735748291,-0.055662415921688,-79.78277232314639,40.45899752957765,271.8472966350317,0.0125763937830925,0.0208035968244075,-0.7938250303268433,0.607660174369812,0.0199158672717823,6.095271461530917e-05,0.0262147058298362,-0.0074762450531125,-0.0012762193800881,-0.0066182124428451,-0.1773253479413688,-0.4281657283008099,-9.800448573231698,14936.0
34.9,1.399999976158142,81.0,24.4362735748291,-0.055662415921688,-79.78277232941294,40.45899751041568,271.8498195655346,0.0125638488680124,0.0208056438714265,-0.7938171625137329,0.6076707243919373,0.0216140780723351,-0.0001850442093026,0.0261025455072441,0.0036866671871393,0.003946220036596,0.0075553706847131,-0.1737591676600277,-0.4391940155625344,-9.802458845973016,14936.0
35.0,1.5,80.0,24.435022354125977,-0.055662415921688,-79.78277227047823,40.45899753434972,271.85273955237864,0.0125261954963207,0.0207886174321174,-0.7938089370727539,0.6076827645301819,0.0060873832210008,0.0031424030223202,0.0185886200250612,0.0002792948507703,-0.0035039442591369,-0.0005936002125963,-0.177791023850441,-0.4437436244264245,-9.799965593218804,14936.0
35.2,1.600000023841858,79.0,24.426258087158203,-0.0795177370309829,-79.78277226871757,40.4589975271112,271.8545663602352,0.0125252651050686,0.0207940805703401,-0.7938100099563599,0.6076812744140625,0.0073914610194271,0.0031245773658189,0.0186647659946469,0.0031162407249212,0.0014399415813386,0.002599962754175,-0.1757304833270609,-0.4484604636579752,-9.802028490900994,14936.0
35.3,1.600000023841858,81.0,24.426258087158203,0.0715659633278846,-79.78277226020792,40.458997512177454,271.8570483572483,0.012528377585113,0.0207863114774227,-0.7938032150268555,0.6076903343200684,0.0079060727830387,0.0002572474931662,0.0164430717537681,-0.0077616921626031,-0.0026337194722145,-0.0070203002542257,-0.1776821925491094,-0.4316401072964072,-9.79921831905842,14936.0
35.5,1.7000000476837158,80.0,24.42375373840332,-0.055662415921688,-79.78277225721712,40.45899746109487,271.8631884701252,0.0125326588749885,0.0207990873605012,-0.7937958240509033,0.6076995134353638,0.0172687728874491,-0.0005149706309778,0.0185098235540668,-0.0028151469305157,-0.0054305181838572,0.0019536665640771,-0.177923536375165,-0.4478259311243892,-9.801113401651383,14936.0
35.61,1.7000000476837158,80.0,24.43251800537109,-0.0159035474061965,-79.78277226321066,40.45899744511365,271.86494595777987,0.0125415241345763,0.0207902658730745,-0.793797492980957,0.6076974868774414,0.0175022608090646,-0.0005935478591543,0.0182772243711303,0.0007244272856041,0.0007260442944243,-0.0050629302859306,-0.1753986355662345,-0.4271801801025868,-9.800498859286307,14936.0
35.8,1.8999999761581416,81.0,24.43251800537109,0.0318070948123931,-79.78277224437555,40.45899743274815,271.87168441188334,0.0125469211488962,0.020785791799426,-0.7937917709350586,0.6077048182487488,0.0108747532758491,-0.0003840930988327,0.0189648762408228,-0.0053752604871988,-0.0036671804264187,-0.0089284088462591,-0.1768694113008678,-0.4298673046007753,-9.798800827860832,14936.0
35.9,2.0,83.0,24.431264877319336,0.0238553211092948,-79.78277224837403,40.458997421805016,271.8735211737156,0.0125405332073569,0.0207900982350111,-0.7937921285629272,0.6077042818069458,0.0126304436741404,-0.0004783619407442,0.0188025395670302,0.0081772161647677,-0.0001057216359185,0.0073675462044775,-0.1718967563845217,-0.4432978107780218,-9.802478726506234,14936.0
36.0,2.200000047683716,82.0,24.435022354125977,0.0238553211092948,-79.78277222590758,40.45899739460528,271.8788877971172,0.0125320190563797,0.0207959823310375,-0.7937914133071899,0.6077053546905518,0.0144603706350489,0.0018421734840602,0.0199725980163054,-0.0081047024577856,0.000390504108509,-0.0016790883382782,-0.1766687056235969,-0.4395970349013806,-9.799815319776538,14936.0
36.2,2.299999952316284,80.0,24.427509307861328,0.0477106422185897,-79.78277221241949,40.458997366188655,271.88824295473097,0.0125124109908938,0.0208122618496418,-0.7937933802604675,0.6077025532722473,0.0109143048934865,0.0011761569778772,0.0200711190549682,-0.003578852629289,-0.0019490770064294,-0.0068410197272896,-0.1776556608080864,-0.4275898506492377,-9.80115082383156,14936.0
36.41,2.400000095367432,81.0,24.431264877319336,0.0636141896247863,-79.78277221442963,40.45899735488793,271.8901970334053,0.0125269517302513,0.0208278615027666,-0.7937912344932556,0.6077045202255249,0.0124372409582507,0.0011988367087191,0.0201835982076153,0.0080033410340547,0.0011376409092918,0.0063681262545287,-0.1760973961092531,-0.4515655544400216,-9.803127182722092,14936.0
36.51,2.5,81.0,24.426258087158203,0.0318070948123931,-79.78277219638753,40.45899734445282,271.89603906345366,0.0125501370057463,0.0208241119980812,-0.7937934398651123,0.6077014207839966,0.010662753360344,0.0017419837299943,0.0206524585742542,-0.0079090045765042,-0.0022895173169672,-0.0041995029896497,-0.1770042444393038,-0.4270449266955257,-9.800737425684927,14936.0
36.7,2.700000047683716,80.0,24.431264877319336,0.0318070948123931,-79.78277219922617,40.45899732172448,271.9000361807346,0.0125459246337413,0.0208118818700313,-0.7937974333763123,0.6076966524124146,0.0113592682078096,0.00175721584458,0.0205612469751874,-0.0088152084499597,-0.0031970627605915,-0.0084457909688353,-0.1773251469433307,-0.4342697463557124,-9.79849618792534,14936.0
36.8,2.799999952316284,80.0,24.427509307861328,0.0238553211092948,-79.78277218127438,40.45899729732465,271.9062755651474,0.012542026117444,0.0208116229623556,-0.7937947511672974,0.6077002286911011,0.0161135243116289,0.0030221382094793,0.0208579807108825,0.0059580616652965,0.004988289438188,0.0041283657774329,-0.1717497537285089,-0.4421216798946261,-9.803065786957742,14936.0
37.0,3.0,81.0,24.431264877319336,0.0238553211092948,-79.78277216487419,40.458997278606965,271.9131132609844,0.0125483609735965,0.0208213310688734,-0.7938013672828674,0.6076909899711609,0.0136987829089603,0.002884822431205,0.0172143198359736,0.0054799653589725,0.0025224494747817,0.001537746633403,-0.173991850297898,-0.4379514456912875,-9.802143681049348,14936.0
37.1,3.0999999046325684,83.0,24.42375373840332,0.0,-79.78277216554036,40.45899726524068,271.914778942585,0.0125260753557086,0.0208250805735588,-0.7937943339347839,0.6077006459236145,0.0140755690262545,0.003132118810794,0.0174434264247039,-0.0048449309542775,0.0017934712814167,0.000626774970442,-0.177682064641267,-0.448109045997262,-9.801059607267383,14936.0
37.3,3.400000095367432,86.0,24.42124938964844,0.0079517737030982,-79.78277217251596,40.458997265382905,271.9214630670548,0.012513805180788,0.0208154674619436,-0.7937886118888855,0.607708752155304,0.010966287044904,-0.00066796751642,0.0149743208603458,0.0018184820655733,0.0008257673471234,0.0080569759011268,-0.170549046266824,-0.4525128399208188,-9.802501530647278,14936.0
37.41,3.900000095367432,84.0,24.43001365661621,-0.0079517737030982,-79.78277217709315,40.45899725543604,271.92291891050337,0.0125270718708634,0.0208064541220664,-0.7937833070755005,0.6077156662940979,0.0104692855668936,-0.0008546861787502,0.015045290440602,-0.0074226264841854,-0.0079496949911117,-0.0046984488144516,-0.1746605707705021,-0.4360351303964853,-9.799915307164191,14936.0
37.61,4.0,83.0,24.43001365661621,0.0159035474061965,-79.78277218925662,40.458997223212215,271.93184130859373,0.0125176468864083,0.0208085719496011,-0.7937774658203125,0.6077234148979187,0.0155960573583948,-0.0020323520991139,0.0177866807628781,-0.0005037816008552,-0.0005777188926003,0.0023479911033064,-0.1738158491067588,-0.4507701869308949,-9.802200399041176,14936.0
37.7,4.0,83.0,24.42876052856445,0.0318070948123931,-79.78277215578515,40.45899720525279,271.939141149044,0.0125170666724443,0.0208064746111631,-0.7937760353088379,0.6077253222465515,0.0137485720303158,0.004674680518316,0.0162501691531779,0.0068126954138278,0.0042886403389275,0.0095739886164665,-0.1727646476402878,-0.4471203183755279,-9.804527590870856,14936.0
37.9,4.199999809265137,82.0,24.418745040893555,0.0238553211092948,-79.78277215468295,40.4589971922852,271.9406756110191,0.0125244092196226,0.0207915399223566,-0.7937746644020081,0.6077274680137634,0.0129915788335191,0.0047312345316153,0.0162824483187119,-0.006637864280492,-0.0001375415595248,-0.0103295817971229,-0.1736827335879206,-0.4271474356949329,-9.801310452818871,14936.0
38.02,4.199999809265137,80.0,24.426258087158203,0.0238553211092948,-79.78277219395012,40.45899719425317,271.94625669193266,0.0125342505052685,0.0207939241081476,-0.7937943339347839,0.6077015399932861,0.0142610844925832,-0.005215995900965,0.0141011389103863,0.0096165975555777,0.0064414110966026,0.0038062559906393,-0.1713036842644214,-0.4394552764669061,-9.803691439032557,14936.0
38.2,4.300000190734863,84.0,24.43376922607422,0.0238553211092948,-79.7827722132009,40.45899717092574,271.9489525802136,0.0125338258221745,0.0208070054650306,-0.7937885522842407,0.6077086329460144,0.0149226548273619,-0.0050637425675217,0.0140693507918491,0.0041413740254938,0.0031880808528512,-0.0020651114173233,-0.1755392976477742,-0.4265293119102717,-9.800849107503891,14936.0
38.3,4.400000095367432,83.0,24.42876052856445,0.0318070948123931,-79.78277222263955,40.45899715133308,271.95659207773207,0.0125277619808912,0.0207937620580196,-0.7937839031219482,0.6077152490615845,0.0173040796790412,-0.0048586637329645,0.0168274658756916,-0.0026374021545052,-0.0025109644047915,-0.0001616747613297,-0.1772958377748728,-0.4432207371667028,-9.799067460894586,14936.0
38.4,4.599999904632568,84.0,24.431264877319336,-0.0079517737030982,-79.78277223307079,40.45899713679052,271.95819892954825,0.012537426315248,0.0208015963435173,-0.7937802672386169,0.6077196598052979,0.0172509843615429,-0.0043329668277941,0.0165506823068853,-0.0038439203053712,-0.0003315418725833,-0.0030537045095115,-0.1736242066137492,-0.4237407016754151,-9.79969428241253,14936.0
38.6,4.5,83.0,24.43376922607422,-0.0477106422185897,-79.78277223337508,40.458997120009016,271.9674855120182,0.0125129763036966,0.0207865722477436,-0.7937641739845276,0.60774165391922,0.0146784323185904,-0.002272399941596,0.0183712028452375,-0.0062820669263601,-0.0006504476768895,-0.0073855556547641,-0.1796334997750819,-0.4160199650377036,-9.801538494229318,14936.0
38.8,4.300000190734863,77.0,24.438777923583984,-0.0715659633278846,-79.7827722329928,40.45899710777639,271.9753079957962,0.0125094391405582,0.0207912493497133,-0.7937602996826172,0.6077466011047363,0.0123025501938008,-0.000660560955735,0.0153627467537164,-0.0066877882927656,0.0007662589778192,-0.0082634752616286,-0.1824952915683388,-0.4247888881713152,-9.800188956856726,14936.0
38.92,4.300000190734863,75.0,24.431264877319336,-0.0477106422185897,-79.78277223689116,40.458997096246826,271.9767644948959,0.0125020779669284,0.0207980535924434,-0.7937619686126709,0.6077443361282349,0.0133820960388552,-0.0001495219491008,0.0150910803491632,0.0081475768238306,0.0022795079275965,0.0072938306257128,-0.171810254137963,-0.4370956691354513,-9.802411483526232,14936.0
39.1,3.900000095367432,78.0,24.431264877319336,-0.0715659633278846,-79.78277223727272,40.45899707986893,271.9873607404232,0.0124807273969054,0.020806772634387,-0.7937611937522888,0.6077454090118408,0.0121073995289622,0.0006992629966265,0.0175271526162712,0.0031121314968913,0.0029747677035629,0.0011385572142899,-0.1736594360880553,-0.4300691066309809,-9.800746196508408,14936.0
39.2,3.900000095367432,78.0,24.431264877319336,-0.055662415921688,-79.78277222758322,40.45899705271478,271.99630176496504,0.0124851642176508,0.0207993853837251,-0.7937479615211487,0.60776287317276,0.0127982830085244,0.0042467347602153,0.0164212574212465,0.0008598670829087,0.0001634188665775,-0.0025380365550518,-0.1727078017406165,-0.4254855839163065,-9.801342612504962,14936.0
39.4,3.900000095367432,78.0,24.435022354125977,-0.0477106422185897,-79.7827722268408,40.458997039538005,271.9978833146095,0.0124863879755139,0.0208082683384418,-0.7937414050102234,0.6077712178230286,0.0135595421663356,0.004051735809685,0.0165513089600051,0.002610184950754,0.0009196682367473,0.0058867149055004,-0.1744017401151359,-0.4493027916178107,-9.801377111077311,14936.0
39.5,3.799999952316284,78.0,24.4362735748291,-0.0477106422185897,-79.78277225458436,40.45899700015476,272.00868489813803,0.0124828331172466,0.0208163447678089,-0.7937400341033936,0.6077726483345032,0.0176682237800245,0.0004402751515701,0.018734934407987,-0.0010200290707871,-0.0001676037936704,0.0049345730803906,-0.1774324981682002,-0.425486753359437,-9.800899393558502,14937.0
39.7,3.700000047683716,76.0,24.43251800537109,-0.0079517737030982,-79.78277225919459,40.45899698407396,272.01047592830656,0.0125073995441198,0.0208315849304199,-0.7937462329864502,0.6077635884284973,0.0173671864234411,0.0003030025756203,0.0186989172364601,-0.0015363177517428,-0.0019206026336178,-0.0042844340205192,-0.1789920419454574,-0.4256802596524358,-9.800650886893274,14937.0
39.81,3.5999999046325684,76.0,24.43376922607422,-0.0477106422185897,-79.7827722806031,40.45899696490572,272.01795124483107,0.0125164529308676,0.0208215080201625,-0.7937441468238831,0.6077665090560913,0.0199804827247894,-0.0010110179966007,0.0160039742019405,0.0028934855945408,-0.0006071029347367,0.0040561477653682,-0.1717617405205965,-0.4505167101323605,-9.801120418310166,14937.0
40.0,3.5999999046325684,74.0,24.43376922607422,-0.055662415921688,-79.78277230434466,40.45899694861111,272.029470587492,0.0125317508354783,0.0208051372319459,-0.7937352657318115,0.6077783703804016,0.0166603510151388,-0.0041672006160496,0.0186639748280891,-0.002973954193294,-0.0021036451216787,0.0028585409745574,-0.1775541567988693,-0.4473197449743748,-9.802216771245003,14937.0
40.11,3.5,74.0,24.43376922607422,-0.0715659633278846,-79.78277231406369,40.458996934185535,272.0312553293705,0.0125520098954439,0.0208096802234649,-0.7937302589416504,0.6077842116355896,0.0166296406138554,-0.0039763833397316,0.0184348260039962,0.0040819635614752,0.0009449177305214,0.0016656783409416,-0.1715435845591127,-0.4311494893580675,-9.80162678718567,14937.0
40.3,3.400000095367432,74.0,24.44128227233887,-0.0477106422185897,-79.78277232431081,40.45899690065885,272.04295023751257,0.0125531191006302,0.0208123959600925,-0.7937405109405518,0.6077708005905151,0.0180259790822226,-0.0024639633277608,0.0195631738514218,0.0031072665005922,0.0004653363139368,0.0013048668624833,-0.1793195773847401,-0.432460288926959,-9.80197352707386,14937.0
40.4,3.400000095367432,73.0,24.43752479553223,-0.0477106422185897,-79.78277235230385,40.45899688510964,272.0539104588032,0.0125364856794476,0.0208029672503471,-0.7937266826629639,0.6077895164489746,0.0131970338064228,-0.0053576156422496,0.0165549471016776,0.0078558772802352,0.0018622640054672,0.0051728640682995,-0.174830468930304,-0.4496052023023367,-9.799036470651629,14937.0
40.6,3.299999952316284,74.0,24.42876052856445,-0.055662415921688,-79.78277236196033,40.45899687429746,272.05552249622343,0.0125269247218966,0.0207931157201528,-0.7937340140342712,0.6077805161476135,0.0123736012282433,-0.0047975548606545,0.0167019660302403,-0.0064958930015563,-0.0032523432746529,-0.0014797203475609,-0.176005265917629,-0.4415086358785629,-9.799513603448869,14937.0
40.8,3.299999952316284,72.0,24.425004959106445,-0.055662415921688,-79.78277236554423,40.458996852380096,272.0667373485565,0.0125404438003897,0.0208252165466547,-0.7937147617340088,0.6078042387962341,0.0118577299073009,-0.0023126044277961,0.0152460674292202,-0.0081605501472949,-0.0030380964744836,-0.0061737680807709,-0.1761343432031571,-0.4250501856207848,-9.798629504442218,14937.0
40.9,3.299999952316284,71.0,24.43251800537109,-0.0477106422185897,-79.7827723720128,40.45899684116009,272.06820597720144,0.0125353829935193,0.0208391379565,-0.7937138676643372,0.607805073261261,0.0136933944272886,-0.0021525626449432,0.0151282007507044,0.0075544421561062,0.0024448994081467,0.0058596516028046,-0.1715678322315216,-0.4526074186339975,-9.801666548252106,14937.0
41.0,3.299999952316284,71.0,24.43376922607422,-0.055662415921688,-79.78277236532743,40.45899682779943,272.0782326705456,0.0125566162168979,0.0208255406469106,-0.793704628944397,0.6078171133995056,0.0118065257092699,-8.574110088803866e-05,0.0137776781548607,0.0051812618039548,-0.0007204760913737,-0.0065446193329989,-0.174694557711482,-0.4248314632102848,-9.799096112251284,14937.0
41.21,3.5,71.0,24.426258087158203,-0.0477106422185897,-79.78277237252543,40.45899680531981,272.08085908961294,0.0125433653593063,0.0208753198385238,-0.7937041521072388,0.6078162789344788,0.0134865184741217,0.0001253878441739,0.0136242038571349,0.0073442491702735,0.0043023796752095,0.0046167438849806,-0.1702082815021276,-0.4373256474360824,-9.80256643474102,14937.0
41.3,3.5,70.0,24.42375373840332,-0.055662415921688,-79.78277238634699,40.458996775521605,272.0925362355709,0.0125502869486808,0.0208992063999176,-0.793691873550415,0.6078314185142517,0.0152248147526557,-0.0013598310770363,0.0165274832682082,-0.0091214003041386,-0.0045160399749875,-0.008222222328186,-0.1788922372832894,-0.4307018484547734,-9.798179268836977,14937.0
41.5,3.5,68.0,24.42876052856445,-0.0715659633278846,-79.78277239041927,40.45899674078722,272.10481348109244,0.012581842020154,0.0208851173520088,-0.7936918139457703,0.6078312397003174,0.0144500882873993,-0.0001594780358481,0.0150697056135063,-0.0043202815577387,-7.568659930257127e-05,-0.0077609121799468,-0.1771122169308364,-0.4236334052681923,-9.799384379982945,14937.0
41.6,3.5,68.0,24.42124938964844,-0.055662415921688,-79.78277239482395,40.45899672709216,272.10624783706663,0.0125759812071919,0.0209067445248365,-0.7936992645263672,0.6078210473060608,0.0156439749603115,6.908360114785997e-06,0.0150678766149291,-9.543231271891273e-07,-0.0013752152444794,0.0039748563431203,-0.1774995584227144,-0.4509342013299466,-9.801468327641487,14937.0
41.8,3.5999999046325684,68.0,24.42250061035156,-0.055662415921688,-79.78277241519348,40.45899666076253,272.1210935957432,0.0125964051112532,0.0209423061460256,-0.7936971187591553,0.6078221797943115,0.0227697702813988,-0.0008458605902191,0.0186469979038772,-0.0065105869434773,-0.0031560147181153,-0.0049542072229087,-0.1810151602886617,-0.4357333409786225,-9.799649258852003,14937.0
41.9,3.5999999046325684,68.0,24.43251800537109,-0.055662415921688,-79.78277242283806,40.45899663980372,272.1228306837082,0.0125948619097471,0.0209438763558864,-0.7936981320381165,0.6078208088874817,0.0244033685310164,-0.0005117562559654,0.0183746765306675,0.0091198552399873,0.0066187912598252,0.0084137683734297,-0.1722477537766099,-0.4447475548088551,-9.80226881146431,14937.0
42.1,3.700000047683716,71.0,24.42876052856445,-0.0795177370309829,-79.78277238607116,40.45899663510167,272.13564124178885,0.0126005029305815,0.020946692675352,-0.7937001585960388,0.6078178286552429,0.013047340974728,0.0046127624053219,0.0150438107992017,0.0083825876936316,0.0023890729062259,0.0043111150152981,-0.1743160966783762,-0.4492689143121243,-9.800908749103549,14937.0
42.2,3.700000047683716,73.0,24.43001365661621,-0.0636141896247863,-79.7827723844022,40.45899662258822,272.13708012771605,0.0126084582880139,0.0209539756178855,-0.7937060594558716,0.607809841632843,0.0123390973548037,0.0048959428407996,0.015035297950164,-0.0021607130765914,-0.0029459174256771,-0.0080834422260522,-0.1762668009102344,-0.4230951325222849,-9.798958117961885,14937.0
42.4,3.700000047683716,74.0,24.435022354125977,-0.0636141896247863,-79.78277238199605,40.45899658643376,272.1502773411274,0.0126185258850455,0.0209682676941156,-0.7936955690383911,0.6078227162361145,0.01300053036436,0.0043098964082117,0.0143292321850199,-0.0030353956390172,-0.0004078350029885,-0.0053327735513448,-0.1776985830254852,-0.4249404772371054,-9.80017901659012,14937.0
42.5,3.5999999046325684,72.0,24.43001365661621,-0.055662415921688,-79.78277238051753,40.45899655194534,272.16246222925184,0.0126313334330916,0.0209590774029493,-0.7936902642250061,0.6078298091888428,0.0162188718749851,0.0051373062705234,0.0139955007374142,0.0021904974710196,0.0012483976315706,0.004099859856069,-0.1713938958384096,-0.4512961439788342,-9.800956696271896,14937.0
42.7,3.400000095367432,73.0,24.427509307861328,-0.0238553211092948,-79.7827723789993,40.45899651958125,272.16506963443754,0.0126301264390349,0.0209696535021066,-0.7937146425247192,0.6077975034713745,0.0180224363237625,0.0050144191607775,0.0138591962567794,0.0016418935265392,0.0029462047386914,0.0072288480587303,-0.1785399242676794,-0.4486631793156266,-9.801671810746193,14937.0
42.81,3.2000000476837163,73.0,24.431264877319336,-0.0397588685154914,-79.78277240521689,40.45899648332032,272.178778345108,0.0126412119716405,0.0209516007453203,-0.7937057018280029,0.6078096032142639,0.0172927677466723,-5.27259572566368e-05,0.0131074608352881,0.0074468487873673,0.0032449297141283,0.009080926887691,-0.1760039502941072,-0.4283880686759949,-9.798504374027251,14937.0
43.01,3.2000000476837163,77.0,24.43376922607422,-0.0477106422185897,-79.78277240108277,40.45899645466124,272.19386106204985,0.0126226246356964,0.020972715690732,-0.7937185764312744,0.6077923774719238,0.0140768374867675,0.001409891128683,0.0169129771558766,-0.0094704004004597,-0.0036496352404356,-0.005024345126003,-0.1762346777692437,-0.4300791565328837,-9.798374565839769,14937.0
43.11,3.0999999046325684,78.0,24.427509307861328,-0.0636141896247863,-79.78277240434763,40.45899644045196,272.1954739041328,0.012621734291315,0.0209804754704237,-0.7937191128730774,0.6077914834022522,0.0164021819742628,0.001413629418933,0.0168085277070374,0.0064326957799494,0.0018230973510071,0.0078428769484162,-0.169226442631334,-0.4428445784747601,-9.802367629408836,14937.0
43.3,2.900000095367432,79.0,24.435022354125977,-0.0477106422185897,-79.78277238835923,40.4589963792058,272.21152066659926,0.0126095321029424,0.0209933947771787,-0.7937222123146057,0.6077873110771179,0.0177489612536595,0.0050943589269842,0.0185856276839272,0.0054279817268252,0.0033033734653145,0.0082489727064967,-0.1701451681181788,-0.4452191327512264,-9.801393483281135,14937.0
43.4,2.900000095367432,81.0,24.43251800537109,-0.0477106422185897,-79.78277238787051,40.45899636193399,272.21329777908323,0.0126282712444663,0.0209948327392339,-0.7937129735946655,0.6077988743782043,0.0171483208919956,0.0052605528078617,0.0187028200507627,-0.0086399875581264,-0.0041843387298285,-0.0087173953652381,-0.1764753272384405,-0.4309775446727872,-9.797838376164435,14937.0
43.6,3.0,81.0,24.4362735748291,-0.0636141896247863,-79.78277238020377,40.45899631165575,272.2280940957069,0.0126329269260168,0.0209885295480489,-0.7937126159667969,0.6077995300292969,0.0153887246172535,0.0048128118821472,0.0168147913310688,-0.0080326693132519,-0.0013553918106481,-0.0116209555417299,-0.1765137544088065,-0.4310222393274307,-9.798206750750545,14937.0
43.7,3.0,80.0,24.42375373840332,-0.0477106422185897,-79.78277237983308,40.45899629542904,272.22968065214155,0.0126304533332586,0.0209816768765449,-0.7937191128730774,0.6077913641929626,0.0179334397842723,0.0045981252617955,0.01665743247491,0.0092671746388077,0.0046387678012251,0.0076159671880304,-0.174819213040173,-0.4471697273477912,-9.801257243156432,14937.0
43.9,3.0,79.0,24.43376922607422,-0.0397588685154914,-79.78277236905294,40.45899622008598,272.247059697628,0.0126254390925169,0.0209787208586931,-0.7937179207801819,0.6077930331230164,0.0202353879205418,0.0057460523783979,0.0192933857456902,0.0044378079473972,0.0015000980347394,0.0063226404599845,-0.1700878836773336,-0.4512044888734818,-9.80054914534092,14937.0
44.01,3.0,79.0,24.43251800537109,-0.0397588685154914,-79.78277238110219,40.45899618056545,272.26084529829023,0.0126363737508654,0.0209767185151577,-0.7937285304069519,0.6077790260314941,0.0167618915876749,-6.665826396575966e-05,0.0165234484387087,-0.0075959046371281,-0.0045936470851302,-0.0035154847428202,-0.1761067333817482,-0.4235124775394797,-9.798814861178398,14937.0
44.2,3.2000000476837163,79.0,24.43251800537109,-0.0477106422185897,-79.78277239190342,40.45899614817268,272.2639450974464,0.0126515757292509,0.0209889076650142,-0.7937489151954651,0.607751727104187,0.0183347557719634,6.079305650425956e-05,0.0162438354438136,-0.0039159944280982,-0.002648581052199,-0.0036939985584467,-0.1757812444679439,-0.42180121678859,-9.798507297635078,14937.0
44.3,3.2000000476837163,78.0,24.42876052856445,-0.055662415921688,-79.78277235989606,40.45899605113565,272.28094058704374,0.0126439612358808,0.0209933873265981,-0.7937667965888977,0.6077284216880798,0.0216498220673014,0.0049331257610819,0.0182287848633043,-0.0054577267728745,-0.0022267864551395,-0.0042017241939902,-0.1770703910663724,-0.4478178546577693,-9.801783492565155,14937.0
44.5,3.400000095367432,75.0,24.4362735748291,-0.0397588685154914,-79.78277235610277,40.45899600414565,272.29511272382734,0.012635906226933,0.0209916140884161,-0.7937771081924438,0.6077151894569397,0.0194858562939008,9.31202326986489e-05,0.0160162984203026,0.0021551952231675,0.0009084567427635,0.0059663881547749,-0.1762314983457327,-0.4491243419051171,-9.801049082279206,14937.0
44.61,3.400000095367432,74.0,24.427509307861328,-0.0636141896247863,-79.78277236139955,40.458995986707656,272.2966139860153,0.0126507235690951,0.0210036989301443,-0.7937861680984497,0.6077025532722473,0.0194240502244157,0.0003786050287113,0.0158617076033456,-0.0009869778295978,-0.0009944171179085,-0.0035110160242766,-0.1784020030684769,-0.4230569428950549,-9.7998024559021,14937.0
44.81,3.5,73.0,24.40372085571289,0.556624174118042,-79.78277235986832,40.458995913599175,272.3145232744217,0.0126628121361136,0.0210191495716571,-0.7937796115875244,0.6077103018760681,0.0180330635821468,-0.0022041972652246,0.0187275572604687,0.0019358509453013,-0.0028469152748584,-0.0018634039442986,-0.1712214760668576,-0.4255845114961267,-9.798809598684311,14937.0
44.91,3.5,68.0,24.40622520446777,0.278312087059021,-79.78277236784285,40.4589958976126,272.31632357311247,0.0126674734055995,0.0210350602865219,-0.7937287092208862,0.6077761054039001,0.0185269085503492,-0.0023295200208864,0.0188329109735495,-0.0009753067279234,-0.0031581309158355,0.0055143744684755,-0.1759295992925763,-0.4514997367188335,-9.799014251232148,14937.0
45.11,3.400000095367432,66.0,24.416240692138672,0.2465049922466278,-79.78277232364637,40.45899579706389,272.3332992143631,0.0126852579414844,0.0210551284253597,-0.7937575578689575,0.6077373623847961,0.0185547767233716,0.00402297773962,0.0178548670405336,-0.0027548326179385,0.0014296357985585,-0.025101413950324,-0.179006148353219,-0.4518654069676996,-9.79702736735344,14937.0
45.2,3.400000095367432,64.0,24.41373634338379,0.2624085247516632,-79.78277232470258,40.458995777368905,272.33494001102446,0.0126627199351787,0.0210727397352457,-0.7937767505645752,0.6077122092247009,0.0217503123218305,0.0041965546774148,0.0171538683970628,0.0083568198606371,0.0050231614150106,0.020946554839611,-0.1789681597240269,-0.4521538208797574,-9.794886116981507,14937.0
45.41,3.400000095367432,67.0,24.412485122680664,0.278312087059021,-79.78277229120826,40.45899569024144,272.3528401799202,0.0126517387107014,0.0210745315998792,-0.7937479615211487,0.6077499985694885,0.0204657869226294,0.0052374031008574,0.0193671901697258,0.0114886173978447,0.0025285580195486,0.0078947488218545,-0.1746887653134763,-0.458157595731318,-9.800910503268245,14937.0
45.5,3.400000095367432,66.0,24.411231994628903,0.2703603208065033,-79.78277223624816,40.45899559481914,272.36910998296736,0.0126437935978174,0.0210672747343778,-0.7938128709793091,0.6076655387878418,0.0222487315296299,0.0103240071830829,0.0202075411362968,-0.007251976057887,-0.0099774757400155,0.0065549230203032,-0.1665408712998032,-0.4285544585064054,-9.790277341604233,14937.0
45.7,3.5,63.0,24.40998077392578,0.3339745104312897,-79.78277222789278,40.45899554707465,272.3730146832466,0.0126809505745768,0.0210923738777637,-0.793768584728241,0.6077218055725098,0.0253471251203427,0.0098895839770931,0.0207118136587018,0.011433077044785,0.0053911968134343,0.0102165779098868,-0.1687440473400056,-0.4505107167363167,-9.799595464468004,14937.0
45.8,3.5,63.0,24.40998077392578,0.3578298389911652,-79.78277221775281,40.45899546337687,272.38926863145826,0.0127542847767472,0.0210646651685237,-0.7937914729118347,0.6076913475990295,0.0217979876061803,0.0051244066737243,0.0154217018115402,-0.0012160321930423,-0.0150543609634041,-0.000243210728513,-0.1658389496058225,-0.4451483814418316,-9.790539881587028,14937.0
46.0,3.5,62.0,23.994298934936523,5.494675636291504,-79.78277212922707,40.45899536157199,272.4080812282562,0.0128051126375794,0.0210679061710834,-0.7938228845596313,0.6076491475105286,0.0226866472005253,0.0155849446665587,0.0188189551479103,0.0013314542593434,-0.0424857400357723,-0.0237596742808818,-0.1118825063668191,-0.459620788358152,-9.7513670450449,14937.0
46.1,3.5,61.0,24.36991500854492,0.7315632104873657,-79.78277212798713,40.45899533344424,272.41022461128244,0.0132587132975459,0.0212946683168411,-0.7937020659446716,0.6077892780303955,0.0211671524903883,0.0056258524217889,0.0237056954700539,-0.0621197484433651,0.0209601446986198,0.0147704873234033,-0.1241855780035257,-0.3514151391014457,-9.853953520059584,14937.0
46.2,3.5999999046325684,60.0,24.40622520446777,0.2306014448404312,-79.78277212093036,40.458995308268186,272.412083322525,0.0131742488592863,0.0211764182895422,-0.7936819791793823,0.6078214049339294,0.0170449973134827,0.0201171307426659,0.0194912291705487,-0.0501155480742454,-0.0325369834899902,0.0116527210921049,-0.0865291894320398,-0.3783042180910707,-9.813707134723664,14937.0
46.4,3.5999999046325684,60.0,24.16457939147949,3.3715522289276123,-79.78277209379151,40.45899521766889,272.42673104476927,0.0129880886524915,0.0212743449956178,-0.7937668561935425,0.6077112555503845,0.0220114373943675,0.0053137216473625,0.0188122895825654,-0.0071346103213727,0.0414522513747215,-0.014175621792674,-0.2609586215950549,-0.4972029264271259,-9.830544776916504,14937.0
46.51,3.5999999046325684,60.0,24.37617492675781,0.7077078819274902,-79.78277203490211,40.45899512123748,272.44374149513243,0.0135444831103086,0.0213164407759904,-0.7936393618583679,0.6078642010688782,0.0263425024937199,0.0066474204411062,0.019876959260605,-0.010469707660377,0.0475298538804054,-0.0359375737607479,-0.1578454951755702,-0.4562050276994705,-9.780833503603937,14937.0
46.7,3.5999999046325684,58.0,24.40121650695801,0.1908425688743592,-79.7827720277287,40.458995072949904,272.4469634838104,0.0132657345384359,0.0211822297424078,-0.7936995029449463,0.6077964901924133,0.02600880209167,0.0129628315378315,0.0166557799313107,-0.0239600148051977,-0.0860700979828834,-0.0218862406909465,-0.1691053139045834,-0.3920421050861478,-9.799076231718065,14937.0
46.8,3.5,59.0,24.372419357299805,0.8667433857917786,-79.78277202981369,40.458994996910185,272.4607320971489,0.0131712732836604,0.0211379155516624,-0.7937896251678467,0.6076823472976685,0.0143012335328491,-0.0056809276918831,0.0162424299065334,-0.047523695975542,0.0605201013386249,0.0008639998268336,-0.2032156859524548,-0.4125963106378913,-9.807343609929084,14937.0
47.0,3.400000095367432,55.0,24.15581512451172,4.468896865844727,-79.78277198200837,40.45899490471442,272.4773682899475,0.0130228251218795,0.021214872598648,-0.7937948703765869,0.6076760292053223,0.0194320031014424,0.003196543898276,0.014864004309796,-0.0012357974192127,-0.092704527080059,-0.0101323025301098,-0.2286176535487175,-0.2753924003429711,-9.795657949447634,14937.0
