time,wind_speed,wind_angle,battery_voltage,battery_current,position_x,position_y,position_z,orientation_x,orientation_y,orientation_z,orientation_w,velocity_x,velocity_y,velocity_z,angular_x,angular_y,angular_z,linear_acceleration_x,linear_acceleration_y,linear_acceleration_z,node_ids
0.0,1.100000023841858,293.0,23.3933162689209,-0.0238553211092948,-79.78278319350888,40.45899341913543,273.4527943677902,0.006260463502258,0.0270472355186939,-0.7459670305252075,0.6654040217399597,0.0283140864570463,-0.0073717412786042,0.0207389198361677,-0.0067917928099632,-0.0027330555021762,-0.0070702428929507,-0.3196094288304448,-0.4121120515465737,-9.796440891623496,14938.0
0.09,1.100000023841858,289.0,23.400827407836918,-0.0477106422185897,-79.78278323635611,40.458993566437066,273.44916265678404,0.0062499726191163,0.0270362608134746,-0.7460455298423767,0.6653165817260742,0.0244430027183787,-0.0102451019537331,0.0175411786251042,-0.0072084907442331,-0.0014795833267271,-0.0075822346843779,-0.3160270225256681,-0.4293321016430855,-9.799955652952193,14938.0
0.29,1.0,279.0,23.39832305908203,-0.0318070948123931,-79.78278325204725,40.45899354340862,273.4508537597656,0.0062705534510314,0.0270357802510261,-0.7461209893226624,0.6652317643165588,0.0282090609458957,-0.0116084179762881,0.0180026884830892,0.0054934374056756,0.0015784996794536,0.003247465705499,-0.315076301805675,-0.4230941458046437,-9.798397369980812,14938.0
0.4,1.100000023841858,274.0,23.394567489624023,-0.0397588685154914,-79.78278328139092,40.45899367294162,273.4472535200119,0.0062719509005546,0.0270120874047279,-0.7461292147636414,0.6652234196662903,0.0274028565982362,-0.0108896200554473,0.0167938271831386,0.0017747728852555,0.0026476087514311,0.0004162891418673,-0.3189318096265197,-0.4286314955726266,-9.79862891972065,14938.0
0.59,1.2999999523162842,264.0,23.39957618713379,-0.0238553211092948,-79.78278330116841,40.45899381353365,273.4415659255981,0.0062708426266908,0.0269928816705942,-0.7462020516395569,0.6651425361633301,0.0258487434525259,-0.0085558083863512,0.0153485929041039,-0.0012924245093017,-0.0007529290160164,0.0002876143844332,-0.3164255102723837,-0.4304940895736218,-9.7997621101141,14938.0
0.69,1.2999999523162842,260.0,23.390811920166016,-0.0318070948123931,-79.78278333054932,40.458993763590286,273.4445530719757,0.0062769022770226,0.0269907154142856,-0.7462759017944336,0.6650597453117371,0.0313186412573144,-0.0109285329112188,0.0165368625762177,0.0030738045461475,-0.0012432726798579,0.0042795822955667,-0.3161481329798699,-0.4351989785581827,-9.800709359049796,14938.0
0.89,1.2999999523162842,254.0,23.394567489624023,-0.055662415921688,-79.7827833199438,40.45899392544722,273.43775301647185,0.006277403794229,0.0269987098872661,-0.7462790012359619,0.6650559306144714,0.024809593032323,-0.0040293616471733,0.0149636371422364,-0.0063260542228817,-0.0018169439863413,-0.007507876958698,-0.3191162892803549,-0.4103162619844079,-9.796827977299689,14938.0
0.99,1.399999976158142,252.0,23.394567489624023,-0.0397588685154914,-79.78278337465021,40.45899407417157,273.43345766735075,0.0062749558128416,0.0269963294267654,-0.7463428974151611,0.6649843454360962,0.020833580076897,-0.0085120813973151,0.0169550996477972,-0.0063215917907655,-0.0032226839102804,-0.0092523181810975,-0.316244721673429,-0.435520648509264,-9.800205913782117,14938.0
1.19,1.2000000476837158,248.0,23.394567489624023,-0.055662415921688,-79.78278338809966,40.45899405404302,273.43510847759245,0.0062760119326412,0.0269913431257009,-0.7463536262512207,0.6649725437164307,0.0246462648215073,-0.0098640989720001,0.017490978279036,0.0082488749176263,0.003683962393552,0.0041336133144795,-0.3142350701987743,-0.4311485757306218,-9.800229887366298,14938.0
1.29,1.2000000476837158,246.0,23.39957618713379,-0.0397588685154914,-79.78278342210659,40.45899418258809,273.42939048480986,0.0062855496071279,0.0269825439900159,-0.7464455366134644,0.6648696064949036,0.0245803786583354,-0.0083712920977102,0.0165088077695481,0.0094080977141857,0.0020415377803146,0.003562135156244,-0.3159055100753904,-0.4241069201007486,-9.799169787168504,14938.0
1.49,1.100000023841858,244.0,23.3933162689209,-0.0318070948123931,-79.78278343544712,40.45899416013184,273.43099361133574,0.0062868818640708,0.0269703976809978,-0.7464396357536316,0.6648767590522766,0.0263248848719484,-0.0093053010534433,0.0173458263658463,-0.0061552138067781,-0.0001656456443015,-0.0013354616239666,-0.3174257495999336,-0.4282133831083775,-9.800395948290824,14938.0
1.6,1.2000000476837158,246.0,23.39832305908203,-0.0397588685154914,-79.78278346920109,40.45899429853039,273.4242731876373,0.0062767374329268,0.0269500259310007,-0.7465201616287231,0.6647871732711792,0.0250627009480338,-0.0071236307839636,0.015905381156849,0.0008162641897797,0.0022841601166874,0.0012276634806767,-0.3181676881760359,-0.4164385525882244,-9.797498068213462,14938.0
1.79,1.2000000476837158,242.0,23.394567489624023,-0.0397588685154914,-79.7827834810223,40.45899427590639,273.4257953710556,0.0062934393063187,0.0269626919180154,-0.7466013431549072,0.6646953225135803,0.0271409292149769,-0.0083620839951413,0.0165122700647454,-0.0043697534129023,-0.0017218290595337,-0.0045919041149318,-0.3189817302301526,-0.4103733454272151,-9.797316804528236,14938.0
1.89,1.2000000476837158,240.0,23.38329887390137,-0.1033730581402778,-79.78278352908377,40.45899442590717,273.4176071233749,0.0062919287011027,0.0269746351987123,-0.7465965151786804,0.6647002696990967,0.0243598570513106,-0.0086120200962776,0.014719776081612,-0.0032234864775091,-0.0008677983423694,-0.0096527440473437,-0.3174952949211002,-0.4083364313095808,-9.797241960167888,14938.0
2.09,1.2000000476837158,235.0,23.400827407836918,-0.0238553211092948,-79.78278356161219,40.45899460661353,273.4071754760742,0.006264095660299,0.0269767101854085,-0.7466750741004944,0.6646121740341187,0.019488416002648,-0.0067799977618229,0.0124263653348865,0.0047836434096097,0.0012678758939728,0.0056072627194225,-0.3137295784056186,-0.4338962554559112,-9.800569025874136,14938.0
2.2,1.100000023841858,235.0,23.389558792114247,-0.0397588685154914,-79.78278358502277,40.45899456917071,273.4096617050171,0.0062654912471771,0.0269963331520557,-0.7467572689056396,0.6645190715789795,0.0243980161145447,-0.0091303960881183,0.0138029495112973,0.004424990620464,-0.0004679436678998,0.0039052721112966,-0.3206546917185187,-0.4081639019027353,-9.798348838090895,14938.0
2.4,1.100000023841858,230.0,23.38705444335937,-0.055662415921688,-79.78278360994419,40.45899472400134,273.3998488731384,0.0062461476773023,0.0269990041851997,-0.746760368347168,0.6645156145095825,0.0207784416338139,-0.0062523025359947,0.0127832958916558,-0.0086875483393669,-0.0035376027226448,-0.0068028979003429,-0.3192479612678289,-0.4106512708961964,-9.796678873300555,14938.0
2.5,1.2000000476837158,231.0,23.389558792114247,-0.0238553211092948,-79.78278364912319,40.4589948614824,273.390647942543,0.0062313433736562,0.0269997511059045,-0.7468417882919312,0.6644242405891418,0.0201381758555422,-0.004429752101404,0.012254308183406,-0.0060546644963324,-0.0025324649177491,-0.0057647880166769,-0.320324616394937,-0.4076828587800265,-9.7991984385252,14938.0
2.69,1.2000000476837158,233.0,23.3933162689209,-0.055662415921688,-79.7827836576388,40.45899484205635,273.391806060791,0.006222023628652,0.0270256604999303,-0.7468365430831909,0.6644291877746582,0.0235280488139799,-0.0052997519600449,0.0126401913903991,0.0086935320869088,0.0014520774129778,0.0049748648889362,-0.3145244342833757,-0.434360085837543,-9.802255947589876,14938.0
2.79,1.2000000476837158,232.0,23.400827407836918,-0.055662415921688,-79.782783757503,40.458994992065726,273.3820279188156,0.0062474152073264,0.027008568868041,-0.7469066381454468,0.6643508076667786,0.0213890215327309,-0.0134065184667309,0.0112389744358125,0.0046789329499006,0.0008683465421199,0.003075958462432,-0.3179602582007647,-0.4090709877759218,-9.796811020374298,14938.0
2.99,1.2999999523162842,234.0,23.39832305908203,-0.0318070948123931,-79.78278377659322,40.45899497292965,273.3831365652084,0.0062467902898788,0.0270278751850128,-0.7469133734703064,0.66434246301651,0.023329282560107,-0.0147450209390743,0.0119558701709204,-0.0009302790858782,-0.001914347987622,-0.0039798342622816,-0.3206148941069841,-0.4120173631981016,-9.796310498714448,14938.0
3.1,1.399999976158142,232.0,23.397071838378903,-0.0477106422185897,-79.7827838279174,40.4589951207466,273.37525540065764,0.0062390556558966,0.0270409565418958,-0.74697345495224,0.6642745137214661,0.0212995754460808,-0.0121686129849316,0.0144121450967584,-0.0020411647856235,-0.0036821076646447,-0.0004402071062941,-0.3183484767749905,-0.4150034265965224,-9.796129819750789,14938.0
3.29,1.399999976158142,227.0,23.39957618713379,-0.0238553211092948,-79.78278384531336,40.45899510134336,273.3766669578552,0.0062255933880805,0.0270363260060548,-0.7470462322235107,0.6641929149627686,0.0241047275741305,-0.0130561382888347,0.0150365020808222,-0.0029137623496353,-0.0016537671908736,0.0027911472134292,-0.3152963763847947,-0.4343130888417364,-9.797625537514689,14938.0
3.39,1.399999976158142,229.0,23.402080535888672,-0.0238553211092948,-79.7827839006213,40.45899521068017,273.3671681232452,0.0062171975150704,0.0270412229001522,-0.7470484375953674,0.6641903519630432,0.0266785684120148,-0.0118669503258211,0.0142266511939923,-0.0035908219870179,-0.0016103442758321,0.0007317592389881,-0.3172988284751773,-0.4318242580443621,-9.798661664128304,14938.0
3.6,1.5,232.0,23.3933162689209,-0.0238553211092948,-79.78278392623629,40.4589953581317,273.35598164272307,0.0062172054313123,0.0270426757633686,-0.7471274137496948,0.6641014814376831,0.0224535345506213,-0.0072512157761049,0.0124020376098059,0.0005432057077996,0.0032733883708715,-4.275103856343776e-05,-0.3161808773875236,-0.4161796671152115,-9.796860721707343,14938.0
3.69,1.5,232.0,23.3933162689209,-0.0397588685154914,-79.78278395141564,40.458995314805215,273.35841184329985,0.0062357452698051,0.0270521994680166,-0.747195839881897,0.6640239357948303,0.0275309002046743,-0.0094258806816992,0.0136370997417342,0.0006633509765379,0.0028874597046524,1.4712463780597318e-05,-0.3194199790433049,-0.4138765585049987,-9.79784773170948,14938.0
3.89,1.600000023841858,233.0,23.394567489624023,-0.0238553211092948,-79.78278396888045,40.45899545031661,273.3469619102478,0.0062090898863971,0.0270389169454574,-0.7471939325332642,0.6640268564224243,0.025525659020024,-0.0045173781325781,0.0121239700961802,0.0001716348197078,-0.0038110334426164,0.0029201079159975,-0.3179740357026458,-0.4319268766790629,-9.79950366318226,14938.0
3.99,1.600000023841858,232.0,23.400827407836918,-0.0238553211092948,-79.78278404008823,40.458995592238495,273.3363975830078,0.0062362430617213,0.0270339976996183,-0.7472578883171082,0.6639547944068909,0.0210795627740025,-0.0084756931405736,0.0108920031455034,-0.0013299201382324,-0.0031027160584926,-0.0007543643005192,-0.3146968540549279,-0.4339300231263042,-9.799221827387813,14938.0
4.19,1.7000000476837158,233.0,23.39957618713379,-0.0159035474061965,-79.78278405346951,40.45899557292784,273.3374422140121,0.0062775425612926,0.0270367711782455,-0.7472562789916992,0.6639561653137207,0.0233076758635727,-0.0097180621151419,0.0114810592757326,-0.0016427788650617,-0.0028111175633966,-0.0054349624551832,-0.3197701907157898,-0.4101869288831949,-9.796487084627152,14938.0
4.3,1.7000000476837158,229.0,23.39832305908203,-0.0318070948123931,-79.78278409037028,40.45899569215555,273.32761495780943,0.0062793921679258,0.0270501263439655,-0.7473346590995789,0.6638673543930054,0.0212272136224255,-0.0080775355249579,0.0113150497434224,-0.0045706313103437,-0.0026920028030872,-0.0076168365776538,-0.3200344117730856,-0.411227477453649,-9.796320438981056,14938.0
4.49,1.600000023841858,224.0,23.397071838378903,-0.0238553211092948,-79.78278410323928,40.458995672095305,273.32869511318205,0.0062669981271028,0.0270508248358964,-0.7473251819610596,0.6638780236244202,0.0246680350369292,-0.0090233399719735,0.0118403699615374,0.0055868942290544,-0.0004453269939403,0.0064872894436121,-0.3150734512880445,-0.4358053348213434,-9.800302392840386,14938.0
4.6,1.7000000476837158,223.0,23.394567489624023,-0.0318070948123931,-79.78278414004308,40.45899576723969,273.3161951847076,0.0062903962098062,0.0270659569650888,-0.7473983764648438,0.6637948155403137,0.0273256002044623,-0.0072636541504107,0.0075518005904566,0.0067462809383869,0.0031089098192751,0.0072187460027635,-0.315839107632637,-0.4347688062116504,-9.799718840718269,14938.0
4.79,1.600000023841858,220.0,23.400827407836918,-0.0238553211092948,-79.78278415236394,40.45899574346258,273.31688862514494,0.006289429962635,0.0270573049783706,-0.7474783658981323,0.6637051701545715,0.0285653408779568,-0.0080154958193484,0.0083532428980277,-0.0066680796444416,-0.0051831719465553,-0.0030036219395697,-0.318463703468442,-0.4107344475388527,-9.797173547744752,14938.0
4.9,1.600000023841858,218.0,23.39206314086914,-0.0318070948123931,-79.78278418919375,40.45899585881187,273.3043149061203,0.0062923221848905,0.0270685274153947,-0.7474774718284607,0.663705587387085,0.0261542478222192,-0.0072890342243465,0.0056094142132949,-0.011041272431612,-0.0039965007454156,-0.0063716690056025,-0.3182502800971269,-0.4162199763581157,-9.797347794771197,14938.0
5.09,1.5,211.0,23.400827407836918,-0.0238553211092948,-79.78278421011173,40.45899599115244,273.293353969574,0.0062811109237372,0.0270729567855596,-0.7475509643554688,0.6636227369308472,0.023027485486756,-0.0062234116516549,0.00633953320439,0.0100300395861268,0.0009787833550944,0.0052813743241131,-0.3138799980282784,-0.4278728924319149,-9.799799532294276,14938.0
5.19,1.399999976158142,208.0,23.397071838378903,-0.0238553211092948,-79.78278423312669,40.458995947860295,273.2945685930252,0.0063136899843811,0.0270825307816267,-0.7476195096969604,0.6635448336601257,0.027998400955502,-0.0081502792167679,0.0074004727536052,0.0073358360677957,0.0040449751541018,0.0068591246381402,-0.3200592624396086,-0.4226043318584561,-9.798676282167436,14938.0
5.39,1.2999999523162842,200.0,23.39957618713379,-0.0318070948123931,-79.78278424935189,40.45899604691631,273.2856151409149,0.0062970109283924,0.027085680514574,-0.7476173639297485,0.6635472774505615,0.0270511436221932,-0.0066785142778618,0.0107107196357768,-0.0050145215354859,-0.0007071771542541,0.0001330067607341,-0.3173055893182754,-0.4282908587157727,-9.798424851894382,14938.0
5.5,1.2000000476837158,197.0,23.390811920166016,-0.0159035474061965,-79.78278427111808,40.4589961446796,273.2767304725647,0.0062890872359275,0.027115935459733,-0.747677206993103,0.6634787321090698,0.0238850400128653,-0.0058151429823574,0.0140373820666139,0.001421213382855,8.54286554385908e-05,0.0046591283753514,-0.3183432508260012,-0.4146021979674697,-9.796501117944716,14938.0
5.69,1.100000023841858,192.0,23.39832305908203,-0.0477106422185897,-79.78278428159992,40.45899612232647,273.2780584640504,0.0063009462319314,0.0271350685507059,-0.747675895690918,0.6634792685508728,0.0262190674237047,-0.0066960467809356,0.0144851831364832,0.0001184421635116,-0.001709806965664,-0.0048179193399846,-0.3181118838116527,-0.4103164081647993,-9.795542174577712,14938.0
5.8,1.0,186.0,23.389558792114247,-0.0318070948123931,-79.78278427941727,40.45899619833256,273.26628082466124,0.0062955203466117,0.0271506458520889,-0.7477392554283142,0.6634072661399841,0.0268534984430661,-0.0024253434287182,0.0130963803995542,-0.0045829606242477,-0.002307858550921,-0.0072771031409502,-0.3164318691194057,-0.4345657251030207,-9.798055307865145,14938.0
6.0,1.0,178.0,23.39957618713379,-0.0318070948123931,-79.78278428642975,40.45899617234974,273.2674847192764,0.0063003315590322,0.0271431617438793,-0.7477510571479797,0.6633942723274231,0.0308133147919796,-0.0033682950943211,0.013414213170565,0.0071625811979174,0.0016283729346469,0.0054698507301509,-0.315195438824594,-0.4340320935845376,-9.798687391877175,14938.0
6.09,1.100000023841858,176.0,23.397071838378903,-0.0318070948123931,-79.78278430027973,40.45899624496729,273.25717311573027,0.0063153393566608,0.0271545555442571,-0.7478368878364563,0.6632968783378601,0.0309172919742333,-0.0035462747648636,0.0158897906223148,0.0064884717576205,0.0035002452787011,0.0041456762701272,-0.3188292275369167,-0.4133705550804734,-9.796891711950304,14938.0
6.3,1.100000023841858,174.0,23.397071838378903,-0.0238553211092948,-79.78278430852271,40.45899621702935,273.2586628742218,0.006309051066637,0.0271590482443571,-0.7479168176651001,0.6632066965103149,0.0323371964041023,-0.0042317407302771,0.0165872980264803,-0.0093277469277381,-0.0019938992336392,-0.0050550936721265,-0.3197463998571038,-0.4144443962350488,-9.79765360414982,14938.0
6.39,1.100000023841858,172.0,23.400827407836918,-0.0238553211092948,-79.78278432580694,40.45899628881323,273.2463425941467,0.0063020354136824,0.0271310061216354,-0.7479139566421509,0.6632110476493835,0.0306988380295954,-0.0046456216644689,0.0149834956045133,-0.0070952498354017,-0.0034618915524333,-0.0067553911358118,-0.3181739373877644,-0.4166986440494657,-9.796267814040185,14938.0
6.59,1.100000023841858,167.0,23.39832305908203,-0.0318070948123931,-79.78278432178242,40.458996376539,273.2321187801361,0.0062966416589915,0.0271424110978841,-0.7479870319366455,0.6631281971931458,0.0277602229145482,-0.0019378249914299,0.0130725723869957,0.0068353754468262,0.0023163263686001,0.003626589430496,-0.3155118097364903,-0.4287112004309893,-9.79939899802208,14938.0
6.69,1.100000023841858,167.0,23.39581871032715,-0.0477106422185897,-79.78278433516651,40.458996323255455,273.2345829553604,0.0063210795633494,0.0271653290838003,-0.7480370402336121,0.6630706191062927,0.03291228215876,-0.0035394713020663,0.0140338563852095,0.0065704104490578,0.0039322702214121,0.0046830074861645,-0.3209006036818028,-0.4190402711927891,-9.798499111533166,14938.0
6.89,1.100000023841858,168.0,23.397071838378903,-0.0159035474061965,-79.78278432251888,40.45899640038393,273.21958130073546,0.006315809674561,0.0271524488925933,-0.7480244040489197,0.6630854606628418,0.0296748689832677,0.000452634390373,0.0122617922967148,-0.0058449287898838,-0.0035450267605483,7.731329969828948e-05,-0.3172827120870352,-0.4298018523305655,-9.799192591309549,14938.0
7.0,1.2000000476837158,169.0,23.400827407836918,-0.0238553211092948,-79.78278431444527,40.45899645756046,273.2070404834747,0.0063229510560631,0.0271588284522295,-0.7480960488319397,0.6630043983459473,0.0262374179508719,0.0021383054845762,0.014009773748233,0.0028460484463721,0.0012410139897838,0.0051184115000069,-0.3174086464941502,-0.4327796199917793,-9.79761150419712,14938.0
7.19,1.2000000476837158,166.0,23.39957618713379,-0.0318070948123931,-79.7827843157692,40.45899643231677,273.2083367652893,0.0063401884399354,0.0271807461977005,-0.7480949759483337,0.6630045771598816,0.0282507670356967,0.0013931122826608,0.014620212751109,-0.0054918816313147,0.0013793173711746,-0.0053296298719942,-0.3203082441911101,-0.4099775985628367,-9.795681923031808,14938.0
7.29,1.2999999523162842,160.0,23.39832305908203,-0.0238553211092948,-79.78278435095181,40.45899650178918,273.19462519359587,0.0063662733882665,0.0271550379693508,-0.7481675148010254,0.6629234552383423,0.0215784470517452,-0.0048162420264017,0.0126053103303036,-0.0053050834685564,-0.0036498850677162,-0.0044411094859242,-0.319361141435802,-0.4108836977183819,-9.796430951356887,14938.0
7.49,1.2999999523162842,159.0,23.397071838378903,-0.0238553211092948,-79.78278434009472,40.458996525392905,273.18179898929594,0.0063839205540716,0.0271613150835037,-0.7482113838195801,0.6628735661506653,0.0242981527062187,0.0009281329222745,0.0145373392718216,-0.0077842529863119,-0.00717378500849,-0.0042109717614948,-0.3128844730183482,-0.4312111409381032,-9.799058690071108,14938.0
7.7,1.399999976158142,156.0,23.39581871032715,-0.0477106422185897,-79.78278434307146,40.45899650107864,273.18314760398863,0.0063913157209753,0.0271840374916791,-0.7482041120529175,0.6628807187080383,0.0283797409110565,-0.0002759375162101,0.0148982870623721,0.0064839222468435,0.0024775189813226,0.0008169037173502,-0.3163573902100324,-0.4217342661693693,-9.7979079580307,14938.0
7.79,1.399999976158142,154.0,23.402080535888672,-0.0318070948123931,-79.78278435413726,40.45899652040848,273.17029028606413,0.0064034238457679,0.0271878559142351,-0.7482813000679016,0.6627933382987976,0.0290547192692602,-0.0010901308333875,0.016506144597867,-0.0011855923803523,0.0016158181242644,-0.0003125268267467,-0.3189865907281637,-0.4290685383975506,-9.797954151034356,14938.0
7.99,1.399999976158142,147.0,23.39832305908203,-0.0318070948123931,-79.78278435990944,40.4589964924168,273.1718284435272,0.0064050662331283,0.0272096320986747,-0.7482779622077942,0.662796139717102,0.0325270768721426,-0.0020031751540519,0.0169606608579901,0.0054855612106621,-0.0004942864179611,0.0048791924491524,-0.3145999364554882,-0.4364346779510379,-9.799451622962954,14938.0
8.1,1.399999976158142,146.0,23.39832305908203,-0.0238553211092948,-79.78278435131583,40.4589965049256,273.1561610050201,0.0064272847957909,0.0271872449666261,-0.7483544945716858,0.662710428237915,0.0336960686703003,0.0003429678205951,0.0142008515142006,0.0078462194651365,0.0019647935405373,0.0057387240231037,-0.3169592148810625,-0.4256986783817411,-9.799324153661727,14938.0
8.29,1.399999976158142,143.0,23.4033317565918,-0.0238553211092948,-79.7827843554619,40.4589964741564,273.15745454502104,0.006429421249777,0.0271831713616848,-0.7484294772148132,0.6626259684562683,0.0354936500173581,-0.0002596017263425,0.0148307506698493,-0.0042740222997963,0.0005014825728721,-0.0012835364323109,-0.3178270513191819,-0.4298233408480882,-9.798351761698724,14938.0
8.4,1.399999976158142,139.0,23.39832305908203,-0.0318070948123931,-79.78278436568094,40.458996472626346,273.14474993419645,0.0064493142999708,0.0271932911127805,-0.7484147548675537,0.6626418828964233,0.0380968276481704,-0.0021359567896532,0.0162050535064991,0.0069185602478683,0.0034814989194273,0.003179135499522,-0.318706838004291,-0.413549041338265,-9.796550234556197,14938.0
8.59,1.2999999523162842,126.0,23.39832305908203,-0.0238553211092948,-79.78278438900855,40.45899652582917,273.12850647640226,0.0064480239525437,0.0271686799824237,-0.7485038042068481,0.6625423431396484,0.0299590675701446,-0.0055483090327638,0.013160458372891,-0.0044166934676468,-0.0006684879772365,-0.0081635788083076,-0.3196283957362175,-0.4214555001631379,-9.797373522520068,14938.0
8.69,1.2999999523162842,125.0,23.39581871032715,-0.0397588685154914,-79.78278441273747,40.45899646700631,273.1309563465118,0.006447774823755,0.0271910429000854,-0.7485957145690918,0.6624376177787781,0.0367088667753936,-0.0074697152005,0.0141380612593842,0.0062146456912159,-0.0039016597438603,0.0053742118179798,-0.3179407431185245,-0.4176202383264899,-9.79718991994858,14938.0
8.89,1.2000000476837158,122.0,23.39832305908203,-0.0318070948123931,-79.78278440693366,40.45899649961822,273.1149739570617,0.0064355805516242,0.0271855499595403,-0.7485958337783813,0.6624378561973572,0.0331486652385037,-0.0053180430792154,0.0123457667747179,-0.0073863589204847,-0.0042612222023308,-0.0075354874134063,-0.3182797354459762,-0.4163659374788404,-9.797623783349987,14938.0
8.99,1.2000000476837158,119.0,23.39206314086914,-0.0238553211092948,-79.78278437417967,40.45899655196003,273.1001221485138,0.0064115873537957,0.0271540824323892,-0.7486623525619507,0.6623641848564148,0.0219160533045281,-3.6236245842116016e-05,0.0105719665112233,0.0001765333436196,0.0001737696584314,0.0027893751394003,-0.3175626475363969,-0.4179350743442774,-9.798446486592292,14938.0
9.19,1.2000000476837158,115.0,23.400827407836918,-0.0318070948123931,-79.78278437784368,40.4589965308022,273.10110932064055,0.0064218407496809,0.0271567534655332,-0.7486554384231567,0.6623717546463013,0.0240527999926044,-0.0009777364194697,0.0111776807218306,-0.0067141479812562,-0.0012475383700802,-0.0089956885203719,-0.3180119695141911,-0.4129941040277481,-9.79509603202343,14938.0
9.3,1.100000023841858,115.0,23.39957618713379,-0.0318070948123931,-79.78278434442491,40.4589965361572,273.0885105676651,0.0064108930528163,0.0271635986864566,-0.7487186789512634,0.6623001098632812,0.0259698865301155,0.0030985316355764,0.012910445661559,-0.0042305677197873,-0.0035312641412019,0.0001303822791669,-0.3159281680360437,-0.4262981641665101,-9.797991573214532,14938.0
9.49,1.2000000476837158,114.0,23.39832305908203,-0.0159035474061965,-79.78278434509039,40.458996510634,273.0896853752136,0.0064346618019044,0.0271681416779756,-0.7487154006958008,0.6623034477233887,0.0288166049116702,0.0021721985340226,0.0133763869075941,-0.0010783211328089,-0.0048684370703995,-0.0022539964411407,-0.3175604182854295,-0.4111322043836117,-9.796308744549751,14938.0
9.59,1.100000023841858,113.0,23.39832305908203,-0.0318070948123931,-79.78278431848594,40.45899651935528,273.07789986801146,0.0064219934865832,0.0271666180342435,-0.7487881779670715,0.6622213125228882,0.0271741080649063,0.0029130967220143,0.0156311260991201,-0.0073835062794387,-0.0032121196854859,-0.0093990955501794,-0.3143482138216496,-0.4340427282080054,-9.799353974461557,14938.0
9.79,1.100000023841858,115.0,23.400827407836918,-0.0318070948123931,-79.78278431910503,40.45899649273054,273.07933419418333,0.0064188558608293,0.0271660592406988,-0.7488731145858765,0.662125289440155,0.0312032543842929,0.0019538371740792,0.0159420989490866,0.0099696069955825,0.0028793157543987,0.0044914660975337,-0.3163977725431323,-0.4233957890421152,-9.798513144850732,14938.0
9.9,1.100000023841858,112.0,23.39581871032715,-0.0238553211092948,-79.78278431338838,40.45899648822766,273.0678225107193,0.0064478875137865,0.0271925143897533,-0.7488682866096497,0.6621294617652893,0.0323202929424405,0.0002014022635683,0.0175045470625933,-0.002174278255552,0.0019017530139535,0.0020806179381906,-0.317749941162765,-0.4129417349025608,-9.797296339273451,14938.0
10.09,1.0,118.0,23.39581871032715,-0.0318070948123931,-79.78278425763912,40.4589965024262,273.0544676132202,0.0064403070136904,0.0271826423704624,-0.7489380836486816,0.6620509624481201,0.0335570039910481,0.0063971724128495,0.0176878327045414,0.0058721746318042,0.0018976408755406,0.0052256393246352,-0.3158754700049758,-0.4340136017650366,-9.799767372608184,14938.0
10.19,1.100000023841858,122.0,23.397071838378903,-0.0318070948123931,-79.78278425354927,40.458996435830045,273.0577575511932,0.0064694168977439,0.0271866712719202,-0.7490174770355225,0.6619606614112854,0.0389843244526217,0.0048309320718822,0.0187571526522217,0.0050946460105478,-0.0006242209346964,0.0014091330813243,-0.3162776122614741,-0.4216416243463755,-9.796741438508034,14938.0
10.39,1.100000023841858,123.0,23.39832305908203,-0.0238553211092948,-79.78278423939992,40.45899645673449,273.0453454799652,0.0064595169387757,0.0271847993135452,-0.7490077018737793,0.6619718670845032,0.0366590425187239,0.0032737806543471,0.0187055589564761,-0.0006882866146042,0.0014210536610335,0.0018348424928262,-0.3139818126708269,-0.4347078855335713,-9.79764600276947,14938.0
10.49,1.0,123.0,23.39957618713379,-0.0159035474061965,-79.78278422462793,40.45899647204502,273.0325818605423,0.0064862519502639,0.0271762516349554,-0.749085009098053,0.6618844866752625,0.0313651732520537,0.0008227490032301,0.0154460390191204,0.0082047777250409,0.0001313359389314,0.004416846204549,-0.3185676011815667,-0.4146011747047305,-9.796978250741963,14938.0
10.69,1.0,127.0,23.39832305908203,-0.0318070948123931,-79.78278422817458,40.458996442458,273.03400724601744,0.0064932634122669,0.027174225077033,-0.7490817308425903,0.6618881821632385,0.0337477082122212,0.0002513128709148,0.0160497063690716,-0.0005270927795208,-0.0029748606029897,0.0012121361214667,-0.3161498871445656,-0.4315817447751761,-9.798648800253869,14938.0
10.79,1.0,129.0,23.39832305908203,-0.0238553211092948,-79.78278421319742,40.45899649532971,273.0208368844986,0.0064834593795239,0.02716158144176,-0.7491453886032104,0.6618167757987976,0.0233966577658025,-0.001787594699096,0.0129460251647549,0.0028569297865033,0.0031291008926928,0.003824494080618,-0.3146741960942745,-0.4328127663955093,-9.799622361660004,14938.0
10.99,0.8999999761581421,127.0,23.397071838378903,-0.0159035474061965,-79.78278421883466,40.45899647341607,273.0220609254837,0.0065049943514168,0.0271713193506002,-0.7491343021392822,0.6618287563323975,0.0249673446207103,-0.0025651315926531,0.0136853656115811,-0.0064248517155647,-0.0016531404107809,-0.0071759489364922,-0.3187159011885524,-0.4150856530666352,-9.79790328025818,14938.0
11.09,0.8000000119209291,128.0,23.39832305908203,-0.0318070948123931,-79.78278420331992,40.4589964876713,273.00877159309385,0.0065105175599455,0.0271853283047676,-0.7491929531097412,0.6617617607116699,0.025693053766849,-0.0030821189735992,0.012491101159308,-0.0050482531078159,-0.0020072769839316,-0.0030109656509011,-0.3148514763638377,-0.4253278552740812,-9.798862223625184,14938.0
11.29,0.8000000119209291,132.0,23.402080535888672,-0.0318070948123931,-79.78278421106323,40.45899646333461,273.00992387008665,0.006528980564326,0.0271934103220701,-0.7492844462394714,0.6616575717926025,0.0291794629979143,-0.0042881394740751,0.0129458915562554,0.0032891912851482,0.0026090331375598,0.0005054153152741,-0.3185384747385979,-0.4147713652253151,-9.796883525848392,14938.0
11.39,0.8000000119209291,132.0,23.39832305908203,-0.0318070948123931,-79.78278420241831,40.458996483638025,272.9975705690384,0.006536154076457,0.0272018667310476,-0.7492882013320923,0.6616528630256653,0.0275341778977519,-0.0050877366771966,0.0125874355821978,-0.0035044674295932,-0.0006100718746893,-0.0059791821986436,-0.3174371516704559,-0.4333672286197544,-9.79872364461422,14937.0
11.6,0.8000000119209291,136.0,23.39581871032715,-0.0397588685154914,-79.78278418133728,40.45899650596786,272.9840009756088,0.0065179490484297,0.0272009652107954,-0.7493593096733093,0.6615725755691528,0.0281724687533798,-0.0034363133972753,0.0115160929357179,0.0064846868626773,0.0018088103970512,0.0042682359926402,-0.3145423413813114,-0.4360233628749848,-9.79953289926052,14937.0
11.69,0.8000000119209291,139.0,23.39581871032715,-0.0477106422185897,-79.78278419958987,40.45899645161628,272.98615675640104,0.0065293074585497,0.0272208619862794,-0.7494288086891174,0.6614929437637329,0.0343894393760328,-0.0054354254514371,0.0124607694550568,0.008352342993021,-0.0003826205793302,0.004400557372719,-0.3190450263395906,-0.4104032758623361,-9.795743903517725,14937.0
11.89,0.8000000119209291,140.0,23.39581871032715,-0.055662415921688,-79.78278416228923,40.45899649329496,272.97231393527983,0.0065336031839251,0.0272172596305608,-0.7494128346443176,0.6615111827850342,0.0285340728113292,-0.001347561351889,0.0113469452445451,-0.0095150340348482,-0.0059999111108481,-0.0064123594202101,-0.3187093230709433,-0.4183751138672233,-9.79684668838978,14937.0
11.99,0.8000000119209291,144.0,23.400827407836918,-0.0238553211092948,-79.78278411040988,40.45899649265903,272.95914142799376,0.0065118204802274,0.0272277873009443,-0.7494707703590393,0.6614453196525574,0.029992943595835,0.0041420886268107,0.0104297265218293,-0.0021974993869662,-0.0037098699249327,0.0012643064837902,-0.3185344913229346,-0.4292127453535796,-9.797449536323548,14937.0
12.19,0.8999999761581421,142.0,23.394567489624023,-0.0397588685154914,-79.78278411045416,40.45899646337118,272.96004288864134,0.0065211476758122,0.0272557102143764,-0.7494791150093079,0.6614345908164978,0.033274836169231,0.0032780541039152,0.0109242615778735,0.0020000792574137,0.0018234014278277,-0.0026441011577844,-0.318086338788271,-0.4123083352670074,-9.797058942317962,14937.0
12.3,0.8999999761581421,144.0,23.39581871032715,-0.0397588685154914,-79.7827840752336,40.45899645438802,272.94913297367094,0.0064965807832777,0.0272605549544096,-0.7495612502098083,0.6613415479660034,0.034276463753939,0.0040339782491854,0.0131049795848784,-0.0080246636644005,-0.0025491041596978,-0.0102349249646067,-0.3152209838479757,-0.4342172675952316,-9.799428234100342,14937.0
12.49,1.0,144.0,23.39957618713379,-0.0238553211092948,-79.78278407601783,40.45899642088118,272.95027929019926,0.006485465914011,0.0272719115018844,-0.7495594620704651,0.6613431572914124,0.0385876343175962,0.0031165397770003,0.0134667724767259,0.0096399364992976,0.0039386488497257,0.0044341841712594,-0.3148827589675784,-0.4263794039189816,-9.798780947327614,14937.0
12.59,1.0,141.0,23.39957618713379,-0.0318070948123931,-79.78278405683767,40.45899644054482,272.93984287452696,0.0064848400652408,0.0272560063749551,-0.7496393918991089,0.6612532734870911,0.032994229194627,0.0007875801132898,0.0157084744756174,-0.0010463843354955,0.0010979997459799,-0.0027701305225491,-0.3179914677143097,-0.4283046362176538,-9.799260419011118,14937.0
12.79,1.100000023841858,143.0,23.39832305908203,-0.0238553211092948,-79.78278406073358,40.45899640940004,272.9412766046524,0.0064834961667656,0.0272571016103029,-0.7497245669364929,0.6611567139625549,0.0367686555771534,1.554099011424198e-05,0.0161343988851616,0.0068410295061767,0.0016615472268313,0.0035755841527134,-0.3160368531569839,-0.4341359547525645,-9.799005480408669,14937.0
12.89,1.100000023841858,144.0,23.3933162689209,-0.0318070948123931,-79.78278404146769,40.45899643350739,272.9307225294113,0.0065072369761765,0.0272725913673639,-0.7497031092643738,0.6611800789833069,0.032905206840632,-0.0012517350702772,0.0175131653099561,0.0063070557080209,0.0016912624705582,-0.0006839162670075,-0.317007308229804,-0.4223577620834113,-9.798575710058213,14937.0
13.09,1.100000023841858,147.0,23.3933162689209,-0.0318070948123931,-79.7827839799336,40.45899646338989,272.9178923912048,0.0064964732155203,0.0272689275443553,-0.7497784495353699,0.6610949635505676,0.0302354414368189,0.0049438503628274,0.0174449598954885,-0.0019322762964293,-0.002213891595602,0.0024825360160321,-0.3164816800877452,-0.4332047125697136,-9.79837807416916,14937.0
13.2,1.100000023841858,146.0,23.39832305908203,-0.0397588685154914,-79.78278397875374,40.45899640202249,272.9211398906708,0.0065050115808844,0.0272664409130811,-0.7498580813407898,0.6610047221183777,0.0369816525583525,0.003306600184478,0.018447860545111,0.0077734780497848,0.0036503076553344,0.0056174839846789,-0.3183399252220989,-0.4115034660324455,-9.795534573197363,14937.0
13.39,1.2000000476837158,144.0,23.402080535888672,-0.0318070948123931,-79.78278395327506,40.45899642809179,272.9093440122604,0.0064889239147305,0.0272655431181192,-0.7498506307601929,0.6610132455825806,0.0341848274928506,0.0026729754214874,0.0186664443826873,-0.0065226382575929,-0.0025329226627945,-0.0057655838318169,-0.3173204266279936,-0.4213849681243301,-9.79833129644394,14937.0
13.49,1.2999999523162842,143.0,23.39957618713379,-0.0238553211092948,-79.78278394738761,40.458996444691294,272.8991818971634,0.0064789042808115,0.0272680111229419,-0.7499267458915709,0.6609269976615906,0.0309283252867872,-0.0025745384619147,0.0188016069896647,0.0050359037704765,0.000734573462978,0.0045577404089272,-0.3152535455301404,-0.4188700075820089,-9.797044909000396,14937.0
13.69,1.5,143.0,23.39206314086914,-0.0477106422185897,-79.78278395492715,40.45899641548404,272.90094726753244,0.0064933858811855,0.0272839907556772,-0.7499196529388428,0.6609342098236084,0.0330841162631092,-0.0031927644384743,0.0193689237031034,-0.0037730587646365,-0.0028121930081397,-0.0032940660603344,-0.3176261994615197,-0.4115461507067085,-9.796079533696176,14937.0
13.79,1.5,145.0,23.39957618713379,-0.0318070948123931,-79.78278393194174,40.458996412675134,272.8889186925888,0.0065116831101477,0.0272746942937374,-0.7499856948852539,0.6608594059944153,0.0336636434253186,-0.0024691708195507,0.0163945232169519,-0.0055859801359474,0.0006172798457555,1.1201789675396869e-05,-0.3143211704492569,-0.4300298571959138,-9.799355728626251,14937.0
13.99,1.5,150.0,23.39581871032715,-0.0477106422185897,-79.78278394014673,40.458996380396144,272.8904299087524,0.006533462088555,0.0272744074463844,-0.7499810457229614,0.660864531993866,0.0372130853334275,-0.0032826796044439,0.0170081955552848,0.0029394901357591,0.0023440157528966,-0.00229795393534,-0.3176642063632608,-0.4133594453707337,-9.79728932261467,14937.0
14.09,1.399999976158142,150.0,23.39581871032715,-0.0477106422185897,-79.78278391394987,40.45899638483179,272.88021105003355,0.006523962598294,0.0272475089877843,-0.7500450611114502,0.6607930660247803,0.0355308880785889,-0.0026242594072173,0.0181352071890614,-0.0079728187993168,-0.0015068437205627,-0.0041917990893125,-0.3157668945193291,-0.4336510743945837,-9.799774389266966,14937.0
14.29,1.5,149.0,23.39206314086914,-0.055662415921688,-79.78278392249922,40.458996351162455,272.88188355636595,0.0065302988514304,0.0272629484534263,-0.7501232624053955,0.6607036590576172,0.0394768926049762,-0.0035974633337717,0.0186073967029152,0.0049417009577155,0.0008240889874286,0.003738218685612,-0.3166927645727992,-0.4213159709796309,-9.798365795016288,14937.0
14.41,1.5,146.0,23.384552001953125,-0.0318070948123931,-79.7827838856357,40.45899633795239,272.87242489528654,0.0065387496724724,0.0272965170443058,-0.7501108050346375,0.6607162356376648,0.0400624016966216,-0.0015288463550837,0.0193872975456189,-0.0053882854990661,-0.0023123717401176,-0.0059774997644126,-0.3172935294359922,-0.4328009988740087,-9.798242418766025,14937.0
14.59,1.7000000476837158,137.0,23.39581871032715,-0.0397588685154914,-79.78278387368726,40.45899641029705,272.8611082382202,0.0065193371847271,0.0272816643118858,-0.7501874566078186,0.6606299877166748,0.0278883709009066,-0.0054587266186569,0.0189448864103837,0.0058238818310201,0.0044154589995741,0.0089916912838816,-0.3152754360437393,-0.4289804281666875,-9.799660368561746,14937.0
14.71,1.7000000476837158,133.0,23.3933162689209,-0.0636141896247863,-79.78278389591655,40.458996356724576,272.86477773857115,0.0065482226200401,0.0272932965308427,-0.7502593994140625,0.6605476140975952,0.0330919419874695,-0.0068670960549515,0.0201099004142064,0.0007101877126842,0.0011632638052105,-0.0042846915312111,-0.3184959362447262,-0.4248019347712398,-9.797893924713136,14937.0
14.89,1.8999999761581416,131.0,23.394567489624023,-0.0318070948123931,-79.78278384140972,40.45899636854886,272.8514930553436,0.0065412912517786,0.0272984988987445,-0.7502470016479492,0.6605615019798279,0.0353044694023908,-0.0017292740193361,0.0170981164469253,0.0051045301370322,0.0003139724140055,0.0034074508585035,-0.3146636711061001,-0.433260699659586,-9.80011235833168,14937.0
15.0,1.8999999761581416,128.0,23.38580322265625,-0.0318070948123931,-79.78278379298497,40.45899637880429,272.8398862428665,0.0065657556988298,0.0273094121366739,-0.7503365278244019,0.660459041595459,0.0322502470348204,0.0011161644777732,0.0146519260086849,0.000420440279413,0.0041620791889727,0.0002180792362196,-0.3201135684549808,-0.4180253041908145,-9.797945380210876,14937.0
15.19,2.0999999046325684,127.0,23.39581871032715,-0.0397588685154914,-79.78278379684433,40.458996347939504,272.84123080444334,0.0065513513982295,0.0273198708891868,-0.750324010848999,0.660473108291626,0.0356558864468508,0.0003563722417826,0.0153035434803663,0.0006113942945376,0.0012094305129721,0.0034179338254034,-0.3142932499945164,-0.4348257069289685,-9.799411861896516,14937.0
15.29,2.0999999046325684,123.0,23.39832305908203,-0.0397588685154914,-79.78278376926802,40.45899634069587,272.8302885837555,0.0065690306946635,0.0273532420396804,-0.7504057884216309,0.660378634929657,0.0368050418226897,-0.0002305357788081,0.0140494770362995,0.0010291272774338,0.0016315253451466,0.0013654140057042,-0.3180715380236507,-0.4194018118456006,-9.798565769791605,14937.0
15.49,2.200000047683716,116.0,23.39581871032715,-0.0238553211092948,-79.78278377538874,40.45899630592246,272.8315547056198,0.0065728537738323,0.0273795779794454,-0.7503935098648071,0.6603914499282837,0.0403721946122673,-0.0010197313857085,0.0146679516706627,0.0035444933455437,0.0019136160844936,0.0040127327665686,-0.3147035418078303,-0.4347636533528567,-9.799725272655488,14937.0
15.59,2.200000047683716,113.0,23.397071838378903,-0.0477106422185897,-79.78278377193837,40.458996332825706,272.820446187973,0.0065834554843604,0.0273837000131607,-0.7504732608795166,0.6603005528450012,0.0344452800454625,-0.0053643039601828,0.0126789299882135,0.0048670507967472,0.0003578267642296,-0.0010814409470185,-0.3164567197859288,-0.4212236215174198,-9.797622613906858,14937.0
15.79,2.200000047683716,109.0,23.3933162689209,-0.0397588685154914,-79.78278378323044,40.4589963014395,272.8215961999893,0.0065923300571739,0.027391280978918,-0.7505545616149902,0.6602076292037964,0.038147491660911,-0.0059683295419715,0.0132485125243399,0.0048352130688726,0.0022817149292677,0.0040563298389315,-0.3173105959966779,-0.4350612766295672,-9.799839878082276,14937.0
15.9,2.299999952316284,109.0,23.390811920166016,-0.0397588685154914,-79.7827837461589,40.4589963135329,272.8106462306976,0.0066235079430043,0.0274032112210989,-0.7505484223365784,0.660213828086853,0.0366866001051306,-0.004921266168092,0.0125044382233204,0.004867129959166,0.005036930553615,0.0044022379443049,-0.3195449267327785,-0.4194234465435148,-9.79760916531086,14937.0
16.1,2.299999952316284,105.0,23.394567489624023,-0.0477106422185897,-79.78278369232319,40.45899634398781,272.79915755462645,0.0066062584519386,0.0273886676877737,-0.7506223320960999,0.6601306200027466,0.0333069525215768,-0.0024496605151659,0.0113653846965578,0.0019531114958226,-0.0008190265507437,0.0006165695376694,-0.3163792076334357,-0.4311693698912859,-9.799532314538958,14937.0
16.2,2.299999952316284,105.0,23.384552001953125,-0.0477106422185897,-79.7827837100698,40.45899627885443,272.80123370361326,0.0066193975508213,0.0273934546858072,-0.7506969571113586,0.6600453853607178,0.0403897013304799,-0.0037098522507018,0.0125203062889888,0.0067363954149186,0.0005515848752111,0.0060122027061879,-0.3105189453810453,-0.4360761339962483,-9.800000091791151,14937.0
16.39,2.400000095367432,103.0,23.3933162689209,-0.0318070948123931,-79.78278367804594,40.458996306151256,272.7909030265808,0.0066326991654932,0.0273985471576452,-0.7506884336471558,0.6600547432899475,0.0365548174181657,-0.0054495913310563,0.0120015817310604,-0.0091056227684021,-0.0043743145652115,-0.0047674286179244,-0.3190315411984921,-0.4164570078626275,-9.797554201483727,14937.0
16.5,2.400000095367432,103.0,23.397071838378903,-0.0159035474061965,-79.78278361908595,40.45899629991132,272.7820935792923,0.0066175963729619,0.0274159926921129,-0.7507615685462952,0.6599709987640381,0.0349110403648429,-0.0018968620542209,0.011774058196233,-0.0084340060129761,-0.0008562895818613,-0.004216228146106,-0.3185230161622167,-0.4317122838646173,-9.80035501778126,14937.0
16.69,2.5,103.0,23.39832305908203,-0.0397588685154914,-79.78278362696066,40.458996266506674,272.7831305809021,0.0066175167448818,0.027415269985795,-0.7507653236389159,0.6599667072296143,0.0390836891349738,-0.0024779610402666,0.0123119419560751,0.0038046056870371,0.001539138611406,0.0058427043259143,-0.3157765424251557,-0.4214362043514848,-9.799203701019287,14937.0
16.8,2.400000095367432,100.0,23.39832305908203,-0.0318070948123931,-79.78278359824662,40.45899628966629,272.7743174381256,0.0066336258314549,0.0274084880948066,-0.7508324980735779,0.6598904728889465,0.0324937234527602,-0.0058619071117886,0.0115125376318972,0.0038930503651499,0.0026067628059536,-0.0025797865819185,-0.3156570399552584,-0.4302367024496198,-9.799220073223118,14937.0
16.99,2.299999952316284,101.0,23.39832305908203,-0.0318070948123931,-79.78278361018944,40.45899625944804,272.7753598041534,0.0066467467695474,0.027391068637371,-0.7508170008659363,0.659908652305603,0.035667193284059,-0.0064514804031883,0.0121385046543092,-0.0003713333280757,-0.0027014256920665,0.0034736776724457,-0.31693385258317,-0.4330048839747906,-9.798689146041871,14937.0
17.1,2.299999952316284,99.0,23.39206314086914,-0.0318070948123931,-79.78278354716065,40.45899626912147,272.7671303100586,0.0066353636793792,0.0273937974125146,-0.7508866786956787,0.659829318523407,0.0330124856302609,-0.0044074200729066,0.0116148772440558,0.0015513965627178,0.0009658428025431,0.0043095760047435,-0.3192291770875454,-0.4144566753879189,-9.797624952793123,14937.0
17.3,2.400000095367432,98.0,23.39957618713379,-0.0318070948123931,-79.78278355764813,40.458996239012976,272.76818340492247,0.006670044735074,0.0273896846920251,-0.7509779334068298,0.6597254276275635,0.0360276603184639,-0.0053641248303998,0.0122913285151972,0.0011824261164292,0.0009503804612904,-0.0059272116050124,-0.3181740104779601,-0.412487004250288,-9.796769505143166,14937.0
17.4,2.400000095367432,98.0,23.39581871032715,-0.0238553211092948,-79.78278352699458,40.458996252341215,272.763153011322,0.0066805104725062,0.027360113337636,-0.7509522438049316,0.6597556471824646,0.0321003161982345,-0.0081407575950491,0.0152216811691481,5.076610977994278e-05,0.0013127591228112,-0.00180976674892,-0.316666050106287,-0.43527473654598,-9.798921280503272,14937.0
17.6,2.299999952316284,99.0,23.39581871032715,-0.0318070948123931,-79.78278344815308,40.45899625455839,272.75537651252745,0.0066650351509451,0.0273560788482427,-0.7510172724723816,0.6596819758415222,0.0318230406397847,-0.0034212848051562,0.0142792561410623,0.0010704601882025,-0.0009689008002169,0.0044744298793375,-0.3166480699181557,-0.4347017094120384,-9.800038098692896,14937.0
17.7,2.299999952316284,101.0,23.384552001953125,0.0795177370309829,-79.78278346735223,40.458996192136304,272.7580261774063,0.0066694733686745,0.0273748952895402,-0.7510994076728821,0.6595876812934875,0.0384453354457889,-0.0047496961562046,0.0153654666812016,-7.167625153670086e-05,0.0006144450162537,-0.0010974166216328,-0.3191142427548766,-0.4140547889471054,-9.79642334997654,14937.0
17.89,2.200000047683716,103.0,23.39581871032715,-0.0238553211092948,-79.78278337668459,40.45899620873313,272.7503567285537,0.0066799246706068,0.0273878071457147,-0.7510925531387329,0.6595948338508606,0.0332861321020785,-0.0003900361954904,0.0138050787655437,0.0001947389682754,0.0003607796097639,-0.0012188383843749,-0.3172877187654376,-0.4146247462928295,-9.796933811903,14937.0
17.99,2.299999952316284,103.0,23.3933162689209,0.0477106422185897,-79.78278332769274,40.45899614707781,272.74615495872496,0.0066993669606745,0.027403200045228,-0.7511613368988037,0.6595157384872437,0.041584783675671,-0.0028845956691764,0.0168056778894609,0.0015858800616115,-0.0012095447164028,-0.0020890340674668,-0.3166476679220796,-0.4359223522245884,-9.800471377372745,14937.0
18.19,2.200000047683716,105.0,23.39206314086914,0.0874695107340812,-79.78278333739316,40.45899610823246,272.7476865596771,0.0066985921002924,0.0273883249610662,-0.7511489987373352,0.6595302820205688,0.0447226671690401,-0.0033751564489039,0.0175896347610306,0.0001172652700915,0.000546469062101,0.0025498368777334,-0.3175606375560164,-0.4309938072413206,-9.79903003871441,14937.0
18.31,2.200000047683716,105.0,23.3933162689209,0.0636141896247863,-79.7827831830158,40.4589960497644,272.74388461780546,0.0066890348680317,0.027396023273468,-0.7512146234512329,0.659455418586731,0.0447477790544783,0.0090044482684667,0.019243821835008,-0.005198196042329,-0.0008598269196227,-0.0007352401153184,-0.3178813207894564,-0.4297506526485086,-9.798977413773535,14937.0
18.49,2.299999952316284,109.0,23.38705444335937,0.1431319266557693,-79.78278317945019,40.45899600604736,272.74558466148375,0.0066877985373139,0.0274002458900213,-0.7512104511260986,0.6594600081443787,0.0491101790608058,0.0081135852873767,0.0196846650000103,0.0037673390470445,0.0046833325177431,0.0040177013725042,-0.317648857422173,-0.421406858637929,-9.798203827142716,14937.0
18.59,2.299999952316284,111.0,23.390811920166016,0.0636141896247863,-79.78278306705852,40.45899594974114,272.7424487419128,0.0066923280246555,0.0274331904947757,-0.7512738704681396,0.6593862771987915,0.0489285853669232,0.0107843322980961,0.0204668326249427,0.0100481733679771,-1.6563950339332223e-05,0.0030273371376097,-0.3149071345478296,-0.4224494902789593,-9.798485662937164,14937.0
18.79,2.299999952316284,112.0,23.39206314086914,0.0715659633278846,-79.78278306169672,40.45899590378409,272.74427014064787,0.0066881366074085,0.0274295881390571,-0.7513435482978821,0.6593071222305298,0.0512404147110644,0.0102940370002211,0.0212966234231491,-0.0070768813602626,-0.0007305303006432,-0.0031102986540645,-0.3177628415822983,-0.4256191197037697,-9.798665172457696,14937.0
18.9,2.299999952316284,114.0,23.389558792114247,0.0477106422185897,-79.78278298249684,40.45899586229509,272.73917203617094,0.0066873314790427,0.0274454839527606,-0.7513301968574524,0.659321665763855,0.0487815240579856,0.0070625990905739,0.0186329167864137,-0.0009093571570701,0.0005145267932675,-0.0021425194572657,-0.3169274206459522,-0.4187636978924274,-9.799014835953711,14937.0
19.09,2.400000095367432,115.0,23.3933162689209,0.0636141896247863,-79.78278285800637,40.4589958528732,272.73478096199034,0.0066839884966611,0.027466345578432,-0.7514266371726991,0.6592108607292175,0.0428780671836406,0.0117600711216502,0.0191695910681196,0.0024305402766913,0.0018822031561285,-0.0016897832974791,-0.3179154539108276,-0.4157599466666579,-9.79706537425518,14937.0
19.19,2.400000095367432,116.0,23.389558792114247,0.0636141896247863,-79.78278284462158,40.45899576666547,272.73822742176054,0.0066969343461096,0.0274998694658279,-0.7515010237693787,0.6591246128082275,0.049971065604861,0.0108414541948589,0.0203681104673625,0.0030314398463815,0.0014106630114838,-0.0002075750817311,-0.3158009545505047,-0.4343395474925637,-9.79816406607628,14937.0
19.39,2.400000095367432,117.0,23.38830757141113,0.0636141896247863,-79.78278273182444,40.45899576355544,272.7339563913345,0.0066823163069784,0.0274931453168392,-0.7514819502830505,0.659146785736084,0.0440220178809905,0.0114069230869892,0.0207718799376562,0.0002970474597532,0.0005896770162507,0.0012335777282714,-0.3202304762229324,-0.4284076203033329,-9.800592414736748,14937.0
19.5,2.5,120.0,23.390811920166016,0.0715659633278846,-79.78278260781885,40.45899570101761,272.73195605945585,0.0067055178806185,0.0275043584406375,-0.7515559196472168,0.6590617299079895,0.0435870688882754,0.0143721972790304,0.0211860745120279,0.0047599901445209,-0.0011528538307175,0.0051699089817702,-0.3201479208469391,-0.4088503284752369,-9.797207461595535,14937.0
19.69,2.400000095367432,120.0,23.3933162689209,0.055662415921688,-79.78278259817043,40.45899565799037,272.7338586397171,0.0067206998355686,0.0275057163089513,-0.7515581250190735,0.6590589284896851,0.0467943447729864,0.0133861897241156,0.0218778793765401,-0.0032868559937924,-0.0016882010968402,-0.004943458829075,-0.3178302307426929,-0.4106768890097737,-9.796237993240355,14937.0
19.79,2.400000095367432,120.0,23.390811920166016,0.0715659633278846,-79.78278248012396,40.45899560146192,272.7321893520355,0.006705658044666,0.0275313034653663,-0.7516215443611145,0.6589857339859009,0.0440531638808606,0.0132432010557922,0.0222745119197157,-0.0070603061467409,-0.0015033419476822,-0.0080856615677475,-0.3209261852502823,-0.4136981818825007,-9.796532692909242,14937.0
19.99,2.5999999046325684,118.0,23.39206314086914,0.055662415921688,-79.78278247176995,40.45899555701292,272.7341776437759,0.0067107188515365,0.0275459140539169,-0.7516289353370667,0.6589767336845398,0.0491459550601457,0.0127519903281759,0.0226609192232282,0.0106492517516016,0.0049436963163316,0.0077727786265313,-0.3138949449732899,-0.4319437970593572,-9.79845057964325,14937.0
20.1,2.5999999046325684,117.0,23.389558792114247,0.0715659633278846,-79.78278241113607,40.45899552074897,272.7323444433212,0.0067266863770782,0.0275414064526557,-0.7517238259315491,0.6588684320449829,0.0444712125696109,0.0040510354111295,0.0225168010028682,0.0002188131329603,-0.0009597387397661,-0.0017323703505098,-0.3175252253562212,-0.4278602478280664,-9.798327203392985,14937.0
20.29,2.700000047683716,116.0,23.394567489624023,0.0636141896247863,-79.78278241278959,40.45899547875233,272.7343946046829,0.0067275711335241,0.0275262333452701,-0.7517961263656616,0.6587865948677063,0.0484342806635962,0.0036966142770788,0.0230213236817374,-2.383419996476732e-05,0.0044401888735592,0.0045278063043951,-0.3159336863458157,-0.433711958527565,-9.79920954823494,14937.0
20.41,2.700000047683716,117.0,23.39206314086914,0.0477106422185897,-79.78278228920352,40.45899542155762,272.7325754709244,0.0067162821069359,0.0275705084204673,-0.7517943382263184,0.6587868332862854,0.0474015441887186,0.0062582910158325,0.0232355979634026,0.0072771380655467,-0.0003577643074095,0.0049973712302744,-0.3147393194586039,-0.4108600164949894,-9.796624494194983,14937.0
20.59,2.799999952316284,110.0,23.390811920166016,0.0397588685154914,-79.78278219804889,40.45899541843029,272.7293954439163,0.0067123943008482,0.0275558400899171,-0.7518749833106995,0.6586953997612,0.0381357003234551,0.0053289577086958,0.0225340539418038,-0.0106305442750453,-0.0046338359825313,-0.0091263176873326,-0.3153056953847408,-0.4081798355653882,-9.795913472771645,14937.0
20.69,2.700000047683716,105.0,23.38830757141113,0.0397588685154914,-79.7827821982801,40.4589953806886,272.7314671821594,0.0067130243405699,0.0275641437619924,-0.7518647313117981,0.6587067246437073,0.0427697083208232,0.0042420679828371,0.0229610323117882,0.0108514139428734,0.0010197021765634,0.0091084083542227,-0.3153355892747641,-0.4344545549154281,-9.799665631055833,14937.0
20.89,2.799999952316284,97.0,23.397071838378903,0.0079517737030982,-79.78278209355409,40.45899531341029,272.7288779563904,0.006694208830595,0.0275816451758146,-0.7519487738609314,0.6586104035377502,0.0434795015185967,0.0066478588919766,0.0203818108154664,0.0080844927579164,0.0015142323682084,0.0069838017225265,-0.3157739477232099,-0.4375667719915509,-9.800177262425423,14937.0
20.99,2.900000095367432,93.0,23.394567489624023,0.1033730581402778,-79.78278209216342,40.45899527210448,272.7307236738205,0.0066889789886772,0.0275925863534212,-0.7519615888595581,0.6585952639579773,0.0455093499099457,0.0064599691958464,0.0211158558615201,-0.0067509706132113,-0.0030202381312847,-0.0065912664867937,-0.3192512137815356,-0.4088203614950181,-9.795862017273905,14937.0
21.2,3.0,91.0,23.38329887390137,0.0477106422185897,-79.7827819561068,40.45899522243164,272.7278259344101,0.0066977571696043,0.0275961440056562,-0.7520473599433899,0.6584970951080322,0.0420591772168392,0.010761639613393,0.0190054973240003,0.0036565891932696,-0.0003990313853137,0.0010800369782373,-0.3141413685679436,-0.418284920565784,-9.796685305237771,14937.0
21.3,3.0,90.0,23.389558792114247,0.055662415921688,-79.78278194987186,40.45899518190642,272.7295258588791,0.0066941874101758,0.0275824293494224,-0.7521235346794128,0.6584107279777527,0.0450286649925118,0.0103198889311407,0.0198109005373521,-0.0082682380452752,-0.0032045494299381,-0.0021412139758467,-0.319425058811903,-0.4255059029906989,-9.797830774784089,14937.0
21.49,2.900000095367432,89.0,23.394567489624023,-0.0159035474061965,-79.78278186338895,40.458995155737206,272.72874134254454,0.0067096147686243,0.0276071764528751,-0.7521432042121887,0.6583869457244873,0.0388460375349283,0.0068341244232561,0.0210511756855156,-0.0068148844875395,-0.0015488966600969,-0.0061552920378744,-0.3198824572563171,-0.4113508171588183,-9.7971945977211,14937.0
21.6,2.799999952316284,87.0,23.394567489624023,-0.0318070948123931,-79.7827817629025,40.45899514424579,272.72619729709623,0.0066970749758183,0.0275979209691286,-0.7522354125976562,0.6582821011543274,0.0341646515928267,0.0077666749378956,0.021018118972275,0.008361023850739,0.0030740569345653,0.0031768353655934,-0.3151000561192632,-0.4335649010539055,-9.800000091791151,14937.0
21.79,2.799999952316284,83.0,23.394567489624023,-0.0238553211092948,-79.78278175535208,40.45899507582444,272.73013442230217,0.0067078378051519,0.0275672376155853,-0.752307653427124,0.6582008600234985,0.0411598178907216,0.0071563616625078,0.0222570959675204,0.009568478912115,0.0027208121027797,0.0033623911440372,-0.3149683841317892,-0.4308729160577059,-9.801204033493995,14937.0
21.9,2.799999952316284,80.0,23.38830757141113,0.0318070948123931,-79.78278163566894,40.45899504211671,272.72781127166746,0.0067029991187155,0.0275686178356409,-0.7523056864738464,0.6582030653953552,0.0372141088615861,0.0120864962830378,0.0223770509187089,-0.0057271416299045,-0.0053401035256683,-0.0036260709166526,-0.3171185515075922,-0.4113443486765027,-9.796399961113927,14937.0
22.09,2.700000047683716,79.0,23.39581871032715,-0.0238553211092948,-79.78278157723739,40.458995035198704,272.72501760196684,0.0066922684200108,0.0275613162666559,-0.7523795366287231,0.6581190228462219,0.0259696470718854,0.0016088489402944,0.0171912942809602,-0.0077140852808952,-0.0026105709839612,-0.0061686383560299,-0.3228630388900638,-0.4189863306283951,-9.7971677005291,14937.0
22.2,2.700000047683716,82.0,23.39206314086914,0.0,-79.78278158224852,40.45899498005338,272.7282407827377,0.006711094174534,0.0275588873773813,-0.752455472946167,0.6580321788787842,0.0328675743701328,0.0011929009633702,0.0182649144602324,-0.0031109128613024,-0.0033384289126843,-0.00125285575632,-0.3185185576602817,-0.4228680778294802,-9.797834867835045,14937.0
22.39,2.5999999046325684,85.0,23.39832305908203,-0.0238553211092948,-79.78278148928648,40.45899494516825,272.72640305233,0.0067209368571639,0.0275582931935787,-0.7524533867835999,0.6580344438552856,0.0336407821383146,0.0018011985728288,0.0194231054941478,0.0051898872479796,0.0048925019800662,0.0049870605580508,-0.3142938712611795,-0.4213249245285988,-9.7981131953001,14937.0
22.5,2.5999999046325684,87.0,23.39832305908203,-0.0159035474061965,-79.7827814924902,40.45899491283721,272.72820156288145,0.0067136823199689,0.0275474302470684,-0.7524582743644714,0.6580294370651245,0.0368534969877492,0.0013248972333827,0.0199981725712757,-0.0047409865073859,-0.0056299045681953,0.0012487763306125,-0.3173213037103414,-0.4264551984518767,-9.798570447564128,14937.0
22.69,2.400000095367432,87.0,23.394567489624023,-0.0318070948123931,-79.78278139476579,40.45899484478125,272.7287750787735,0.0067075104452669,0.0275480076670646,-0.7525514364242554,0.6579228639602661,0.0372580278567263,0.0033526574558031,0.0209702889560865,-0.0015162549680098,-0.0003337744856253,0.0033488417975604,-0.3150375274568796,-0.4368313384428621,-9.798881519436836,14937.0
22.8,2.299999952316284,88.0,23.394567489624023,-0.0238553211092948,-79.7827813967633,40.45899480919108,272.7307029314041,0.0067099132575094,0.0275447461754083,-0.7526297569274902,0.6578333973884583,0.0408108509641426,0.0026578214180141,0.0215372732285157,-0.0035755967255681,0.0005709280958399,-0.0040849945507943,-0.3177766190841794,-0.4144544826820493,-9.796965386867525,14937.0
22.99,2.200000047683716,86.0,23.39581871032715,-0.0159035474061965,-79.78278127352823,40.4589947280526,272.731609875679,0.0066991257481276,0.0275285765528678,-0.7526196837425232,0.6578457355499268,0.0416635399306912,0.0078022028066342,0.0224861693308304,-0.0095885880291461,-0.0034684494603425,-0.0070432829670608,-0.3204675077274442,-0.4110005323961377,-9.796339150071145,14937.0
23.09,2.200000047683716,84.0,23.39832305908203,-0.0238553211092948,-79.78278119128346,40.45899471731885,272.7287395544052,0.0066821305081248,0.0275083035230636,-0.7526982426643372,0.6577567458152771,0.0334344677473136,0.0058537965455209,0.0181094533044379,0.0068754986859858,0.0035651375073939,0.007343343924731,-0.3104163267463445,-0.4340637781843543,-9.798847020864487,14937.0
23.29,2.299999952316284,87.0,23.39581871032715,-0.0159035474061965,-79.78278118954177,40.45899465002551,272.7321246213913,0.00669188471511,0.0274950712919235,-0.7527838349342346,0.6576592326164246,0.0407615085121468,0.0044088912703393,0.01926833179721,0.0053295805118978,0.0018367908196523,0.0038787329103797,-0.3177997155860067,-0.4174485494568944,-9.79872130572796,14937.0
23.39,2.299999952316284,89.0,23.394567489624023,-0.0318070948123931,-79.78278110383819,40.45899463296807,272.7318605728149,0.0066746673546731,0.0274939555674791,-0.7527743577957153,0.6576703786849976,0.0321585279844228,0.0037638300429711,0.0202020990666505,-0.0074412324465811,-0.0029891112353652,-0.0014497099909931,-0.3189082014933229,-0.4276697747781873,-9.797690441608433,14937.0
23.59,2.299999952316284,92.0,23.39581871032715,-0.0159035474061965,-79.78278100931401,40.45899456453437,272.7337661333084,0.0066672628745436,0.0275030136108398,-0.7528380155563354,0.6575972437858582,0.0330030425393456,0.0051036399799417,0.0212902462969582,0.0005356180481612,-0.0022684920113533,0.0028295973315835,-0.3187925728037953,-0.4311167084053159,-9.79926509678364,14937.0
23.7,2.400000095367432,93.0,23.3933162689209,-0.0397588685154914,-79.78278100812744,40.45899453208054,272.73573570919035,0.0067047569900751,0.0275107938796281,-0.7528450489044191,0.6575885415077211,0.0361186776059394,0.0046235016369862,0.0217261761580903,-0.0027087978087365,-0.0009650436113588,-0.0053119519725441,-0.3233393311500549,-0.4095804995298386,-9.795421721935272,14937.0
23.89,2.5,94.0,23.39206314086914,-0.0159035474061965,-79.7827809084832,40.45899446919488,272.73821252059935,0.0067241871729493,0.0274949502199888,-0.7529104351997375,0.6575140953063965,0.034008155222059,0.006793127965578,0.02228346304064,-0.004585990216583,-0.0034132213331758,-0.0057559655979275,-0.3143540244922042,-0.4147405577078462,-9.7957257771492,14937.0
24.09,2.5,95.0,23.397071838378903,-0.0238553211092948,-79.78278082770079,40.45899438416483,272.7407672948837,0.0067329201847314,0.0274901408702135,-0.7529827952384949,0.6574313044548035,0.0381107975295122,0.0053143332670308,0.0226997714819249,-0.0069640539586544,-0.0045542772859334,-0.0044456981122493,-0.3201637083292008,-0.4219461546465755,-9.797160683870317,14937.0
24.2,2.5999999046325684,95.0,23.39206314086914,-0.0318070948123931,-79.78278082748788,40.45899434641443,272.7428505964279,0.0067534744739532,0.027489673346281,-0.7529788613319397,0.6574355959892273,0.0424880275006892,0.004945218684719,0.0231421309071367,0.0056057209149003,0.0032307426445186,0.0029399415943771,-0.3155218230932951,-0.4213875993713737,-9.79846519768238,14937.0
24.29,2.700000047683716,94.0,23.39581871032715,-0.0159035474061965,-79.78278082821905,40.45899430622093,272.74497442913054,0.0067529748193919,0.0274819489568471,-0.7530584335327148,0.6573448181152344,0.0456199207354386,0.0045928616222026,0.0237057313856004,0.0008053530473262,-0.0016402633627876,0.0024564852938055,-0.3155006634816527,-0.4345394857227802,-9.797831359505654,14937.0
24.49,2.799999952316284,92.0,23.39832305908203,-0.0159035474061965,-79.78278078576886,40.45899429762405,272.74485009384153,0.0067675872705876,0.0274634081870317,-0.7530542016029358,0.6573502421379089,0.0357056626625655,-0.002330101870414,0.0186049401313854,0.0081489067524671,0.0016887234523892,0.0028421061579138,-0.3138977589458227,-0.4301053593680263,-9.79925515651703,14937.0
24.59,2.900000095367432,92.0,23.397071838378903,-0.0238553211092948,-79.78278070685991,40.45899424592115,272.7477610654831,0.0067762434482574,0.0274473968893289,-0.7531325817108154,0.6572611331939697,0.0337572201424204,-0.0005755666145105,0.0198068103914996,0.005433187354356,0.0041829873807728,0.0024745548143982,-0.318641860820353,-0.4208697187900544,-9.796858967542647,14937.0
24.8,3.0,93.0,23.389558792114247,-0.0238553211092948,-79.78278071238967,40.45899421452797,272.7496147699356,0.0067704273387789,0.0274498108774423,-0.7532150745391846,0.6571665406227112,0.0368581993941057,-0.0010031629899259,0.0205068928929056,-0.000629098736681,0.0007395150605589,0.0001184643842861,-0.3181810636818409,-0.4320490103960037,-9.798802582025528,14937.0
24.9,3.0,93.0,23.394567489624023,0.0,-79.78278066151275,40.45899418060903,272.7491502113342,0.0067905634641647,0.0274453125894069,-0.7532216310501099,0.6571589112281799,0.0354060555767527,-0.0034831066770484,0.017744663589593,-0.0051869456656277,0.0010056487517431,-0.0058188745751976,-0.3196468510106206,-0.4100036552175879,-9.796843764781952,14937.0
25.09,2.900000095367432,91.0,23.39581871032715,-0.0238553211092948,-79.78278058797474,40.45899410927973,272.7524152345657,0.0067596971057355,0.0274642184376716,-0.7533003091812134,0.6570683717727661,0.0363556626485682,0.0005562848504401,0.019541335988197,-0.0077717155218124,-0.0063044470734894,-0.0053137317299842,-0.3179512315616012,-0.4163523792475462,-9.796929134130476,14937.0
25.2,2.900000095367432,90.0,23.39581871032715,-0.0318070948123931,-79.78278059345669,40.45899407396519,272.7542126722336,0.0067517650313675,0.0274928659200668,-0.7533051371574402,0.6570615768432617,0.0409471436089593,-0.0003213183233772,0.0200124729002693,0.0061885938048362,0.0030238176696002,0.0040913890115916,-0.3168468387052417,-0.4193822236731649,-9.798373981118203,14937.0
25.39,2.900000095367432,85.0,23.3933162689209,-0.0159035474061965,-79.78278050269066,40.45899403017507,272.75994079780577,0.0067424196749925,0.0274917613714933,-0.7533866763114929,0.6569682955741882,0.0349419213211821,0.0032358537996337,0.0248505834277147,-0.0027757009956985,-0.0009445158066228,-0.0054939142428338,-0.3210686745867133,-0.4099966385588049,-9.796463111042977,14937.0
25.49,2.900000095367432,84.0,23.394567489624023,-0.0159035474061965,-79.78278044852044,40.45899397801726,272.7623168773651,0.0067363609559834,0.0275260228663682,-0.7534499168395996,0.656894326210022,0.0334875185442349,0.0021510849404766,0.0217755535974961,-0.0090653598308563,-0.0025740817654877,-0.0083616357296705,-0.3154699655994773,-0.4347101878747344,-9.799132949709891,14937.0
25.69,3.0999999046325684,81.0,23.394567489624023,-0.0318070948123931,-79.78278045143885,40.458993944672656,272.7643386669159,0.0067377462983131,0.0275347046554088,-0.7534437775611877,0.6569010019302368,0.0384823037130346,0.0016642527855326,0.0222253645062036,0.008060147985816,0.000305236200802,0.0057581402361392,-0.3157970076799393,-0.4270405412837863,-9.799443436861036,14937.0
25.8,3.2000000476837163,77.0,23.397071838378903,-0.0238553211092948,-79.78278045528134,40.4589939091512,272.7663978881836,0.006744694430381,0.0274999756366014,-0.7535219192504883,0.656812846660614,0.041083442987778,0.0016115631876948,0.0228413426076234,-0.0037602866068482,-0.0020577043760567,-0.0006185879465192,-0.3150032116100192,-0.4261746417358518,-9.799032962322237,14937.0
25.99,3.2000000476837163,76.0,23.394567489624023,-0.0159035474061965,-79.78278036290503,40.45899383910719,272.7704067773819,0.0067360624670982,0.0274972096085548,-0.7535247206687927,0.6568098664283752,0.0423864851714743,0.006091234244657,0.0234682362824175,0.0017872848547995,-0.0007299171993508,0.0044469055719673,-0.3164146563783288,-0.4357619557902217,-9.798253528475762,14937.0
26.09,3.2000000476837163,74.0,23.39581871032715,-0.0238553211092948,-79.78278030843158,40.45899383749447,272.7722206659317,0.0067370855249464,0.0274923741817474,-0.7536176443099976,0.6567033529281616,0.0334881438096264,0.0041492209990711,0.0228098962068835,-0.0001629184989724,0.000852272612974,-0.0055424459278583,-0.319407005533576,-0.4096765400469303,-9.795546852350236,14937.0
26.3,3.2000000476837163,71.0,23.397071838378903,-0.0318070948123931,-79.78278030996387,40.45899376889759,272.7765110082626,0.0067575643770396,0.0274943560361862,-0.753699004650116,0.6566097140312195,0.0407188062322971,0.0034751321160364,0.0237289069081185,0.0030613078270107,0.0012190156849101,-0.0016003544442355,-0.3169242046773434,-0.4175194104015828,-9.796929718852043,14937.0
26.39,3.2000000476837163,69.0,23.389558792114247,-0.0477106422185897,-79.78278025864951,40.45899371269685,272.7805899925232,0.0067456644028425,0.0274975225329399,-0.7536976933479309,0.6566111445426941,0.0416831783141753,0.00204256541206,0.023704576394288,0.0110684111714363,0.0030540891457349,0.005512208212167,-0.3175577139481902,-0.424592275545001,-9.79691042304039,14937.0
26.59,3.299999952316284,64.0,23.39581871032715,-0.0318070948123931,-79.78278020895881,40.45899369806775,272.78293805789946,0.0067377514205873,0.0274927392601966,-0.753797709941864,0.6564965844154358,0.0353144027436384,0.0018243797243115,0.023527027467319,-0.0097785862162709,-0.0031287774909287,-0.006572370417416,-0.3195087470859289,-0.4131193440780044,-9.795930429697036,14937.0
26.71,3.299999952316284,63.0,23.39581871032715,-0.0397588685154914,-79.78278021274896,40.45899366288901,272.7851234025955,0.0067344182170927,0.0275028347969055,-0.7537901997566223,0.6565049290657043,0.0405073039664258,0.0013162953246711,0.0238204940614703,0.0129551533609628,-0.0002744985686149,0.0072774733416736,-0.3133921209722757,-0.4393248470127583,-9.79920954823494,14937.0
26.89,3.299999952316284,61.0,23.394567489624023,-0.0477106422185897,-79.78278016671908,40.45899360941344,272.78984933567045,0.0067339441739022,0.0275039039552211,-0.7538678050041199,0.6564157009124756,0.0392143957134012,0.0013392471207556,0.0239405404393736,-0.0009303219267167,-0.001629858277738,0.0028574804309755,-0.3184627532958985,-0.43736606631428,-9.798700840473176,14937.0
26.99,3.0999999046325684,63.0,23.389558792114247,0.0,-79.78278009083465,40.45899355607207,272.7947452611923,0.006730799563229,0.027493929490447,-0.7539422512054443,0.6563307046890259,0.0376997852362086,0.007152525951107,0.0243411416147019,-0.0067674545571208,-0.0029529235325753,-0.0032640960998833,-0.3149268689006567,-0.4193794097006321,-9.796879432797432,14937.0
27.19,3.0,64.0,23.3394775390625,1.0973447561264038,-79.78278008868925,40.45899351839708,272.7969847269058,0.0067277722992002,0.0274740625172853,-0.7539643645286559,0.6563060879707336,0.0428125441020382,0.006308904280113,0.0246987006427432,0.0060841469094157,0.001447080867365,0.009644266217947,-0.3159415435418487,-0.4272714697569609,-9.798863393068316,14937.0
27.29,3.0,63.0,23.37954330444336,0.2544567584991455,-79.78278008772544,40.458993478531546,272.7992700881958,0.0067458897829055,0.0274723172187805,-0.7539994716644287,0.6562657356262207,0.0450308561768944,0.005118938483274,0.025489448279977,-0.0075686583295464,0.0034670343156903,0.0053388024680316,-0.3203334237635136,-0.4005486709624529,-9.7988552069664,14937.0
27.49,2.900000095367432,67.0,23.37703895568848,0.278312087059021,-79.78278007490285,40.4589934947068,272.8008413858413,0.0067206514067947,0.0274791922420263,-0.7540301680564879,0.6562303304672241,0.0337617932322441,-0.0008391923022124,0.0200608834074447,-0.0074619525112211,-0.0043048858642578,-0.003311914158985,-0.3271667723357677,-0.4112898233905435,-9.79468497276306,14937.0
27.59,2.799999952316284,69.0,23.37703895568848,0.2703603208065033,-79.78278005192726,40.45899348210508,272.8017252035141,0.0067147319205105,0.0274627208709716,-0.754155158996582,0.6560873985290527,0.0338060949603031,-0.0022283862117594,0.0178765598008962,-0.0006264342810027,-0.0039235739968717,-0.0034070266410708,-0.3149775934964418,-0.4419110339507461,-9.795878974199296,14937.0
27.79,2.700000047683716,66.0,23.37703895568848,0.2624085247516632,-79.78278007050835,40.45899341630771,272.805096203804,0.0067144129425287,0.0274739824235439,-0.7542191147804259,0.656013548374176,0.0402807456725489,-0.0027439231415095,0.0188038554904846,-0.0016360545996576,-0.0072596906684339,-0.0099486131221055,-0.3146676910668611,-0.4301012297719717,-9.797265349030496,14937.0
27.9,2.5999999046325684,67.0,23.37703895568848,0.3339745104312897,-79.78278000995705,40.4589933768461,272.8096700258255,0.0067228809930384,0.0274929627776146,-0.7541988492012024,0.656035840511322,0.0378842748482973,0.0014850643645988,0.0203665286129245,-0.0092516876757144,-0.004643318708986,-0.0143343461677432,-0.3236097648739814,-0.4262524827942252,-9.795121175050737,14937.0
28.09,2.400000095367432,70.0,23.374534606933597,0.3737333714962005,-79.78277996280492,40.45899336977069,272.81257491779326,0.006724439561367,0.0274929646402597,-0.7542732357978821,0.6559503674507141,0.0373796599492175,0.0042297549696196,0.0212424151184513,0.0091797243803739,0.0047223549336194,0.0136679057031869,-0.3177614894136786,-0.4375341006740928,-9.799087341427803,14937.0
28.19,2.400000095367432,71.0,23.36577033996582,0.4055404663085937,-79.78277996292685,40.458993334653954,272.8145449705124,0.0067355753853917,0.0274996906518936,-0.7542614936828613,0.6559634804725647,0.0387870041929986,0.0046019178141025,0.0220424380328797,-0.0062798233702778,-0.0001929706195369,-0.0164926499128341,-0.3216411900892854,-0.4108773754164577,-9.79369971692562,14937.0
28.39,2.5,72.0,23.28188323974609,1.5983065366744995,-79.78277993667588,40.458993325178106,272.8192493267059,0.006825300399214,0.0277348551899194,-0.7544149160385132,0.6557761430740356,0.0391667428874383,0.0009021515046098,0.0294359931537839,0.0369420275092124,0.0031201632227748,-0.0019645066931843,-0.3702128045260906,-0.3593448406085372,-9.85000197172165,14937.0
28.49,2.5,74.0,23.36451911926269,0.3498780429363251,-79.78277993673069,40.4589932887189,272.8213449068069,0.006933799944818,0.0283301062881946,-0.7544804215431213,0.6556743383407593,0.0416691769193646,0.0042426484567358,0.0220446443919846,0.0581751987338066,0.0305792801082134,0.0150363082066178,-0.3375734640285373,-0.5024639221653342,-9.794080955386162,14937.0
28.7,2.400000095367432,78.0,22.409204483032227,11.943564414978027,-79.78277990374795,40.45899321859947,272.82542663288115,0.0069434680044651,0.0285850875079631,-0.7545306086540222,0.6556053161621094,0.0454998583747486,0.0005881235806091,0.0232898178173429,0.0124984020367264,0.0193408336490392,-0.0165449697524309,-0.3643552831560373,-0.4310615983977914,-9.794397874474528,14937.0
28.79,2.400000095367432,79.0,23.31318473815918,1.2802356481552124,-79.78277993982442,40.45899322512497,272.8273107357025,0.0071150050498545,0.0289341732859611,-0.7547980546951294,0.6552802324295044,0.0415767868121677,-0.0075802619801535,0.0162493529957968,0.0619082190096378,0.0246883537620306,0.0149343283846974,-0.3160887471958995,-0.4309732688963413,-9.80762836933136,14937.0
28.99,2.299999952316284,82.0,23.369525909423828,0.1908425688743592,-79.78277995162526,40.45899319324764,272.82901888561247,0.0070605701766908,0.0290099829435348,-0.754713237285614,0.655375063419342,0.0366026077809169,-0.0092091759535611,0.017439501070007,-0.0127611458301544,0.0200903061777353,0.0012156950542703,-0.3194692418351769,-0.4391605402529241,-9.80211386024952,14937.0
29.1,2.200000047683716,84.0,23.34573745727539,0.9701164364814758,-79.78277994113395,40.45899322971595,272.8307928390504,0.0069761974737048,0.0290784984827041,-0.7548006176948547,0.6552724242210388,0.0270088079665006,-0.0066039484207868,0.0195676037089879,-0.010317507199943,0.0103211151435971,-0.0037214667536318,-0.3496461736410856,-0.4394766188040376,-9.801645498275755,14937.0
29.29,2.200000047683716,85.0,23.17671012878418,3.506732225418092,-79.78277996400939,40.45899317450313,272.8345827407837,0.0069427927955985,0.0290703307837247,-0.7548613548278809,0.6552031636238098,0.035421826860574,-0.0075945612107893,0.020274270321485,0.0064240521751344,-0.010866530239582,0.0153180789202451,-0.3433554466813803,-0.4768162070587278,-9.78882372379303,14937.0
29.39,2.200000047683716,86.0,23.12788009643555,4.301909923553467,-79.78277994049658,40.45899314712149,272.8360198087692,0.0070178802125155,0.0289559978991746,-0.7549211978912354,0.6551384925842285,0.0370945412483644,-0.0019258838280991,0.0186810839352522,0.0012741840910166,0.0046112607233226,0.0254686828702688,-0.2931267496012151,-0.4905528880655766,-9.815733779668813,14937.0
29.59,2.0999999046325684,88.0,23.01144027709961,6.361419200897218,-79.7827799446799,40.45899316314753,272.8360390014648,0.0070437686517834,0.0288313534110784,-0.7551760673522949,0.6548499464988708,0.0367940887245004,-0.0022389090457398,0.0179594413792061,0.0231236908584833,-0.0221871566027402,-0.036576185375452,-0.3705431356653571,-0.5020611586421728,-9.809174957871438,14937.0
29.69,2.0999999046325684,89.0,22.94883728027344,7.546233654022218,-79.78277995477875,40.45899313232707,272.8377051897049,0.0071055549196898,0.0283937025815248,-0.7552307844161987,0.6548052430152893,0.0393307477802015,-0.0048547454521424,0.0177317518191431,0.0113778375089168,0.0063090319745242,0.0013978568604215,-0.3236540209874511,-0.4532418049871922,-9.81780369400978,14937.0
29.89,1.8999999761581416,87.0,22.799842834472656,10.090801239013672,-79.78277996057201,40.45899315090813,272.8405660934448,0.0073586110956966,0.0279466975480318,-0.7556525468826294,0.6543349027633667,0.0282737012784651,-0.0054421781976785,0.0192067905088948,-0.0355539806187152,-0.0260352529585361,0.0452867336571216,-0.3252527228370309,-0.5070505146682263,-9.774274681806563,14937.0
29.99,1.7999999523162842,86.0,22.73223304748535,11.498265266418455,-79.78277997003596,40.45899312256217,272.8424952573776,0.0076613239943981,0.0277400873601436,-0.7556340098381042,0.6543615460395813,0.0377633365773405,-0.0044764873157595,0.0207251301321151,-0.0335567593574523,-0.042000189423561,0.0824314728379249,-0.3189295072853565,-0.4199063534662128,-9.791821006536486,14937.0
30.19,1.7000000476837158,86.0,22.560701370239247,14.877769470214846,-79.78277997224356,40.45899310316148,272.84594112110136,0.0088966060429811,0.027036027982831,-0.7559986710548401,0.6539540290832521,0.0299623568261039,-0.0101361153724603,0.0251596747197028,-0.071882888674736,-0.0277522839605808,0.1366147994995117,-0.4415784370154143,-0.4944146816432477,-9.75646932542324,14937.0
30.39,1.7000000476837158,84.0,22.376649856567383,17.80402183532715,-79.78277995856115,40.45899310203696,272.8490892000198,0.0114732487127184,0.0256916917860508,-0.7560510635375977,0.6539076566696167,0.0314230230789712,-0.0003099472418028,0.0245672626670563,-0.0098141366615891,-0.0371316336095333,0.0967707931995391,-0.223711967524141,-0.5155273693799973,-9.794679710268976,14937.0
30.49,1.7000000476837158,85.0,22.29401588439941,19.48184585571289,-79.78277996718782,40.45899306713948,272.8514335699081,0.0126053309068083,0.0256203413009643,-0.7557439208030701,0.654244601726532,0.044202246152933,0.0017617490112851,0.024695132037661,0.0367496199905872,-0.0193764623254537,0.0365944765508174,-0.2291986657865345,-0.6184859465807676,-9.760229085087778,14937.0
30.6,1.600000023841858,84.0,22.197607040405277,21.461837768554688,-79.78277995524677,40.45899307697228,272.8522803134918,0.0135608343407511,0.0264237895607948,-0.7556428313255309,0.6543102264404297,0.0361340493369862,0.0109151670772972,0.0327740040532771,0.0231431107968092,-0.0293941479176282,0.0515545904636383,-0.1643681190535426,-0.6083095255494118,-9.87196060538292,14937.0
30.79,1.5,85.0,21.99978256225586,24.85724449157715,-79.78277991042242,40.45899297242988,272.86743026447294,0.0092696594074368,0.0172334276139736,-0.7558748722076416,0.6544235944747925,0.0729241440105402,0.0459954644976873,0.1479550083425483,-0.1731739491224289,-0.0152024216949939,0.097466692328453,-0.0343420451274141,-0.4538797362148762,-10.481265034675598,14937.0
30.89,1.600000023841858,83.0,22.30152702331543,19.521604537963867,-79.78277982765657,40.45899284741783,272.90489643287657,0.0037044435739517,0.00449756719172,-0.7564348578453064,0.6540431976318359,0.1166455751889705,0.0551920455355977,0.3424861076296594,0.0407502390444278,0.1702363789081573,-0.0153753710910677,0.0127410554978996,-0.0970222280547022,-10.896364721059802,14937.0
31.1,1.7999999523162842,79.0,22.280242919921875,19.609073638916016,-79.7827797151739,40.45899274495729,272.92013030719755,0.0079189278185367,-0.0005829608417116,-0.7562777400016785,0.6542025804519653,0.1184440277041934,0.0654860619251828,0.3251462028275257,-0.0692011788487434,0.1715514808893203,0.0049631111323833,0.0432215217500925,-0.0258656974788755,-10.248896684646605,14937.0
31.19,1.7999999523162842,74.0,22.262714385986328,19.680641174316406,-79.78277965392267,40.458992628948174,272.95226996612547,0.0077692279592156,-0.0071098767220973,-0.7548782229423523,0.6557804942131042,0.1173046005176664,0.0607407800535867,0.3150885743818712,-0.0957827717065811,0.0935720428824424,-0.0461355634033679,-0.0537665914557874,-0.1192150244303047,-9.79498318076134,14937.0
31.39,1.7999999523162842,75.0,22.197607040405277,20.6507568359375,-79.78277941917612,40.45899255516208,272.9828707523346,0.0048110024072229,-0.0071590887382626,-0.7523424625396729,0.6587157845497131,0.0992837312716871,0.0581431913319589,0.2376909203228995,0.0013026763917878,-0.0104107102379202,0.0499194748699665,0.0101965208351612,0.0166845182329416,-9.726401188373568,14937.0
31.5,1.7999999523162842,81.0,22.17256546020508,20.85750389099121,-79.78277936924438,40.458992453247966,273.0064299650192,0.005483484826982,-0.0040468843653798,-0.7521429061889648,0.6589648723602295,0.1060940031749614,0.0475423084552757,0.2304425931569947,0.0264701563864946,0.0017590012867003,0.0378696136176586,-0.0060912227025255,0.0265853572497144,-9.7366267991066,14938.0
31.69,1.7000000476837158,81.0,22.17882537841797,20.8813591003418,-79.7827795737678,40.45899242549972,273.0509847946167,0.0016210647299885,-0.0018366833683103,-0.7542257308959961,0.6566106081008911,0.0888553878815655,0.0125372781659828,0.2340227191177076,-0.0694873183965683,-0.1613361090421676,0.0733515471220016,0.0832450916245579,-0.0384957655146718,-9.811995069980622,14938.0
31.8,1.7000000476837158,83.0,22.084922790527344,22.424001693725582,-79.78277939814954,40.4589922316742,273.11084633541105,-0.0003314794739708,-0.0007498612394556,-0.7601553201675415,0.6497409343719482,0.1127062689740475,0.0269729045590821,0.2743699275756239,0.0022478597238659,0.108249194920063,0.0901069045066833,0.0222917559323832,0.1418165411800146,-9.979467512369157,14938.0
31.99,1.7000000476837158,88.0,22.17506980895996,20.51557731628418,-79.78277938672394,40.458992129609264,273.1392961091995,0.0020361121278256,-0.0050403075292706,-0.7632724642753601,0.6460538506507874,0.1257949980948851,0.020798687720848,0.2984554736826663,0.0990126058459282,0.1245693191885948,0.0865695104002952,0.0108939223573543,0.0583508679131046,-10.089679341316224,14938.0
32.09,1.7000000476837158,92.0,22.118728637695312,21.501596450805664,-79.7827794635075,40.45899214324426,273.17535286617283,0.0035003735683858,-0.0045907231979072,-0.7660009860992432,0.642813503742218,0.1028886218370198,0.0130708335050017,0.3115172055956535,0.0325377508997917,-0.0093216598033905,0.0625750198960304,0.0559549804357811,0.1451736286841333,-9.954937273263932,14938.0
32.3,2.0,97.0,22.171314239501957,20.181602478027344,-79.78277946405176,40.45899194251267,273.23932140541075,0.0002014503988903,-0.0008710632100701,-0.7674390077590942,0.6411214470863342,0.1069199396165962,0.0207586640761438,0.3301935902868186,-0.107896402478218,-0.0050360630266368,-0.0487934798002243,0.0292708966042846,0.0489062122162431,-9.901662122011183,14938.0
32.39,2.0,103.0,22.14877700805664,20.8813591003418,-79.78277908123727,40.45899162418849,273.3174845523834,-0.0036541139706969,-0.0087793292477726,-0.7650560736656189,0.6438935399055481,0.114334172818087,0.0646395840698168,0.326023473371807,-0.0721590593457222,0.0284542106091976,0.0022744287271052,-0.0384804439824074,0.0317345957946963,-9.84722922205925,14938.0
32.59,1.7999999523162842,114.0,22.07490539550781,22.050268173217773,-79.78277888100679,40.45899150855029,273.3637803144455,-0.0048902966082096,-0.010474351234734,-0.7641162872314453,0.6449750661849976,0.1097755141238877,0.0868213813067699,0.3535925965049794,-0.0062874727882444,0.005809555761516,-0.0291357673704624,-0.0244217641185969,0.118360097547993,-9.93700854063034,14938.0
32.69,1.7999999523162842,119.0,22.166305541992188,20.467866897583008,-79.78277881654637,40.45899140864638,273.4008098192215,0.0001372543629258,-0.0115388482809066,-0.7636289000511169,0.6455522179603577,0.1046245898180344,0.068718003000456,0.3780478351545264,0.0980472192168235,0.0736831575632095,-0.0081628933548927,-0.0707170849107206,0.1675401969999075,-9.998553993701936,14938.0
32.89,1.8999999761581416,125.0,21.96973419189453,23.250986099243164,-79.78277884798558,40.45899123135172,273.4824064321518,0.0051878788508474,-0.0101668518036603,-0.7625265121459961,0.6468563675880432,0.0957369508751713,0.037762444124837,0.2510072008585381,0.0349277630448341,0.0093468381091952,-0.0469702258706092,0.1369899570196867,0.0369354086089879,-8.733828729987145,14938.0
32.99,1.8999999761581416,126.0,21.96472549438477,23.39411926269531,-79.7827788358852,40.45899114633615,273.5021950550079,0.0062249028123915,-0.0065237181261181,-0.7624764442443848,0.6469531655311584,0.0956655207488948,0.0228214900850389,0.1677186531400845,0.0672500506043434,-0.0300795994699001,0.0030728394631296,0.0706074678897857,-0.0355729251354932,-9.01182231903076,14938.0
33.19,2.0,122.0,21.785682678222656,26.495309829711918,-79.78277872995629,40.45899095661797,273.56732993793486,0.0027334853075444,-0.0040936646983027,-0.7630492448806763,0.6463216543197632,0.083051048250214,0.0194903776906545,0.2578540889456495,-0.0857353582978248,-0.0540046840906143,0.054985586553812,0.1060699263308197,-0.2732398027181625,-10.215742971897123,14938.0
33.29,2.0999999046325684,123.0,21.654216766357425,28.936504364013672,-79.78277875774836,40.45899079668725,273.67115276527403,0.0005004677805118,-0.0041694627143442,-0.7640656232833862,0.6451249122619629,0.0666226847200735,0.0090283513599593,0.5348065040574378,0.0296670030802488,0.0171859562397003,-0.0065461941994726,-0.0098478349205106,-0.1618119356408715,-10.676207696199418,14938.0
33.49,2.200000047683716,128.0,21.51523971557617,31.520832061767567,-79.78277877163981,40.45899073806192,273.73395960998533,0.0059683150611817,-0.0001345636846963,-0.7647263407707214,0.6443276405334473,0.0779919764135167,0.0035911190665765,0.7266607574384991,0.1760483086109161,0.00032899636426,0.0705865696072578,0.0248986685089767,-0.1718362011574208,-11.52030239224434,14938.0
33.59,2.0999999046325684,131.0,21.566574096679688,30.773365020751957,-79.78277883470075,40.45899075347201,273.8149189300537,0.0111594581976532,0.0028683885466307,-0.7665127515792847,0.6421257853507996,0.0591496437364779,-0.0022497578208641,0.9359170618010192,0.0848795995116233,0.0041354410350322,0.0691184476017952,0.0149456864898093,-0.2193688750080764,-11.90353124499321,14938.0
33.79,2.0,138.0,21.547792434692383,30.646137237548828,-79.7827788788227,40.45899064040546,274.0455209560394,0.0058008921332657,0.0040732747875154,-0.7709397673606873,0.6368687152862549,0.0509963128085126,0.0161250659998861,1.3742727920089757,0.0298386700451374,-0.1648948639631271,0.0224706325680017,0.1227685052901506,-0.1643301121518016,-11.989474790096285,14939.0
33.89,2.0,139.0,21.54904556274414,30.80517196655273,-79.78277882055876,40.45899051733945,274.3619443721771,0.0006360688712447,0.0084163704887032,-0.7718116641044617,0.6357952952384949,0.0525095578470278,0.0015432461515962,1.7839146460794983,-0.0307542588561773,0.0594990216195583,0.0485452376306057,-0.0991011781711131,-0.093247338719666,-12.017077156305316,14939.0
34.09,2.0,137.0,21.470165252685547,31.79119300842285,-79.7827787593669,40.45899048973022,274.5549411125183,0.0098837930709123,0.0050250249914824,-0.7697200179100037,0.6382854580879211,0.0584408941142244,-0.000915102586589,2.0178981590807417,0.1157515421509742,0.1783635467290878,-0.0508274808526039,0.0355811066692695,-0.0683087721001356,-12.235853068828586,14939.0
34.19,2.0,144.0,21.487693786621094,31.727577209472656,-79.78277876109071,40.45899040806678,274.76880210113524,0.0196527820080518,0.0027498507406562,-0.7669281363487244,0.6414262056350708,0.0551218827166118,0.0299832335982319,2.254216997098476,0.1090786606073379,0.0785186290740966,-0.0031488542445003,0.1594075971096754,-0.1567634861916303,-12.130452328920365,14939.0
34.39,2.0,156.0,21.55154800415039,30.176982879638672,-79.78277868800119,40.458990174494616,275.26916449737547,0.0185790751129388,0.0099517414346337,-0.7613664865493774,0.6479791402816772,0.0673649227332842,0.0689103056218552,2.6801601496293834,0.0107902409508824,-0.1228628754615783,-0.1132232844829559,0.1941442607715726,-0.0019397498387843,-11.978845721483236,14940.0
34.5,1.8999999761581416,161.0,21.616655349731445,29.008071899414062,-79.78277870356548,40.458990008652464,275.54728859138487,0.01329374499619,0.0152889480814337,-0.7595958113670349,0.6500798463821411,0.0809051025068372,0.0491914419358832,2.8850072735850536,-0.0493859760463237,-0.0960206985473632,-0.024986432865262,0.1894776710495352,-0.0488336427882313,-11.85302299618721,14940.0
34.69,1.8999999761581416,178.0,21.799455642700195,25.50929069519043,-79.78277855973445,40.458989576805465,276.1743888206482,0.0025150589644908,0.0113416900858283,-0.759908139705658,0.6499266624450684,0.1654544528915548,0.0345024769095201,3.1677521218749662,-0.057208526879549,-0.0019577546045184,0.1020246967673301,0.1859020073153078,-0.1273885456938296,-11.01592741727829,14941.0
34.79,2.0,187.0,21.89210700988769,23.67243003845215,-79.78277812854984,40.45898892650227,276.89626734924315,0.0025163036771118,0.001684378599748,-0.7666129469871521,0.6421024799346924,0.2801908094628833,0.115105524155467,3.324306623271464,0.1276405304670334,0.127822071313858,0.1187674552202224,0.1069103996269404,0.1255921074561775,-10.62070124745369,14941.0
34.99,2.200000047683716,197.0,21.84077262878418,24.39604187011719,-79.7827780034891,40.45898863894622,277.2289485282898,0.0084836212918162,-0.0020946036092937,-0.7704896330833435,0.6373926997184753,0.2821653976475764,0.1687606055388551,3.3342751304238867,0.1204466670751571,0.1539842039346695,0.1126662716269493,0.2035922100953758,-0.0912350285891443,-10.025069947242738,14942.0
35.1,2.200000047683716,208.0,21.80571556091309,25.342304229736328,-79.78277743627791,40.45898819103645,277.6501831359863,0.0127912666648626,-0.0058177853934466,-0.7732096314430237,0.6339948773384094,0.2656963161795198,0.2550346849430029,3.3639116048031883,0.0150276096537709,0.1140474379062652,0.0133395614102482,0.2706197202019393,-0.0538907077442854,-9.776015397906304,14942.0
35.29,2.299999952316284,221.0,21.90713119506836,23.15556526184082,-79.78277708627802,40.45898756363287,278.31892817687987,0.0193224027752876,-0.00738555053249,-0.7730317115783691,0.6340300440788269,0.2793646671457421,0.3276765281380532,3.318593637428168,0.1156659722328186,-0.0024188086390495,-0.0473885126411914,0.306464595682919,-0.2566813650727272,-9.556632544398306,14943.0
35.39,2.400000095367432,224.0,21.86831855773925,23.56905746459961,-79.78277631728068,40.45898662055513,279.0141829795837,0.018452126532793,-0.008194894529879,-0.7691477537155151,0.6387519836425781,0.2963359466037937,0.3192942871401607,3.257369114880652,0.0056680953130126,0.0631221011281013,-0.1023245751857757,0.229117225036025,-0.1686602311581373,-9.495448449254036,14944.0
35.59,2.5999999046325684,235.0,21.959716796875,21.787860870361328,-79.78277537265606,40.458985989759725,279.3870624847412,0.0175226815044879,-0.011481893248856,-0.766961395740509,0.6413512825965881,0.3258637849630438,0.3581391354904997,3.2305538452558578,-0.0123189203441143,0.0217672120779752,-0.0653119757771492,0.1760340634547174,-0.1510178476385772,-9.451970307826995,14944.0
35.7,2.700000047683716,236.0,22.021068572998047,20.841598510742188,-79.78277518269282,40.45898561535075,279.7084631271362,0.0151667837053537,-0.0144614446908235,-0.7650347352027893,0.6436480283737183,0.3436146243806909,0.3549795285036987,3.1852756731435514,-0.0450741536915302,0.027328385040164,-0.0839784666895866,0.3437367216870189,-0.0747320526978001,-9.450251811146735,14944.0
35.89,2.900000095367432,234.0,21.96722984313965,21.756053924560547,-79.78277461930762,40.45898531158159,280.31341212463377,0.0073998481966555,-0.0163825917989015,-0.7636185884475708,0.645417332649231,0.3224080702190678,0.2985682715268341,3.0380762561789387,0.0276373345404863,0.0187663752585649,-0.0083591695874929,0.1909770798683166,0.0664028264768421,-9.215896577239036,14945.0
35.99,3.0999999046325684,234.0,21.954710006713867,21.38232040405273,-79.78277447112322,40.45898501441791,280.6152452774048,0.0115521671250462,-0.0147437360137701,-0.7647256851196289,0.6440836787223816,0.3274774829080684,0.2728955526807889,2.9756165390823246,0.1662989407777786,0.0978157520294189,0.0745357200503349,0.1096667314041406,-0.0878585265018045,-9.176911436319353,14945.0
36.19,3.2000000476837163,223.0,21.938432693481445,21.573162078857425,-79.78277369879778,40.45898454598104,281.28601401519774,0.0225555207580328,-0.006193371489644,-0.7698656916618347,0.6377772092819214,0.1971111986508072,0.2707754738295861,2.8846653255719628,0.1012680158019066,-0.0250825565308332,0.077882133424282,0.0394535485748201,-0.4790417304262519,-9.188480152487756,14946.0
36.3,3.2000000476837163,218.0,21.91339111328125,21.676536560058597,-79.78277356870254,40.45898430307822,281.5724205322265,0.0248305909335613,-0.0072700325399637,-0.7727475762367249,0.6341860294342041,0.1573289410489617,0.2461587148955185,2.8363881411580336,-0.0007850176189094,0.0737840309739112,0.0776119753718376,0.244562974087894,-0.3962521003559232,-9.277986406087877,14946.0
36.49,3.0,201.0,21.9497013092041,21.34256172180176,-79.78277367033938,40.458984391796406,282.235742980957,0.0213243272155523,-0.0101167559623718,-0.7758215069770813,0.6305108666419983,0.096009913857306,0.1701366858571566,2.825730060605361,-0.0507425293326377,-0.0679632946848869,0.0162248071283102,0.0803338451776653,-0.3500021959841251,-9.544797195196152,14947.0
36.6,3.0,193.0,21.98350715637207,20.444011688232425,-79.78277337935604,40.45898450909,282.6054939575195,0.0163828674703836,-0.0094984583556652,-0.7755032777786255,0.6310595870018005,0.0716066338561861,0.1443445279856519,2.8647081035723465,-0.0729009881615638,-0.1360513269901275,-0.064216636121273,0.1456093376129865,-0.2904398626461625,-9.71173169374466,14947.0
36.79,3.0999999046325684,181.0,21.994773864746094,20.277023315429688,-79.78277343351222,40.45898431337237,283.180118019104,0.0021471036598086,-0.0072226393967866,-0.7695177793502808,0.6385810375213623,0.0651060495694654,0.0448838895203865,2.8822555946050583,-0.0983035713434219,-0.1188703477382659,-0.1248127594590187,-0.0595881250407546,-0.24879533495754,-9.959267721176149,14948.0
36.89,3.0999999046325684,171.0,22.031084060668945,19.82377243041992,-79.78277381057949,40.45898460929397,283.4906305618286,-0.001098271808587,-0.0048132864758372,-0.7674556374549866,0.6410831809043884,0.0471125134029647,-0.0420486078253877,2.9073203901335924,0.0937417224049568,-0.0979709103703498,-0.0403672978281974,-0.0074552090931683,-0.1758802634105086,-9.929780212640765,14948.0
37.09,3.2000000476837163,162.0,21.975994110107425,20.73822593688965,-79.78277374303816,40.45898441288175,284.07873290252684,0.0088261933997273,0.0145039251074194,-0.769814670085907,0.6380415558815002,-0.0039414271809251,-0.0889254390512714,2.8924518138859576,0.1906798034906388,-0.0672892704606056,0.0931512042880058,-0.1182285260595381,-0.2830557794496417,-9.74740731060505,14949.0
37.19,3.0999999046325684,158.0,21.89961814880371,21.90713691711425,-79.78277395975209,40.45898439815497,284.6586918182373,0.0093375546857714,0.0157186146825552,-0.7780610918998718,0.6279225945472717,-0.0623837933911452,-0.1333482869208584,2.8908897837719265,0.0225916393101215,0.0673477351665496,0.1665216088294983,-0.3078553193807602,-0.3504964684322476,-9.78525165975094,14949.0
37.39,3.0,148.0,21.79444694519043,23.77580451965332,-79.78277412141003,40.45898459614849,284.9354624099731,0.0103249587118625,0.0188016109168529,-0.784279465675354,0.6200368404388428,-0.0550136055832978,-0.1562622606139235,2.85321482982052,-0.0599541589617729,-0.1010632291436195,0.2247213870286941,-0.1582659282535314,-0.116547588603571,-9.561941816210748,14949.0
37.5,3.0999999046325684,143.0,21.8282527923584,23.12375831604004,-79.78277428222471,40.45898456208839,285.21952193450926,0.0084245465695858,0.0220445059239864,-0.7907196879386902,0.6117233037948608,-0.0238432970400385,-0.1784113942353972,2.834107766540621,0.0354290418326854,0.0346432030200958,0.1478360742330551,-0.1585946514084935,-0.0984297076798975,-9.727787563204766,14950.0
37.69,3.0999999046325684,131.0,21.783178329467773,24.077970504760746,-79.78277468408513,40.45898461101162,285.7792639083862,-0.0029193975497037,0.0086951665580272,-0.7957515120506287,0.605553925037384,0.0280350196152495,-0.1872394897438197,2.874002622458263,-0.2066304087638855,-0.0437774360179901,-0.0279409699141979,-0.2005237192288041,-0.0770030244626104,-10.075284665822982,14950.0
37.8,3.0999999046325684,126.0,21.685518264770508,25.69218063354492,-79.78277488276805,40.458984534880656,286.06915038299564,-0.0088788298889994,0.0057996311224997,-0.7934496402740479,0.6085435748100281,0.1153527057953338,-0.1959586465631219,2.9252270323852096,-0.0283029414713382,-0.0031575392931699,-0.1127263605594635,-0.3583694519475102,0.075928082386963,-10.223972343206404,14951.0
37.99,3.299999952316284,125.0,21.785682678222656,23.52134704589844,-79.78277551883265,40.458984808110905,286.6357321090698,-0.0142273167148232,0.0027370615862309,-0.7830043435096741,0.6218474507331848,0.1277474222357724,-0.2277785699343337,2.9937659465687108,-0.0133043499663472,-0.0491485968232154,-0.1530381143093109,-0.2259405241347849,0.0429341859184205,-10.16206787109375,14951.0
38.1,3.299999952316284,120.0,21.789438247680664,23.537250518798828,-79.78277638452174,40.45898549996268,287.1923689193725,-0.0179243423044681,0.0069590574130415,-0.772998571395874,0.6341164112091064,0.0791129399080755,-0.2631192578187082,3.0220701407281947,0.0589517541229724,-0.0711494013667106,-0.0483655110001564,-0.121453365990892,-0.0031125094369053,-10.122475204467774,14952.0
38.29,3.299999952316284,118.0,21.804462432861328,23.338457107543945,-79.78277657241419,40.45898552909954,287.497238571167,-0.0179324150085449,0.0119151081889867,-0.7689999341964722,0.6388862729072571,0.0352701144480767,-0.2498364268188514,3.059132696259166,-0.0722826719284057,-0.060512788593769,-0.0655249878764152,-0.0347114201355725,0.0908968219812959,-10.140837800502776,14952.0
38.41,3.299999952316284,120.0,21.843276977539062,22.16159439086914,-79.78277753108961,40.45898676803231,287.7162918395996,-0.0177623592317104,0.0127018550410866,-0.7662101984024048,0.6422189474105835,-0.092583808373123,-0.3129563366919147,3.0350578510578567,-0.1436377018690109,0.020384132862091,-0.0307404249906539,-0.1607534251548349,-0.046792169669643,-10.224640095233918,14952.0
38.59,3.2000000476837163,117.0,21.849536895751957,22.71026611328125,-79.7827778640761,40.458987087418215,288.33484309387205,-0.0122650172561407,0.0024884587619453,-0.7648982405662537,0.6440295577049255,-0.1114556833303385,-0.2448403311361277,3.1169081426353187,0.2073569595813751,0.068265177309513,-0.0102207716554403,-0.1058342835400253,0.058110323511064,-10.015813804864882,14953.0
38.69,3.299999952316284,118.0,21.845781326293945,22.11388397216797,-79.78277869247825,40.45898824947015,288.8344063110352,0.0045432862825691,0.0168542694300413,-0.766811728477478,0.6416347622871399,-0.2563743968195828,-0.2215736942985057,2.9951665284598303,0.0947069525718689,0.0217054579406976,0.0493756383657455,-0.1029500165116042,-0.1341123960167169,-9.693649764060975,14953.0
38.89,3.299999952316284,116.0,21.99853134155273,19.418231964111328,-79.78277965467565,40.45898952409963,289.0245689697265,0.006499083712697,0.0173966232687234,-0.7685064673423767,0.6395724415779114,-0.38458433206409,-0.2926713277777247,2.8945184536962727,-0.0622741281986236,0.142691820859909,-0.021870607510209,0.040074623376131,-0.1037644331529736,-9.867389252185824,14954.0
38.99,3.299999952316284,117.0,21.968481063842773,19.92714500427246,-79.7827798601495,40.45898982284624,289.31477206420897,0.0033209873363375,0.0159922167658805,-0.7701544165611267,0.6376484036445618,-0.3863174645160157,-0.2775016053104116,2.879083727822102,-0.0852045491337776,-0.0630385279655456,0.0213781148195266,-0.0600279178842902,-0.2352406485378742,-9.690287030339242,14954.0
39.19,3.0999999046325684,121.0,21.981002807617188,19.799917221069336,-79.78278006611174,40.45899013078824,289.8818077392578,0.0017517436062917,0.02545609138906,-0.7701526880264282,0.6373491287231445,-0.3097237411511992,-0.2682125095701553,2.824865664316204,0.1124386861920356,-0.1404201388359069,-0.0765585824847221,-0.2901732661575079,-0.2674854116141796,-9.397723934054374,14954.0
39.29,3.0,118.0,22.0423526763916,18.583295822143555,-79.78278022809577,40.458990374530565,290.16250270080565,0.0019892202690243,0.0278520956635475,-0.7673551440238953,0.6406141519546509,-0.3370233598192562,-0.2731639981154484,2.756143530821133,-0.0536636412143707,-0.0568551681935787,-0.0883611515164375,-0.1533436507545411,-0.373697379603982,-9.299304184913636,14955.0
39.49,3.0,117.0,21.954710006713867,20.11798858642578,-79.78278047481253,40.45899120253368,290.7282585449218,0.0060269488021731,0.0206297282129526,-0.7591064572334291,0.6506116986274719,-0.3325260353374201,-0.2237105900943382,2.6407365774746165,-0.0484885014593601,0.0838010981678962,-0.0445208586752414,-0.0876295806001871,-0.0312506815977394,-8.985206962823867,14955.0
39.6,3.0,114.0,21.80696678161621,22.400146484375,-79.78278057566827,40.45899141832647,290.98823970031737,0.0110810035839676,0.0190918035805225,-0.7571032643318176,0.6529222726821899,-0.2955062827320432,-0.1674012962796169,2.532876555348868,0.0191541295498609,0.0256680492311716,-0.028210312128067,-0.0233539254963398,-0.0181535260984674,-8.80871577501297,14955.0
39.79,3.0,106.0,21.88334274291992,21.41412734985352,-79.78278061109647,40.45899182360876,291.5141853637695,0.0103019131347537,0.0247097387909889,-0.7576618790626526,0.6520981192588806,-0.2422027574825373,-0.0976981383298215,2.46122423077436,-0.0814382880926132,-0.0687072947621345,0.0670079067349433,-0.0065506722405552,-0.1206881025061011,-9.471503516435623,14956.0
39.9,2.900000095367432,99.0,21.791942596435547,23.163516998291016,-79.78278055153565,40.45899197820349,291.7799095458984,0.0043945028446614,0.0232542604207992,-0.7608039975166321,0.6485500931739807,-0.1977585394040906,-0.1070766560482223,2.491475572391058,-0.1075414270162582,0.0171788465231657,0.1220986098051071,-0.15530208427459,0.1267359507456422,-9.763207656741145,14956.0
40.09,3.0999999046325684,82.0,21.922155380249023,21.000635147094727,-79.78278047573309,40.458991954996826,292.33920138549803,-0.002754618646577,0.0099212191998958,-0.7688453793525696,0.6393517851829529,-0.049067952399541,-0.0818381314116756,2.6630829152278768,-0.1455544233322143,0.0846760794520378,0.0731971338391304,-0.1473327130638063,0.2538808411359787,-10.291931022405628,14957.0
40.19,3.2000000476837163,73.0,21.793193817138672,22.51942443847656,-79.78278048764709,40.45899192291149,292.6060871429443,-0.0048030843026936,0.0033677390310913,-0.7722219824790955,0.6353257894515991,0.0372469297720392,-0.0506141284906978,2.664803991570337,-0.1308777183294296,0.1367767602205276,0.0035894806496798,-0.0769361834786832,0.389543626382947,-9.853951181173326,14957.0
40.39,3.2000000476837163,59.0,21.804462432861328,22.77388000488281,-79.78278110173808,40.45899202666832,293.13750117492674,-0.0101465675979852,-0.0144589897245168,-0.780513346195221,0.6248896718025208,0.1455880164596486,-0.072796581331028,2.667626780513289,-0.1873365193605423,0.1082900688052177,0.1677186340093612,0.0063802578812465,0.3562547333166003,-9.765134899020197,14958.0
40.49,3.2000000476837163,51.0,21.71431541442871,24.22110366821289,-79.7827812779635,40.45899184069572,293.66400759887694,-0.0253497213125228,-0.0192727819085121,-0.7908889055252075,0.6111306548118591,0.2507948473324106,0.0057251294337206,2.5983391663664293,-0.0296708531677722,-0.1903203427791595,0.0528729297220706,0.3245493393391371,0.358601184412837,-9.616520896553991,14958.0
40.69,3.400000095367432,30.0,21.70429992675781,24.09387588500977,-79.78278091648477,40.458991791209954,293.932182723999,-0.0254585389047861,-0.0152107654139399,-0.7915054559707642,0.6104422211647034,0.2641347145299436,0.0396200646858531,2.62551803003907,0.1154052093625068,0.019767640158534,-0.0565738156437873,0.2504595621675253,0.6099570516496897,-9.894756560325623,14958.0
40.79,3.5,20.0,21.71556663513184,24.08592414855957,-79.78278088184395,40.45899170025236,294.1976036376953,-0.0187996178865432,-0.0133107928559184,-0.790398895740509,0.6121593713760376,0.2505275459107389,0.0540252803408386,2.66507546490048,0.1556413322687149,0.0341453254222869,-0.0517024174332618,0.179622627608478,0.3704303209483624,-10.062556446790696,14959.0
40.99,3.700000047683716,4.0,21.67675399780273,24.70616149902344,-79.78278059409722,40.45899155820084,294.73032229614256,-0.0066338297910988,-0.0207783877849578,-0.7866109013557434,0.6170637011528015,0.2053457418203143,0.1665677149263175,2.7240744748396426,0.1010852009057998,0.149150550365448,0.0285464115440845,0.4056107517331839,0.3586925471574068,-10.059169739484789,14959.0
41.1,3.799999952316284,357.0,21.60163116455078,25.978445053100582,-79.78278033519695,40.458991466043045,294.97908442687987,-0.0022731332574039,-0.0278130322694778,-0.7850104570388794,0.6188536882400513,0.2080559259574434,0.2343423890128808,2.722778092670735,-0.0478866957128048,0.2153182178735733,-0.1259263157844543,0.4237697550281882,0.6082195149734616,-10.043447746038437,14959.0
41.29,4.0,345.0,21.540281295776367,26.89289855957031,-79.78278000085218,40.45899120455677,295.5293316192627,-0.0023016401100903,-0.0418567806482315,-0.7819194793701172,0.6219684481620789,0.2322411259163099,0.3256699435396556,2.750394748451078,0.0261220000684261,-0.0075675193220376,-0.0129904383793473,0.5425404093414545,0.3961021923646331,-9.9880138027668,14960.0
41.39,4.099999904632568,340.0,21.607891082763672,25.708086013793945,-79.78277953443981,40.45899109510536,296.06959193420414,0.0014096552040427,-0.0434606149792671,-0.7797874808311462,0.6245325207710266,0.2245608614282677,0.3316265557882725,2.82609034041955,0.0020530074834823,0.0552265532314777,0.071814052760601,0.6179979964345694,0.5008298081159592,-10.215602638721467,14961.0
41.59,4.099999904632568,334.0,21.547792434692383,26.54302215576172,-79.78277926979233,40.458991163294286,296.331409866333,0.002436208538711,-0.043955810368061,-0.7801030278205872,0.6241004467010498,0.1826896648791887,0.3494754689404024,2.830783631253609,-0.0496735759079456,-0.0268511045724153,-0.0647778809070587,0.5763833626359701,0.4759869987890125,-10.106281925439836,14961.0
41.69,4.0,333.0,21.52901268005371,27.06783866882324,-79.78277912180256,40.45899110434421,296.6181663818358,0.0042579509317874,-0.0406381227076053,-0.7811571955680847,0.6229960322380066,0.1850458987216888,0.3338530670403712,2.8638695330501767,0.1098836064338684,-0.0663931891322135,0.0839493572711944,0.5189938546344638,0.3417557946592569,-10.132668070793152,14961.0
41.89,4.0,326.0,21.630428314208984,25.39796638488769,-79.78277880162244,40.45899108680048,297.1857113189697,0.0063022286631166,-0.0340736731886863,-0.7832816839218141,0.6207004189491272,0.1181495743237316,0.295077087187421,2.9354188550518883,-0.1132294461131096,-0.0463552139699459,0.0319721661508083,0.462164656072855,0.3563209895789623,-10.196227304935457,14962.0
41.99,4.0,326.0,21.644201278686523,24.89700508117676,-79.78277869276619,40.458991050509546,297.4823707885742,0.0031203848775476,-0.0336571931838989,-0.7843027114868164,0.6194568872451782,0.1128997130725546,0.2754477791342365,2.96633769621594,-0.0266022570431232,-0.023606875911355,0.0818542689085006,0.4428793694078921,0.2226279120147228,-10.119458041191102,14962.0
42.19,4.0,325.0,21.63919258117676,24.88905143737793,-79.78277840253723,40.45899112737749,298.060938293457,0.0114150205627083,-0.0280810128897428,-0.7845259308815002,0.6193547248840332,0.0872411390194447,0.2550803511381818,2.9563558344759846,0.2281154096126556,0.0169668421149253,-0.0457400418817997,0.450084856711328,0.1947927535325289,-9.885280562639236,14963.0
42.3,4.0,325.0,21.56782531738281,26.185192108154297,-79.78277815476919,40.45899106237052,298.65009921264647,0.0206185057759284,-0.0299429483711719,-0.7811782956123352,0.6232485771179199,0.0489129192575656,0.2508277468905615,2.9628768431360086,0.0151267880573868,0.0098326988518238,0.0491258166730403,0.3566424402594566,0.1999508200027048,-9.967791792154312,14963.0
42.49,3.799999952316284,325.0,21.55154800415039,26.527118682861328,-79.78277810679032,40.45899101813704,298.9478306121826,0.0176036059856414,-0.0313983671367168,-0.7798427939414978,0.6249395608901978,0.0700435736199417,0.2540466477628423,2.970772984477337,-0.0013403675984591,-0.0346746519207954,-0.0939138606190681,0.485024162940681,0.2222990426793694,-9.846237534284592,14963.0
42.59,3.799999952316284,324.0,21.540281295776367,26.59868431091309,-79.78277797838618,40.45899106996097,299.24857562255863,0.0135342311114072,-0.032073862850666,-0.7793064713478088,0.6256752610206604,0.0810618921524794,0.2410473257754341,2.9767013989906066,-0.0914563089609146,0.0034998394548892,-0.0799267888069152,0.357976628690958,0.1464947522431612,-9.916726888418198,14964.0
42.79,3.5999999046325684,325.0,21.574085235595703,26.05796241760254,-79.78277798715727,40.458990968690976,299.84894602966307,0.0077773220837116,-0.0333468727767467,-0.7802777290344238,0.6244951486587524,0.1228673792662433,0.1802923865887494,3.0053517550137525,-0.0521388612687587,-0.0742964297533035,0.0276017151772975,0.3718700516223908,0.2854151309654117,-9.896982010602953,14964.0
42.9,3.5,323.0,21.634183883666992,24.68230628967285,-79.7827780781961,40.458990988517606,300.4649719543457,0.0048924437724053,-0.0325627960264682,-0.7802819013595581,0.6245606541633606,0.1421456705114717,0.1299003551658442,3.04201652099413,0.0799628570675849,-0.0065421839244663,-0.0143467355519533,0.392570620290935,0.2342608379200101,-9.931881701946258,14965.0
43.09,3.5,324.0,21.67424964904785,24.268814086914062,-79.7827781391564,40.45899101494594,300.77975314331053,0.0059427409432828,-0.0324077792465686,-0.7797013521194458,0.6252841949462891,0.1280782011769059,0.12636139618713,3.0406958738087297,-0.0012151321861892,-0.0629968270659446,0.0017664768965914,0.3559231596440077,0.3185314946249128,-9.681847159266471,14965.0
43.19,3.5999999046325684,325.0,21.686769485473643,24.49941635131836,-79.7827782037417,40.45899099709409,301.0837749786377,0.0042049041949212,-0.0282338410615921,-0.7789633274078369,0.6264194250106812,0.1263471020679202,0.1303551641630964,3.0283482817859464,0.0390775166451931,-0.1370432972908019,-0.0735980197787284,0.5060661359131337,0.3066906271129847,-9.678899577856065,14966.0
43.39,3.5999999046325684,327.0,21.70805549621582,23.68833541870117,-79.78277848506153,40.45899110555463,301.7110733337402,0.0028099508490413,-0.0205510258674621,-0.777278482913971,0.628814697265625,0.1206405457387965,0.0383966195068141,3.054744249589169,0.0685452073812484,0.0496704094111919,0.0457343533635139,0.3623157012462616,0.3777987628430128,-9.81716166973114,14966.0
43.49,3.5999999046325684,326.0,21.64294815063477,24.89700508117676,-79.78277858169389,40.458991081718345,302.0161785430908,0.0022880863398313,-0.0248431432992219,-0.7775207757949829,0.6283622980117798,0.1177868557831091,0.0329546366992401,3.0413436301365584,-0.0582232363522052,0.0948185622692108,-0.005770647432655,0.4064039996266365,0.217629511076957,-9.647268480062484,14967.0
43.69,3.5,329.0,21.61415100097656,24.761823654174805,-79.78277892885038,40.45899116229214,302.64851039123533,-9.409691847395152e-05,-0.0340448878705501,-0.7792385816574097,0.6258020997047424,0.1364077627617302,0.0533753077769028,3.0174922203584456,-0.104082852602005,-0.0018608892569318,0.0614691488444805,0.445149148888886,0.4685635565221311,-9.548091516494752,14967.0
43.8,3.5,329.0,21.564069747924805,25.485435485839844,-79.78277916101793,40.458991150507934,303.27385371398924,0.0012625195086002,-0.0307077895849943,-0.7807539701461792,0.6240822672843933,0.1547780211821587,0.0640992155247029,3.0398440996625857,0.0686109364032745,-0.0564653351902961,0.0835193023085594,0.4299785113334656,0.5224347583204508,-9.62723065674305,14968.0
43.99,3.5,331.0,21.70179557800293,23.65652656555176,-79.78277928059005,40.45899115050632,303.57878535461424,0.0020497313234955,-0.0280119962990284,-0.7809937000274658,0.6239071488380432,0.1369312525411595,0.0480108701144547,3.053149147145962,0.0618786327540874,0.0048553287051618,-0.0253435913473367,0.5124755978956819,0.4373191058635712,-9.889884660243988,14968.0
44.1,3.5,334.0,21.637939453125,24.507368087768555,-79.78277955584622,40.45899121459541,303.89471667480467,0.0030358608346432,-0.026989571750164,-0.781162679195404,0.623736560344696,0.1143458188949188,0.02049238567427,3.067948213880388,0.0008191948290914,-0.0081653455272316,0.0305701848119497,0.3184767500683665,0.2883030342310667,-9.738031885027883,14968.0
44.29,3.5999999046325684,338.0,21.654216766357425,24.157489776611328,-79.7827798603006,40.458991222316826,304.504110748291,0.0013228162424638,-0.0266197342425584,-0.7804399132728577,0.6246625185012817,0.1213041062466472,0.0105636362238641,3.027384540673206,-0.0024696651380509,-0.1095849722623825,0.0151266567409038,0.3608889440819621,0.2830232543125749,-9.58505293607712,14969.0
44.39,3.5999999046325684,340.0,21.672998428344727,23.871225357055664,-79.7827802330837,40.45899128865391,305.11787265014647,-0.0016672842903062,-0.0237545035779476,-0.7789903283119202,0.6265836954116821,0.1519752947783865,-0.015886550971962,3.0043169539240995,0.0779238492250442,0.0013095593312755,0.0286812633275985,0.3595916296541691,0.3314907517656684,-9.57242821276188,14970.0
44.59,3.5999999046325684,339.0,21.646705627441406,24.36423492431641,-79.78278043001137,40.45899136817777,305.429762298584,-0.0019299503182992,-0.0241425037384033,-0.7788074612617493,0.6267954111099243,0.1428362008111621,-0.016732257982289,3.0271449791079763,-0.0472501255571842,-0.019795499742031,0.0393110923469066,0.3066732316464186,0.4464873207360506,-9.733530113697054,14970.0
44.69,3.5999999046325684,340.0,21.594118118286133,25.37411117553711,-79.78278058358622,40.45899134805112,305.7324737854004,-0.0036041419953107,-0.0258135721087455,-0.7785940170288086,0.6269864439964294,0.1466392162394718,-0.011766893355754,3.0227522422724737,-0.1159702092409134,-0.0097442902624607,-0.0654444471001625,0.349777114726603,0.4533865601196885,-9.711334667801856,14970.0
44.89,3.5999999046325684,342.0,21.644201278686523,23.950742721557607,-79.78278094555823,40.45899133891425,306.3365959472656,-0.0086613073945045,-0.0278480648994445,-0.7784063220024109,0.6270830631256104,0.196714430766024,-0.0073060986930202,2.9961621963997587,-0.0600540526211261,-0.0597598813474178,0.0506030246615409,0.2783027057535947,0.2940963093191385,-9.616980487704277,14971.0
45.0,3.5999999046325684,343.0,21.630428314208984,24.42784881591797,-79.78278108945482,40.45899130548322,306.6360573120117,-0.0106284841895103,-0.0285140443593263,-0.7782607674598694,0.6272035837173462,0.2165131801346378,-0.0153376093909773,2.986775443927689,0.0873031616210937,-0.0449771881103515,0.0549274310469627,0.2208433783426881,0.3055366425588727,-9.704160718917848,14971.0
45.19,3.700000047683716,346.0,21.64294815063477,24.077970504760746,-79.78278148433719,40.458991314694174,307.2375549621582,-0.0052877790294587,-0.0261680595576763,-0.7777372002601624,0.6280224919319153,0.2321432426834469,-0.0179795436213942,2.980321383478272,0.1146366819739341,0.0604797825217247,-0.066116102039814,0.3588338670507073,0.5551664117351175,-9.63513901591301,14972.0
45.31,3.799999952316284,349.0,21.67424964904785,23.24303436279297,-79.7827818154965,40.45899129286057,307.8339104003906,-0.0096192955970764,-0.0280203912407159,-0.7785884737968445,0.6268351078033447,0.2009520877204735,-0.0134961006019205,2.9437096255218536,-0.1701789796352386,-0.0666157379746437,0.0385067015886306,0.3266616094484925,0.6702143631130457,-9.650003222823145,14972.0
45.49,3.799999952316284,353.0,21.70179557800293,22.980627059936523,-79.78278196940795,40.45899123900228,308.1268257446289,-0.0148092275485396,-0.03019455447793,-0.7787851691246033,0.6263885498046875,0.22530966723929,-0.0282250745342441,2.9050920947924896,-0.1789902001619339,-0.0577939264476299,0.0102796535938978,0.0981120302807539,0.5312723131477833,-9.390937655568123,14973.0
45.59,3.799999952316284,356.0,21.66172981262207,23.44978141784668,-79.78278218183914,40.45899124895772,308.4233345336914,-0.0187516883015632,-0.0296273399144411,-0.7790234684944153,0.6260136961936951,0.2583315610050378,-0.0352794233617339,2.8877813213304133,-0.0155402021482586,-0.0624282024800777,-0.0201851595193147,0.1557419227994978,0.6176636818796396,-9.371704993844034,14973.0
45.79,3.799999952316284,0.0,21.589111328125,25.000377655029297,-79.78278249433866,40.45899115474464,308.9971298522949,-0.0187523774802684,-0.0216796658933162,-0.7810112833976746,0.6238588690757751,0.2435598984220615,-0.0720858664764255,2.8348974761083654,-0.0183840617537498,-0.0296283718198537,-0.0306718926876783,0.1800724977627396,0.6054131072759629,-9.48723954319954,14973.0
45.91,3.900000095367432,1.0,21.685518264770508,22.6227970123291,-79.78278290908041,40.458991219805824,309.56551974487303,-0.0191578865051269,-0.0183470882475376,-0.7839468717575073,0.6202609539031982,0.2187060315491053,-0.0788068615950948,2.838944832393963,0.0640624016523361,-0.0029668570496141,0.0295914765447378,0.3045590429194271,0.4536089735850692,-9.74788561284542,14974.0
46.09,4.0,4.0,21.644201278686523,23.72809410095215,-79.78278311990971,40.45899128033561,309.8471626586914,-0.0180946122854948,-0.0162876341491937,-0.7848165035247803,0.6192498803138733,0.2036249017047345,-0.0750926830687491,2.8537831278069388,0.0240266602486372,-0.0158418845385313,0.0114772599190473,0.2935529750771821,0.6467107488960028,-9.895116748809818,14974.0
46.19,4.099999904632568,5.0,21.74060821533203,22.26496696472168,-79.78278334690242,40.458991182359775,310.4224457092285,-0.0182051435112953,-0.0265677198767662,-0.7848806977272034,0.6188094019889832,0.2395158332537274,-0.0541939665028442,2.866180154053981,-0.1774521768093109,0.1023488789796829,0.0115036750212311,0.044232249520719,0.5596419802308082,-9.932679262161257,14975.0
46.39,4.300000190734863,9.0,21.723079681396484,22.686410903930664,-79.78278354834124,40.45899119367271,310.6913208312988,-0.0233593191951513,-0.0333073325455188,-0.7849246859550476,0.6182541847229004,0.2595038517444272,-0.0262206170757266,2.784536751889008,-0.2544779181480408,0.0160742867738008,-0.0033536874689161,0.0305866891471669,0.7734183771908284,-9.188638027310372,14975.0
46.49,4.300000190734863,11.0,21.74186134338379,22.0105094909668,-79.78278366265695,40.45899111958791,310.9669479675293,-0.0275614913552999,-0.036093957722187,-0.7852753400802612,0.6174790263175964,0.3215943882945372,-0.0143208516620424,2.7050053035089654,0.0016539300559088,0.0226547643542289,-0.0108494060114026,0.0937904536910355,0.7332528296113014,-9.074232575297357,14975.0
46.69,4.400000095367432,13.0,21.753129959106445,21.764005661010746,-79.78278394079466,40.45899110194648,311.50363772583006,-0.029711615294218,-0.0299377646297216,-0.7862673997879028,0.6164450645446777,0.3122572835857424,-0.0236448577587794,2.6073345146580493,0.0825766399502754,0.0133665762841701,-0.03062379732728,0.2333255392313004,0.7771055582910776,-9.142695284485818,14976.0
46.8,4.400000095367432,14.0,21.69428253173828,22.63870048522949,-79.78278403564069,40.45899104526317,311.76338427734373,-0.0270349308848381,-0.0256714224815368,-0.7863219976425171,0.6166911125183105,0.29327609447637,-0.02948998180326,2.5642714961919344,0.1072467118501663,-0.0512041300535202,-0.1129649877548217,0.0250135160470381,0.6778172052651644,-9.260280452370646,14976.0
46.99,4.5,14.0,21.683013916015625,23.21122741699219,-79.78278429078313,40.45899096758525,312.28500979614256,-0.021581457927823,-0.0248413775116205,-0.784457802772522,0.6193086504936218,0.2553517809466989,-0.0318887385776565,2.5610146494941097,-0.0110270613804459,0.0141339506953954,0.0480631105601787,0.0255941399931907,0.5334248194098473,-9.509999245405195,14977.0
47.09,4.5,14.0,21.62541961669922,24.435800552368164,-79.78278449310105,40.45899089412524,312.79001467895506,-0.0270671416074037,-0.0301262531429529,-0.7824681401252747,0.6213721632957458,0.2945461190601012,0.0160530538235601,2.5268363015154893,0.0215905830264091,0.002739037387073,-0.0332531258463859,0.1652556167542934,0.8549675935506821,-9.439664842486383,14977.0
47.29,4.599999904632568,13.0,21.61540412902832,23.950742721557607,-79.78278453536079,40.458990809958856,313.0439590759277,-0.0298566315323114,-0.0270205084234476,-0.7818697094917297,0.6221400499343872,0.2903719531663249,0.0237273927222728,2.5265882150837724,-0.0816279351711273,-0.0774516984820365,-0.0526236407458782,0.1378911774046719,0.9455712233483792,-9.758345696926115,14978.0
