time,wind_speed,wind_angle,battery_voltage,battery_current,position_x,position_y,position_z,orientation_x,orientation_y,orientation_z,orientation_w,velocity_x,velocity_y,velocity_z,angular_x,angular_y,angular_z,linear_acceleration_x,linear_acceleration_y,linear_acceleration_z,node_ids
0.0,1.2999999523162842,109.0,25.65702247619629,-0.055662415921688,-79.78279275802937,40.4589769931721,268.64215353775023,0.0106822792440652,0.0198628157377243,-0.5246529579162598,0.8510174751281738,0.0023962167418469,0.002965778663077,0.0068364317667028,0.0081913331523537,0.0032386893872171,0.004787556361407,-0.03032332689967,-0.4331628318876029,-9.799121840000153,14933.0
0.11,1.2999999523162842,109.0,25.668291091918945,-0.0477106422185897,-79.78279275379968,40.458976993061256,268.6428282623291,0.0106636192649602,0.0198676604777574,-0.5246291160583496,0.8510322570800781,0.0007393877486287,0.0032888298206173,0.0067586563807745,-0.0038800542242825,-0.0044105825945734,-0.0020553295034915,-0.028530949736014,-0.4508975100517273,-9.800722807645796,14933.0
0.3,1.100000023841858,108.0,25.67455101013184,-0.055662415921688,-79.78279270207706,40.45897712195496,268.6398141746521,0.0106690749526023,0.0198775865137577,-0.5245646834373474,0.8510717153549194,-0.0018268250461319,0.0006674595032238,0.006905208860327,0.0057410448789596,0.0034403193276375,0.0054514552466571,-0.0297954375296831,-0.4364304387196899,-9.798825386166572,14933.0
0.41,1.100000023841858,109.0,25.669544219970703,-0.0636141896247863,-79.78279270247269,40.45897712418281,268.6405136947632,0.0106827365234494,0.0198779050260782,-0.5245303511619568,0.8510926961898804,-0.0036403888965301,0.0008149119302551,0.0069200324096265,-0.0100529622286558,-0.0022911126725375,-0.0114148678258061,-0.0315780662884935,-0.4399941704794765,-9.799762694835664,14933.0
0.6,1.0,113.0,25.66703987121582,-0.0795177370309829,-79.78279265411119,40.458977226891605,268.6373429660797,0.0106876408681273,0.0198701620101928,-0.5244726538658142,0.8511283993721008,0.0002901929058802,-0.0043510579584045,0.0073369205745471,-0.0007422440103255,0.0001519840297987,0.0004402388003654,-0.0290761980274692,-0.444067998714745,-9.799785498976709,14933.0
0.7,1.0,114.0,25.665786743164062,-0.0477106422185897,-79.78279265833035,40.45897722464444,268.63807562637334,0.0106822960078716,0.0198815539479255,-0.5244594216346741,0.8511363863945007,-0.0006005571425502,-0.0043580096303737,0.0073231354813851,-0.0063521191477775,-0.0048681083135306,-0.0055998633615672,-0.030088641133625,-0.4330267013981939,-9.799344034194949,14933.0
0.9,0.8999999761581421,120.0,25.664535522460927,-0.0954212844371795,-79.78279255571152,40.458977313811616,268.6346550350189,0.0106933182105422,0.0199116338044405,-0.524391770362854,0.8511771559715271,0.007546282312982,-0.0030610174371248,0.0080012559303689,-0.0079242615029215,-0.0047499905340373,-0.0040653236210346,-0.0265290184132754,-0.4554921059310437,-9.802165900468829,14933.0
1.0,0.8999999761581421,121.0,25.67329978942871,-0.055662415921688,-79.78279248069637,40.45897745373243,268.6287272338867,0.0106845768168568,0.0199231915175914,-0.5243510603904724,0.8512020111083984,0.0068024288087642,-0.0020312785413805,0.0046444325910323,0.00348791340366,0.0038044610992074,-0.0006118814926594,-0.0302347872639074,-0.4401887731254101,-9.799747492074966,14933.0
1.2,0.8999999761581421,126.0,25.67329978942871,-0.0795177370309829,-79.78279247806327,40.45897744184623,268.6295838718414,0.0106772920116782,0.0199198797345161,-0.5242877006530762,0.8512412905693054,0.0050743963797403,-0.0018992083124394,0.0045924476137227,-0.0057607600465416,-0.0031631386373192,-0.0091161364689469,-0.0267136670881882,-0.4580156911164522,-9.802083454728129,14933.0
1.3,0.8000000119209291,128.0,25.665786743164062,-0.0715659633278846,-79.7827923885748,40.4589775586342,268.624096906662,0.0106745893135666,0.0199258271604776,-0.5242645144462585,0.8512554764747621,0.00933982943506,-0.0005080565381289,0.0030090111823517,0.0078833494335412,6.620534259127453e-05,0.0053501771762967,-0.0283503529988229,-0.4497282496467233,-9.80082104086876,14933.0
1.5,0.8000000119209291,130.0,25.65827560424805,-0.0874695107340812,-79.78279234838321,40.458977687450606,268.6174159412384,0.0106962984427809,0.0199177823960781,-0.5242332816123962,0.8512746095657349,0.003926055785698,-0.0054752492389162,-0.0014626944087421,-0.0050624934956431,-0.003439083462581,-0.0056038340553641,-0.028575724333059,-0.454978318400681,-9.80152329146862,14933.0
1.6,0.8999999761581421,132.0,25.665786743164062,-0.0954212844371795,-79.78279235205986,40.45897768195972,268.6172426109314,0.0106866620481014,0.0199022088199853,-0.5242136716842651,0.8512871265411377,0.0046485043500323,-0.00564665568092,-0.0017196283664362,0.0079364432021975,0.0076725585386157,0.0036446030717343,-0.0266411250689998,-0.4551258509606123,-9.801278293132784,14933.0
1.8,0.8999999761581421,137.0,25.66203117370605,-0.0636141896247863,-79.78279230446785,40.45897779573481,268.6116776828766,0.0106990691274404,0.019919877871871,-0.5241735577583313,0.8513112664222717,0.0050745492223708,-0.0084942138301762,-0.0017654718920813,0.0019020887557417,0.0007528546848334,-0.002332696923986,-0.0303723087511025,-0.4462511663138866,-9.80014334857464,14933.0
1.9,1.0,139.0,25.669544219970703,-0.0397588685154914,-79.78279231094626,40.45897778850467,268.6114743118286,0.0106916790828108,0.0199064277112484,-0.5241564512252808,0.8513222336769104,0.0049822496220388,-0.0085553033353394,-0.0019642686354689,0.0058115483261644,0.0018730924930423,0.0050064888782799,-0.0271759397350251,-0.4588197198137641,-9.801499902606013,14933.0
2.1,1.0,141.0,25.66077995300293,-0.0636141896247863,-79.78279226727194,40.45897788068756,268.6058764820099,0.0106924325227737,0.0199048314243555,-0.5241060853004456,0.8513532280921936,0.0095959828593883,-0.0124939330194453,-0.0016592439031229,0.0080753965303301,0.0011779569322243,0.002409036271274,-0.0310026180418208,-0.4370312401279807,-9.800045700073245,14933.0
2.2,1.0,140.0,25.672048568725582,-0.0477106422185897,-79.78279227570043,40.45897786885504,268.605674779892,0.0106782782822847,0.0198934692889452,-0.5240749120712279,0.8513728976249695,0.0082344918328144,-0.0123873215984852,-0.0016931886441324,-0.0019220197573304,0.0013825157657265,-0.0001876374299172,-0.0284513088315725,-0.4541327379271388,-9.801583517789842,14933.0
2.4,1.100000023841858,139.0,25.66203117370605,-0.0715659633278846,-79.78279221134703,40.45897801347178,268.6007535820007,0.01065269485116,0.0198966097086668,-0.5240247249603271,0.851404070854187,0.0047732557458616,-0.0083290984637571,-0.0019432444044538,0.0086282137781381,0.0041122888214886,0.0038790870457887,-0.0312693333020433,-0.4336069279164076,-9.799679079651831,14933.0
2.5,1.2000000476837158,137.0,25.670795440673828,-0.0636141896247863,-79.78279216716814,40.45897812240037,268.59447768974303,0.0106703378260135,0.019905349239707,-0.5240044593811035,0.8514161109924316,0.0079848970508095,-0.011720935816853,-0.0047197372810396,-0.0079702073708176,-0.0026548125315457,-0.006407796870917,-0.0314415612118318,-0.4427053416520357,-9.800046284794806,14933.0
2.7,1.2000000476837158,136.0,25.665786743164062,-0.055662415921688,-79.78279218368357,40.45897810006918,268.59340838241576,0.0106804901733994,0.0199096612632274,-0.5239652991294861,0.851439893245697,0.0076970475516144,-0.0118157784638082,-0.0052132296400358,-0.0017287511145696,-0.0002210535312769,0.0003009799984283,-0.0297218174301087,-0.4433301531895996,-9.798990862369536,14933.0
2.8,1.2000000476837158,136.0,25.66703987121582,-0.0636141896247863,-79.78279208939202,40.45897824375879,268.5874057178497,0.0106629319489002,0.0199168175458908,-0.5239385366439819,0.8514564633369446,0.0074130346277234,-0.0045439020201432,-0.0070906163691045,-0.0057992204092442,-0.0024197727907449,-0.0053961132653057,-0.0300583041342906,-0.4327702644467354,-9.799538161754606,14933.0
3.0,1.2999999523162842,134.0,25.67329978942871,-0.0636141896247863,-79.78279205254043,40.45897836240921,268.58101991462706,0.0106676323339343,0.0198910608887672,-0.5238844752311707,0.851490318775177,0.0069428870739074,-0.0075575089334066,-0.0086401125577513,-0.0061833425424993,-0.0033286239486187,-0.005654355045408,-0.0266700116847641,-0.4558469222858548,-9.801518613696096,14933.0
3.1,1.2999999523162842,134.0,25.67329978942871,-0.055662415921688,-79.78279205708918,40.45897835368913,268.58012012290953,0.0106884706765413,0.0198867563158273,-0.5238558650016785,0.8515077233314514,0.0073035031024792,-0.0079324814667993,-0.008755081153749,0.0045570023357868,0.0020868871361017,0.0011799924541264,-0.0306870419858023,-0.4433312129974365,-9.800227548480033,14933.0
3.3,1.2999999523162842,134.0,25.665786743164062,-0.0715659633278846,-79.7827919887675,40.45897847131217,268.5760627155304,0.0106952376663684,0.0199107211083173,-0.523777961730957,0.8515549302101135,0.0081450971798601,-0.0048033172333147,-0.006519270201891,-0.0086506912484765,-0.0015180126065388,-0.006632964592427,-0.0277227823063731,-0.4574468666687608,-9.802524334788323,14933.0
3.41,1.2999999523162842,134.0,25.66703987121582,-0.055662415921688,-79.78279198961991,40.45897846282733,268.575371301651,0.010706577450037,0.0199168194085359,-0.5237591862678528,0.8515663146972656,0.0089045191524301,-0.0049964840968498,-0.006654050399579,0.005937207955867,0.003467210335657,0.0044640284031629,-0.0273300092993304,-0.4557922142744065,-9.802422008514403,14933.0
3.6,1.2000000476837158,131.0,25.669544219970703,-0.0715659633278846,-79.78279193607652,40.458978612141046,268.5723739032745,0.0107130175456404,0.0199199467897415,-0.5237223505973816,0.851588785648346,0.0035320295734958,-0.0021882427762959,-0.004936515365996,0.0046888454817235,0.0046448237262666,0.0051129176281392,-0.0290780869522132,-0.4451640227437021,-9.800923367142678,14933.0
3.72,1.2000000476837158,129.0,25.670795440673828,-0.0397588685154914,-79.78279193679049,40.45897860905933,268.57186583328246,0.010699663311243,0.0199155695736408,-0.5236814022064209,0.8516141772270203,0.0029459064567382,-0.0023076330094745,-0.0049659602421936,-0.000399385811761,0.0023207585327327,0.0049624112434685,-0.028179287679959,-0.4558116928115487,-9.801843718886376,14933.0
3.9,1.100000023841858,132.0,25.65702247619629,0.0079517737030982,-79.78279191157392,40.45897872224477,268.5670392875671,0.0107214543968439,0.0199332740157842,-0.5236475467681885,0.8516342639923096,0.0049498861338818,-0.0071211194709143,-0.0070865422433851,0.0085168406367301,0.0010647018207237,0.006574688013643,-0.0308034769515506,-0.4326914001256228,-9.799747492074966,14933.0
4.01,1.100000023841858,130.0,25.664535522460927,-0.055662415921688,-79.78279185534824,40.45897885104387,268.5656066303253,0.0107198450714349,0.0199387706816196,-0.5236147046089172,0.8516544699668884,0.0066814543159898,-0.0063941051588789,-0.0043677001327387,-0.0078809913247823,-0.0004002024361398,-0.0050289230421185,-0.0311218441394157,-0.4443176382780075,-9.801004058718682,14933.0
4.2,1.100000023841858,132.0,25.6507625579834,0.0238553211092948,-79.78279186187373,40.45897883494068,268.5646686916351,0.0106924744322896,0.0199250411242246,-0.5235695838928223,0.8516828417778015,0.0064964727086851,-0.0066229396461724,-0.0043957039043949,0.0005686093354597,-0.0011061985278502,0.0027890345081686,-0.0295202278182841,-0.4435880519449711,-9.801380034685137,14933.0
4.31,1.100000023841858,134.0,25.66703987121582,0.0,-79.7827918151538,40.45897894517161,268.5619511966705,0.010719601996243,0.0199531204998493,-0.5235459804534912,0.8516963124275208,0.0106413270699153,-0.0077474027320216,-0.0057675046415781,-0.0031380415894091,-7.402949267998338e-05,-0.0035266873892396,-0.0308804888930171,-0.4335269306972624,-9.800629836916924,14933.0
4.5,1.0,136.0,25.665786743164062,0.0,-79.78279175237803,40.45897909707122,268.5611150627136,0.0107049075886607,0.0199727620929479,-0.52348393201828,0.8517341017723083,0.0062825454281021,-0.0015241248071186,-0.0042303946918872,-0.0057896631769835,-0.0055377557873725,-0.00670882826671,-0.02783129155403,-0.4589834783971311,-9.802611458301543,14933.0
4.6,1.0,135.0,25.6507625579834,0.0397588685154914,-79.78279175059801,40.45897909101204,268.5606501464844,0.0107030756771564,0.019980689510703,-0.5234597325325012,0.8517488837242126,0.0074965278895472,-0.0017717507900406,-0.0045041542859388,0.0092152068391442,0.005531620234251,0.0027389423921704,-0.0263293656916357,-0.4519962749630213,-9.801144391894342,14933.0
4.8,1.0,136.0,25.65827560424805,0.0397588685154914,-79.78279176819636,40.45897925422103,268.5607843761444,0.010710947215557,0.019940810278058,-0.5234007239341736,0.8517860174179077,-0.0021156187173965,-0.0090513971087824,-0.0034869888664648,0.0031139170750975,0.0040017012506723,0.0016504410887137,-0.0299876807327382,-0.4468517119064928,-9.80034741640091,14933.0
4.91,0.8999999761581421,138.0,25.65702247619629,0.0318070948123931,-79.78279177918135,40.45897925281973,268.5604493980408,0.0107118804007768,0.0199346654117107,-0.5233622789382935,0.8518097996711731,-0.0028404042971072,-0.0090678479516436,-0.0035566567484642,0.0022359616123139,-0.0005039070965722,0.0025869822129607,-0.0275416853581555,-0.4574462088569999,-9.801930842399598,14933.0
5.1,0.8999999761581421,136.0,25.66703987121582,0.0079517737030982,-79.78279172525848,40.458979381027305,268.5615315799713,0.0107100214809179,0.0199417658150196,-0.5233054161071777,0.8518446087837219,0.0030667387905121,-0.0080133338555654,-0.0020717644631708,0.0064872438088059,0.003389291698113,0.0044001769274473,-0.0311890619946643,-0.4333375540003181,-9.799837539196012,14933.0
5.2,0.8999999761581421,136.0,25.66203117370605,0.0318070948123931,-79.78279173240941,40.45897937630381,268.5613305931091,0.0107125015929341,0.019925320520997,-0.5232995748519897,0.8518485426902771,0.0013063566620377,-0.0079003718370301,-0.0019283263992034,-0.0058875810354948,-0.0033499530982226,-0.0047756461426615,-0.0309303364064544,-0.446581314727664,-9.801263090372084,14933.0
5.4,1.0,134.0,25.65827560424805,0.0238553211092948,-79.78279166883182,40.45897950655265,268.5628788833618,0.010726099833846,0.0199345257133245,-0.5232450366020203,0.8518815636634827,0.0056451746051122,-0.0051417085041331,-0.0011753281186191,0.0057346913963556,-0.0019606796558946,0.0041041541844606,-0.0304897761158645,-0.4416468494385481,-9.801179475188256,14933.0
5.5,0.8999999761581421,134.0,25.66203117370605,0.0079517737030982,-79.78279164115783,40.45897966989047,268.5650155906677,0.0107195628806948,0.0199340172111988,-0.5232091546058655,0.8519037365913391,-0.0002617212281589,-0.0052923479331877,-0.0006835085262859,-0.00848507322371,-0.0003900821320712,-0.00745430868119,-0.031442975050304,-0.4336612704768777,-9.800376067757608,14933.0
5.7,1.0,133.0,25.668291091918945,0.0159035474061965,-79.78279165286452,40.45897966575889,268.56486252594,0.0107422685250639,0.0199170038104057,-0.5231685638427734,0.8519288301467896,-0.0009961490306432,-0.0055325729958331,-0.0008405292228946,-0.0067860661074519,-0.0034534642472863,-0.0033711427822709,-0.0272145176539197,-0.452619843967259,-9.801344951391222,14933.0
5.8,1.0,132.0,25.66203117370605,0.0159035474061965,-79.78279162674355,40.45897978011724,268.5673489933014,0.0107429325580596,0.0199180003255605,-0.5231558084487915,0.8519365787506104,0.0054722208831202,-0.0106911128550635,-9.348739485850552e-05,-0.002942542778328,-0.0027087072376161,-0.0006078344886191,-0.0296631374233402,-0.4362814809009433,-9.799617099165918,14933.0
6.0,1.100000023841858,128.0,25.665786743164062,0.0238553211092948,-79.7827915604387,40.45897993091741,268.5723865394592,0.0107325939461588,0.0199146140366792,-0.5231040716171265,0.8519685864448547,0.0050537619825135,-0.0041773312489503,0.0038989493387847,-0.0025490333791822,-0.0045699854381382,-0.0102341324090957,-0.0261817920184694,-0.4566381236538291,-9.80230331003666,14933.0
6.1,1.100000023841858,125.0,25.665786743164062,0.0238553211092948,-79.78279156196079,40.45897992459368,268.5727413063049,0.0107496678829193,0.0199380181729793,-0.5230877995491028,0.8519777655601501,0.005591161860529,-0.0044332339228352,0.0037040732206149,0.0018920911243185,0.0022649068851023,0.0038739014416933,-0.0293046048888936,-0.4449894102662802,-9.800643285512924,14933.0
6.3,1.2000000476837158,119.0,25.65827560424805,0.0318070948123931,-79.78279153810962,40.45898006708451,268.577931678772,0.010746513493359,0.0199085753411054,-0.5230328440666199,0.8520122170448303,0.0021398791952855,-0.0062678643688962,0.0055774197972862,-0.0073375217616558,-0.00167567061726,-0.0072711971588432,-0.0266980075137689,-0.4582615665346385,-9.802284014225007,14933.0
6.41,1.2000000476837158,115.0,25.65952682495117,0.0159035474061965,-79.7827915432894,40.45898006230636,268.5784674053192,0.0107378736138343,0.0199370216578245,-0.5230218768119812,0.8520184755325317,0.0029992222029735,-0.0066025910896879,0.0053348849435393,0.0065936492756009,0.001589096034877,0.0061307349242269,-0.028392060091719,-0.4534138958528638,-9.801156671047211,14933.0
6.6,1.2999999523162842,114.0,25.66203117370605,0.0,-79.78279150245339,40.45898018416859,268.58223394203185,0.0107480296865105,0.0199468247592449,-0.5229522585868835,0.852060854434967,0.0053547372881641,-0.0066597089027589,0.0041198426917446,0.0013740103458985,0.0005528823239728,-6.084258711780421e-05,-0.0316546830860897,-0.4492640538141132,-9.801746655106545,14933.0
6.7,1.2000000476837158,107.0,25.664535522460927,0.0159035474061965,-79.78279150642378,40.45898017731719,268.5826187496185,0.0107352659106254,0.0199519805610179,-0.5229151248931885,0.8520836234092712,0.0050995538606526,-0.0066840256492028,0.0040177535779812,0.0050256852991879,0.0021466109901666,0.0033132827375084,-0.0280814587371423,-0.4571731438860298,-9.802362951636317,14933.0
6.9,1.100000023841858,103.0,25.65827560424805,-0.0636141896247863,-79.78279143535164,40.45898029771242,268.58876303482054,0.0107360668480396,0.0199572835117578,-0.5228806734085083,0.8521046042442322,0.0091331259000556,-0.0033813654011551,0.006762764253621,0.005827987100929,0.0015195298474282,0.0079365950077772,-0.0307949391030706,-0.4328033012151719,-9.800297715067863,14933.0
7.0,1.100000023841858,102.0,25.65702247619629,0.0079517737030982,-79.78279136604965,40.45898042545315,268.592337644577,0.0107529824599623,0.0199825502932071,-0.5228540897369385,0.8521201610565186,0.0109164627604869,-0.0007428051081762,0.0051782398456138,-0.0072572906501591,-0.0025642500258982,-0.0066047180444002,-0.0306000989140011,-0.4367236034944654,-9.80156539142132,14933.0
7.2,1.0,108.0,25.672048568725582,-0.0636141896247863,-79.78279135587981,40.458980406258405,268.5932541255951,0.0107776755467057,0.0200023725628852,-0.5228063464164734,0.8521486520767212,0.0104872660961215,-0.0010309547281383,0.005151639479075,-0.0052911266684532,-0.0063070151954889,-0.0047086365520954,-0.0259026263002306,-0.4538097888976336,-9.802017381191254,14933.0
7.3,0.8999999761581421,111.0,25.65451812744141,-0.0636141896247863,-79.78279136759565,40.458980552409024,268.599425113678,0.0107874833047389,0.0199948549270629,-0.5227789878845215,0.8521654605865479,0.0051054433561235,-0.0081599310548054,0.0071941287403262,0.0003506011271383,0.0014630088116973,0.0005671184626407,-0.0306836113147437,-0.4419237516447902,-9.800652641057969,14933.0
7.5,0.8000000119209291,109.0,25.668291091918945,-0.0477106422185897,-79.78279132741527,40.45898066335191,268.60404089736943,0.0108002368360757,0.0200035534799098,-0.5227398872375488,0.8521891236305237,0.0063550720131934,-0.0076449571042349,0.0056976691127939,-0.008770490065217,-0.001857079914771,-0.0083117764443159,-0.0283475344581529,-0.4572592075914145,-9.802011533975602,14933.0
7.6,0.8000000119209291,109.0,25.664535522460927,-0.0715659633278846,-79.78279133182838,40.45898065468833,268.6045778160095,0.0108028380200266,0.0200079884380102,-0.5227186679840088,0.8522020578384399,0.0071173326833579,-0.0079753353303561,0.0055437877096934,0.007643568329513,0.0012714873300865,0.0053809005767107,-0.0279572921991348,-0.4584485678002239,-9.801870616078377,14933.0
7.8,0.699999988079071,117.0,25.655771255493164,-0.0795177370309829,-79.78279132748834,40.458980792545,268.6093201999664,0.0108092054724693,0.0200285334140062,-0.5226984620094299,0.8522137999534607,0.0006567149483432,-0.010362682553758,0.0039110160991881,0.006817334331572,0.0049394476227462,0.0030134806875139,-0.0313031192449852,-0.4418128738179803,-9.80038425385952,14933.0
7.9,0.699999988079071,125.0,25.664535522460927,-0.0874695107340812,-79.78279133827799,40.45898078822179,268.6097188358307,0.010804190300405,0.0200295690447092,-0.5226811170578003,0.8522245287895203,-0.0003687344245269,-0.0103835418680989,0.0039091214010176,-0.0021624208893626,-0.0048526949249207,-0.0007713563973084,-0.0291855112672783,-0.4545804519206286,-9.801698707938195,14933.0
8.1,0.6000000238418579,141.0,25.66203117370605,-0.0636141896247863,-79.78279126828313,40.45898090956297,268.6144574050903,0.0108173564076423,0.0200623255223035,-0.5226480960845947,0.8522437810897827,0.0037956755052037,-0.0041530340760499,0.0029951178150121,0.0062270243652164,0.0009031847584992,0.008204661309719,-0.030659984908998,-0.4352279222756624,-9.800255615115166,14933.0
8.2,0.6000000238418579,139.0,25.664535522460927,-0.055662415921688,-79.78279127092325,40.45898090532323,268.61474469947814,0.0108116921037435,0.020063342526555,-0.5226467251777649,0.8522447347640991,0.0024499438574762,-0.0041239042056699,0.0030731353199241,-0.008250324986875,-0.0042254128493368,-0.0052010295912623,-0.0295980163430795,-0.4353646009415389,-9.800107680559158,14933.0
8.4,0.6000000238418579,150.0,25.66203117370605,-0.0795177370309829,-79.78279125470368,40.45898102751263,268.6197238330841,0.010823156684637,0.020080029964447,-0.5225970149040222,0.8522747159004211,0.0016877132288854,-0.0065808683378537,0.0021567414557999,-0.0026325692888349,-0.0036749721039086,0.0004590015450958,-0.02622495863121,-0.4524434042349458,-9.8009970420599,14933.0
8.5,0.699999988079071,152.0,25.665786743164062,-0.055662415921688,-79.78279122911749,40.45898114269955,268.62607220458983,0.0108309816569089,0.0200897399336099,-0.5225641131401062,0.8522945046424866,0.0015987434301797,-0.0080284341355945,0.0045213798991297,-0.0015695899492129,0.0034528959076851,-0.0041951830498874,-0.031514619430527,-0.4368221656233072,-9.79939899802208,14933.0
8.71,0.699999988079071,150.0,25.66328430175781,-0.0795177370309829,-79.78279124421341,40.45898113348901,268.6269729499817,0.0108378985896706,0.0200930368155241,-0.5225127935409546,0.8523257970809937,0.0008358202474311,-0.0082352380095195,0.0046460951235064,-0.0070222350768744,-0.0021865479648113,-0.0093688331544399,-0.0278145858761854,-0.4574215043708682,-9.802654727697371,14933.0
8.81,0.8000000119209291,146.0,25.66077995300293,-0.0636141896247863,-79.78279117773778,40.45898124553408,268.63178328323363,0.0108484514057636,0.0201004687696695,-0.5224934816360474,0.8523373007774353,0.0045641371670995,-0.0037593878237248,0.0036513479314657,0.0052070799283683,0.0026395667809993,0.0035251821391284,-0.029484027614817,-0.4459313601627946,-9.801247302889823,14933.0
9.0,0.8000000119209291,141.0,25.664535522460927,-0.0636141896247863,-79.78279111683337,40.45898132275119,268.6374490623474,0.0108595276251435,0.0200951397418975,-0.5224620699882507,0.8523566126823425,0.0121292935857485,-0.0032049444767353,0.0032901775990525,-0.006609181407839,-0.0023093812633305,-0.005324478726834,-0.0269327686540782,-0.4575171428918839,-9.802064743638038,14933.0
9.11,0.8000000119209291,144.0,25.670795440673828,-0.055662415921688,-79.78279111346941,40.45898131107312,268.6377106075287,0.0108589241281151,0.0200878009200096,-0.5224506258964539,0.8523637652397156,0.0133404413341568,-0.0035121438740894,0.0031486464861323,0.005471350159496,0.0005702200578525,0.0016817251453176,-0.0282485703332349,-0.4479961581900716,-9.801118664145474,14933.0
9.3,0.699999988079071,146.0,25.669544219970703,-0.0636141896247863,-79.78279106932429,40.4589813993372,268.64384201812743,0.0108678769320249,0.020085584372282,-0.5224050283432007,0.8523916602134705,0.0127856344822844,-0.0049908858387693,0.0028485144641582,-0.0019609460141509,-0.006059072446078,-0.0062903715297579,-0.0285025610472075,-0.4562245062366128,-9.802059481143951,14933.0
9.4,0.699999988079071,142.0,25.65326690673828,-0.0795177370309829,-79.78279106757097,40.45898138642899,268.64406184005736,0.0108683994039893,0.020084910094738,-0.5223854184150696,0.8524037003517151,0.014012522361299,-0.0054316247546168,0.0027638914759835,0.0062353052198886,0.0062706293538212,0.00578652927652,-0.0276775942929089,-0.4527749779075385,-9.802376400232315,14933.0
9.6,0.6000000238418579,133.0,25.66328430175781,-0.0715659633278846,-79.78279102644122,40.45898149351056,268.6502097015381,0.0108582787215709,0.020078144967556,-0.5223443508148193,0.8524290919303894,0.0084970874523307,-0.0036337980929175,0.0024342137199749,-0.0014723788481205,0.0007087557460181,-0.005950519349426,-0.0296146420785225,-0.4521225017309189,-9.802003347873688,14933.0
9.71,0.699999988079071,131.0,25.664535522460927,-0.0477106422185897,-79.78279102550941,40.45898148494374,268.6504011516571,0.0108490334823727,0.0200660582631826,-0.5223228335380554,0.852442741394043,0.0093244945423451,-0.003967206676086,0.0021886152954567,0.0083041610196232,0.0062301303260028,0.00412104325369,-0.0273191554052755,-0.4568792847543955,-9.801237362623215,14933.0
9.9,0.6000000238418579,128.0,25.65952682495117,-0.0636141896247863,-79.78279098790662,40.45898158412328,268.6566951637268,0.0108662052080035,0.020092936232686,-0.5222668647766113,0.8524761795997621,0.0078155573007928,-0.00379215502356,0.0019592306089373,0.0031984895467758,0.0026430413126945,0.0017597796395421,-0.0293459625192917,-0.4435450749099255,-9.80095026433468,14933.0
10.01,0.699999988079071,121.0,25.66703987121582,-0.055662415921688,-79.78279095142679,40.45898168639058,268.6630916957855,0.0108500821515917,0.0200922600924968,-0.5222316980361938,0.8524979948997498,0.0068220004222681,-0.0032730756578113,0.0017960388689481,-0.0023810423444956,-0.0037611171137541,0.0036023335997015,-0.0275955916615203,-0.4561433761194349,-9.803046491146088,14933.0
10.2,0.699999988079071,108.0,25.670795440673828,-0.0477106422185897,-79.78279095125531,40.45898167245768,268.66337541389464,0.0108557632192969,0.0200884714722633,-0.5221755504608154,0.8525323867797852,0.0074731516574985,-0.0037300815163863,0.0015521450354231,0.0128511674702167,0.0055539300665259,0.0068767750635743,-0.0310253810696303,-0.4334188302978873,-9.799430572986603,14933.0
10.31,0.8000000119209291,104.0,25.664535522460927,-0.0477106422185897,-79.78279094338481,40.45898175701725,268.67021254348754,0.0108666298910975,0.0200949218124151,-0.5221447348594666,0.8525509238243103,0.0070939093531445,-0.0079235828476424,0.0017352142205443,-0.0072143874131143,-0.0039810319431126,-0.0045515960082411,-0.0293669965071603,-0.444188012816012,-9.800498859286307,14933.0
10.5,0.8999999761581421,89.0,25.664535522460927,-0.055662415921688,-79.78279088625331,40.45898183301053,268.67708829689025,0.0108500039204955,0.0200895015150308,-0.522075355052948,0.852593719959259,0.0106334755726758,-0.0027572804368474,0.0021896879174861,-0.0021349349990487,-0.0023571436759084,0.0036157937720417,-0.0298079976229928,-0.4433145849779249,-9.800774847865103,14933.0
10.6,1.0,82.0,25.66703987121582,-0.0636141896247863,-79.7827908835155,40.458981823149685,268.67725805091857,0.0108526889234781,0.0200866553932428,-0.5220565795898438,0.8526053428649902,0.0102666614163437,-0.0029820188274721,0.0022439023019881,-0.0012062947498634,3.9651708902965765e-06,-0.0069937212392687,-0.0309651341917924,-0.4341620844975114,-9.799952144622806,14933.0
10.8,1.100000023841858,72.0,25.668291091918945,-0.055662415921688,-79.78279078801384,40.458981893276615,268.68570522117614,0.0108432527631521,0.0200673379004001,-0.5219888687133789,0.8526473045349121,0.0143711488099446,0.0052188528162446,0.0047821836980556,-0.0049048592336475,-0.0031289584003388,-0.0089475354179739,-0.0281616683746688,-0.4581461205706001,-9.801724435687063,14933.0
10.9,1.100000023841858,66.0,25.66328430175781,-0.055662415921688,-79.7827907746607,40.45898188312713,268.68611029434203,0.0108222840353846,0.0200616903603076,-0.5219506621360779,0.8526710867881775,0.0155936018933815,0.0048182247531709,0.0047345459328795,0.0047239824198186,0.0007255497621372,0.0047202995046973,-0.0267570438352413,-0.4501753058284521,-9.802384001612664,14933.0
11.1,1.399999976158142,59.0,25.665786743164062,-0.0715659633278846,-79.782790783307,40.45898201398247,268.6961260204315,0.0107819205150008,0.0200216919183731,-0.5218909978866577,0.8527090549468994,0.0018208499217544,0.001974560493656,0.0073594553580351,0.0028047948144376,0.0004573495243676,-0.0014309326652437,-0.0274805796705186,-0.4504938329011202,-9.802688641548157,14933.0
11.2,1.5,53.0,25.66203117370605,-0.055662415921688,-79.78279078026561,40.458982013231385,268.6968555812836,0.0107891261577606,0.0200197752565145,-0.5218479633331299,0.8527354001998901,0.0017276268698341,0.0017910094333721,0.007380763852114,0.0017691230168566,-0.0033985723275691,0.0024475918617099,-0.0272570858406834,-0.4588817733898759,-9.803114903569222,14933.0
11.4,1.5,46.0,25.66703987121582,-0.0636141896247863,-79.78279075695484,40.45898206636839,268.7041638259888,0.0108051598072052,0.0200112778693437,-0.5217947959899902,0.8527679443359375,0.0071008930867434,-0.0023429267217105,0.0054196361516151,0.0072721075266599,0.0055563771165907,0.0012608751421794,-0.0320157737773843,-0.4327124501019716,-9.80055908560753,14933.0
11.51,1.600000023841858,45.0,25.669544219970703,-0.055662415921688,-79.78279073367077,40.45898214666804,268.7134201889038,0.0107878986746072,0.0200058240443468,-0.5217638611793518,0.8527871966362,0.0051287267527475,-0.0022383498792292,0.0073188218077609,-0.0067916652187705,-0.0003704107366502,-0.0038702795282006,-0.0309338561561889,-0.4442486776784063,-9.799428818821909,14933.0
11.71,1.7000000476837158,49.0,25.668291091918945,-0.055662415921688,-79.78279073243678,40.45898213534692,268.7148030166626,0.0107686379924416,0.0199970789253711,-0.5217348337173462,0.8528053760528564,0.0049530171824162,-0.0025902269346532,0.0070949631252922,-0.00301472726278,-0.0025618162471801,-0.0045286063104867,-0.0292993401107378,-0.4540104214847088,-9.801408101320268,14933.0
11.81,1.7000000476837158,49.0,25.664535522460927,-0.055662415921688,-79.78279073502702,40.458982207847306,268.7249527339935,0.0107867196202278,0.0200003087520599,-0.5217210650444031,0.8528134822845459,0.0036765337051278,-0.0057908109984915,0.0087144474177673,0.0008045096183195,0.0010421932674944,-0.002484928118065,-0.0300298309349454,-0.4357763911038637,-9.799449868798256,14933.0
12.0,1.7000000476837158,43.0,25.66703987121582,-0.0636141896247863,-79.78279070200318,40.45898225827565,268.73643020439147,0.0108064506202936,0.0199865624308586,-0.5216506719589233,0.8528566360473633,0.0081897736955338,-0.0035641136296329,0.0101977837861667,-0.006884281989187,-0.0023171436041593,-0.0102575467899441,-0.0258809573412872,-0.4594222022965551,-9.802002178430556,14933.0
12.1,1.7000000476837158,42.0,25.66077995300293,-0.0715659633278846,-79.7827907010208,40.45898224944137,268.7374010448456,0.010804851539433,0.0199886206537485,-0.5216273665428162,0.8528708815574646,0.0092333846700721,-0.0038578795462608,0.0100333884382021,0.0068924245424568,0.0037294868379831,0.008408392779529,-0.0257511148927733,-0.4590097543224693,-9.801280047297476,14933.0
12.3,1.600000023841858,38.0,25.670795440673828,-0.0636141896247863,-79.78279068909274,40.45898230565916,268.7474983100891,0.0107954712584614,0.0200012773275375,-0.5215877890586853,0.8528949022293091,0.0083165425499018,-0.0041900883809444,0.0071424184230089,0.0070670288987457,0.0015201664064079,0.0050437622703611,-0.0299814475094899,-0.4388870732858777,-9.799776143431664,14933.0
12.41,1.7000000476837158,40.0,25.665786743164062,-0.055662415921688,-79.78279068921924,40.45898229771176,268.7481899623871,0.0107903117313981,0.0199954826384782,-0.5215774178504944,0.8529014587402344,0.0067478583338245,-0.0042528507354221,0.0073566779765966,-0.0048695364966988,-0.0012759197270497,-0.0022730624768882,-0.0311518727894872,-0.4490718265995384,-9.802279921174051,14933.0
12.6,1.7999999523162842,41.0,25.64825820922852,-0.0715659633278846,-79.78279068448708,40.4589823494992,268.7606459026337,0.0107934987172484,0.0200019273906946,-0.5215463042259216,0.8529201745986938,0.0064411100444197,-0.0045594496633346,0.0087129649882241,0.0018992183031514,0.0015573690179735,0.001540407189168,-0.0308070972003042,-0.4421577133610845,-9.8005023676157,14933.0
12.7,1.7999999523162842,40.0,25.665786743164062,-0.055662415921688,-79.78279068559739,40.45898234227993,268.7614884738922,0.0107976263388991,0.0200132168829441,-0.5215307474136353,0.8529294729232788,0.0059352408565937,-0.0047291772477305,0.0087178880069588,-0.001848846906796,0.0017484376439824,-0.0042872470803558,-0.0312076703016646,-0.4341096788272262,-9.79921831905842,14933.0
12.9,1.7999999523162842,49.0,25.66703987121582,-0.0715659633278846,-79.78279063896457,40.45898237369779,268.7748020057678,0.0107986638322472,0.0200048126280307,-0.5214667320251465,0.8529687523841858,0.0105172348071827,-0.0008414903049215,0.0102687187149237,-0.0049195121973752,-0.0034013392869383,-0.0071270857006311,-0.0263772214972414,-0.4587776564061642,-9.801139129400251,14933.0
13.0,1.7999999523162842,50.0,25.65952682495117,-0.055662415921688,-79.78279065987769,40.4589824278344,268.78797606277465,0.0107844537124037,0.019998101517558,-0.5214417576789856,0.8529843688011169,0.0081796887089922,-0.0055275182796994,0.01111381533785,0.0073275142349302,0.0050022411160171,0.0064573101699352,-0.0273444309085607,-0.4567674567550421,-9.802928377389913,14933.0
13.11,2.200000047683716,53.0,25.665786743164062,-0.055662415921688,-79.78279066164151,40.45898241938513,268.789060628891,0.0107931913807988,0.0200126338750124,-0.5214303135871887,0.852990984916687,0.0063125695782114,-0.005433784859862,0.0112367366236973,-0.0093393307179212,-0.0038410006090998,-0.0072064469568431,-0.0298208043957129,-0.43781714245677,-9.800131654143334,14933.0
13.3,2.299999952316284,47.0,25.638242721557607,0.1828908026218414,-79.7827906879726,40.4589824425381,268.8017897968292,0.0107999835163354,0.0200163293629884,-0.5213810205459595,0.8530208468437195,0.0074200564476468,-0.0104184305363009,0.0082672067313137,-0.0048307594843208,-0.0030735512264072,-0.0023849376011639,-0.0308662705658935,-0.4469477158784865,-9.801735545396808,14933.0
13.41,2.400000095367432,47.0,25.57689094543457,1.0416823625564575,-79.78279071263822,40.45898246004776,268.8148534660339,0.010820741765201,0.020013228058815,-0.5213755369186401,0.8530241250991821,0.0085674031625484,-0.0130946315361824,0.0067901743127245,-0.002200125483796,0.0035525658167898,0.0027413817588239,-0.0322080923547037,-0.4449542904272676,-9.801705139875413,14933.0
13.61,2.400000095367432,47.0,25.63072967529297,0.2385532110929489,-79.78279072148553,40.45898244774797,268.81550589847564,0.0108281075954437,0.0200340822339057,-0.5212897062301636,0.8530759215354919,0.0084265572363183,-0.0128620372189304,0.0069524058029662,0.0011520736152306,0.0024726130068302,0.0060897483490407,-0.03087324839551,-0.4401869093254209,-9.798214936852457,14933.0
13.8,2.5999999046325684,45.0,25.638242721557607,0.2306014448404312,-79.78279074619894,40.45898249096912,268.82881573486327,0.0108214784413576,0.0200537201017141,-0.5212637186050415,0.8530914783477783,0.0035034668516167,-0.0119952310316306,0.0054013314595971,-0.0043765325099229,-0.0033168368972837,0.0039801415987312,-0.0243763043009676,-0.4633291656151414,-9.803878549933437,14933.0
13.91,2.5999999046325684,42.0,25.63198280334473,0.2385532110929489,-79.78279075692109,40.45898248341625,268.8293470506668,0.0108155701309442,0.0200454667210578,-0.5212447047233582,0.8531033396720886,0.0034124841403115,-0.0118913514103026,0.0054863553291348,0.0056090517900884,-0.0016891631530597,-0.0061365105211734,-0.025076522079762,-0.4650490875542164,-9.802759392857553,14933.0
14.1,2.5999999046325684,37.0,25.629478454589844,0.2624085247516632,-79.78279079133351,40.45898248850777,268.84528986263274,0.0107992617413401,0.0200568679720163,-0.5211831331253052,0.8531408905982971,0.0064543452691188,-0.0144963995903057,0.0082246164137228,0.0064214044250547,0.0013190084137022,0.0082715768367052,-0.026163030678872,-0.4354115613922477,-9.80206825196743,14933.0
14.21,2.5,32.0,25.63198280334473,0.3578298389911652,-79.78279080320956,40.4589824777206,268.8461091880798,0.0107939504086971,0.0200604125857353,-0.5212358236312866,0.8531086444854736,0.0045042369139549,-0.0147436042930835,0.0085667744245336,-0.0105293793603777,-0.0040556625463068,-0.015263675712049,-0.0328749467432498,-0.4365439477935434,-9.795639238357545,14933.0
14.4,2.5,30.0,25.621965408325195,0.3657816052436829,-79.78279081303505,40.45898247564492,268.8626039390564,0.0107952523976564,0.0200870651751756,-0.5211447477340698,0.8531636595726013,0.0081897399009934,-0.0123063211042818,0.0102960591674367,-0.0093047758564353,-0.0077698933891952,-0.013848946429789,-0.022705583483912,-0.4560546811670066,-9.798861054182051,14933.0
14.5,2.5,26.0,23.48346328735352,20.245216369628903,-79.78279086030733,40.4589824969031,268.8776364688873,0.0108002619817852,0.0200754087418317,-0.5211741328239441,0.8531458973884583,0.0085317630595892,-0.0152105377423041,0.0123292944156565,0.0110670700669288,0.0050390781834721,0.0025467467494308,-0.0403528960235416,-0.4472724556177855,-9.815495213270188,14933.0
14.7,2.0999999046325684,18.0,25.61445426940918,0.3816851377487183,-79.78279088223374,40.45898246690579,268.88028827953343,0.0113780293613672,0.0209585092961788,-0.5211567878723145,0.8531277179718018,0.0066367107823337,-0.0173207475287413,0.0097251284512917,0.0265012197196483,0.0764086171984672,0.0390917025506496,-0.038418098045513,-0.4255440560728312,-9.82744809150696,14933.0
14.8,2.0999999046325684,15.0,25.63448715209961,0.1749390214681625,-79.78279084838631,40.45898248448577,268.8921480541229,0.0112867569550871,0.0209433529525995,-0.5210571885108948,0.8531901836395264,0.0089956388425291,-0.0068968703340917,0.0093244794086533,-0.0187877584248781,0.00476876180619,-0.0066860746592283,-0.0094851059810025,-0.4931400251761079,-9.800746196508408,14933.0
15.02,1.8999999761581416,11.0,25.52054977416992,0.9303575754165648,-79.78279087631398,40.45898247504132,268.9089764719009,0.0115040754899382,0.0212601218372583,-0.5211018323898315,0.8531522154808044,0.010490582325492,-0.0054966289620796,0.0110428858296644,-0.0298439431935548,-0.0773665010929107,0.0244002975523471,-0.0202540264022536,-0.4337532179430128,-9.85104862332344,14933.0
15.11,1.7999999523162842,11.0,25.60193252563477,0.278312087059021,-79.78279087938067,40.45898246254347,268.9098928337097,0.011411695741117,0.0211202353239059,-0.521123468875885,0.8531436920166016,0.01373031078337,-0.0100252653863311,0.0106925369615752,0.0095238899812102,0.0198939368128776,0.0160837098956108,-0.0528066750755533,-0.5034700452536345,-9.784447667598725,14933.0
15.3,1.5,8.0,25.59817695617676,0.5009617805480957,-79.78279095822495,40.458982473313725,268.92786828327183,0.0113603752106428,0.0208886954933404,-0.5210642218589783,0.8531861901283264,0.0027511525378466,-0.0119270109825624,0.0104179009166857,-0.0202620308846235,-0.0273668151348829,0.016840286552906,-0.0026441428950056,-0.4604264981299639,-9.80693839788437,14933.0
15.41,1.399999976158142,1.0,25.436662673950195,2.449146270751953,-79.78279097046078,40.45898246312479,268.9289483194351,0.0112714124843478,0.0207650437951087,-0.5210199356079102,0.8532174825668335,0.0054176739896586,-0.0154697790775109,0.0116851023533287,-0.0008595593390055,0.0212641898542642,-0.001227060216479,-0.0332056524697691,-0.4199407789483667,-9.797431994676591,14933.0
15.6,1.2999999523162842,353.0,25.16997528076172,5.152749538421631,-79.78279098873304,40.45898246212774,268.94452253627776,0.011287217028439,0.0208413042128086,-0.5210374593734741,0.8532047271728516,0.0067222636794326,-0.0104721776081015,0.0118421830270242,0.0179710499942302,0.0224811155349016,-0.0052670110017061,-0.0243989576934836,-0.4973942034691573,-9.80254187643528,14933.0
15.7,1.2999999523162842,344.0,25.078575134277344,6.432985305786133,-79.7827909954342,40.45898245153353,268.9455794458389,0.0112739596515893,0.0209628343582153,-0.5209892988204956,0.8532313704490662,0.0026179766236654,-0.0100987513458355,0.0115220136946106,-0.0434500128030777,-0.0612927488982677,-0.0265871547162532,-0.0289299331256188,-0.4169157219305635,-9.792840176224711,14933.0
15.9,1.2999999523162842,338.0,24.843189239501957,8.786709785461426,-79.78279105658739,40.45898244191089,268.96310941028594,0.0118118748068809,0.0216348525136709,-0.5206682085990906,0.8534032702445984,0.0180632887844714,-0.0120154513490581,0.0142539288751424,0.0537506714463234,0.0410782098770141,-0.0852009207010269,-0.0284881280176341,-0.541295866034925,-9.829054906368256,14933.0
16.0,1.2000000476837158,328.0,24.699203491210927,10.400919914245604,-79.78279111422695,40.45898243190606,268.9781037931442,0.0123328464105725,0.022425478324294,-0.5206860899925232,0.8533645272254944,0.0175002244293379,-0.0196164140323988,0.0109537116751684,0.0724812448024749,0.0395508483052253,-0.0227188449352979,-0.0489717512810602,-0.3782615334168077,-9.7646384704113,14933.0
16.2,1.100000023841858,322.0,24.44002914428711,13.597533226013184,-79.78279113295174,40.45898239252013,268.98055485534667,0.013591886498034,0.0242521353065967,-0.5207652449607849,0.8532472252845764,0.0181068232928521,-0.0167923002471248,0.0138843476525447,0.0153728257864713,-0.0129928411915898,0.031854934990406,-0.0007536044565495,-0.5408277233317494,-9.827561527490618,14933.0
16.3,1.2000000476837158,323.0,24.28853225708008,15.259453773498535,-79.78279118382619,40.45898248284915,268.99140468883513,0.0143427904695272,0.02521220035851,-0.5209410190582275,0.8530996441841125,0.0054581821250496,-0.0164448233623307,0.0149968424300529,0.0538992807269096,0.087090291082859,-0.0382244624197483,-0.030907436334528,-0.4858655772730709,-9.797228511571882,14933.0
16.5,1.2000000476837158,310.0,23.98553466796875,18.93317413330078,-79.78279123366059,40.45898244633252,269.0089309577942,0.0158125050365924,0.0248302295804023,-0.5230063796043396,0.8518203496932983,0.0087258527564167,-0.0079138100742097,0.0367826575865484,-0.099405713379383,-0.035326212644577,0.0361151695251464,-0.0492457298794761,-0.4588625506684184,-9.817406083345414,14934.0
16.6,1.2999999523162842,303.0,23.861581802368164,20.579191207885746,-79.7827912249897,40.45898242036285,269.01332906532286,0.010291296057403,0.0222511012107133,-0.5270002484321594,0.8495115041732788,0.0355942489255319,0.00981462285651,0.051289224449027,-0.2078030854463577,-0.1618382632732391,0.0798764526844024,0.1627066327258944,-0.2742888662964106,-9.918091628551483,14934.0
16.8,1.399999976158142,298.0,23.51100730895996,24.61869239807129,-79.78279113625877,40.45898229947989,269.04938308048247,-0.0023762609343975,0.0111344251781702,-0.5392715930938721,0.8420550227165222,0.1039168054625816,0.0475208496748071,0.1643785471486138,-0.1795839071273803,0.0062389960512518,0.1366358250379562,0.1822984779439866,0.0042063224874436,-10.19754409790039,14934.0
16.91,1.5,297.0,23.83904457092285,20.20545768737793,-79.78279099825353,40.45898222396514,269.0715016489029,-0.0067916451953351,0.0039719818159937,-0.5431894063949585,0.8395733833312988,0.1180080401389444,0.0797482236438748,0.2922180597850102,-0.2326274067163467,0.0682183429598808,0.1120331436395645,0.1350887805316597,0.2452863477542997,-11.015333340168,14934.0
17.1,1.600000023841858,290.0,23.96925926208496,18.97293281555176,-79.78279050758324,40.45898206916858,269.1559528474808,-0.0026787423994392,-0.0038472118321806,-0.5436305403709412,0.8393115997314453,0.139422680689393,0.1450201604910156,0.3482407967130347,0.0059308526106178,-0.0464647226035594,0.0180553663522005,0.2092670973390341,0.3951504483819008,-10.755708779096604,14934.0
17.2,1.7000000476837158,285.0,23.783954620361328,20.897262573242188,-79.78279027738336,40.45898200870227,269.1883253221512,0.0001296772825298,-0.0045243338681757,-0.5420952439308167,0.840304970741272,0.1444099468136418,0.1736174512890844,0.2948852657391121,0.0151869803667068,-0.0290615074336528,-0.0205602012574672,0.3139689487963915,0.0808766129706055,-9.43030520439148,14934.0
17.4,1.600000023841858,287.0,23.69380760192871,21.756053924560547,-79.7827896673525,40.45898181904462,269.23464742946624,0.0084244385361671,-0.0143479006364941,-0.5388709902763367,0.8422240018844604,0.1628452976303668,0.1916424664522689,0.2068021685407686,-0.0806940644979476,0.0916204303503036,-0.058060448616743,0.3652829804643989,0.1520757734030485,-9.550421047210694,14934.0
17.5,1.600000023841858,287.0,23.702571868896484,21.87532997131348,-79.78278942587531,40.45898170881637,269.2826605205536,0.0126027269288897,-0.0208419132977724,-0.537481427192688,0.8429238796234131,0.1570661873476151,0.1641766239027199,0.1704751386518054,-0.1013986989855766,0.0975921750068664,-0.098584309220314,0.2794361702352762,0.210967065654695,-9.56231545329094,14934.0
17.7,1.7000000476837158,290.0,23.57486343383789,22.686410903930664,-79.78278894529896,40.45898157387194,269.3150263195039,0.0099281901493668,-0.0224088188260793,-0.5362312793731691,0.843715250492096,0.1525357002534698,0.1518249181566229,0.1505225963901553,0.0124160004779696,0.0001901473006,-0.0893872529268264,0.3571017755940556,0.3596067593246698,-9.649314420819284,14934.0
17.81,1.7000000476837158,301.0,23.598651885986328,23.31460189819336,-79.78278844324733,40.45898161526539,269.37352124500273,0.0066180662252008,-0.0190869159996509,-0.5362506508827211,0.8438170552253723,0.1460917011760938,0.1779494781241143,0.186334322870188,-0.0023045076522976,0.0381506606936454,-0.0084174051880836,0.2499177445471287,0.2297231427580118,-9.983695049285892,14934.0
18.01,1.600000023841858,308.0,23.649986267089844,21.620872497558597,-79.78278817329011,40.45898172517895,269.43957821178435,0.0103677604347467,-0.0206713266670703,-0.5381037592887878,0.8425613641738892,0.0652833757304328,0.1579592225240083,0.2640021889390789,-0.094973899424076,0.0735316947102546,-0.0630840361118316,0.1810819099098444,0.1738438974693417,-10.165771497488024,14934.0
18.11,1.600000023841858,313.0,23.56735038757324,22.956771850585927,-79.78278799196333,40.45898173239822,269.468317902565,0.0136312581598758,-0.025074427947402,-0.5386403799057007,0.8420524001121521,0.0504826229120718,0.151736019307895,0.2860029294853463,-0.0759463459253311,0.0270008519291877,0.0887738987803459,0.4148910138756037,-0.1167706507444381,-10.06460297226906,14934.0
18.3,1.7000000476837158,312.0,23.63746452331543,22.209304809570312,-79.78278739548381,40.45898152649835,269.55767635154723,0.0091312890872359,-0.0206606332212686,-0.5356237292289734,0.8441547155380249,0.0837160203980254,0.1521042790840214,0.3075409220375114,0.0450539477169513,-0.1378707587718963,0.0364567264914512,0.4939031599089504,0.0178611858724616,-9.911580169200898,14934.0
18.4,1.7000000476837158,315.0,23.606164932250977,21.891233444213867,-79.7827872340357,40.45898152469977,269.5904461507797,0.0070251137949526,-0.0211390741169452,-0.5345975160598755,0.8448132872581482,0.0539538480709393,0.1220834328382692,0.3313255521214021,-0.1048578694462776,0.0478101819753646,-0.0687221959233284,0.2025597197189927,0.173319932129234,-10.008201899528505,14934.0
18.6,1.600000023841858,315.0,23.61117172241211,22.17749786376953,-79.78278683721142,40.458981505718825,269.68201235580443,0.0092426156625151,-0.0244637001305818,-0.5334589481353761,0.8454216122627258,0.0426876693501055,0.1147725269546674,0.3194549454388089,-0.0191255714744329,0.0498464256525039,-0.0282494109123945,0.1983085381239652,0.1593212593160569,-9.917461298704149,14934.0
18.7,1.5,312.0,24.63534927368164,12.396815299987791,-79.78278670199882,40.45898151910383,269.7132891778946,0.0105061652138829,-0.0230415202677249,-0.5333576798439026,0.8455106616020203,0.0338164585170671,0.1033068530535817,0.289404525676596,0.0807641148567199,0.0911231264472007,0.0278766211122274,0.2092777867801487,-0.0259896287578158,-9.445447154045103,14934.0
18.9,1.600000023841858,303.0,23.126628875732425,28.08566474914551,-79.78278654759761,40.45898155101163,269.7678485279083,0.0154642527922987,-0.0149174015969038,-0.534521222114563,0.8448818922042847,-0.0065707231146901,0.06498484336008,0.0376851647171162,0.0714704096317291,0.0174161382019519,0.0229664389044046,0.2112904532253742,-0.0919661863613873,-8.550144297480584,14934.0
19.0,1.600000023841858,297.0,23.109100341796875,27.76759529113769,-79.78278645822513,40.45898145193985,269.8205113773346,0.0181489791721105,-0.0127979842945933,-0.5351115465164185,0.8444895148277283,-0.0182882894949938,0.0496742918227339,0.1204251359914084,-0.0314307138323783,0.0174909997731447,0.0343964621424675,0.2023272563517093,-0.0844570458400994,-9.976113549470902,14934.0
19.2,1.5,292.0,22.90376281738281,31.695770263671875,-79.78278640602534,40.45898150526701,269.8675119643211,0.0125878388062119,-0.0107256080955266,-0.5379089117050171,0.842840850353241,-0.0322124882219245,0.0288254965740351,0.3765084482151585,-0.1045690178871154,-0.0484795309603214,-0.0100290989503264,0.3098021132871508,-0.1671616994217038,-10.649806348085404,14934.0
19.31,1.5,282.0,23.112855911254893,28.47530174255371,-79.78278630555401,40.45898169542829,269.9325574402809,0.0070038614794611,-0.0101668303832411,-0.5396650433540344,0.8417893648147583,-0.0494433872495874,0.0280227054941116,0.550964721964712,0.0334861874580383,-0.000411664834246,0.0497176796197891,0.1485883478075265,-0.0243518350739032,-11.511637988090516,14934.0
19.5,1.399999976158142,280.0,22.893747329711918,30.11336708068848,-79.7827863247918,40.45898175842022,270.0976128940582,0.0099576581269502,-0.0066480068489909,-0.5402318239212036,0.8414310812950134,-0.0582890589152987,0.0278447219683182,0.9338197600154096,0.1154526844620704,0.0676327273249626,0.0335861556231975,0.1138956570345908,0.1534267543070018,-11.672576751708984,14935.0
19.6,1.399999976158142,271.0,22.77980995178223,32.45119094848633,-79.7827863350839,40.45898182407039,270.2005779509544,0.0126205375418066,-0.0031900149770081,-0.539273738861084,0.8420299887657166,-0.0781167285082504,0.0521405440186627,1.1221606752168158,-0.0127214789390563,-0.0352473594248294,-0.0949903652071952,0.2911034302599728,-0.067680644094944,-11.67986706018448,14935.0
19.8,1.399999976158142,273.0,22.68966293334961,32.983959197998054,-79.78278633084085,40.45898193884479,270.4819891517162,0.0093340640887618,-0.0037913213018327,-0.5372807383537292,0.8433433771133423,-0.0819615221067771,0.0610119449168949,1.5112647029019155,-0.0850666239857673,0.0023900321684777,-0.0571820959448814,0.3037844878435135,-0.2045876071974635,-11.765767335891724,14935.0
19.9,1.399999976158142,266.0,22.62080001831055,33.246368408203125,-79.78278633042625,40.45898199341886,270.64414175498484,0.0104358177632093,-0.005855951923877,-0.5361611247062683,0.8440308570861816,-0.0620165887497019,0.0598422932553792,1.7314004787153507,-0.0275788474828004,-0.0150510901585221,0.0157718230038881,0.2146112697198987,-0.0153034241683781,-12.004520845413207,14935.0
20.1,1.2999999523162842,213.0,22.439252853393555,36.75309753417969,-79.78278635817402,40.45898206420307,271.0577988092899,0.0125329047441482,-0.0046034334227442,-0.5371427536010742,0.8433857560157776,-0.0431478668675216,0.0567462292816214,2.20095070709934,-0.014276853762567,0.0267797503620386,0.0294154230505228,0.2422879503853619,0.0022537110582925,-12.043683156967164,14936.0
20.2,1.2999999523162842,222.0,22.421724319458008,36.43502807617188,-79.78278638542004,40.45898208908712,271.2913509969711,0.0123273376375436,-0.006541290320456,-0.5395013093948364,0.841869056224823,-0.0460209197173968,0.0479425867953338,2.4718936438061703,-0.0412853434681892,0.0615398809313774,0.1067855879664421,0.2053311720304191,-0.1057296823337674,-12.466082507371905,14936.0
20.4,1.399999976158142,318.0,23.080303192138672,26.5748291015625,-79.78278647234848,40.45898208181404,271.88030568408965,0.0171155091375112,-0.0048093232326209,-0.5459814071655273,0.8376087546348572,0.0099793339620794,0.0226019625316362,2.999331744253752,0.1752090752124786,0.1707801520824432,0.0023707845248281,0.190473926961422,0.1310364864952862,-12.556006836891177,14936.0
20.5,1.399999976158142,10.0,23.06152153015137,26.82928466796875,-79.78278661076409,40.4589820888755,272.23432103443145,0.0255228392779827,-0.0005711616831831,-0.5466991066932678,0.8369399309158325,-0.0044925091570991,0.0322013962367281,3.1614426584787707,0.1134698390960693,0.0277532842010259,-0.0362526401877403,0.2381927980855107,0.2103111176937818,-11.423398826122286,14937.0
20.6,1.5,37.0,23.22554016113281,25.859169006347656,-79.78278666757937,40.45898202620294,272.55485943603514,0.0223448369652032,0.0019277223618701,-0.5452483296394348,0.8379744887351991,-0.0278704365594941,0.06554307762829,3.2426082196658137,-0.0775170847773552,-0.16146320104599,-0.1368993520736694,0.3672861634567381,-0.021232313546352,-10.807377115488055,14937.0
20.81,1.600000023841858,41.0,23.36451911926269,23.115806579589844,-79.78278681685491,40.45898177842317,273.29444221305846,0.004333037417382,-0.004224332049489,-0.5408241748809814,0.8411139845848083,0.0618205943102861,-0.0475193662056246,3.41845759994003,-0.1232647150754928,0.0655597075819969,-0.0766872093081474,0.0324479766609147,0.2913158120959997,-10.476235259771348,14938.0
20.9,1.600000023841858,36.0,23.46718597412109,22.137739181518555,-79.78278687655556,40.45898164219707,273.6383695964813,0.0092218108475208,-0.0081463642418384,-0.5393152236938477,0.8420141339302063,0.1221989167037545,-0.0672850540096477,3.454271968986674,-0.0723323747515678,0.0975615307688713,-0.0663159415125846,0.1207702924311161,0.1039829362928867,-10.215652924776078,14938.0
21.1,1.600000023841858,35.0,23.56109046936035,20.55533599853516,-79.78278707960497,40.45898141048951,274.44698241996764,0.0178960319608449,-0.009839579463005,-0.5398724675178528,0.8414990901947021,0.1355250279317792,-0.0151111285985342,3.5016660046003008,0.0032837269827723,0.0395314320921897,0.0228733867406845,0.1165675970446318,0.083293815376237,-9.714185185432434,14939.0
21.2,1.8999999761581416,19.0,23.4859676361084,21.11195945739746,-79.78278713036697,40.45898125558976,274.7997124557495,0.0144574828445911,-0.0083430986851453,-0.5405322313308716,0.8411577939987183,0.1325219539339452,-0.0192416072564577,3.4743686418729403,-0.0424101464450359,-0.0509660169482231,-0.0162997283041477,0.0819507008045911,0.0854306803364306,-9.612186940312387,14939.0
21.4,1.7999999523162842,10.0,23.65624618530273,19.203533172607425,-79.78278751380152,40.45898077044389,275.5197403793335,0.0001049886122928,-0.0017964148428291,-0.5399892926216125,0.841670036315918,0.165649545754537,-0.124027591876546,3.393846025085768,-0.06813795119524,-0.0752241984009742,-0.0517487600445747,0.0307923512533307,0.0380627791956067,-9.401581926941873,14940.0
21.5,2.0,4.0,23.563594818115234,20.507625579833984,-79.78278772103495,40.458980484602826,275.8535716896057,-0.0015157883754,-0.002295791869983,-0.5388833880424501,0.8423759341239929,0.1776751072060382,-0.1848285141474372,3.3216268859830915,-0.1031288057565689,0.0336382612586021,-0.046532817184925,-0.0676941429404541,-0.0567900222167372,-9.263346732258796,14940.0
21.7,2.0999999046325684,3.0,23.363265991210927,22.75002479553223,-79.78278795661066,40.45898005143409,276.50517538833617,0.0040038106963038,-0.0116759613156318,-0.5334583520889282,0.8457363247871399,0.2244010092284876,-0.1766738581291726,3.1927207716441783,-0.0005821557133458,0.0906197130680084,-0.0303112249821424,0.0602965608984232,0.0916704542934894,-9.233028334379195,14941.0
21.8,2.200000047683716,9.0,23.46593475341797,21.21533203125,-79.78278808865117,40.458979754388,276.7701690559387,0.005108777899295,-0.0120945135131478,-0.5319932103157043,0.8466468453407288,0.2487054640549531,-0.144407040375693,3.1211127875103326,0.0242832656949758,-0.0182086750864982,0.0496786572039127,0.1686757262796163,0.1053547935839742,-9.52622643828392,14941.0
22.01,2.200000047683716,10.0,23.52102470397949,20.507625579833984,-79.78278848705095,40.45897918421634,277.30460957336425,-0.0031490665860474,-0.0140427891165018,-0.5363720059394836,0.8438590764999391,0.2441196355427865,-0.1697368263011688,3.012886343240782,-0.1236118748784065,0.0300074089318513,0.1030363142490387,0.029889931732323,0.2487771720439196,-9.600937482118605,14942.0
22.2,2.200000047683716,11.0,23.42461585998535,21.65267944335937,-79.7827887359953,40.45897873703557,277.8997156982422,-0.0133186858147382,-0.0236832201480865,-0.5439774990081787,0.8386597633361816,0.2817477379821405,-0.1764497940562452,2.933291864623509,-0.1591676324605941,-0.03793216496706,0.0872052535414695,0.0529101844970136,0.2976384246535599,-9.464886222481727,14942.0
22.3,2.200000047683716,11.0,23.340728759765625,23.74399757385254,-79.78278892429873,40.45897815978751,278.1738269691467,-0.0148842679336667,-0.0244753900915384,-0.5484063029289246,0.8357212543487549,0.3124689910034192,-0.1822111624428216,2.864615648098128,-0.0204407479614019,-0.0108290333300828,0.1511387079954147,0.1636068115755915,0.1451483942940831,-9.557901974916456,14943.0
22.4,2.200000047683716,7.0,23.241817474365234,23.84737014770508,-79.78278904931622,40.45897798042991,278.46042708206176,-0.0154704898595809,-0.0233126990497112,-0.5523761510848999,0.8331253528594971,0.273062627964579,-0.1671591313161307,2.8524376622267336,-0.0363788604736328,0.0472492240369319,0.0462977923452854,0.1483541668206453,0.3689850719645621,-9.707512927651406,14943.0
22.6,2.200000047683716,2.0,23.39206314086914,22.392194747924805,-79.7827890558122,40.45897750327215,279.12718323516845,-0.013495079241693,-0.0179013442248106,-0.5531586408615112,0.83277428150177,0.2104894653851948,-0.1126464436913878,2.8778271884890776,0.0361398681998252,0.0215495005249977,-0.1032314747571945,0.1245369225740432,0.2218004579097032,-9.760494548678398,14944.0
22.7,2.0999999046325684,349.0,23.26310157775879,24.141586303710927,-79.78278914602235,40.45897741849492,279.41511181640624,-0.0100219752639532,-0.0155495004728436,-0.550222635269165,0.834813117980957,0.1874743836419979,-0.1103320696640484,2.8700202692972057,0.1711601912975311,0.1137589439749717,-0.0880851149559021,0.1736130786314606,0.0131858367472887,-9.774254216551784,14944.0
22.9,2.0,343.0,23.069034576416016,25.859169006347656,-79.78278924320351,40.45897730031108,280.0788128738403,0.0011493318015709,-0.0152589231729507,-0.5422889590263367,0.8400527238845825,0.0939882332481384,-0.0397569119736382,2.9073060482908377,0.0203900877386331,0.0517345331609249,-0.0946135520935058,0.1851742482371629,0.1358555423654616,-9.93133674144745,14945.0
23.1,2.0,338.0,23.3782901763916,21.581113815307614,-79.78278996060081,40.45897733997936,280.74734715270995,0.0067515498958528,-0.0173300597816705,-0.5365869402885437,0.8436400890350342,-0.0012338625683987,0.0038730296173284,2.947164111880957,-0.0767409726977348,-0.0234603639692068,-0.1071821749210357,0.2773350463807583,-0.0062042429856956,-10.008440465927125,14945.0
23.21,2.0,330.0,23.3394775390625,21.70039176940918,-79.78279007051957,40.45897736624076,281.03967217254643,0.0041121221147477,-0.0173958800733089,-0.5357702970504761,0.8441746234893799,-0.0163545244382405,0.0310024352178116,2.9003056811260484,-0.0591818541288375,-0.2034600228071212,-0.0127591267228126,0.4691997701302171,0.0284217621199786,-9.483919494152069,14946.0
23.31,2.200000047683716,321.0,23.384552001953125,22.59099006652832,-79.7827899926872,40.45897737758161,281.3991644744873,0.000473290507216,-0.0130234565585851,-0.5354085564613342,0.8444926738739014,0.0089953523917366,0.0372190796023103,2.9011218826050653,0.0066585470922291,-0.1529477834701538,0.0355956256389617,0.3384179481491447,0.0252023399993777,-9.599110811948774,14946.0
23.51,2.299999952316284,312.0,23.28188323974609,24.85724449157715,-79.78279004002414,40.458977435864746,282.0288727645874,0.0106253828853368,-0.0108729423955082,-0.5331967473030089,0.8458546996116638,-0.0123725752583278,0.0481140560485972,2.840506319355768,0.0712339431047439,0.1553006172180175,-0.0297055132687091,0.3079383132979273,0.066409121369943,-9.375665313005449,14947.0
23.6,2.700000047683716,299.0,23.189231872558597,24.133634567260746,-79.78279006192244,40.458977491579454,282.31009606170653,0.0135680986568331,-0.0178061928600072,-0.5334195494651794,0.845554530620575,-0.0508257405009521,0.1004171949420264,2.7835452162337027,-0.1439272612333297,0.0990834161639213,0.039029486477375,0.4503125692158937,0.2682043267786503,-9.32475711464882,14947.0
23.8,2.799999952316284,297.0,23.19423866271973,23.815563201904297,-79.78279025220053,40.45897799807551,282.9402325515747,0.0076432502828538,-0.0273802317678928,-0.5352781414985657,0.8441974520683289,-0.0109082692287559,0.1626140251886362,2.7322892691966323,0.0280458889901638,0.0526499822735786,0.0373732335865497,0.5043729284405709,0.1155560196004808,-9.390446489453318,14947.0
24.0,3.0999999046325684,290.0,22.988903045654297,26.65434646606445,-79.7827901510054,40.45897823305414,283.551335609436,0.0098062381148338,-0.0256769116967916,-0.5359275341033936,0.8438165187835693,-0.0145075060223302,0.1809222893086892,2.674678304543725,0.0156186753883957,-0.0059427344240248,-0.037488117814064,0.4858808531239629,0.2711244262754917,-9.21069781780243,14948.0
24.11,3.299999952316284,289.0,23.08656311035156,25.03218460083008,-79.78279013719124,40.45897834577608,283.81747368621825,0.0138304438441991,-0.0221534147858619,-0.5364525318145752,0.843526303768158,-0.0259611543112577,0.1891641163563464,2.644359260929676,0.0788150653243064,-0.0735301077365875,0.1454981714487075,0.4755537931993604,0.0389764066413044,-9.495844890475274,14948.0
24.2,3.5999999046325684,293.0,23.14540863037109,24.316524505615234,-79.78279012192104,40.45897845659103,284.08168629455565,0.0174715314060449,-0.0187691487371921,-0.5368906259536743,0.8432621359825134,-0.0343422476909509,0.1913573042834974,2.636253686439652,0.1210023462772369,0.0171637088060379,0.058254424482584,0.4217328774556518,0.1714395223930478,-9.671002328395844,14949.0
24.41,3.799999952316284,296.0,23.082807540893555,24.54712677001953,-79.78278997610714,40.45897837004621,284.68102196502684,0.0181904286146164,-0.0225747022777795,-0.5372828245162964,0.8429037928581238,-0.0159697381162976,0.2023831613997725,2.594648707885728,-0.1099113151431083,-0.0630453303456306,0.0046908394433558,0.4591321804001928,0.4519512148573995,-9.348830686211588,14949.0
24.6,4.400000095367432,303.0,22.998918533325195,25.906879425048828,-79.78278966251916,40.45897840662752,285.2208741073608,0.0079238936305046,-0.0288604199886322,-0.5380597710609436,0.8423752784729004,0.1294045111675965,0.1779396344042909,2.507670235447216,-0.0284995958209037,0.0035452391020953,-0.001757159596309,0.4507639377191663,0.3498153774440288,-9.345076773762704,14950.0
24.71,4.5,305.0,22.90376281738281,27.64831733703613,-79.7827895743399,40.458978389628726,285.46730068969725,0.0065781697630882,-0.0313510298728942,-0.5381884574890137,0.8422155976295471,0.1615490963840659,0.1538065788412008,2.407979189628914,-0.0689017623662948,-0.0061248210258781,-0.079355388879776,0.2826397866010666,0.6947120039910079,-8.883554872870445,14950.0
24.8,4.699999809265137,307.0,22.833648681640625,28.125423431396484,-79.78278952213451,40.4589785192676,285.75433949279784,0.0050196987576782,-0.0341874882578849,-0.5385550260543823,0.8418815732002258,0.1709514588026819,0.154423941583621,2.375681634230136,0.0240299012511968,0.0994521155953407,0.0440394021570682,0.2449734120815993,0.5786062547564507,-9.051358267664911,14950.0
25.0,4.699999809265137,312.0,22.81111145019531,28.181087493896484,-79.78278928590105,40.458978552847455,286.27324608612065,0.0051972637884318,-0.0334143415093421,-0.5404482483863831,0.8406974673271179,0.1598283452099438,0.1551009862185865,2.4347194984375093,-0.1102748438715934,0.0347748771309852,0.0138437040150165,0.3560903900116682,0.5120817879214883,-9.872739454507828,14951.0
25.1,4.599999904632568,323.0,22.833648681640625,27.47337913513184,-79.78278922659533,40.45897851939186,286.5198223953247,0.0052760536782443,-0.0378525033593177,-0.5417603850364685,0.8396637439727783,0.1861658252523488,0.1219729833235869,2.4817118356430306,-0.0177207924425601,0.093596763908863,0.0358615592122077,0.2343114528805017,0.5741527229547501,-10.215567555427551,14951.0
25.31,4.599999904632568,329.0,22.81236457824707,27.22687339782715,-79.78278925743649,40.458978757917606,287.0263560180664,-0.0080513060092926,-0.0306858867406845,-0.5436457395553589,0.8387150764465332,0.1295200322262978,0.110645999066023,2.459925421548306,0.0398434400558471,-0.3079617619514465,0.0424055270850658,0.1778005255758762,0.4683920503780246,-9.65248068809509,14952.0
25.4,4.599999904632568,337.0,22.861194610595703,27.03603172302246,-79.78278928195033,40.45897877255972,287.27401760864257,-0.0156413782387971,-0.0218442548066377,-0.5444820523262024,0.8383421301841736,0.1252026068686505,0.0380753229297269,2.481838794379823,0.1056699082255363,-0.1904526650905609,0.019644059240818,0.0700248842127621,0.4480175005272031,-9.923090997934342,14952.0
25.61,4.599999904632568,334.0,22.483074188232425,32.284202575683594,-79.78278946483717,40.458978871290114,287.7585223083496,-0.0134284207597374,-0.0202385261654853,-0.5418013334274292,0.8401556611061096,0.0707953936253796,0.0050412995354957,2.4937558206430257,-0.0875864028930664,0.0663369670510292,-0.1421481668949127,0.2185098642110824,0.5097817490994929,-9.96313740849495,14952.0
25.7,4.599999904632568,338.0,22.486831665039062,32.634078979492195,-79.78278945187894,40.45897892315967,288.0107710723877,-0.0097957644611597,-0.0256491042673587,-0.5397349596023561,0.8413872122764587,0.0704768171110127,0.0441441116738725,2.549906359027759,-0.0471896789968013,0.1530786603689193,-0.0837055817246437,0.259595434628427,0.6046970426291227,-10.261583973169328,14953.0
25.91,4.699999809265137,338.0,22.77104568481445,28.63433837890625,-79.78278906489703,40.458979011516405,288.5010302429199,0.0056443815119564,-0.0237945765256881,-0.5360265374183655,0.84384685754776,0.1043220304563595,0.1300387819909564,2.5910592049680004,0.0862267762422561,0.1361304074525833,0.0224569682031869,0.3626096700131893,0.4874893856048584,-10.073648614883425,14953.0
26.01,4.5,341.0,22.578229904174805,30.192886352539062,-79.78278903991517,40.4589790750364,288.7356417541504,0.0033594039268791,-0.026733424514532,-0.5357292890548706,0.8439598679542542,0.0695720958424075,0.1570569148647946,2.490659788976378,-0.1130324229598045,-0.061530627310276,-0.1099282354116439,0.3700173247978091,0.368593893237412,-9.431997388601305,14953.0
26.21,4.400000095367432,342.0,22.48056983947754,32.4989013671875,-79.78278895618979,40.45897915554639,289.23719815063475,0.0023192528169602,-0.0380229316651821,-0.5346423983573914,0.8442193865776062,0.1150241949373029,0.1115068273302392,2.5459022911705174,0.038258884102106,0.1451336145401001,-0.0359907932579517,0.2042379254288971,0.4648221790418029,-10.122782768011094,14954.0
26.4,4.400000095367432,350.0,22.708444595336918,29.29433441162109,-79.78278933311289,40.45897937821947,289.75335148620604,0.0066277859732508,-0.0315546095371246,-0.5314154624938965,0.8464975357055664,0.0672523249405215,0.0845379770956589,2.601527857791764,0.0978773981332779,0.0196455474942922,0.0092545030638575,0.2994568904489279,0.5546403450518846,-10.261346576213835,14954.0
26.5,4.5,352.0,22.69967842102051,29.12734794616699,-79.78278954862863,40.458979386740346,289.9735815887451,0.0088787386193871,-0.0285371970385313,-0.5325965881347656,0.8458414673805237,0.0519553711641221,0.0643209486343455,2.5409890521032072,-0.0609290078282356,-0.0431958772242069,-0.0237993821501731,0.0933415519818663,0.3407462363317609,-9.834294011592863,14954.0
26.6,4.599999904632568,352.0,22.867454528808597,26.25675773620605,-79.78278964728271,40.45897941476858,290.2276633148193,0.0040099564939737,-0.0288829673081636,-0.5367017984390259,0.843268096446991,0.0256648952056603,0.0470586065062925,2.5438113822616604,-0.1118523031473159,-0.1778075397014618,0.142744094133377,0.2428558794781565,0.4218039942160249,-9.833743203878404,14955.0
26.81,4.699999809265137,350.0,22.65460586547852,29.27047920227051,-79.78279001869645,40.458979439805006,290.71855572509764,-0.0084457509219646,-0.0239781588315963,-0.5468859672546387,0.8368210792541504,0.0995735983722061,-0.04527158941545,2.508588479233901,-0.122545339167118,-0.2011187076568603,-0.0546890683472156,0.0697263929899782,0.7715655407309533,-9.658086413741112,14955.0
26.9,4.800000190734863,350.0,22.697175979614247,28.60253143310547,-79.78279014230006,40.458979407323255,290.96933010864257,-0.0202219970524311,-0.0259241908788681,-0.5497327446937561,0.8346934318542479,0.131773168895033,-0.0747984654815948,2.5072627402981733,-0.1502406746149063,-0.1628941744565963,0.047588363289833,0.013717732373625,0.8168323454260826,-9.828032813072204,14955.0
27.1,4.900000095367432,353.0,22.677143096923828,28.51506042480469,-79.78279034069321,40.45897921351149,291.4649603729248,-0.0311923902481794,-0.0349169187247753,-0.5479394197463989,0.8352066874504089,0.2233207534994154,-0.1269880010158527,2.5429662946086737,-0.0670185983180999,0.0908064097166061,-0.1466865241527557,0.0434227253543213,0.9362726155668496,-10.042702810764313,14956.0
27.3,5.0,357.0,23.052757263183597,24.04616355895996,-79.78279034598613,40.45897900952024,291.9715826873779,-0.0218431521207094,-0.0399975441396236,-0.5416010618209839,0.839399516582489,0.2598456794945545,-0.0676443735839029,2.551186885140272,0.0575260296463966,0.0608289390802383,-0.1154637336730957,0.0374339385610073,0.7175048160552979,-10.111195925474169,14956.0
27.41,5.0,1.0,22.85243034362793,27.131452560424805,-79.7827904190512,40.45897896577393,292.22677639770507,-0.0161719713360071,-0.0409584455192089,-0.5384144783020021,0.8415288329124451,0.2349311492104732,-0.0666214774781726,2.53037525781468,-0.0107312155887484,0.0134952794760465,-0.0290574021637439,-0.1086814298853278,0.6359682442992926,-9.629925638437271,14957.0
27.5,5.099999904632568,7.0,22.96887016296387,24.32447624206543,-79.78279045797089,40.4589791482556,292.47109059143065,-0.0130692925304174,-0.0422086119651794,-0.5353662371635437,0.8434635400772095,0.2013279661931439,-0.0391300847102335,2.530623963458789,-0.0638914257287979,-0.0922477915883064,-0.0113447317853569,-0.0593949567899108,0.6919685634970665,-9.815743135213852,14957.0
27.7,5.199999809265137,10.0,22.77229881286621,26.93265914916992,-79.7827906905783,40.458979087901255,292.972517288208,-0.0260687246918678,-0.0265922658145427,-0.5377587080001831,0.8422760963439941,0.1929317948444264,-0.1052597450372155,2.4582360551411413,0.020640667527914,-0.1431199610233307,0.1072033569216728,-0.2303037895448506,0.6691632530093193,-9.417372332811356,14957.0
27.8,5.300000190734863,9.0,22.86870574951172,25.811458587646484,-79.78279089462558,40.458979006710585,293.2324889068604,-0.0319728255271911,-0.0246217548847198,-0.5414698719978333,0.8397511839866638,0.1912826919036263,-0.1749170803147784,2.4637302506789576,-0.0447124205529689,-0.0609457865357399,0.0984735637903213,-0.2772893284633756,0.7590772768110037,-9.71009447336197,14958.0
28.0,5.300000190734863,6.0,22.672134399414062,28.14132881164551,-79.78279130788937,40.45897897622093,293.7479384307861,-0.0355891585350036,-0.0304412767291069,-0.5450171828269958,0.837116003036499,0.2254833664062227,-0.1499935042637364,2.5161464427220657,-0.0124154910445213,-0.0537756979465484,0.0377468056976795,0.1449923375900834,0.8366744332015514,-10.059348664283752,14958.0
28.2,5.400000095367432,3.0,22.826135635375977,26.94856262207031,-79.78279142078205,40.45897892535861,294.2583983306885,-0.0302050523459911,-0.0379899367690086,-0.5423756837844849,0.8387330174446106,0.2342154036012698,-0.0762514405171081,2.534390414309632,-0.1058887168765068,0.0645904690027237,-0.0884643867611885,0.1609568899869919,0.8367435765266419,-10.053279254436491,14959.0
28.3,5.400000095367432,2.0,22.644588470458984,28.69795227050781,-79.7827916181633,40.458978893832985,294.52855709838866,-0.0266275238245725,-0.0435839295387268,-0.5404614210128784,0.839817225933075,0.2504192076184869,-0.0357803600390875,2.5099896925187943,-0.0359508655965328,0.0769722983241081,-0.0198209770023822,0.2573712999746204,0.9790267255157232,-9.588851872086526,14959.0
28.4,5.5,3.0,22.648345947265625,29.23072052001953,-79.7827916162842,40.458978884337405,294.7801974182129,-0.025156931951642,-0.0458823889493942,-0.5377087593078613,0.8415054082870483,0.2682768672730068,0.0056263763795045,2.4946942159050827,0.0020105955190956,0.0927817672491073,-0.1081965640187263,0.1078567532077431,1.1152958670258522,-9.58093415737152,14959.0
28.6,5.5,4.0,22.724720001220703,27.28253555297852,-79.78279155304251,40.45897863759113,295.294876373291,-0.0133300153538584,-0.0512954108417034,-0.5361221432685852,0.8424749970436096,0.3104584843350981,0.0447836806249045,2.5027455333970647,0.1147547513246536,0.0285048931837081,0.0161161422729492,0.2981172385253012,1.0572710224986075,-9.882504304647446,14960.0
28.81,5.5,2.0,22.71846008300781,27.664220809936523,-79.78279166711788,40.45897869933938,295.8047278289795,-0.0072044720873236,-0.0412595830857753,-0.5360078811645508,0.8431733846664429,0.2298565994323242,0.0751446092473335,2.5819491002868067,-0.0619101710617542,-0.1679279506206512,0.0194164514541626,0.3433003732189536,1.0409995369613172,-9.83290237426758,14960.0
28.9,5.5,1.0,22.88873863220215,25.000377655029297,-79.78279168431847,40.45897866609717,296.0673029785156,-0.015606639906764,-0.0429777055978775,-0.5358356833457947,0.8430833220481873,0.2376198040024373,0.0587526668125929,2.6416962752855047,-0.1270062625408172,-0.1346769332885742,-0.0024440463166683,0.2491596164926887,0.9356780999153852,-10.257264050245288,14961.0
29.0,5.5,358.0,22.953845977783203,25.19917106628418,-79.78279175505399,40.4589786361597,296.33714894104,-0.0250146128237247,-0.0448596812784671,-0.535306453704834,0.8430948853492737,0.2753900528553145,0.0286764161928163,2.6500227268458625,-0.1059376746416092,-0.1167316511273384,0.0812712013721466,0.1170584525261074,0.853903254121542,-10.071392759084702,14961.0
29.2,5.5,356.0,22.73849296569824,27.3063907623291,-79.78279177980326,40.45897857576022,296.8727686767578,-0.0290136076509952,-0.0529379062354564,-0.5356981754302979,0.8422489166259766,0.3242605672830703,-0.0173009567195743,2.6980852356649767,0.0248867534101009,0.0632352381944656,0.1261289864778518,0.1342127488553524,1.057842003107071,-10.190622164011002,14961.0
29.3,5.5,355.0,22.86870574951172,25.58085632324219,-79.78279187592612,40.45897836835727,297.1412585144043,-0.0238956473767757,-0.051263939589262,-0.5364817380905151,0.842014491558075,0.3586208822198309,-0.0007989204686201,2.7228976560565337,0.1573775559663772,0.0770749524235725,0.0608488842844963,0.1859257799014449,0.9477093308418992,-10.280814296007156,14962.0
29.51,5.5,356.0,22.78481864929199,26.853139877319336,-79.78279189821866,40.458978339554136,297.6777289276123,-0.0190210249274969,-0.0485040880739688,-0.5370086431503296,0.8419663310050964,0.3085329681246159,0.0275170815871712,2.7618242675437963,0.0483576133847236,0.0602168403565883,-0.0256892126053571,0.2128019584715366,1.1484302839636804,-10.15616686105728,14962.0
29.6,5.5,358.0,22.781063079833984,26.73386383056641,-79.78279192132213,40.45897832055104,297.9575789337158,-0.0168002881109714,-0.0474266856908798,-0.5383313894271851,0.8412299752235413,0.2984095719740052,0.0387451199870803,2.800821794526204,0.0574032738804817,-0.0400766022503376,-0.0691572651267051,0.2454645781964064,0.929155677035451,-10.135570628643038,14962.0
29.8,5.400000095367432,359.0,22.81987571716309,26.29651641845703,-79.78279211497187,40.458978442793104,298.50959423828124,-0.0266749002039432,-0.0427660085260868,-0.5400088429450989,0.8401488065719604,0.2452346526052569,0.0260846449570827,2.7835580261764403,-0.0376267060637474,0.0072636124677956,-0.0500519312918186,0.0737385422363877,0.9756281045079233,-9.814415817260745,14963.0
29.9,5.300000190734863,0.0,22.61579132080078,28.745662689208984,-79.78279213724684,40.45897846209813,298.78907803344725,-0.0258085131645202,-0.0428090095520019,-0.5395547747612001,0.8404653072357178,0.2567440459406525,-0.0101296288436347,2.794768949925244,0.1018683686852455,0.1337049454450607,0.0082670515403151,-0.0127674045134335,0.7651530455052853,-9.90461496591568,14963.0
30.11,5.300000190734863,0.0,22.618295669555664,30.463245391845703,-79.78279224655,40.45897858731658,299.3595621948242,-0.0157675053924322,-0.0485052913427352,-0.5391916036605835,0.8406373262405396,0.210626328676228,0.0358480238124798,2.833964307715203,0.0717055648565292,0.0194990672171115,0.1120642125606536,0.1972245557047426,0.7797009911388159,-10.086871508359913,14964.0
30.2,5.300000190734863,0.0,22.52689552307129,29.683971405029297,-79.7827922999655,40.45897864390085,299.6457159881592,-0.0140594914555549,-0.0449146516621112,-0.5395532846450806,0.8406351208686829,0.202266237033255,0.0615863003501218,2.8816011438305567,0.0455655381083488,-0.083717755973339,-0.1683761179447174,0.2876232954114676,1.0160776805877687,-10.174148218631744,14964.0
30.41,5.300000190734863,1.0,22.7597770690918,26.360130310058597,-79.78279256116605,40.45897876532126,300.2439749603272,-0.0167098958045244,-0.0360584333539009,-0.5403746366500854,0.8404855132102966,0.1741056295686029,0.0290853303000957,2.9915621648351527,0.0254233796149492,-0.0802280381321907,-0.0248954109847545,0.233880531359464,0.9260773372650148,-10.320357846021652,14965.0
30.6,5.5,0.0,22.767290115356445,26.79747772216797,-79.78279292881672,40.45897900410384,300.8505690460205,-0.0214181039482355,-0.0343894213438034,-0.5385720133781433,0.841605007648468,0.186199598010961,0.0008508804273169,2.995542381012069,0.0020094905048608,0.0609844177961349,-0.0656566694378852,0.1540304245054722,0.9117251271754504,-10.083801720142365,14965.0
30.7,5.599999904632568,0.0,22.66587448120117,27.05193519592285,-79.7827929588167,40.45897903689583,301.1496527557373,-0.0147542404010891,-0.0417720898985862,-0.5348055362701416,0.8438130617141724,0.2115853013735305,-0.0028953270057393,2.9766168145162832,-0.0570808723568916,0.1999812871217728,-0.0604662932455539,0.2013888513296842,1.1529901620000602,-9.68865097939968,14966.0
30.8,5.699999809265138,357.0,22.799842834472656,26.38398551940918,-79.78279295544083,40.458979095224535,301.4659884338379,-0.013916689902544,-0.0480320304632186,-0.5323607325553894,0.8450393080711365,0.2571452760014898,0.0710047707679547,2.959711320810084,-0.1215903609991073,-0.0032127234153449,0.0390622690320014,0.3210774819552898,1.1085141201317308,-9.660728185772896,14966.0
31.0,5.699999809265138,0.0,22.56946563720703,28.80132484436035,-79.78279295968669,40.45897933767982,302.1043188934326,-0.0215603187680244,-0.0559003949165344,-0.5342120528221129,0.8432247042655945,0.3155036514824582,0.0727242299382405,2.8998850022539617,-0.0102068483829498,-0.0039099766872823,-0.0246947240084409,0.1469731915276497,1.19992261916399,-9.377083847522735,14967.0
31.1,5.800000190734862,0.0,22.52188873291016,29.88276672363281,-79.78279297432233,40.458979347992894,302.39611462402337,-0.0218843780457973,-0.0545049868524074,-0.5363875031471252,0.8419256806373596,0.3218535138505908,0.0576209294648951,2.8996555075439985,0.029967937618494,-0.0450662821531295,0.0686265304684639,0.1316961437836289,1.114102231040597,-9.707402415275574,14967.0
31.31,5.9000000953674325,0.0,22.93756866455078,24.06206703186035,-79.78279299927537,40.4589793331109,303.0372736816406,-0.0253231097012758,-0.042957954108715,-0.5393730401992798,0.8405891060829163,0.3231897609999152,0.0167557726101444,2.9829331438868074,0.0540407486259937,-0.0999956130981445,0.0513827465474605,0.0076165465638041,1.1531525684148074,-9.785227686166763,14968.0
31.5,6.199999809265138,357.0,22.84366607666016,25.70013236999512,-79.78279318807213,40.458979474301785,303.68481091308587,-0.0287098009139299,-0.0501602664589881,-0.5391312837600708,0.8402364253997803,0.3254822065376017,-0.0128789014524711,2.9061017504328026,-0.2417911142110825,0.0528035201132297,-0.0617510937154293,0.1439934778399765,1.1526222259551286,-9.550220487713815,14968.0
31.6,6.199999809265138,357.0,22.829893112182607,24.96857070922852,-79.78279318260915,40.45897943640317,303.97244671630864,-0.0310727972537279,-0.0580846369266509,-0.5396751761436462,0.8392922282218933,0.3848035775050189,0.007993530828411,2.811141479491349,-0.0346374735236167,-0.0209172219038009,0.0543190725147724,0.1192921345867216,1.2271990031003952,-8.890438215136529,14968.0
31.7,6.4000000953674325,356.0,22.6859073638916,27.86301612854004,-79.78279316851813,40.45897938475067,304.25241116333007,-0.0325903296470642,-0.0607178956270217,-0.54112309217453,0.8381151556968689,0.4241965435789289,0.0188426655930116,2.7258598285763544,0.0011422671377658,-0.0425583943724632,0.0706125423312187,0.2716138016805053,1.3020502339303497,-8.948798105120657,14969.0
31.9,6.5,356.0,22.49559593200684,28.67409706115723,-79.78279323079988,40.45897926163789,304.83792904663085,-0.0316444411873817,-0.0572877302765846,-0.5439556241035461,0.836557924747467,0.4179988032142669,0.0253021377873178,2.6872407728888232,0.1213175430893898,-0.0068827159702777,-0.0311110336333513,0.2614571880921721,1.2592660108208658,-9.5735046851635,14969.0
32.0,6.599999904632568,1.0,22.475563049316406,29.80324935913086,-79.78279330509402,40.4589792407525,305.1607973937988,-0.0293232984840869,-0.0541890710592269,-0.5441420078277588,0.8367277383804321,0.3877737206820363,0.0192530655849787,2.7357266422785687,0.0686700642108917,0.0474673621356487,0.0769153907895088,0.1643455341830849,1.0695946142077446,-9.70292052447796,14970.0
32.2,6.699999809265138,359.0,22.78231430053711,24.88109970092773,-79.78279331815273,40.458979194128645,305.7132990722656,-0.0272448658943176,-0.0545203574001789,-0.5428512096405029,0.8376144170761108,0.3733159032432081,0.0324443012292287,2.7474462373880284,0.0413471274077892,-0.1436842083930969,0.0552295111119747,0.2785748022794723,1.2212499728053807,-9.768995230793951,14970.0
32.4,6.800000190734862,358.0,22.684654235839844,26.23290252685547,-79.78279306890623,40.45897891341081,306.31917218017577,-0.0357004478573799,-0.0508370622992515,-0.5410494804382324,0.8386934399604797,0.4529319002873555,0.0456073307123604,2.6436611410795936,-0.0675317496061325,0.0897208303213119,0.1044440791010856,0.4190206830203533,1.2502604216337203,-9.305798687338829,14971.0
32.5,7.0,355.0,22.84616851806641,24.57098197937012,-79.78279315901871,40.45897885590243,306.6660464172363,-0.0315006449818611,-0.0603438690304756,-0.5405489206314087,0.8385542035102844,0.4499004367576287,0.044919659946415,2.617616166890949,-0.1907029896974564,0.265701562166214,0.05921321362257,0.2184183004684746,1.2206995305418968,-8.649983750581741,14971.0
32.6,7.199999809265138,351.0,22.66587448120117,27.33024787902832,-79.78279300812619,40.45897876211782,306.9260294799805,-0.021680487319827,-0.0698228627443313,-0.5404897332191467,0.8381680250167847,0.4961538621207287,0.1132724987892326,2.5093020968335136,-0.0658448040485382,0.3373489081859589,-0.0187644306570291,0.4648128600418568,1.3917348276078705,-8.838410859704018,14971.0
32.82,7.300000190734862,355.0,22.6571102142334,28.05385780334473,-79.78279291226474,40.458978560616366,307.48110607910155,-0.0143189253285527,-0.0796151533722877,-0.5372037887573242,0.8395645022392273,0.5315597711414517,0.2212568914753796,2.4899206486590497,-0.0741858035326004,0.0175941754132509,-0.1216343492269516,0.5375294917076826,1.5647233870625497,-9.655248759984971,14972.0
32.9,7.400000095367432,354.0,22.436748504638672,30.11336708068848,-79.78279276481909,40.45897845087832,307.7364924316406,-0.0185729973018169,-0.0802996680140495,-0.5371764898300171,0.839433491230011,0.5421124401569188,0.2071731577546932,2.5081327746995767,-0.0428395196795463,-0.1002122983336448,0.0321233682334423,0.3696327607333661,1.4331882244348526,-9.796978835463523,14972.0
33.1,7.400000095367432,353.0,22.6132869720459,27.139404296875,-79.78279247199173,40.45897835255909,308.34028271484374,-0.0302399974316358,-0.0791210457682609,-0.5361824631690979,0.8398416042327881,0.5748806827860807,0.1435601225384293,2.681851907825412,-0.0751003846526146,-0.1512288451194763,0.1289042979478836,0.1341439435724169,1.2619545605778697,-10.26090218782425,14973.0
33.3,7.400000095367432,350.0,22.12248420715332,33.63600540161133,-79.78279236742705,40.458978227177866,308.89089611816405,-0.0383295528590679,-0.0828005000948906,-0.5379099249839783,0.8380501270294191,0.5458407357790535,0.1137149298113729,2.656305748422603,0.1399303823709488,0.1353276222944259,0.1164340823888778,0.2462723710387945,1.3188535237312318,-9.851553822755816,14973.0
33.41,7.400000095367432,346.0,22.111215591430664,35.003707885742195,-79.7827922661771,40.45897823161493,309.1637919311524,-0.0344307795166969,-0.0749010294675827,-0.5386481881141663,0.8384883403778076,0.4995310875031187,0.1634282970554649,2.713078691301461,0.2544513046741485,0.1215898841619491,0.0406044647097587,0.7182803761214018,1.124554933011532,-10.284862908124923,14974.0
33.5,7.400000095367432,341.0,21.884593963623047,35.68756103515625,-79.78279246910073,40.45897827806581,309.4383204345703,-0.025520209223032,-0.0670733526349067,-0.5363973379135132,0.8409090042114258,0.4042542893141918,0.1778910525722788,2.8131641853902862,0.1027479246258735,0.2105511873960495,0.0271512903273105,0.7139508783817292,1.0735768604278566,-10.832828875780104,14974.0
33.7,7.400000095367432,338.0,21.864561080932614,37.11888122558594,-79.78279223956912,40.45897852072145,310.03715924072264,0.0001385410141665,-0.0687144845724105,-0.5285769104957581,0.8460997343063354,0.2952886816626842,0.3180142304949097,3.1158524659849034,0.0564516894519329,0.2236945927143097,-0.0846930891275405,0.7908606945723295,1.3379325498640535,-11.213822922706605,14975.0
33.9,7.300000190734862,339.0,21.92716407775879,35.2581672668457,-79.78279190903145,40.45897891214726,310.6982310180664,0.0106699569150805,-0.0622456707060337,-0.5274188518524171,0.8472550511360168,0.26212531772069,0.4145014294983889,3.4347264292412234,0.021069161593914,-0.0438720919191837,0.0698276609182357,0.7099273362010717,1.0921262019127609,-11.30027166724205,14975.0
34.0,7.199999809265138,339.0,22.012304306030277,34.940093994140625,-79.78279174217587,40.458979067041824,311.0574305419922,0.0118498709052801,-0.0609343647956848,-0.5308027267456055,0.8452189564704895,0.2764931983792466,0.4115231270326021,3.595398105808004,0.0158416479825973,-0.0049625765532255,0.0710110291838646,0.7928477977216244,1.3079388186335563,-11.473302472829822,14976.0
34.11,7.0,337.0,22.08993148803711,32.912391662597656,-79.78279167513035,40.45897916637362,311.4273836975097,0.0054171909578144,-0.0635835975408554,-0.533500075340271,0.8433892726898193,0.2724714601511037,0.4187403710308915,3.7312055772937134,-0.1610726863145828,-0.1748158484697342,0.0252806227654218,0.7570260004699231,1.1977849502116442,-11.100429039001462,14976.0
34.31,6.9000000953674325,335.0,22.014806747436523,34.288047790527344,-79.78279149276213,40.45897933927496,312.1937563781738,-0.0054774829186499,-0.0672151967883109,-0.5354455709457397,0.841873049736023,0.3892901157085323,0.3395021894421669,3.8962274153633847,0.0585205852985382,-0.0545966252684593,-0.0199707616120576,0.6311237530410289,1.1535464514791969,-10.567579293251038,14977.0
34.4,6.800000190734862,331.0,21.975994110107425,34.192626953125,-79.78279145169421,40.45897942148349,312.5905001525879,-0.0007605062564834,-0.0676876530051231,-0.5363443493843079,0.8412803411483765,0.4158598583640727,0.3289850490635612,3.9673580845352414,0.1031872630119323,0.0622922144830226,-0.001516712247394,0.6576274274289609,1.2360825316607953,-10.368543580770494,14977.0
34.6,6.800000190734862,330.0,22.19510269165039,32.196731567382805,-79.78279123159669,40.458979597013695,313.3763201599121,0.0083726560696959,-0.0688063204288482,-0.5375539064407349,0.8403757214546204,0.4135013951756332,0.4104002978575218,4.009824773687365,0.0266613289713859,0.0233234874904155,0.1059241369366645,0.8405084525048733,1.1524575537443162,-9.994701848030092,14978.0
34.7,6.800000190734862,327.0,22.281494140625,31.34589195251465,-79.78279118776918,40.45897965466469,313.78385189819335,0.0070850318297743,-0.0729751884937286,-0.5374493002891539,0.8401028513908386,0.4070093725558741,0.4369572445589485,4.017593971591968,-0.1551499813795089,-0.0819100812077522,-0.1722235530614853,0.8730015029758216,1.2705141533911228,-9.752310200929642,14978.0
34.9,6.9000000953674325,327.0,22.439252853393555,28.51506042480469,-79.78279102758172,40.45897974220945,314.5575068359375,0.0049832733348011,-0.0811968147754669,-0.5385015606880188,0.8386885523796082,0.5215767147117124,0.4176360809529826,3.968457078264216,0.0262859035283327,-0.0421840548515319,-0.0888193324208259,0.7001222133636475,1.547937785089016,-9.716990679502487,14979.0
35.0,7.099999904632568,330.0,22.081167221069336,34.407325744628906,-79.78279080084138,40.45897969000127,314.896610534668,0.0030893837101757,-0.0842395648360252,-0.5395024418830872,0.8377537131309509,0.5389223545474204,0.4065715080912265,3.879640859445305,-0.0095927845686674,0.0993453860282898,-0.0340743884444236,0.8520944910496474,1.4001410771906375,-9.527250870466233,14979.0
35.21,7.199999809265138,331.0,22.366634368896484,29.69192314147949,-79.78279078279965,40.4589796615626,315.6806719665527,0.0078108855523169,-0.087319515645504,-0.5371806025505066,0.8388988971710205,0.5806177195877198,0.3820086985610533,3.816901340667136,0.0740446299314498,-0.0522504262626171,-0.0271151773631572,0.8594682685285807,1.4977365151047708,-9.217839022278786,14980.0
35.31,7.400000095367432,331.0,22.486831665039062,27.55289649963379,-79.78279058839233,40.45897933531106,316.01227978515624,0.0075603248551487,-0.0868557095527648,-0.5366331934928894,0.8392996788024902,0.5984911144797724,0.3589514872655239,3.6875820011775686,-0.0641915500164032,-0.0462122336030006,-0.2230572402477264,0.8416045861691237,1.6307040993869306,-8.91504154443741,14981.0
35.5,7.5,331.0,22.78481864929199,24.14953804016113,-79.78279112824842,40.458979332989614,316.7848055725097,0.0010461844503879,-0.0872499048709869,-0.5376727581024171,0.8386265635490417,0.6114240957943857,0.2379151779578446,3.4447247863097714,-0.032278336584568,-0.092000812292099,-0.0315546616911888,0.7896781682968141,1.6264097580313683,-8.185730030536654,14981.0
35.7,7.800000190734862,333.0,22.541921615600582,27.40181350708008,-79.78279131815898,40.45897903431364,317.4437563781738,-0.0096397586166858,-0.0965430289506912,-0.5395762324333191,0.8363277316093445,0.6143868347397926,0.1253364681101603,3.0024248648516534,-0.1091318950057029,-0.0389500223100185,-0.066699780523777,0.7480128099024296,1.4608025774359703,-7.746181966066363,14982.0
35.8,7.900000095367432,330.0,22.489334106445312,28.26060485839844,-79.78279180360734,40.45897899546254,317.8374827270508,-0.0131826531141996,-0.0997306555509567,-0.5398395061492921,0.8357351422309875,0.6348235950134273,0.0842863615295364,2.796900603465761,-0.0170706268399953,-0.0666145086288452,0.0434289239346981,0.6621759033948184,1.4586670280992986,-7.140413348078727,14982.0
35.91,8.100000381469728,330.0,22.193851470947266,32.673839569091804,-79.78279190797316,40.45897881229924,318.11233166503905,-0.0153391463682055,-0.0980021208524704,-0.5395618677139282,0.8360822200775146,0.6386411133895569,0.0743673708441071,2.5699874294644585,0.0240931436419487,-0.117124356329441,0.0415321066975593,0.8154083291441202,1.5630604389309883,-7.252832500934602,14983.0
36.11,8.100000381469728,330.0,22.21263122558593,31.50492858886719,-79.78279219936556,40.4589785054964,318.69932583618163,-0.0259399097412824,-0.0876836106181144,-0.5319329500198364,0.8418350219726562,0.5802034365717894,0.0244561066228055,2.478791807146396,0.0554580502212047,0.0557002574205398,-0.0566847287118434,0.6986365820467473,1.4436369064450263,-9.119965403079988,14983.0
36.2,8.100000381469728,329.0,22.2714786529541,31.377700805664062,-79.78279226455379,40.45897834628722,318.9532282714844,-0.020130056887865,-0.0843237787485122,-0.5267392992973328,0.845594584941864,0.5723962481167921,-0.0019825271113788,2.483054998842756,0.0907755196094513,0.1800373494625091,-0.3132577836513519,0.5238272361829878,1.7770099134743214,-9.451382662653923,14983.0
36.4,8.100000381469728,330.0,22.04110145568848,33.858654022216804,-79.78279255560328,40.45897811912985,319.58654049682616,-0.013251706957817,-0.0828440487384796,-0.5226698517799377,0.8483970165252686,0.5381366353329917,0.0734775714315725,2.6023152739823905,0.0025190433952957,0.137048527598381,-0.1182041391730308,0.7681486471742393,1.5426691514253617,-10.023470149040223,14984.0
36.6,8.0,332.0,21.978498458862305,34.08925628662109,-79.7827930146011,40.458978076035365,320.3092043762207,-0.013000632636249,-0.0903457626700401,-0.5263575911521912,0.8453499078750609,0.5060539220398427,0.0837620462209905,2.8699187278704565,0.0780772492289543,-0.0460096001625061,0.2483766973018646,0.6689345537871123,1.3936622160673142,-10.305310621261595,14985.0
36.71,7.900000095367432,332.0,22.061134338378903,32.96010208129883,-79.78279314164172,40.458978006748346,320.60467556762694,-0.009360865689814,-0.0837589800357818,-0.5318478345870972,0.8426355719566345,0.513657215744955,0.0802538834607007,2.94234287565436,0.2286370992660522,-0.0216567181050777,0.1148805618286132,0.5773119370266796,1.539989518672228,-10.438839976787568,14985.0
36.8,7.599999904632567,333.0,22.217639923095703,31.011919021606445,-79.78279309063656,40.45897770224286,320.9024012451172,-0.0101847732439637,-0.0728780403733253,-0.5394867658615112,0.8387724161148071,0.4796493366285405,0.0911791368415742,3.001709117380084,0.1294125616550445,-0.2403901666402817,0.146750271320343,0.6298239170014859,1.1898624846339227,-10.272512419223784,14985.0
37.0,7.5,333.0,21.90963554382324,34.057449340820305,-79.7827937489144,40.458977688503744,321.4545328979492,-0.0185533761978149,-0.0576384775340557,-0.5489697456359863,0.8336460590362549,0.3686324186509301,-0.0369243551462478,3.1315990604248465,0.0473279133439064,0.1442746371030807,-0.0687933638691902,0.2576792106963694,1.1313021813333035,-10.649992289543151,14986.0
37.2,7.400000095367432,333.0,22.2526969909668,29.779394149780277,-79.78279402490939,40.4589776483226,322.103470123291,-0.0162721667438745,-0.0556166730821132,-0.5451877117156982,0.8363088965415955,0.3477168393632457,0.0472257170997049,3.3519026030022205,-0.0774522125720977,-0.0593099184334278,-0.2254279404878617,0.6844662934541703,1.0593475149571896,-10.622331451177596,14987.0
37.31,7.300000190734862,333.0,22.432992935180664,28.80132484436035,-79.78279416917171,40.45897764558346,322.389774597168,-0.0198957584798336,-0.0650221109390258,-0.5403064489364624,0.8387165069580078,0.2953790314060224,0.0084941937948743,3.3272901719881496,-0.211692214012146,0.0385799147188663,-0.2885932326316833,0.3894130507484079,1.0992506687343122,-9.983666982650757,14987.0
37.4,7.099999904632568,333.0,22.17256546020508,31.79119300842285,-79.78279433536252,40.45897766764384,322.71797970581054,-0.0204387512058019,-0.0742297172546386,-0.5376092791557312,0.8396717309951782,0.3569336888974983,0.0160169599270442,3.1921502788721585,0.045316431671381,-0.1014073565602302,0.0642551258206367,0.6092993129789829,1.3841524507105352,-8.787092771530151,14987.0
37.61,7.099999904632568,335.0,22.191347122192383,31.051677703857425,-79.78279443766161,40.45897774120154,323.300491607666,-0.0148067995905876,-0.0619053021073341,-0.5407648682594299,0.8387621641159058,0.3508005195096582,0.03447883723939,2.8956753426956854,0.1502990424633026,-0.020158926025033,0.0395929403603076,0.4408383622393012,1.0793063277751207,-8.489770626425742,14988.0
37.71,7.0,338.0,22.145021438598643,31.66396331787109,-79.78279456924254,40.4589777583164,323.5866701965332,-0.0152210434898734,-0.0610683038830757,-0.542447566986084,0.8377288579940796,0.2732893439671718,0.0152602634628469,2.8075139602176464,-0.0617204308509826,-0.0158362500369548,0.0792329609394073,0.3255883530154824,1.0071635272353887,-8.76323145389557,14988.0
37.91,6.9000000953674325,339.0,22.114971160888672,32.51480484008789,-79.78279480244726,40.45897790658182,324.2132456665039,-0.0162757597863674,-0.0663348063826561,-0.5456144213676453,0.8352483510971069,0.2548259257316898,0.0150433460576523,2.7207237514939333,-0.1038268133997917,-0.0970956310629844,0.0874783173203468,0.4988161732256413,0.990228236541152,-8.933915771842,14989.0
38.1,6.699999809265138,340.0,21.821990966796875,35.72732162475586,-79.78279507519218,40.45897807733167,324.7996180419922,-0.0214051827788352,-0.0617724955081939,-0.5458430647850037,0.8353331089019775,0.2483669492621318,-0.0036841198132329,2.711344663111268,0.1359121650457382,-0.0140902185812592,-0.0974611341953277,0.3668048645183444,1.0964025630801917,-9.104490746855737,14989.0
38.21,6.599999904632568,340.0,21.948448181152344,34.319854736328125,-79.7827952553672,40.45897815308381,325.0749285583496,-0.0205674897879362,-0.0577645488083362,-0.5463821887969971,0.8352885246276855,0.1935355391297391,-0.0102687782290877,2.7927883482744345,-0.0387539938092231,-0.0773865059018135,0.002224865136668,0.4396771783009172,1.0267135465890171,-10.345121973752976,14990.0
38.31,6.800000190734862,341.0,22.290258407592773,28.196990966796875,-79.78279546262381,40.4589783454806,325.4241602783203,-0.0232409536838531,-0.0527113080024719,-0.5469465255737305,0.8351832628250122,0.1802891173778332,0.0180237981022707,2.9683704385957763,0.1744967550039291,-0.1746914386749267,-0.1595479696989059,0.4055632431060076,1.2837550270557403,-10.750137552022936,14990.0
38.5,6.800000190734862,342.0,22.55569267272949,25.87507247924805,-79.7827955899828,40.458978572939365,326.00516156005864,-0.0195305794477462,-0.0455190539360046,-0.5410407781600952,0.8395364880561829,0.1804219092468136,0.0091874850999717,3.052403441089533,-0.0931927859783172,0.173087477684021,-0.0377569533884525,0.4192130198702216,1.2431442140042783,-10.173529583215712,14991.0
38.6,6.699999809265138,341.0,22.61704444885254,24.714113235473643,-79.78279564812411,40.45897864153181,326.3110812072754,-0.0159693136811256,-0.0542054288089275,-0.5385285019874573,0.8407103419303894,0.2272105150294217,0.0476717082088092,3.0569534114293107,-0.0789697989821434,0.1206749454140663,0.1119922697544098,0.41252566896379,1.2536284178495407,-9.90577856183052,14991.0
38.8,6.699999809265138,343.0,22.52689552307129,27.20301818847656,-79.78279549387541,40.458978578352536,326.89655712890624,-0.0188210122287273,-0.0689430311322212,-0.5392900109291077,0.8390822410583496,0.3122465101369445,0.1586608170584888,2.9607906542787354,-0.0788504183292388,-0.0773500204086303,0.0882871225476265,0.6123446525260806,1.0890393836796284,-9.35817687571049,14991.0
39.0,6.599999904632568,342.0,22.77104568481445,23.473636627197266,-79.78279529527845,40.45897851804821,327.45876721191405,-0.0150877786800265,-0.0567147061228752,-0.5383388400077821,0.8406825661659241,0.3688029193429362,0.1601844051404556,2.92907326930354,0.2358558624982834,0.1415312886238098,-0.0520064979791641,0.6885888728499413,1.3399122709035869,-9.706485571861268,14992.0
39.11,6.599999904632568,342.0,22.955097198486328,20.698467254638672,-79.78279523610412,40.45897854601331,327.7541544799805,-0.0065224701538681,-0.0528119057416915,-0.538768470287323,0.8407716751098633,0.3213938938892263,0.1756396954096979,2.9202935026492383,0.0054744873195886,-0.0040268530137836,0.0542909614741802,0.5430393230170012,1.0797149750590325,-9.574116303920746,14992.0
39.21,6.599999904632568,342.0,23.30817604064941,16.54764175415039,-79.78279514590244,40.45897856846956,328.0465205078125,-0.0096822725608944,-0.0514581240713596,-0.5396286845207214,0.8402733206748962,0.2967273960090754,0.2328947757441941,2.874055727485565,-0.0744839683175087,-0.283701479434967,0.1026704609394073,0.6592236442118884,1.0440465941280128,-9.342261339426043,14993.0
39.4,6.599999904632568,341.0,23.368274688720703,16.293184280395508,-79.78279462552936,40.45897837571904,328.5766795043945,-0.0335183329880237,-0.0557791069149971,-0.5383845567703247,0.840182900428772,0.4154206246144082,0.1696206633881024,2.586210950139694,-0.1803303062915802,0.0511771701276302,0.0232536401599645,0.3387371330335737,1.2844669255614278,-8.363776577711105,14993.0
39.6,6.699999809265138,342.0,23.35325050354004,16.627159118652347,-79.78279406686556,40.45897843534666,329.1100161437988,-0.0292511824518442,-0.0695154890418052,-0.5370600819587708,0.8401657938957214,0.4946094827222082,0.1860216312119593,2.2798476807343664,-0.0563657134771347,0.1313282996416092,0.0263957493007183,0.1836329039186239,1.5457111653685571,-8.006957259178161,14994.0
39.7,6.800000190734862,342.0,23.19048309326172,18.225465774536133,-79.78279381462194,40.45897836214967,329.3343470458984,-0.024979081004858,-0.0768718495965004,-0.5363110303878784,0.8401412367820741,0.4844049826370753,0.2136339925584788,2.111415436532116,-0.0282114520668983,0.1081312894821167,0.0133276190608739,0.2526058374904096,1.170129739791155,-8.08499069094658,14994.0
39.81,6.699999809265138,344.0,23.18672752380371,18.376548767089844,-79.78279357376664,40.458978269830304,329.55621365356444,-0.0207831729203462,-0.0797187015414238,-0.5366024374961853,0.8398040533065796,0.4751441133280387,0.2310663515870168,1.9926602867546035,0.0113129559904336,0.0104054696857929,-0.0569525733590126,0.2729330797120929,1.2911910773813726,-8.238159674406052,14994.0
40.01,6.599999904632568,345.0,23.095327377319336,19.322811126708984,-79.78279309809179,40.45897810657939,329.959614074707,-0.0202492140233516,-0.0796047821640968,-0.5395014882087708,0.8379685282707214,0.4108138489446092,0.2138672187392824,1.8432721693326184,0.0338936299085617,-0.0321107059717178,-0.1431711763143539,0.3284756715595722,1.5471142047643662,-8.848182141780851,14994.0
40.1,6.599999904632568,346.0,23.069034576416016,20.22931289672852,-79.78279293484398,40.45897804726136,330.14579037475585,-0.0211149621754884,-0.0737593322992324,-0.5408372282981873,0.8376209735870361,0.3938227550138348,0.1817117690680249,1.7717402195881902,0.096820555627346,-0.1637839525938034,0.1812651008367538,0.3417629209533334,1.1746953919529914,-8.936102630496025,14995.0
40.3,6.699999809265138,346.0,22.91127586364746,23.1953239440918,-79.78279262210279,40.458977776973136,330.5230524902344,-0.0273336544632911,-0.0651259794831276,-0.5450626015663147,0.8354150056838989,0.3688796154028289,0.1307239094705725,1.6609410005390703,-0.0707254856824874,-0.1685688346624374,-0.0461815632879734,0.2696666240505874,1.2075655878335243,-8.833199821114539,14995.0
40.5,6.9000000953674325,348.0,22.65961456298828,25.040136337280277,-79.78279229974413,40.45897751755314,330.8921664123535,-0.0331472270190715,-0.0641878396272659,-0.5450931191444397,0.835257351398468,0.4112416693119021,0.1142865976694821,1.6647581844019512,0.1075275614857673,0.1612317115068435,-0.1862360835075378,0.4231064249575138,1.5324352084100248,-9.059141496419906,14995.0
40.61,7.0,347.0,23.047748565673828,20.086181640625,-79.78279212742626,40.45897741423861,331.066604888916,-0.0244746208190918,-0.0627529099583625,-0.5435136556625366,0.8366934657096863,0.4246606680927544,0.1097595192086486,1.734561537222478,0.0644322931766509,0.1165770292282104,0.1147147789597511,0.0736078204214572,1.371112575083971,-10.156527049541475,14996.0
40.7,6.9000000953674325,348.0,22.95134162902832,22.654603958129893,-79.78279195458698,40.458977308922734,331.24554470825194,-0.0235144346952438,-0.0666282996535301,-0.5422429442405701,0.837245762348175,0.4074349366127264,0.1308871519014581,1.7477737477016262,-0.1269522011280059,0.153521791100502,-0.189823180437088,0.4196459696441889,1.792689953148365,-9.828661973476413,14996.0
40.91,6.9000000953674325,349.0,22.53315734863281,27.028079986572266,-79.78279169787683,40.45897689328565,331.6079638366699,-0.0327307283878326,-0.0692925974726677,-0.5411982536315918,0.8373957872390747,0.4487481836248894,0.1124425447127906,1.7360473476796232,-0.0796028077602386,-0.1590867787599563,0.0511440522968769,0.1537114040739834,1.452251024544239,-9.691357655525207,14996.0
41.1,6.9000000953674325,352.0,22.619548797607425,25.588808059692383,-79.7827912073977,40.458976367157945,331.9098856811524,-0.034598171710968,-0.0648382455110549,-0.5407265424728394,0.8379820585250854,0.4909248040042913,0.078885699870443,1.80146435589786,-0.0062346644699573,0.0104934424161911,0.0384478420019149,0.1776811144687235,1.6457967862486842,-10.12061812877655,14996.0
41.21,7.0,350.0,22.63958168029785,26.3521785736084,-79.78279104129892,40.45897620851599,332.0982249145508,-0.0322829000651836,-0.0635779276490211,-0.5411816835403442,0.8378772139549255,0.4929007949033253,0.0819731341256602,1.8542969178339488,0.048443503677845,-0.0352142862975597,-0.0121396938338875,0.0744727880693972,1.5335355082154274,-10.143636277914048,14997.0
41.3,7.099999904632568,350.0,22.813615798950195,23.51339530944824,-79.78279073396169,40.458976151968216,332.2058413391113,-0.0298623945564031,-0.0642820298671722,-0.5416749715805054,0.8375943899154663,0.474457918801461,0.0905187885420773,1.856869209736528,0.05797616019845,0.0202459897845983,0.1135735586285591,0.2951666969619692,1.2428093147277832,-10.284160072803498,14997.0
41.5,7.199999809265138,350.0,22.586994171142567,27.19506645202637,-79.78279030823154,40.45897590265558,332.510078704834,-0.0273036863654851,-0.0618883706629276,-0.5421217679977417,0.8375728726387024,0.4850394524068096,0.121804384348412,1.9150486985637232,0.0504038110375404,-0.0412792935967445,-0.078672394156456,0.2092667684331536,1.6205847617983815,-10.33600148677826,14997.0
41.6,7.300000190734862,350.0,22.73849296569824,24.3721866607666,-79.78279012408262,40.45897575833622,332.71091107177733,-0.0283253155648708,-0.0625961348414421,-0.5415770411491394,0.8378387093544006,0.4962003423834441,0.1137596718514478,2.0090966898182385,0.0372228622436523,0.1914078146219253,-0.0710369348526001,0.3915184503793717,1.6525425727665426,-10.657360950708387,14997.0
41.81,7.300000190734862,350.0,22.9638614654541,22.37629127502441,-79.78278957523095,40.45897539464625,333.08516339111327,-0.0255484748631715,-0.0718014240264892,-0.5410460233688354,0.8375327587127686,0.5302789222106947,0.1264314838450852,2.072614920638613,-0.0896052569150924,-0.0152861503884196,0.1429990828037262,0.1478917982429266,1.4746099001169206,-10.074430972337725,14998.0
41.91,7.199999809265138,351.0,22.68340301513672,25.636518478393555,-79.78278939606575,40.45897522531185,333.29782131958007,-0.0268108323216438,-0.0754633024334907,-0.5404839515686035,0.8375343084335327,0.5529526111679057,0.1284520911808236,2.0589347444473862,-0.0229163393378257,0.099030315876007,-0.054843358695507,0.2576879815198481,1.63624302059412,-9.760394561290742,14998.0
42.1,7.199999809265138,351.0,22.48056983947754,28.87289047241211,-79.78278891625115,40.45897479185028,333.6514666442871,-0.02574909850955,-0.0801006183028221,-0.5401185154914856,0.8373726606369019,0.5665852269579524,0.115271919146207,2.0277301568380226,0.0335678122937679,0.011670222505927,0.0905923768877983,0.3285163462534547,1.4721878372132782,-9.908864722251892,14998.0
42.2,7.099999904632568,352.0,22.62080001831055,25.93073463439941,-79.78278878063797,40.458974615796095,333.86343792724614,-0.0263036917895078,-0.0779197067022323,-0.5407949090003967,0.8371245861053467,0.5621188528965158,0.1067189868778712,2.0855122477797474,0.0461345911026001,-0.0002061195700662,-0.150636687874794,0.3411888340115547,1.6098421110212804,-10.19263477563858,14998.0
42.41,7.099999904632568,352.0,22.463041305541992,27.25868034362793,-79.78278851118813,40.458974243199776,334.21821240234374,-0.0221983045339584,-0.0723636373877525,-0.5427202582359314,0.8364959955215454,0.5378454733767133,0.0564061205643967,2.177372357276034,0.1141625568270683,0.0492475777864456,0.0627113059163093,0.1020154669973999,1.4245799535512924,-10.538756028413774,14999.0
42.5,7.099999904632568,352.0,22.71846008300781,24.88109970092773,-79.78278839110376,40.458974166165966,334.3928110961914,-0.0213555172085762,-0.0697116106748581,-0.544494092464447,0.8355898857116699,0.5048455607528266,0.0592694488757439,2.22164782488732,-0.0265452153980732,-0.0075737736187875,0.0195070151239633,0.3071008092910051,1.4488612474501137,-10.64716340661049,14999.0
42.7,7.099999904632568,352.0,22.633319854736328,25.98639678955078,-79.78278833944368,40.4589738312535,334.8575098876953,-0.0285357777029275,-0.0709350779652595,-0.5449727773666382,0.8349602222442627,0.5121239112356735,-0.0069530805675702,2.3320005798965733,-0.0902147144079208,-0.0463458932936191,0.1020687371492386,-0.040137540330179,1.2296055708825588,-10.27309363245964,14999.0
42.9,7.099999904632568,353.0,22.586994171142567,25.723989486694336,-79.782788377752,40.45897361521703,335.30923107910155,-0.0329685322940349,-0.0688012838363647,-0.5419636368751526,0.8369318246841431,0.5171504083195329,-0.0454413047141257,2.4057816349767416,0.0211672354489564,-0.015903590247035,-0.104865975677967,0.0760218159947544,1.3942365588247776,-10.393098378181458,15000.0
43.01,7.099999904632568,353.0,22.513124465942383,28.01409912109375,-79.78278853235138,40.45897358402111,335.54357556152337,-0.032475259155035,-0.0637003779411315,-0.5418006777763367,0.8374603390693665,0.5061336763216646,-0.0761359319333113,2.438640751470776,0.0924446210265159,-0.0349616184830665,-0.0017724772915244,-0.0765011460660025,1.6397143663465978,-10.413878213167193,15000.0
43.1,7.099999904632568,355.0,22.648345947265625,24.53122329711914,-79.78278860676427,40.45897342682681,335.79682568359374,-0.0309941675513982,-0.0592019520699977,-0.5424078702926636,0.8374533653259277,0.5167071218333329,-0.0970629428251259,2.548444408311081,0.1652196943759918,0.0277743004262447,-0.0302117560058832,0.1116757524758577,1.862843530923128,-10.761565350294113,15000.0
43.3,7.199999809265138,356.0,22.87496566772461,22.551231384277344,-79.78278898154689,40.45897305734806,336.31448773193364,-0.0405043885111808,-0.0603402554988861,-0.5409869551658629,0.8378852605819702,0.5353615560727307,-0.1496581347524005,2.559410189111233,-0.1694238483905792,-0.113814927637577,-0.0614226460456848,0.0753120736498385,1.5704839177429677,-9.61018485367298,15001.0
43.41,7.300000190734862,357.0,22.60953140258789,25.318449020385746,-79.78278907500359,40.45897282609258,336.57320050048827,-0.0486476309597492,-0.0662451833486557,-0.5396746993064879,0.8378521203994751,0.5810087864901419,-0.1791174278747923,2.5018870861183187,-0.1933863759040832,-0.2293759882450104,0.0528902225196361,-0.1735285315476358,1.4837176693975926,-9.327408242225648,15001.0
43.6,7.400000095367432,357.0,22.84992599487305,22.70231437683105,-79.78278944000289,40.45897252541146,337.1338923339844,-0.0566679127514362,-0.0692951157689094,-0.5403664112091064,0.836654782295227,0.6500932691089853,-0.2619307101106311,2.469088125222471,-0.1444099247455597,0.0161135643720626,0.1790323108434677,-0.1723882148601115,1.5880127008259295,-9.527131587266922,15002.0
43.7,7.599999904632567,0.0,22.87872314453125,22.75002479553223,-79.78278955418999,40.45897226795952,337.3861430053712,-0.0593548081815242,-0.0744383111596107,-0.5413654446601868,0.8353797793388367,0.6548095805034,-0.2555664775949064,2.4064440637057927,-0.0877972468733787,-0.0181921068578958,-0.0873547792434692,-0.1442361281532794,1.8613210621476173,-9.15246832072735,15002.0
43.9,7.699999809265138,1.0,22.535659790039062,27.05193519592285,-79.78279001396571,40.45897197383771,337.9530375366212,-0.0660659149289131,-0.0753215476870536,-0.5440096259117126,0.8330760002136229,0.6576748726033486,-0.2587826531011888,2.3841814249423035,0.0617953948676586,-0.0367587693035602,0.0969146564602852,-0.2213044678419828,1.6419469794631003,-9.530714761018752,15002.0
44.0,7.800000190734862,2.0,22.645841598510746,25.35820770263672,-79.7827902479575,40.458971903786725,338.276752746582,-0.0684579983353614,-0.0722509548068046,-0.5454525947570801,0.8322108387947083,0.6267458790556006,-0.244396528118768,2.4464734112168287,-0.0315179973840713,-0.0896888822317123,0.150572270154953,-0.2104290487244724,1.3914085529744626,-9.7293516933918,15003.0
44.2,7.800000190734862,0.0,22.3353328704834,29.73168182373047,-79.7827904533301,40.45897161605515,338.7816126708984,-0.0693144872784614,-0.0734311938285827,-0.5464293360710144,0.8313953876495361,0.5871027841357385,-0.2120586382459704,2.4432057263757723,-0.0215083770453929,0.1061510294675827,-0.0976820439100265,-0.0638402385357767,1.7529784418642522,-9.635475815534592,15003.0
44.4,7.900000095367432,359.0,22.592002868652344,26.48735809326172,-79.78279080376048,40.45897156447813,339.39655712890624,-0.0580588020384311,-0.0758762508630752,-0.5454889535903931,0.8326546549797058,0.5079020547397203,-0.1135858408896799,2.6409435733366573,0.0411551930010318,0.0160111840814352,-0.0789288207888603,0.0200797679554671,1.6888249844312668,-10.19440882086754,15004.0
44.51,7.900000095367432,359.0,22.31154441833496,30.049753189086918,-79.7827912583178,40.45897133936435,339.7433283691406,-0.0580247305333614,-0.0712433010339737,-0.5440454483032227,0.8340097069740295,0.4924042631868894,-0.1001355198038356,2.702680081013904,0.0965855792164802,-0.0706546753644943,-0.0924706608057022,0.1758290271833539,1.5196404772996903,-9.987103976011277,15004.0
44.6,7.900000095367432,0.0,22.277738571166992,30.45529365539551,-79.78279132183494,40.45897136860429,340.01999310302733,-0.0575732812285423,-0.0663215890526771,-0.5418068170547485,0.8359020948410034,0.4445090178902269,-0.0734098367957417,2.7562350615034323,0.0943458527326584,-0.0040189512073993,-0.0056948051787912,0.0890688270516693,1.5132263740897185,-10.056937272548677,15005.0
44.8,7.900000095367432,359.0,22.35912132263184,28.80927658081055,-79.78279163935255,40.45897150614533,340.6428797607422,-0.0434591472148895,-0.0680147334933281,-0.539036750793457,0.8384060263633728,0.4083959051198303,-0.0305866396398571,2.9106300415039232,0.0640393793582916,0.1719262301921844,-0.1191148236393928,0.126784190274775,1.7008665941655636,-10.342587790489198,15005.0
44.9,7.900000095367432,357.0,22.386667251586918,29.1193962097168,-79.78279166411163,40.45897157168532,340.9389307861328,-0.0363660901784896,-0.0700808465480804,-0.5393437743186951,0.8383761644363403,0.4067795215047857,0.0213944103125414,2.944233340595005,-0.0392284169793129,0.0541103258728981,-0.1687057018280029,0.2105217819102108,2.040642009973526,-9.942088601589203,15005.0
45.1,7.900000095367432,357.0,22.684654235839844,25.21507453918457,-79.78279178590853,40.45897196224781,341.57951763916014,-0.0327868238091468,-0.0674574449658393,-0.5422950387001038,0.8368337154388428,0.4235350995138426,0.0810528526736795,2.994452210576088,-0.0332460328936576,-0.111541710793972,0.0472057797014713,0.1664025846496224,1.8564066235721115,-9.89935130238533,15006.0
45.3,7.900000095367432,358.0,22.475563049316406,27.51313781738281,-79.78279185768268,40.45897229251776,342.23904064941405,-0.0456359051167964,-0.0676099881529808,-0.5437434315681458,0.8352779746055603,0.475390010973148,0.0407325949638279,2.993418343334895,-0.0311301369220018,-0.0215279329568147,0.0620670393109321,0.1758945525437593,1.9074501849710943,-9.716183179020884,15007.0
45.4,8.0,355.0,22.56696128845215,25.73194122314453,-79.7827918078012,40.458972287004606,342.542133605957,-0.0477492995560169,-0.069409966468811,-0.5440585613250732,0.8348069787025452,0.5319187770667584,0.0271959216216067,2.9835190982299067,-0.0659170374274253,0.1164353489875793,-0.0612237118184566,-0.106789234355092,1.880026451200247,-9.599976199865342,15007.0
45.5,8.0,354.0,22.79358291625977,24.181344985961918,-79.78279183932402,40.45897252817635,342.9116633300781,-0.045708131045103,-0.073070541024208,-0.5439690947532654,0.8346670269966125,0.5452795439751263,0.0388411281042117,2.9866284622124657,-0.1006260737776756,0.0804086402058601,-0.0440908819437027,0.1781355710327625,1.930656029731036,-9.419034696221352,15007.0
45.71,8.100000381469728,354.0,22.678394317626957,24.920860290527344,-79.7827916538371,40.45897246198098,343.504032409668,-0.0477336943149566,-0.0850637778639793,-0.542050302028656,0.8346658945083618,0.6027156075976029,0.0883315213199698,2.8277242092504085,-0.1856217682361602,0.0735016018152237,-0.1169664487242698,0.0861093958932906,1.825229123532772,-8.915893483757973,15008.0
45.81,8.300000190734862,354.0,22.58073425292969,26.20109558105469,-79.78279162634932,40.45897264354242,343.8704722290039,-0.0474663861095905,-0.0906382873654365,-0.5413984656333923,0.8345174193382263,0.6442535992330964,0.0802190225160527,2.7813152098703435,-0.0983703583478927,0.0548494942486286,0.0443735904991626,-0.1230375228915363,1.8474688620865345,-8.792919521927834,15008.0
46.01,8.300000190734862,355.0,22.65585708618164,25.37411117553711,-79.78279148186638,40.45897261599493,344.50407818603514,-0.049305535852909,-0.0894424170255661,-0.5404236316680908,0.8351715207099915,0.6519381833042565,0.0731550601618127,2.7215815744786496,-0.0424058325588703,-0.0235763173550367,-0.0121309217065572,-0.0679323530243709,1.8867302839457991,-9.207884722352029,15009.0
46.2,8.399999618530272,356.0,22.54317283630371,26.59868431091309,-79.78279140243602,40.45897251445548,345.05736950683587,-0.0551741123199462,-0.0905188992619514,-0.5391329526901245,0.8355225324630737,0.6207401921797405,0.0167361340668693,2.697075637402503,0.027782017365098,0.0558923259377479,0.0590449795126915,-0.0126958674844354,1.7255316115915775,-9.266279695630072,15010.0
46.3,8.399999618530272,356.0,22.652101516723643,25.44567680358887,-79.78279135327202,40.45897268448552,345.42766217041014,-0.0556756108999252,-0.0951284766197204,-0.5389468073844911,0.8350971937179565,0.5815131319722651,0.035289430283349,2.744034836782228,-0.2061448097229004,0.0043132724240422,-0.1264832466840744,0.2636836981773377,1.5170413899421693,-9.405217725634577,15010.0
46.4,8.399999618530272,355.0,22.186338424682614,31.783241271972656,-79.78279134452872,40.45897270288326,345.70434216308587,-0.0578299276530742,-0.0970720574259758,-0.5391647219657898,0.8345862030982971,0.5582892088945777,0.056781641252603,2.6689338327017937,-0.0529763139784336,-0.1330008506774902,-0.0211987551301717,0.3714280021190644,1.7185000424087051,-9.112503186464313,15010.0
46.61,8.300000190734862,354.0,22.34785270690918,28.125423431396484,-79.78279137628695,40.45897292405232,346.3796961669922,-0.051379270851612,-0.0823157727718353,-0.5443820953369141,0.8332061171531677,0.5209722409129395,0.0840528476430609,2.862584704420041,0.2138361632823944,-0.0663788914680481,0.1842728555202484,0.3059357881173492,1.8343664212524893,-10.427953630685806,15011.0
46.7,8.300000190734862,353.0,22.37790298461914,28.841083526611328,-79.78279136249104,40.458973033796255,346.67719677734374,-0.0400316640734672,-0.0742260664701461,-0.545160174369812,0.834079384803772,0.4654108926208471,0.0822140230736556,2.9881353154865784,0.1661606431007385,0.0185027197003364,0.0763274580240249,0.0739781136251986,1.6311161819100382,-10.593130456209185,15011.0
46.9,8.399999618530272,353.0,22.326568603515625,29.02397537231445,-79.78279135212166,40.4589734518193,347.371479309082,-0.0325632505118846,-0.0827267095446586,-0.5431365966796875,0.8349243402481079,0.3910798797542363,0.1646243907024657,3.0523819836986523,-0.0588276460766792,0.0556139461696147,0.0835526436567306,0.3029441333189607,1.9787163417041305,-9.70544301331043,15012.0
47.1,8.399999618530272,353.0,22.6132869720459,25.040136337280277,-79.78279135962113,40.45897377919661,348.0359766845703,-0.033420130610466,-0.0809414684772491,-0.542556643486023,0.8354423642158508,0.4871926964522654,0.18248231781606,3.011515946860727,0.1024750396609306,0.0132235363125801,-0.0308883097022771,0.4057458955049515,2.1013896104693406,-9.485297098159789,15013.0
47.21,8.5,354.0,22.5494327545166,26.781574249267567,-79.78279129908634,40.45897382827229,348.3393366699218,-0.0333044417202472,-0.0809287726879119,-0.5420225262641907,0.8357948064804077,0.5094602338896385,0.1584066165451377,2.954020236425127,0.0011974927037954,-0.0579526498913765,0.0102232173085212,0.0645740823727101,1.991737652420997,-9.001990225911143,15013.0
47.3,8.5,354.0,22.42047119140625,27.886871337890625,-79.78279118124156,40.45897405037318,348.69670513916014,-0.0351349301636219,-0.0846995711326599,-0.5420947670936584,0.8352993130683899,0.5303160330059636,0.1452338922702336,2.902464069900798,-0.0670615285634994,-0.0166941192001104,0.1260749399662017,-0.0297941584512591,1.9230400313436984,-9.049018211960792,15013.0
