time,wind_speed,wind_angle,battery_voltage,battery_current,position_x,position_y,position_z,orientation_x,orientation_y,orientation_z,orientation_w,velocity_x,velocity_y,velocity_z,angular_x,angular_y,angular_z,linear_acceleration_x,linear_acceleration_y,linear_acceleration_z,node_ids
0.0,0.8000000119209291,189.0,23.69505882263184,0.0079517737030982,-79.78276778319277,40.45899763439717,267.1593496415615,0.023825941607356,0.0154135916382074,-0.6716182827949524,0.7403537631034851,0.0124516985651282,-0.0085269813791739,-0.0202883974672198,-0.0011720419861376,-0.001112057827413,-0.007286200299859,0.1432064974308014,-0.5395101263746621,-9.800483071804049,14932.0
0.1,0.8000000119209291,190.0,23.696311950683597,-0.0079517737030982,-79.78276779165991,40.45899762309981,267.1572550151348,0.023825941607356,0.0154135916382074,-0.6716182827949524,0.7403537631034851,0.0134539122333524,-0.0088514182605863,-0.019981725330248,0.0052368016913533,0.0016242217971011,0.0065418132580816,0.1393212327640503,-0.5265662912651897,-9.796964802145956,14932.0
0.3,0.8000000119209291,188.0,23.69380760192871,0.0,-79.78276780022541,40.45899761140684,267.15520872807497,0.023825941607356,0.0154135916382074,-0.6716182827949524,0.7403537631034851,0.0131784908965934,-0.0087185470194991,-0.0193260925364433,-0.0046617654152214,0.0025922695640474,-0.00557123683393,0.1392215925548225,-0.5306780167669058,-9.79780095398426,14932.0
0.4,0.8000000119209291,188.0,23.69380760192871,0.0079517737030982,-79.78276771759974,40.45899751491034,267.127955666542,0.0238353665918111,0.0154235670343041,-0.6716177463531494,0.7403537631034851,0.0179006504245701,-0.0025652025377506,-0.0165393494770118,0.0004759496368933,-0.0013142460957169,-0.001581322401762,0.1403475561551749,-0.5342625792324543,-9.797740727663037,14932.0
0.6,0.8000000119209291,189.0,23.69380760192871,0.0,-79.7827676546602,40.4589974578207,267.1037902150154,0.0238412097096443,0.0154265481978654,-0.6716110110282898,0.7403596043586731,0.0171759114061643,0.000859725998345,-0.0152326403451338,0.0034097293391823,0.0018618388567119,-0.0035293193068355,0.1381193193141371,-0.5300327765196562,-9.797756515145304,14932.0
0.7,0.8000000119209291,189.0,23.68253898620605,-0.0159035474061965,-79.78276765157031,40.45899744314652,267.1022016618252,0.0238387323915958,0.0154270399361848,-0.6715795993804932,0.7403880953788757,0.0176352820925331,0.0006702466924342,-0.0147727451101859,0.0028289407491683,0.0009562519844621,0.0053067067638039,0.1427532468549907,-0.5397891847416759,-9.800259708166124,14932.0
0.9,0.8000000119209291,191.0,23.692556381225582,-0.0477106422185897,-79.7827676500405,40.45899739089639,267.075102588892,0.0238638129085302,0.0154020097106695,-0.6715651154518127,0.740401029586792,0.0120962046096619,-0.0076844757577841,-0.01713748310017,0.0067730667069554,0.001431148382835,0.0091703021898865,0.1421316330134868,-0.5402112806215883,-9.800127561092376,14932.0
1.0,0.8999999761581421,189.0,23.691303253173828,-0.0318070948123931,-79.7827676064828,40.45899733824477,267.04776882267004,0.0238771419972181,0.0153845688328146,-0.6715560555458069,0.7404091358184814,0.0092402085841183,-0.0050668252272213,-0.0190097761577587,0.0051655624993145,0.0010778695577755,0.0032090314198285,0.1389114434458315,-0.5300549593940378,-9.798613716959954,14932.0
1.2,0.8999999761581421,189.0,23.690052032470703,-0.0159035474061965,-79.78276761120583,40.45899733058079,267.04584123826027,0.0238830652087926,0.0153692625463008,-0.6715384721755981,0.7404252290725708,0.0091988481937731,-0.0051906767932583,-0.0184479154790526,-0.0022609552834182,-0.0014762862119823,-0.0008965384331531,0.1407703189831227,-0.5366467083245516,-9.799541670084,14932.0
1.3,0.8999999761581421,188.0,23.696311950683597,-0.0159035474061965,-79.78276761613967,40.45899732238325,267.0439569864273,0.0238948110491037,0.0153809329494833,-0.6715323328971863,0.7404302358627319,0.0099796632299066,-0.0054127668687802,-0.0179669488266117,-5.289793625706808e-05,0.0015676734037697,-0.0037924021016806,0.1386457240395248,-0.5277014185488225,-9.797292830944064,14932.0
1.5,0.8999999761581421,188.0,23.696311950683597,-0.0079517737030982,-79.78276756667627,40.45899724885347,267.01630671954155,0.0238857977092266,0.0153944361954927,-0.6715382933616638,0.7404247522354126,0.0119599683801874,-0.0040020273242182,-0.0191045005180667,-0.0011063766432926,0.001672442886047,-0.0045974026434123,0.1389614736847579,-0.5272737312689424,-9.798739432096482,14932.0
1.6,0.8999999761581421,186.0,23.69505882263184,-0.0079517737030982,-79.78276752182488,40.45899719303812,266.9898456249237,0.0238782688975334,0.0153983058407902,-0.671501874923706,0.7404580116271973,0.0100922684092788,-0.003044672608609,-0.0196334290670202,-0.007647699676454,-0.0028702663257718,-0.0049240947701036,0.142914036149159,-0.5389845713227988,-9.799566813111303,14931.0
1.8,0.8999999761581421,183.0,23.688798904418945,-0.0397588685154914,-79.78276752422676,40.458997184166414,266.9878379914761,0.0239005722105503,0.0153990304097533,-0.6715115904808044,0.7404484152793884,0.0111962517697062,-0.0034806361427759,-0.0192486821515366,0.0046394150704145,0.0008634450496174,0.0023305919021368,0.140631995787844,-0.5354822718724609,-9.798637105822564,14931.0
1.9,1.0,183.0,23.692556381225582,-0.0079517737030982,-79.78276750601073,40.45899712848633,266.9631838116646,0.0238990634679794,0.0153949800878763,-0.6715152859687805,0.7404451966285706,0.0081564009462323,-0.0063366999600284,-0.0159977143596805,0.0005065104342065,0.0026046175044029,-0.005782519467175,0.1418566037435084,-0.5379769864305854,-9.799332339763644,14931.0
2.1,1.0,181.0,23.691303253173828,0.1113248318433761,-79.78276745354181,40.458997060487405,266.93901228046417,0.0238986257463693,0.0153997400775551,-0.6715168356895447,0.740443766117096,0.0104302344934192,-0.0047137630581146,-0.0148689368630284,0.0011124014854431,-0.0009879603749141,0.004512726329267,0.1424854078330099,-0.5407960387319327,-9.79976912677288,14931.0
2.2,1.0,178.0,23.69380760192871,0.0079517737030982,-79.78276745773566,40.458997051410655,266.9374947760105,0.0238986257463693,0.0153997400775551,-0.6715168356895447,0.740443766117096,0.0104415187147989,-0.0047678640987854,-0.0142647073612946,-0.0041592908091843,-0.0024388113524764,-0.0038335390854626,0.1383746233675629,-0.5278397782891989,-9.797436087727547,14931.0
2.4,1.0,173.0,23.69505882263184,0.0159035474061965,-79.7827673566698,40.45899695620294,266.9113373670578,0.0238931886851787,0.0154125252738595,-0.671517014503479,0.7404434680938721,0.0170483024039259,0.0043055973437684,-0.0131338806869724,-0.0044695734977722,0.0012515536509454,-0.0043905838392674,0.1412028484884649,-0.5322944429889321,-9.798858130574226,14931.0
2.51,1.0,170.0,23.69380760192871,0.0079517737030982,-79.78276732157785,40.45899686637149,266.88570307827,0.0238979961723089,0.0154114784672856,-0.6715198159217834,0.7404407262802124,0.0192375912728746,-0.0007268560555438,-0.0123331765580293,-0.0027083058375865,0.0020138539839535,0.0083501078188419,0.1390771389193832,-0.5325174411758781,-9.797647756934166,14931.0
2.7,0.8999999761581421,168.0,23.68003463745117,0.0079517737030982,-79.78276732016465,40.45899684947509,266.88438986873626,0.0238979961723089,0.0154114784672856,-0.6715198159217834,0.7404407262802124,0.0195910376568552,-0.0008513657490994,-0.0117531230229599,0.0003606200625654,0.0012337821535766,-0.0052033150568604,0.1383763044420629,-0.5278963135555387,-9.797619105577471,14931.0
2.8,0.8999999761581421,166.0,23.69756317138672,0.0,-79.78276727082917,40.45899678143431,266.8579919252396,0.0238918699324131,0.0154080195352435,-0.671522319316864,0.7404387593269348,0.0149674746568931,-0.0007012021490016,-0.0117695666367333,-0.0032738484442234,-0.0013345382176339,-0.0076344856061041,0.14319575317204,-0.5405672298744321,-9.800401210784912,14931.0
3.0,0.8000000119209291,166.0,23.69505882263184,0.0079517737030982,-79.78276727005336,40.45899676801724,266.8567417178154,0.0238918699324131,0.0154080195352435,-0.671522319316864,0.7404387593269348,0.0161753619508285,-0.0012517115058811,-0.0115077333666099,0.0020106239244341,0.0029782813508063,0.0085332095623016,0.1421666614897549,-0.5390238938480616,-9.798836495876312,14931.0
3.1,0.8000000119209291,168.0,23.69505882263184,0.0079517737030982,-79.78276724118051,40.45899670735273,266.8293538007736,0.0238901395350694,0.0154032176360487,-0.6715219020843506,0.7404392957687378,0.0121539115240462,-0.0045025423033153,-0.0119084609360449,0.006623494438827,-0.0010376523714512,-0.0001617346424609,0.1398161721602082,-0.5313211739435793,-9.798276917338372,14931.0
3.3,0.8000000119209291,174.0,23.688798904418945,-0.0079517737030982,-79.7827672449928,40.45899669675261,266.82811503744125,0.0238901395350694,0.0154032176360487,-0.6715219020843506,0.7404392957687378,0.0120462325118624,-0.0045452654817743,-0.0114363146876589,-0.0016169178998097,-0.0007391019607894,0.0006959441816434,0.1414551101624965,-0.5361014189198613,-9.798341821432114,14931.0
3.5,0.699999988079071,177.0,23.69505882263184,0.0079517737030982,-79.78276719294549,40.458996590174,266.80013977622986,0.0238917861133813,0.0154090011492371,-0.6715226173400879,0.7404384613037109,0.0173059615150299,-0.003843698761886,-0.0113618848746045,-0.0012496708659455,0.0016275407979264,0.0051223202608525,0.1423049207311123,-0.5389506940171123,-9.801100537776946,14931.0
3.61,0.6000000238418579,179.0,23.691303253173828,0.0,-79.78276714418975,40.45899653571453,266.7727749261856,0.0238843653351068,0.0154055664315819,-0.6715240478515625,0.7404375076293945,0.0122787772621867,-0.0028388453318313,-0.0117732464683497,0.0021599726751446,-0.0002267432282678,0.0052728890441358,0.1387608685065061,-0.5275949992239476,-9.797588700056076,14931.0
3.8,0.6000000238418579,182.0,23.69380760192871,-0.0159035474061965,-79.7827671460098,40.458996525078994,266.77154963350296,0.0238843653351068,0.0154055664315819,-0.6715240478515625,0.7404375076293945,0.0121472032693005,-0.0028500322962947,-0.0112943182392966,0.0002392176247667,-0.0003399605047889,-0.0082478327676653,0.1383471231814474,-0.5271197302266956,-9.797114490866662,14931.0
3.91,0.6000000238418579,184.0,23.688798904418945,0.0159035474061965,-79.78276706774945,40.45899644290187,266.74556153154373,0.0238813683390617,0.0154110109433531,-0.6715258955955505,0.7404358386993408,0.0134441040841668,0.0011622010652113,-0.0080222210371191,-0.0039698383770883,-0.0030764967668801,-0.0026704925112426,0.1421781366504728,-0.5382592973113061,-9.79899554014206,14931.0
4.1,0.699999988079071,192.0,23.69505882263184,0.0079517737030982,-79.78276701454266,40.45899635599796,266.71967183685297,0.0238831602036952,0.0154137816280126,-0.6715284585952759,0.7404333353042603,0.0176820364927645,-0.00011401329142,-0.0061461774741041,0.0040638418868184,0.0025997022166848,0.0010959984501823,0.140020833844319,-0.5348865136876703,-9.798607869744304,14931.0
4.2,0.699999988079071,193.0,23.69380760192871,-0.0079517737030982,-79.78276701080839,40.458996324682886,266.7183481965065,0.0238810591399669,0.0154282376170158,-0.6715158224105835,0.7404446005821228,0.0184202947259345,-0.0004116420647795,-0.0051863215515282,0.0011736890301108,0.0005804972024634,0.0006568322423845,0.1413825407344848,-0.5357500012591482,-9.799241707921029,14931.0
4.4,0.8000000119209291,197.0,23.696311950683597,0.0079517737030982,-79.78276699052984,40.458996284194434,266.6922125134468,0.0238836649805307,0.0154157327488064,-0.6714972257614136,0.7404617071151733,0.0101078491779807,-0.0053084940853307,-0.0036870767362284,-0.0031158786732703,-0.0016727417241781,0.0041968938894569,0.1411318322271108,-0.5388546169549226,-9.79998313486576,14931.0
4.5,0.8000000119209291,199.0,23.692556381225582,0.0079517737030982,-79.78276692280969,40.45899621408386,266.6646939430237,0.0238630920648574,0.0154441874474287,-0.671471893787384,0.7404847145080566,0.0095639624731582,-0.0015957787832036,-0.0057809414801676,0.0044530285522341,0.0012143129715695,0.0063493060879409,0.1386465737130493,-0.5274676761031151,-9.796865984201432,14931.0
4.7,1.0,202.0,23.692556381225582,0.0,-79.78276692351592,40.45899620563191,266.66408764457697,0.0238803289830684,0.015457771718502,-0.6714681386947632,0.740487277507782,0.0094971731552983,-0.0015823184591509,-0.0052712231509294,-0.0070756841450929,-0.0016042053466662,-0.0065960604697465,0.1379939696285873,-0.5283220639452338,-9.79689931333065,14931.0
4.8,1.100000023841858,199.0,23.69505882263184,0.0,-79.78276692442594,40.45899619672906,266.66351806259155,0.0238740015774965,0.0154510606080293,-0.6714682579040527,0.7404875159263611,0.0106760838430275,-0.0020367948764686,-0.0049740227652734,0.0046844067983329,0.0039189350791275,0.0037206169217824,0.1427899107243865,-0.5391513631492854,-9.798711950182916,14931.0
5.0,1.2999999523162842,203.0,23.69380760192871,0.0079517737030982,-79.78276686554888,40.4589961122653,266.6351227674484,0.0238561984151601,0.0154453627765178,-0.6714509129524231,0.7405039072036743,0.0125050985930134,-0.0017574708227981,-0.0068519026994783,0.0013116518966853,0.0046640154905617,0.0018591580446809,0.141305512804538,-0.535882988870144,-9.798642953038216,14931.0
5.1,1.399999976158142,200.0,23.696311950683597,0.1351801604032516,-79.78276680300988,40.45899604262495,266.6059828910828,0.0238510109484195,0.0154780354350805,-0.6714383363723755,0.740514874458313,0.0098562575954631,-0.0011112045427703,-0.0086764723569196,0.0036673643626272,0.0001195414806716,-0.0016372698592022,0.1413044986780733,-0.5334628628566861,-9.799162185788155,14931.0
5.3,1.5,193.0,23.69380760192871,-0.0159035474061965,-79.78276680307874,40.45899603405812,266.6050830397606,0.0238510109484195,0.0154780354350805,-0.6714383363723755,0.740514874458313,0.0101503216351619,-0.0012063754317183,-0.0082263369581526,0.0021982968319207,0.0006782783311791,0.0043071154505014,0.1413926728628576,-0.5394909767434001,-9.800623404979708,14931.0
5.4,1.5,193.0,23.69380760192871,0.0,-79.78276673653279,40.45899594390784,266.57508765792846,0.0238503832370042,0.0154800927266478,-0.671438455581665,0.7405146956443787,0.0124485563946107,-0.0008775278164484,-0.0095579793086094,0.0027943712193518,-0.000497790868394,0.0097747193649411,0.1393693626578897,-0.5275594408437609,-9.796832070350648,14931.0
5.6,1.5,185.0,23.69505882263184,0.0,-79.78276666847042,40.458995881154216,266.5469605836868,0.0238475520163774,0.0154789192602038,-0.6714400053024292,0.7405134439468384,0.0095678621719851,-0.0002539924241773,-0.0102918363677604,-0.0032859039492905,0.0001275101676583,-0.005071681458503,0.1392301258351654,-0.5291514914855361,-9.798549397587776,14931.0
5.71,1.5,179.0,23.69380760192871,-0.0159035474061965,-79.78276666691458,40.4589958633743,266.54484950637817,0.0238475520163774,0.0154789192602038,-0.6714400053024292,0.7405134439468384,0.0107288609136707,-0.000364153921597,-0.0095317042997341,-0.0003880982694681,-0.0007711383514106,-0.0007909563719294,0.1421033105626702,-0.5364660293608904,-9.799414200782776,14931.0
5.9,1.5,167.0,23.69505882263184,-0.0079517737030982,-79.78276659509402,40.4589957852734,266.5177110943794,0.0238471645861864,0.0154805881902575,-0.6714421510696411,0.7405113577842712,0.0117526013997938,-0.0003027478271458,-0.0070597843545487,0.0011730481637641,-0.0007842528866603,-0.0048586158081889,0.1382957133650779,-0.5303690645098686,-9.798210259079934,14931.0
6.0,1.5,168.0,23.68754768371582,-0.0397588685154914,-79.78276654115638,40.4589957151596,266.4878669295311,0.0238454993814229,0.0154748391360044,-0.6714411973953247,0.740512490272522,0.0078242774575132,-0.004073182083841,-0.0090610831954923,-0.0069188773632049,-0.0010503955418244,-0.0077449213713407,0.142641692943871,-0.5389480993151665,-9.800714621543882,14931.0
6.2,1.600000023841858,163.0,23.68754768371582,0.055662415921688,-79.78276654498481,40.45899570770711,266.48692601060867,0.0238454993814229,0.0154748391360044,-0.6714411973953247,0.740512490272522,0.0090015678825491,-0.0043125065175635,-0.0087255311827514,0.0047038304619491,-9.235288598574698e-05,0.0007596521172672,0.1412982951477169,-0.5367868953198195,-9.799362160563469,14931.0
6.3,1.399999976158142,160.0,23.69505882263184,0.0477106422185897,-79.78276646492971,40.458995633105935,266.4565334830284,0.0238421373069286,0.0154760684818029,-0.6714434623718262,0.7405105233192444,0.007496248554886,-0.0024861100469054,-0.0100656280827753,-0.0014064777642488,-0.0010961190564557,-0.0064144381321966,0.1409571557957679,-0.5362651044130325,-9.800651471614838,14931.0
6.5,1.2999999523162842,156.0,23.688798904418945,0.1033730581402778,-79.78276646694444,40.45899562648114,266.4555004749298,0.0238421373069286,0.0154760684818029,-0.6714434623718262,0.7405105233192444,0.0081409277763619,-0.002760009200307,-0.009694401186156,0.0022022027987986,0.0003268563013989,0.0060004973784089,0.1427012797258794,-0.5408860493078829,-9.800970729589464,14931.0
6.6,1.2999999523162842,153.0,23.685043334960927,0.1033730581402778,-79.78276634732664,40.458995538355545,266.4261387500763,0.0238368678838014,0.0154840126633644,-0.6714445352554321,0.740509569644928,0.0112519391432903,0.0039543933418073,-0.0102555108130447,0.0043452535755932,0.0017985863378271,0.0034924251958727,0.1389073412586003,-0.5276352719217539,-9.797864103913309,14931.0
6.8,1.2999999523162842,157.0,23.68379211425781,0.1828908026218414,-79.78276634119186,40.45899552924766,266.42508076763147,0.0238368678838014,0.0154840126633644,-0.6714445352554321,0.740509569644928,0.0112559290287601,0.0041139327625774,-0.0098255341434786,-0.003895393339917,0.0004733614332508,-0.0004173191846348,0.1414591483958065,-0.5366512399166823,-9.799579092264176,14931.0
6.9,1.2000000476837158,153.0,23.68754768371582,0.0954212844371795,-79.78276628953105,40.458995442333006,266.3954008731842,0.0238413922488689,0.0154806543141603,-0.6714479327201843,0.7405063509941101,0.0125726872564396,-0.0020480320041989,-0.0101515157176033,0.0051319133490324,0.0017746702069416,0.0056475684978067,0.1382554772123694,-0.5289757826551795,-9.797613258361816,14931.0
7.1,1.2999999523162842,156.0,23.686294555664062,0.0795177370309829,-79.78276620119432,40.45899537765455,266.3664691362381,0.0238369219005107,0.0154798924922943,-0.6714479327201843,0.7405065298080444,0.0089947209317952,-0.0007720752527427,-0.0112038578370415,-0.0028246403671801,-0.0016350435325875,-0.0040805307216942,0.1406811854895204,-0.5310816573724151,-9.798028410673142,14931.0
7.2,1.5,153.0,23.68379211425781,0.0397588685154914,-79.78276620078888,40.45899536108021,266.36419009304046,0.0238369219005107,0.0154798924922943,-0.6714479327201843,0.7405065298080444,0.0102972657828,-0.00096706815512,-0.0104794485503746,-0.0006485494668595,-0.0009598697070032,0.0036948977503925,0.1395350033137947,-0.5344195404276252,-9.797779319286349,14931.0
7.4,1.7000000476837158,157.0,23.68128776550293,0.0477106422185897,-79.78276610815641,40.45899529741193,266.33447252845764,0.0238337684422731,0.015479820780456,-0.6714498996734619,0.740504801273346,0.0079854687365105,-3.848827349238427e-05,-0.0116204004413447,-0.0059908195398747,-0.0014146361500024,-0.0046516289003193,0.1383927954174578,-0.5276358566433191,-9.797819665074348,14931.0
7.5,1.7999999523162842,164.0,23.68253898620605,0.0954212844371795,-79.78276601883799,40.45899518893315,266.30421935653686,0.0238383132964372,0.0154861966148018,-0.6714510321617126,0.7405035495758057,0.0155921204936472,-0.0004418495560482,-0.0112753191558674,-0.0033051250502467,-0.0025401248130947,-0.0032816093880683,0.1417178968247026,-0.5384439596906304,-9.800048038959504,14931.0
7.7,1.8999999761581416,165.0,23.68253898620605,0.0477106422185897,-79.78276601765387,40.45899517498468,266.3030177268982,0.0238383132964372,0.0154861966148018,-0.6714510321617126,0.7405035495758057,0.0164953581782494,-0.0007504954160634,-0.0109277668781928,0.0033218248281627,-0.0029256076086312,-0.0045231627300381,0.138523252280429,-0.5301691993698479,-9.797580513954165,14931.0
7.8,2.0,165.0,23.68754768371582,0.0795177370309829,-79.78276592717387,40.45899511293853,266.27221321201324,0.0238304231315851,0.0154814030975103,-0.6714536547660828,0.7405015230178833,0.0087108724907874,0.0004349809121936,-0.0116547841946936,-0.0048327315598726,-0.0009889940265566,-0.005710088647902,0.1436756359878927,-0.5402134367823601,-9.80028835952282,14931.0
8.0,2.0,166.0,23.685043334960927,0.055662415921688,-79.78276592557447,40.458995105229455,266.2710065755844,0.0238304231315851,0.0154814030975103,-0.6714536547660828,0.7405015230178833,0.0098148033335415,0.0001238789696592,-0.0114452297224192,0.0068235085345804,0.0026792166754603,0.0003635407774709,0.1396803431678563,-0.5345788039639593,-9.798689146041871,14931.0
8.1,2.0999999046325684,166.0,23.686294555664062,0.1510837078094482,-79.78276577480275,40.45899499059072,266.2419214162826,0.0238289460539817,0.0154934143647551,-0.6714544296264648,0.7405006885528564,0.0159203540701703,0.0076438678770218,-0.00795321684452,-0.0001418275787727,0.0007908996776677,-0.0044377692975103,0.1422320772148669,-0.5382132139429451,-9.799715332388876,14931.0
8.3,2.0999999046325684,163.0,23.68754768371582,0.0636141896247863,-79.78276576396465,40.45899497700618,266.24105631446844,0.0238289460539817,0.0154934143647551,-0.6714544296264648,0.7405006885528564,0.0169932383778639,0.0073967108120152,-0.0078224671202627,0.0035821283236145,0.0002505900920368,0.0068868258967995,0.1432153322082013,-0.537897208482027,-9.800245674848556,14931.0
8.4,2.200000047683716,160.0,23.691303253173828,0.0795177370309829,-79.78276575819177,40.45899488667124,266.2137319955826,0.0238367114216089,0.015480825677514,-0.6714576482772827,0.7404977083206177,0.0143486060426337,-0.0064010243312142,-0.0042310346330552,-0.0008419078076258,-0.0025164533872157,0.0015209899283945,0.1413051108084619,-0.5326185249164701,-9.799275621771812,14931.0
8.6,2.299999952316284,164.0,23.690052032470703,0.0874695107340812,-79.7827656662276,40.45899479997667,266.1874962959289,0.0238369908183813,0.0154852215200662,-0.6714581847190857,0.7404970526695251,0.0163718006535236,-0.0050895481427673,-0.0038224033369929,-0.0004047150432597,-0.0008470049942843,0.0055109458044171,0.1417501478735357,-0.5398205038905144,-9.800934476852415,14931.0
8.7,2.299999952316284,164.0,23.688798904418945,0.0715659633278846,-79.7827656742232,40.45899476899439,266.186604968071,0.0238369908183813,0.0154852215200662,-0.6714581847190857,0.7404970526695251,0.0178099887310879,-0.0053917212550196,-0.0031705132945402,0.0032834350131452,0.0018093666294589,0.0061874222010374,0.1379074491094798,-0.528412293791771,-9.797923160791395,14931.0
8.9,2.0,168.0,23.68754768371582,0.0715659633278846,-79.78276555828978,40.45899470054781,266.16148649787897,0.0238293893635272,0.015489243902266,-0.6714605093002319,0.7404952049255371,0.0158991382394388,0.0005938956865499,-0.002451526235132,-0.0064911935478448,-0.0016312968218699,-0.0071929935365915,0.1380444384086877,-0.5290473745018244,-9.798113780021668,14931.0
9.0,2.0999999046325684,168.0,23.685043334960927,0.0874695107340812,-79.78276546930586,40.45899463057143,266.13464986419683,0.0238248165696859,0.0154862580820918,-0.6714602708816528,0.7404955625534058,0.0114718202395343,0.0010633671282297,-0.0060715140540732,-0.0028517115861177,-0.0026004947721958,-0.0047840825282037,0.1427272176090628,-0.5371635656431317,-9.799246970415115,14931.0
9.2,2.0999999046325684,166.0,23.69380760192871,-0.0079517737030982,-79.78276546692152,40.458994620144175,266.1339876565933,0.0238248165696859,0.0154862580820918,-0.6714602708816528,0.7404955625534058,0.0125102432715507,0.000711743770251,-0.0058686444223447,0.0022623683325946,0.0018559676827862,0.0027304887771606,0.1402904270309955,-0.5340087735280394,-9.79835117697716,14931.0
9.3,2.0,164.0,23.696311950683597,0.0159035474061965,-79.78276546442544,40.45899460925635,266.13336001968383,0.0238248165696859,0.0154862580820918,-0.6714602708816528,0.7404955625534058,0.012754553567976,0.0007214268321206,-0.0054344545808198,-0.0026632386725395,-0.0010689543560147,-0.0003517477307468,0.1404572736751288,-0.5373725670576096,-9.800982424020766,14931.0
9.5,2.0999999046325684,167.0,23.69380760192871,0.0159035474061965,-79.78276537398618,40.45899454826333,266.10934590435033,0.0238208509981632,0.015484120696783,-0.6714605689048767,0.7404954433441162,0.0098510651390401,0.0009302703123574,-0.00432320708993,-0.0007459206390194,-0.0031619968358427,0.0051342528313398,0.1417147813551127,-0.5407474702969194,-9.800059733390809,14931.0
9.6,2.0999999046325684,168.0,23.692556381225582,0.0079517737030982,-79.78276529138721,40.45899449754085,266.08649872875213,0.0238166600465774,0.0154818082228302,-0.671460747718811,0.740495502948761,0.0065365338483538,0.0014870888265348,-0.0038604075248194,-0.0017640537116676,0.0020732712000608,0.0074773021042346,0.1373803865723312,-0.5273677252605558,-9.797688102722168,14931.0
9.8,2.400000095367432,168.0,23.69756317138672,0.0079517737030982,-79.78276528892134,40.458994492082994,266.0860975894928,0.0238209459930658,0.0154793402180075,-0.6714653968811035,0.7404911518096924,0.0064170660765921,0.0015708925768108,-0.0034466319190479,-0.0041257101111114,-0.0015258094063028,-0.0085292104631662,0.1391701461933553,-0.5278428115323186,-9.797886323332786,14931.0
9.9,2.299999952316284,171.0,23.696311950683597,0.0,-79.78276520649948,40.458994398224704,266.0638065252304,0.0238348301500082,0.0154935019090771,-0.6714667677879333,0.7404892444610596,0.0124264234906635,0.0009125712232474,-0.0027284393235908,-0.0037227687425911,-0.0022330761421471,-0.0063839117065072,0.1444993899017572,-0.5412216794863344,-9.79930427312851,14931.0
10.1,2.299999952316284,177.0,23.69505882263184,0.0,-79.78276515088022,40.45899431886991,266.0426272068024,0.0238379463553428,0.0154939647763967,-0.6714628338813782,0.7404926419258118,0.0165491441070001,-0.0039189314291197,-0.0023319253141368,-0.0012756690848618,-0.0033450364135205,0.0063997036777436,0.1431980646494776,-0.5410273692011833,-9.799877300262454,14931.0
10.2,2.400000095367432,180.0,23.691303253173828,-0.0079517737030982,-79.78276515540085,40.45899428806261,266.042040816307,0.0238581467419862,0.0154926003888249,-0.6714462637901306,0.7405071258544922,0.017784021021752,-0.0036919545699634,-0.0016887028034549,0.0016558853676542,-0.000794367515482,0.007693741004914,0.1376815181784332,-0.5277079966664314,-9.796988775730131,14931.0
10.4,2.299999952316284,184.0,23.690052032470703,0.0079517737030982,-79.78276509887226,40.45899428207658,266.0188778553009,0.0238568522036075,0.0154772717505693,-0.6714414358139038,0.7405117750167847,0.0054347095521964,-0.0045119686867342,-0.0060220634730298,-0.0030744888354092,-0.002341901184991,-0.0059696030803024,0.139773423532024,-0.5256084077060222,-9.797912051081658,14931.0
10.5,2.400000095367432,188.0,23.692556381225582,0.0079517737030982,-79.78276504182857,40.4589942062709,265.9987702283859,0.0238749030977487,0.0154771525412797,-0.6714231371879578,0.7405278086662292,0.0105193727090535,-0.0063418076974586,-0.0045270065345687,-0.0017529900651425,0.0021361086983233,-0.0072816791944205,0.1452387155033648,-0.5415756553038955,-9.80030707061291,14930.0
10.7,2.299999952316284,192.0,23.686294555664062,0.0,-79.78276504816998,40.458994196044365,265.9982567939758,0.0238888058811426,0.0154787451028823,-0.6714093685150146,0.7405397891998291,0.0116801315307401,-0.006804393346432,-0.0043068285749933,0.0041576814837753,0.0047908769920468,0.0055115087889134,0.1428307315986603,-0.5397274600714446,-9.800632175803186,14930.0
10.81,2.299999952316284,194.0,23.696311950683597,0.0079517737030982,-79.78276496944163,40.45899414535195,265.978784910202,0.023890471085906,0.0154781769961118,-0.6714134216308594,0.7405361533164978,0.0096461624508686,-0.0043667631649264,-0.003561703182058,0.0023464907426387,0.0007397946319542,0.00845458637923,0.1376407338492572,-0.5267752195894718,-9.797972862124444,14930.0
11.0,2.299999952316284,200.0,23.691303253173828,0.0079517737030982,-79.78276497323634,40.45899413658223,265.978392950058,0.023890471085906,0.0154781769961118,-0.6714134216308594,0.7405361533164978,0.0095731426646851,-0.0041180988267707,-0.0031120775693582,-0.0049281320534646,-0.0022201461251825,-0.0064888610504567,0.1379637651052326,-0.5274017487466336,-9.79825996041298,14930.0
11.1,2.299999952316284,201.0,23.69380760192871,0.1272283792495727,-79.78276489491346,40.458994072431935,265.95716523265844,0.0238878615200519,0.01548030693084,-0.6714140176773071,0.7405356168746948,0.0116813654389621,-0.0025501548289675,-0.0060821425618826,-0.0057311686687171,-0.0006043064640834,-0.002161072101444,0.1426570327486843,-0.5370815584436059,-9.799418293833734,14930.0
11.3,2.200000047683716,199.0,23.696311950683597,0.0238553211092948,-79.78276489676723,40.45899406143248,265.9564958724976,0.0238878615200519,0.01548030693084,-0.6714140176773071,0.7405356168746948,0.0130061791355409,-0.0029082123348515,-0.0058571239888091,0.0054826303385198,0.0006543557974509,-0.0012851650826632,0.1417853499390185,-0.5342916691303253,-9.798990862369536,14930.0
11.4,2.0,199.0,23.696311950683597,0.0159035474061965,-79.78276481527014,40.45899397390591,265.9379345092773,0.0238883346319198,0.0154843181371688,-0.6714170575141907,0.7405328154563904,0.017692431810058,-0.0022739435353251,-0.0042006682234676,0.0028941687196493,0.0042085573077201,-0.0016158524667844,0.1416756689641624,-0.5339686104655266,-9.798408479690552,14930.0
11.6,2.0,198.0,23.69380760192871,0.0079517737030982,-79.78276474098863,40.458993947672965,265.9205880079269,0.023881634697318,0.0154805211350321,-0.6714200973510742,0.7405303120613098,0.0113833017585495,-0.0010712392290428,-0.0039504447168645,-0.0019844949711114,-0.0028114039450883,0.0020961733534932,0.1417324965912848,-0.5389631193503738,-9.800275495648384,14930.0
11.7,2.0,196.0,23.690052032470703,-0.0079517737030982,-79.78276474060284,40.45899392629239,265.9197237405777,0.023881634697318,0.0154805211350321,-0.6714200973510742,0.7405303120613098,0.0127714701732907,-0.0012231581286217,-0.0034595206798856,0.0048398887738585,-0.0017965254373848,0.0086517268791794,0.1372673525847494,-0.5283751639723778,-9.797582852840424,14930.0
11.9,1.8999999761581416,198.0,23.696311950683597,0.0079517737030982,-79.78276466911325,40.45899384323926,265.90095888710016,0.0238853991031646,0.0154862785711884,-0.6714240312576294,0.7405264973640442,0.0197453833995277,-0.0013687838951613,-0.0058549406267016,-0.0008958056569099,-0.0014084629947319,-0.0074589448049664,0.1378080829884857,-0.5276081189140678,-9.79754776954651,14930.0
12.0,1.8999999761581416,198.0,23.68253898620605,0.0,-79.78276459851753,40.45899381414748,265.88373433685297,0.0238749384880065,0.0154791949316859,-0.6714245080947876,0.7405264973640442,0.0100139881206133,-0.0002171317429565,-0.0046800125465316,-0.0076372744515538,-0.0004652709176298,-0.0032175332307815,0.1425997574441135,-0.5392101642116904,-9.799901273846627,14930.0
12.2,1.7999999523162842,194.0,23.68128776550293,-0.0636141896247863,-79.78276459773541,40.4589938048163,265.88320898151403,0.0238749384880065,0.0154791949316859,-0.6714245080947876,0.7405264973640442,0.0113322296170724,-0.0005912304275153,-0.0046186888265374,0.0030319611541926,0.0035350448451936,0.0077579845674335,0.1422935917507857,-0.537445328347385,-9.799116577506066,14930.0
12.3,1.7999999523162842,193.0,23.69505882263184,0.0159035474061965,-79.78276452792812,40.45899376504389,265.86626576519006,0.0238709673285484,0.0154772978276014,-0.6714248657226562,0.7405263185501099,0.0084806809253676,1.5845715198360182e-05,-0.003517536623864,0.004658471327275,0.0027866186574101,0.0003809881454799,0.1405251287855208,-0.5335714748874307,-9.798743525147438,14930.0
12.5,1.7999999523162842,192.0,23.691303253173828,0.0238553211092948,-79.7827645268621,40.4589937575828,265.8658782157898,0.0238709673285484,0.0154772978276014,-0.6714248657226562,0.7405263185501099,0.008744351878184,-4.162053838393381e-05,-0.0034000014727602,-0.0009499482694081,-0.0002073120704153,0.0033451321069151,0.1404171197488904,-0.5386468946188688,-9.79924521625042,14930.0
12.6,1.7999999523162842,193.0,23.702571868896484,0.0715659633278846,-79.78276446329501,40.458993698630586,265.84984194374084,0.0238699112087488,0.0154783660545945,-0.6714270710945129,0.740524411201477,0.0109881787348154,-0.0003300287195654,-0.0027327732817493,0.0009301457903347,-0.0015965163474902,0.0080739073455333,0.1370526227261871,-0.5280631053820253,-9.797634893059731,14930.0
12.8,1.7999999523162842,195.0,23.69756317138672,0.0,-79.78276446239062,40.45899368877337,265.84952127075195,0.0238699112087488,0.0154783660545945,-0.6714270710945129,0.740524411201477,0.0111472100978932,-0.0002472848193288,-0.0024309574063383,-0.0062794210389256,0.0010789477964863,-0.006644214503467,0.1380718289595097,-0.5266744282096625,-9.798026656508446,14930.0
12.9,1.7999999523162842,198.0,23.692556381225582,-0.0079517737030982,-79.78276442969916,40.45899363042233,265.8314592752457,0.0238921511918306,0.0154773639515042,-0.6714193224906921,0.7405307292938232,0.0120798886287832,-0.0044300653152906,-0.005420608883348,-0.0022113141603767,0.0008861944079399,-0.0068004969507455,0.1429718322213739,-0.5401333299279213,-9.800247429013252,14930.0
13.1,1.7999999523162842,198.0,23.68003463745117,0.0159035474061965,-79.78276436991135,40.45899360054579,265.8165706310272,0.0238923002034425,0.0154723646119236,-0.6714327335357666,0.7405187487602234,0.0094242914512799,-0.0028899826101186,-0.0042849335266632,0.0029260143637657,0.0030200281180441,0.0071763526648283,0.1424019022844732,-0.5363255865499378,-9.79938671886921,14930.0
13.2,1.7999999523162842,197.0,23.68003463745117,-0.0238553211092948,-79.78276437198859,40.45899359212496,265.8161061916352,0.0239019766449928,0.0154778696596622,-0.6714127063751221,0.7405363917350769,0.0093854964745676,-0.0027082524992466,-0.0039372018590958,-0.0029155502561479,-0.002784049604088,-0.0043190782889723,0.1409103232529014,-0.5333394500613213,-9.799189667701722,14930.0
13.4,1.7000000476837158,196.0,23.69505882263184,0.0,-79.78276428746275,40.458993560862496,265.801398030281,0.0239044837653636,0.0154958888888359,-0.6714138984680176,0.7405349016189575,0.0072206506991006,0.0032649936976869,-0.002612733697144,-0.0014211159432306,-0.0032576855737715,0.0030851950868964,0.1387446790281683,-0.5325579696893692,-9.798418419957162,14930.0
13.5,1.7000000476837158,192.0,23.69380760192871,0.0,-79.78276425442345,40.45899349308364,265.78697358703613,0.0239456836134195,0.0154903642833232,-0.6714071035385132,0.7405397891998291,0.0133764934732477,-0.0025454181004291,-0.001696442802595,0.002269617980346,0.001956055406481,0.002641505561769,0.1389927562884986,-0.5308868720009923,-9.798100331425667,14930.0
13.7,1.7999999523162842,191.0,23.690052032470703,0.0079517737030982,-79.78276425592941,40.458993480716494,265.7867458972931,0.0239434260874986,0.0154976435005664,-0.6714179515838623,0.7405299544334412,0.0137776329118187,-0.0026420076132494,-0.0013055778686816,-0.001655762316659,0.0019256168743595,-0.0049423119053244,0.1386198866553604,-0.5273296452686191,-9.797275289297104,14930.0
13.8,1.7999999523162842,193.0,23.692556381225582,0.0,-79.7827642574009,40.45899346773098,265.78653382396703,0.0239502172917127,0.0155015876516699,-0.671411395072937,0.7405354976654053,0.0147758001642478,-0.0029118631267649,-0.0012971849668074,0.0004301932058297,-0.0028290748596191,0.0094917621463537,0.1429388685431331,-0.5419158901646733,-9.799172126054764,14930.0
14.0,1.7999999523162842,190.0,23.688798904418945,-0.0079517737030982,-79.78276418904196,40.45899342936384,265.7726601276397,0.0239433888345956,0.0155075723305344,-0.6714139580726624,0.7405333518981934,0.0132583790709942,0.0002898954735571,-0.0012696426252166,0.0046837362460792,0.0022169982548803,0.0056754564866423,0.14304516909644,-0.5401820079982281,-9.799270943999293,14930.0
14.1,1.7999999523162842,188.0,23.69380760192871,0.1033730581402778,-79.78276413980274,40.45899338004125,265.7596675071716,0.023941857740283,0.0155070088803768,-0.6714158058166504,0.7405317425727844,0.0139747142467541,-0.0003033358185235,-0.000955308368024,0.0032970877364277,-0.0001044463569996,0.0050885854288935,0.1391263925749808,-0.5287095881626009,-9.797990988492966,14930.0
14.3,1.8999999761581416,183.0,23.688798904418945,-0.0318070948123931,-79.78276413840359,40.45899336757535,265.75950824356084,0.023941857740283,0.0155070088803768,-0.6714158058166504,0.7405317425727844,0.013898074799362,-0.0001884374769248,-0.0006540445608188,-0.0039424798451364,-0.0013891833368688,-0.0052237454801797,0.1389300174918026,-0.5294404535740614,-9.797841884493828,14930.0
14.4,1.8999999761581416,181.0,23.685043334960927,-0.0238553211092948,-79.78276408887487,40.45899334222483,265.74693440532684,0.0239375978708267,0.01550411619246,-0.6714192628860474,0.7405288219451904,0.0108328438109784,-4.8054972557265256e-05,-0.0009624345995423,-0.0038934058975428,-0.0026646347250789,-0.0046355011872947,0.1422633324097842,-0.5369421023502946,-9.797768209576608,14930.0
14.6,2.0,181.0,23.692556381225582,-0.0159035474061965,-79.7827640460965,40.45899329604233,265.7349526796341,0.0239385068416595,0.0155063085258007,-0.6714227795600891,0.740525484085083,0.0155530498967443,-0.0006052266601909,-0.0011481483485162,0.003975223749876,0.0004913957091048,0.0037569752894341,0.1420622521452605,-0.5351070268079638,-9.797332592010498,14930.0
14.7,1.8999999761581416,178.0,23.690052032470703,-0.0238553211092948,-79.78276404379227,40.45899326748624,265.7345912370682,0.023935317993164,0.0155041767284274,-0.6714250445365906,0.7405235767364502,0.0168355761600874,-0.0007388870891295,-0.0008014912420104,0.005373328924179,-0.0001044447853928,0.0005217096768319,0.1423168801143765,-0.5335365012288094,-9.798886781930925,14930.0
14.9,2.0999999046325684,178.0,23.69505882263184,-0.0079517737030982,-79.78276402735344,40.45899326083247,265.72393595314026,0.023928927257657,0.0155047690495848,-0.671417236328125,0.7405308485031128,0.0115621489195076,-0.0036520023701437,-0.0008664866591573,-0.0012744232080876,-0.0003898809081874,0.0034395619295537,0.1425094910524785,-0.538118927590549,-9.799794854521751,14930.0
15.0,2.200000047683716,174.0,23.68754768371582,-0.0318070948123931,-79.78276398926155,40.458993225732094,265.7137238893509,0.0239291600883007,0.0155253931879997,-0.6714133620262146,0.7405339479446411,0.0127077684513074,-0.0028455719063938,-0.0008971314662692,-0.0011980751296505,-0.0024676998145878,0.0051933052018284,0.1384955967776477,-0.5306623754650355,-9.796656069159509,14930.0
15.2,2.400000095367432,179.0,23.68379211425781,-0.055662415921688,-79.78276399105067,40.45899321384268,265.71357285118097,0.023924333974719,0.0155428051948547,-0.6714038252830505,0.7405424118041992,0.0131963884267458,-0.002694571340254,-0.0005480128288562,-0.0026448238641023,-0.0018964301561936,-0.0056523634120821,0.1390663855243474,-0.5284649187326431,-9.797614427804946,14930.0
15.3,2.5,177.0,23.691303253173828,-0.0079517737030982,-79.78276399281309,40.45899320132629,265.7134418401718,0.0239125415682792,0.0155519256368279,-0.6713882088661194,0.7405567765235901,0.0144031182205392,-0.0029888588690176,-0.0005261531009798,0.0025907659437507,-0.0007770466036163,0.0056256740354001,0.1433827635738998,-0.5402439519390464,-9.79936099112034,14930.0
15.5,2.5999999046325684,178.0,23.6712703704834,0.4771064221858978,-79.78276394764056,40.45899314802303,265.70627128219604,0.023894902318716,0.0155721073970198,-0.671377420425415,0.7405667304992676,0.0181574820153974,-0.0021679310820432,0.0033595866895783,0.0063827517442405,-0.0011840186780318,0.0057122195139527,0.1437186038866639,-0.5380824921280146,-9.79920720934868,14930.0
15.6,2.5999999046325684,181.0,23.65624618530273,0.3101191818714142,-79.78276387061561,40.45899314527585,265.6973458442688,0.0239064507186412,0.0155946323648095,-0.6714047789573669,0.7405410408973694,0.0123513902801626,0.0030222483901203,0.0018503365068305,0.00056652224157,0.004930761642754,-0.0103066666051745,0.1303002763632685,-0.5285318328067661,-9.79715776026249,14930.0
15.8,2.5,185.0,23.67502593994141,0.3021674156188965,-79.78276386528896,40.45899313402947,265.6974642190933,0.0238925050944089,0.0156058873981237,-0.6713513731956482,0.7405896186828613,0.0129700169731105,0.003450515090676,0.0021130012103163,-0.0051583033055067,9.976910223485902e-05,0.0097487494349479,0.1365742473956197,-0.5236651952192187,-9.80084326028824,14930.0
15.9,2.5999999046325684,187.0,23.66876602172852,0.2942156493663788,-79.78276381879458,40.458993119454064,265.6898476991653,0.023923261091113,0.0156037509441375,-0.6713734269142151,0.7405686378479004,0.012863178285697,0.0030522158095796,0.0016941886910439,0.0022299208212643,0.0011914509814232,0.014897464774549,0.1437958876322955,-0.5383330453187227,-9.801166026592256,14930.0
16.1,2.700000047683716,188.0,23.67377471923828,0.3021674156188965,-79.78276375860058,40.45899311643742,265.68450354671484,0.0239188577979803,0.0156049747020006,-0.6713327765464783,0.7406055927276611,0.0088067796416788,0.0056597775704204,0.0041164531478791,-0.0016234997892752,-0.0014812502777203,-0.0115438373759388,0.1419695006869733,-0.522674896158278,-9.79729692399502,14930.0
16.21,3.0,186.0,23.666261672973643,0.3021674156188965,-79.78276374326151,40.45899309932309,265.68524073696136,0.0239210352301597,0.0156092904508113,-0.6713359951972961,0.7406025528907776,0.0101455971650849,0.0049996397788584,0.0043066495724508,-0.0110857337713241,-0.0050217872485518,-0.0005467456649057,0.1426772147789597,-0.5460888287052512,-9.799783744812007,14930.0
16.4,3.2000000476837163,194.0,23.66876602172852,0.4134922325611114,-79.7827637016068,40.45899308590816,265.67856811618805,0.0239030160009861,0.0156077640131115,-0.6713921427726746,0.7405522465705872,0.0115021529754714,0.0034462673891612,0.0025510797183392,0.0034159300848841,-0.0018097414867952,-0.0075970217585563,0.1400864871125668,-0.5476020515710116,-9.799639318585395,14930.0
16.5,3.299999952316284,195.0,23.66501045227051,0.4214440286159515,-79.78276365150674,40.458993081552826,265.67295586204534,0.0238889511674642,0.0155808767303824,-0.6713513135910034,0.7405903339385986,0.0098903207883173,0.0040284269144874,0.0015382984080308,0.0050367917865514,-0.0019773554522544,-0.0011468412121757,0.1434332232177257,-0.5214946722239256,-9.800483071804049,14930.0
16.7,3.0999999046325684,193.0,23.10659599304199,6.170576572418213,-79.78276364671557,40.45899307303967,265.67309640979767,0.0239087920635938,0.0156576689332723,-0.6714470982551575,0.7405012845993042,0.0135087486626712,0.0055212022000762,0.0042055511867264,0.0142008252441883,-0.0172641538083553,-0.0006288416916504,0.1682750092819333,-0.5233191862329841,-9.832898865938189,14930.0
16.8,3.0999999046325684,192.0,23.623693466186523,0.7236114144325256,-79.78276362195156,40.45899305828176,265.6681696090698,0.023937489837408,0.0158876813948154,-0.6714449524879456,0.7404974102973938,0.0109926525581454,-0.0030806622504017,0.0007293261726192,-0.004837033804506,0.006006957963109,0.0033348130527883,0.1135376064386218,-0.4945460978150368,-9.774410921931269,14930.0
17.0,3.2000000476837163,194.0,23.666261672973643,0.2306014448404312,-79.78276362361561,40.45899304839019,265.6681489858628,0.0239089950919151,0.0158820077776908,-0.6714285016059875,0.7405133247375488,0.0113786936396099,-0.0032976659201384,0.0005739944638804,0.0085884882137179,0.0027220263145864,0.0078585566952824,0.1555206605046987,-0.5583062569051981,-9.80110872387886,14930.0
17.1,3.299999952316284,196.0,23.390811920166016,3.339745044708252,-79.78276357254721,40.45899303261563,265.66598593330383,0.0239366292953491,0.0159092266112566,-0.6715134978294373,0.7404347658157349,0.0145484562559792,-0.0012961575445533,0.0039002276068523,-0.0034218889195472,-0.0171938724815845,-0.0039662006311118,0.1439731039479375,-0.5406254827603698,-9.791761364936828,14930.0
17.3,3.5,197.0,23.65749740600586,0.2385532110929489,-79.78276357249099,40.4589930204106,265.66631161308294,0.0239939112216234,0.0158897005021572,-0.671514630317688,0.7404322624206543,0.0153787454115162,-0.0020787342884823,0.0034437131420792,0.0178159475326538,-0.0019646312575787,0.0183444060385227,0.1352456595003605,-0.6026461682841182,-9.78672632753849,14930.0
17.4,3.5,197.0,23.6612548828125,0.2385532110929489,-79.78276352677311,40.45899302530484,265.66521870231634,0.023899145424366,0.0159265324473381,-0.6714134216308594,0.7405262589454651,0.0104266178413163,-0.0001434578863514,0.0059128414040808,0.0065771187655627,0.0061309216544032,-0.0171143766492605,0.1334073862619698,-0.5552917614206672,-9.793548858761788,14930.0
17.6,3.400000095367432,197.0,23.53104019165039,3.053481101989746,-79.782763469643,40.458993039813706,265.66364084815984,0.0239013023674488,0.0159186013042926,-0.6714854240417479,0.7404611110687256,0.0097643433031753,0.0001406611799564,0.0072648810875794,0.001236489159055,-0.0003464361070655,0.005029815249145,0.121799100888893,-0.5694111792370677,-9.79675079405308,14930.0
17.7,3.400000095367432,197.0,23.43964195251465,4.365523815155028,-79.78276346495231,40.45899302249218,265.66510819530487,0.0239279679954052,0.0158872697502374,-0.6715028285980225,0.7404451370239258,0.0149783474639286,0.0016807746258748,0.0078869012848177,0.0344126261770725,-0.0127232801169157,0.0011591428192332,0.154507411122322,-0.5050432386249304,-9.793749418258669,14930.0
17.9,3.2000000476837163,195.0,23.310680389404297,6.432985305786133,-79.78276339960244,40.458993039341344,265.6637297782898,0.0238991435617208,0.0159375425428152,-0.6715324521064758,0.7404180765151978,0.007776948754758,0.0032603532376359,0.0085392610551624,0.0010179191594943,0.0266633294522762,-0.0070159710012376,0.1366277037374675,-0.4736493550613522,-9.789328923225405,14930.0
18.0,3.2000000476837163,194.0,23.234304428100582,7.45876407623291,-79.7827633714548,40.45899304516206,265.6619508180618,0.0238892175257206,0.0161065254360437,-0.6716508865356445,0.7403073906898499,0.0110798055246622,-0.0024003242399652,0.0051607885514242,0.0272865109145641,0.0197165478020906,0.0178196523338556,0.1198147112131118,-0.6160339166969061,-9.772712305784228,14930.0
18.2,3.2000000476837163,198.0,23.07779884338379,10.05899429321289,-79.78276337055321,40.458993035534576,265.662463894844,0.023951506242156,0.016272785142064,-0.6716871857643127,0.7402687668800354,0.015419519802159,-0.0021030806696117,0.00396402582139,0.0892209410667419,0.0703374594449997,-0.0161129664629697,0.1786227720044553,-0.5179066379740834,-9.851010031700136,14930.0
18.31,3.0999999046325684,199.0,22.96887016296387,11.045014381408691,-79.78276332391758,40.45899301512449,265.6615472946167,0.0243824869394302,0.0167571939527988,-0.6717144250869751,0.7402191758155823,0.0187392064364415,0.0023731172594173,0.0092500951263827,-0.0125265289098024,-0.0735447630286216,0.0943630784749984,0.1652111779153347,-0.5670128706470132,-9.837916946411132,14930.0
18.5,3.0999999046325684,200.0,22.80109596252441,14.424517631530762,-79.78276332416985,40.45899299839128,265.66234623527527,0.0248770918697118,0.0167784243822097,-0.6717625856399536,0.7401585578918457,0.0064332693001695,-0.0089905037840292,0.0055868738514796,-0.026498720049858,-0.0903004929423332,-0.0123835885897278,0.0271902471408248,-0.3799257606267929,-9.734826441407204,14930.0
18.6,3.0999999046325684,201.0,22.704687118530277,15.816078186035154,-79.78276329721685,40.45899307287328,265.6624956045151,0.0262578707188367,0.0169437043368816,-0.6718233227729797,0.7400519847869873,0.0125496120971696,-0.0016478157076374,0.0120858047497338,0.0789274796843528,0.0114473914727568,0.0255449432879686,0.1405595634039491,-0.8170795364677906,-9.804852696061133,14930.0
18.8,3.2000000476837163,202.0,22.49559593200684,18.941125869750977,-79.7827632918417,40.45899306265428,265.6641292486191,0.0276875793933868,0.0172292664647102,-0.6718437671661377,0.7399746775627136,0.0106888984764486,0.0016801616857384,0.0185991496995642,0.0351190604269504,0.0104034803807735,-0.0297169517725706,0.1316848148033023,-0.4246933227404952,-9.802920191287996,14930.0
18.91,3.2000000476837163,203.0,22.391674041748047,20.610998153686523,-79.78276329484093,40.45899303711376,265.66096734142303,0.0300193652510643,0.0164774768054485,-0.6719512939453125,0.7398033142089844,0.0097197414674642,-0.0007750691683718,0.0149909549008474,-0.0331044867634773,0.0046327812597155,-0.0052232989110052,0.2149427337571978,-0.7224093874543905,-9.797976370453837,14930.0
19.1,3.299999952316284,204.0,22.14251708984375,24.276765823364247,-79.782763237292,40.458993053698826,265.66084968185424,0.0285133272409439,0.014640069566667,-0.6721715331077576,0.7397013902664185,-0.0056444685227213,0.0054796407032436,0.036293622991319,-0.0943945571780204,-0.0094926618039608,0.0343610495328903,0.3027401568554342,-0.8075171461701394,-9.961981998682024,14930.0
19.2,3.299999952316284,203.0,22.064889907836918,25.52519416809082,-79.78276322592191,40.458993059867375,265.66826414203643,0.0225673392415046,0.0062737949192523,-0.6711386442184448,0.7409617900848389,-0.0082211572005101,0.0083897621271096,0.0688522519200197,-0.196666106581688,0.0683115273714065,-0.0818223804235458,0.3119746097177267,-0.774467513859272,-9.838170715570447,14930.0
19.4,3.299999952316284,203.0,21.832008361816406,28.92855262756348,-79.78276316582631,40.45899303710087,265.66965459918976,0.0132408533245325,0.0002717638853937,-0.6709142327308655,0.7414167523384094,-0.0129677261401748,0.0048175618050477,0.1308449237857147,-0.1979686319828032,-0.1563314646482467,-0.0275606866925954,0.1854277250356972,-0.6212003702670336,-10.530610857009886,14930.0
19.5,3.400000095367432,203.0,22.107460021972656,23.306650161743164,-79.78276303577232,40.45899299009281,265.6940774831772,-0.0042986697517335,-0.0072580431587994,-0.6716995239257812,0.7407757043838501,-0.0226700538064285,0.0166480156335251,0.2897896389833406,0.1437248289585113,-0.0937798917293548,-0.0140010742470622,0.0835689634177833,-0.0254011087864637,-10.854485793113708,14930.0
19.7,3.299999952316284,204.0,22.07991409301757,24.08592414855957,-79.78276300592692,40.45899304323184,265.72521077728265,-0.0048564332537353,-7.509233546443284e-05,-0.6729025840759277,0.7397152185440063,-0.0478546839022985,0.0233045042691378,0.3299450681001534,0.3519574403762817,0.1355407387018203,0.1044834852218628,0.1175739028584212,-0.1874301040358841,-10.33469989657402,14930.0
19.8,3.299999952316284,201.0,22.052370071411133,24.39604187011719,-79.78276311324143,40.45899359333806,265.7640846881866,-0.000768705504015,0.0069673112593591,-0.6714413166046143,0.7410246729850769,-0.1308396860140347,0.0611529956881623,0.3166069728040008,0.1980793923139572,0.1956720799207687,-0.0163385048508644,-0.0479183388361707,-0.2518547260947525,-9.973613280057908,14930.0
20.0,3.5,201.0,22.05362129211425,24.45965576171875,-79.78276302155552,40.45899372108254,265.7958003196716,0.0088388156145811,0.0099950553849339,-0.6699987649917603,0.7422422766685486,-0.133347948926698,0.0902220809549289,0.3208314361100218,0.1680317819118499,0.1825851947069168,-0.0752166435122489,0.1088824096508324,-0.1382567471545189,-9.890472890138629,14930.0
20.1,3.5,201.0,22.01605987548828,23.95869445800781,-79.78276258361889,40.45899451028696,265.8228862199784,0.019953791052103,0.006647169124335,-0.670152485370636,0.7419254779815674,-0.1239095765642732,0.1380428914417849,0.2439281791777445,0.0988404005765914,0.1282827705144882,-0.0072639295831322,0.2385186341777444,-0.394234920591116,-9.877092121839524,14930.0
20.3,3.5,198.0,22.071149826049805,23.473636627197266,-79.78276242264293,40.45899463621394,265.8469862852096,0.0181419178843498,0.0041764467023313,-0.6709425449371338,0.7412756681442261,-0.1220100987224496,0.1516835219838934,0.223206406175438,0.0471319258213043,0.0547522976994514,0.034893088042736,0.3183170114457607,-0.2594682942330837,-9.677472272515296,14930.0
20.41,3.400000095367432,198.0,22.014806747436523,24.03026008605957,-79.78276224983729,40.4589951298768,265.892558804512,0.0182572454214096,0.0056046918034553,-0.6721137166023254,0.7402015924453735,-0.1510788327741514,0.1487416686265578,0.1907817148977866,-0.0519403479993343,0.0336112640798091,0.0788782909512519,0.1300173350796103,-0.2980907798744738,-9.684098337292673,14930.0
20.61,3.299999952316284,197.0,22.01981544494629,24.24495887756348,-79.78276221016569,40.45899553300289,265.9314333114624,0.0163769740611314,0.0010044494410976,-0.6731201410293579,0.7393511533737183,-0.1904080475794064,0.1286412704352992,0.1814094848291609,-0.0825037062168121,0.0451673194766044,0.0959118381142616,0.0556574530899524,-0.5025050354003906,-9.559385413527488,14930.0
20.7,3.299999952316284,196.0,21.872074127197266,26.40784072875977,-79.78276208187769,40.45899571594329,265.9488176021576,0.0163098145276308,-0.0059480005875229,-0.6741195321083069,0.7384182810783386,-0.1960500752959615,0.1356993030156244,0.1517424163734703,-0.034959677606821,0.0861753225326538,-0.0201234798878431,0.2447559870220721,-0.1643351553753018,-9.535486088991163,14930.0
20.9,3.2000000476837163,197.0,21.869569778442383,25.54109764099121,-79.78276168160006,40.45899604827175,266.0009999189377,0.0226593036204576,0.0033654773142188,-0.6742435097694397,0.7381538152694702,-0.1869585849365077,0.1637207919506926,0.1679519568251216,0.1399807631969452,-0.2110528945922852,0.0295849684625864,0.2747387547232211,-0.4043289324268699,-9.808256360292436,14931.0
21.0,3.0999999046325684,197.0,21.90713119506836,24.507368087768555,-79.78276152534502,40.45899623073228,266.0193718585968,0.022211980074644,0.0066541316919028,-0.6733738780021667,0.7389384508132935,-0.1746470151791392,0.1558057218643485,0.1707193826349533,0.2147309631109237,-0.051094502210617,0.0044087627902626,0.4106270780414343,-0.4185410651564598,-9.849543550014497,14931.0
21.2,3.0,198.0,21.799455642700195,23.083999633789062,-79.78276130909694,40.458996622080605,266.06558703517914,0.0205821953713893,0.0074999243952333,-0.670946478843689,0.7411821484565735,-0.1656130314074796,0.1215049656309779,0.1646069927650981,0.1076200753450393,0.0278639886528253,0.0020655642729252,0.2858545492216945,-0.3940167829021812,-9.677845324873925,14931.0
21.3,3.0,199.0,22.28900718688965,20.444011688232425,-79.78276066202804,40.45899712590448,266.1308503065109,0.022760309278965,0.0061784069985151,-0.6704932451248169,0.7415407299995422,-0.1712173247420487,0.1435601564391935,0.0522132147882866,-0.0317923501133918,0.0601442493498325,-0.0018413799116387,0.2898693936690688,-0.3608210432901979,-9.46032831788063,14931.0
21.5,3.0,199.0,21.589111328125,30.81312370300293,-79.78276051355216,40.45899728448524,266.1339499864578,0.0232581216841936,0.0026877541095018,-0.6712403297424316,0.7408699989318848,-0.1636848740068035,0.1444015565084953,0.0098343739144325,-0.0984162762761116,0.0925644785165786,-0.0043455795384943,0.2339038288593292,-0.2409214012697339,-9.320536009669306,14931.0
21.6,2.900000095367432,202.0,21.47892951965332,33.90636444091797,-79.78276052405086,40.45899750003326,266.16363333797455,0.0224083103239536,-1.4278739399742332e-05,-0.6727621555328369,0.7395194768905641,-0.1613403926665227,0.1431157250745628,0.0895539948606167,-0.1782090663909912,-0.1378659754991531,0.1277783513069152,0.2418007128685713,-0.2892486020922661,-10.006522579193115,14931.0
21.8,2.799999952316284,203.0,21.271089553833008,35.56828308105469,-79.7827602422189,40.45899776870258,266.2077844057083,0.0210937596857547,-0.0002364848915021,-0.6773378252983093,0.7353696227073669,-0.1409799932079612,0.1404243791862725,0.3703553742166788,-0.0292940568178892,-0.1407684534788131,-0.1023595109581947,0.2530115063488483,-0.0758724927250295,-11.252411037683489,14931.0
21.9,2.799999952316284,203.0,21.23978805541992,35.70346450805664,-79.78276016710606,40.4589980660289,266.24813710784906,0.0238237474113702,0.0009453949169255,-0.679766058921814,0.7330414652824402,-0.1529856789622282,0.1406967426394032,0.5333203119830011,-0.0239925682544708,0.0466873347759246,-0.0418727733194828,0.2695645535923541,-0.207789706941694,-11.540420322418216,14931.0
22.1,2.799999952316284,204.0,21.015670776367188,38.43092346191406,-79.78275979929293,40.45899849492633,266.3890749130249,0.0240555964410305,-0.0038640741258859,-0.681645929813385,0.7312764525413513,-0.1614393795375975,0.1365548268393381,0.8842464570915317,-0.0135916145518422,-0.0488927513360977,-0.0175529215484857,0.3804605981335044,-0.2308470141515136,-11.66675643324852,14931.0
22.2,2.799999952316284,205.0,20.84288787841797,40.58585357666016,-79.78275958900257,40.45899874597246,266.607446363926,0.0162182785570621,-0.0024799248203635,-0.6816434860229492,0.7315005660057068,-0.1686802654698228,0.1476549976110648,1.30080567962346,-0.1017447933554649,-0.1085486114025116,0.0344980657100677,0.4661634572222829,-0.2527877955324948,-11.760973788499832,14931.0
22.4,2.799999952316284,204.0,20.797813415527344,40.6812744140625,-79.78275944503116,40.45899903575396,266.74165873861307,0.0133230946958065,0.0003277125651948,-0.6821117997169495,0.7311264276504517,-0.1582894656467679,0.1358188058324932,1.5089208620843326,0.0623261295258998,-0.0447187684476375,0.0016363002359867,0.2925061772949994,-0.2257222950831056,-12.003347893953324,14931.0
22.5,2.799999952316284,205.0,20.826610565185547,40.71308135986328,-79.78275934995249,40.45899916079475,266.90420996284485,0.0158435478806495,0.003745587542653,-0.6823511123657227,0.7308433055877686,-0.1624883499561032,0.1252590318879835,1.7316253621698476,0.1443872302770614,-0.019518181681633,-0.0229391511529684,0.3180113847926259,-0.1636263083852827,-12.080936937332153,14931.0
22.7,2.900000095367432,203.0,20.76901626586914,41.96150970458984,-79.78275907204596,40.45899963113285,267.2721263531446,0.0211080648005008,0.0076288408599793,-0.682438850402832,0.7305980324745178,-0.1950824517581865,0.1475771930267278,2.150265022745647,0.0334955155849456,-0.06085667014122,0.01265399903059,0.4061593667417765,-0.2092145089432597,-12.041477587223053,14932.0
22.8,2.900000095367432,204.0,20.7702693939209,41.03115463256836,-79.78275868814323,40.459000039238006,267.7157111678124,0.0174262709915637,0.0109239062294364,-0.6857665181159973,0.7275309562683105,-0.1878328540118378,0.1876443572086997,2.532315681115191,-0.0180681943893432,-0.0976849943399429,0.0532888025045394,0.4103991828113793,-0.23296162314713,-12.01515108346939,14932.0
23.0,3.0,203.0,20.304506301879886,38.09695053100586,-79.78275851953288,40.459000105830064,267.97733681535715,0.016153234988451,0.0145599571987986,-0.6894673109054565,0.723990261554718,-0.161792254607299,0.1813219114056432,2.6816255359340526,0.0024672821164131,0.0429323352873325,0.1178774312138557,0.2135015778243542,-0.1567942388914525,-11.3983715736866,14932.0
23.1,2.900000095367432,202.0,20.2919864654541,38.64562225341797,-79.78275813840733,40.45900038448328,268.1990731272697,0.0189279280602932,0.0132351145148277,-0.6930235624313354,0.7205448746681213,-0.1483326792296783,0.1719941160748719,2.7537215338947454,0.0258583072572946,0.1334372758865356,0.1393191069364547,0.1032057591062039,-0.2397635612078011,-11.097600156068802,14933.0
23.3,2.900000095367432,200.0,20.293237686157227,39.05911254882813,-79.78275778517009,40.45900038465504,268.7716475639343,0.0332034416496753,0.0007538379868492,-0.6971712112426758,0.7161350250244141,-0.0945171388071884,0.2074925843369632,2.9562366841249017,-0.0661284402012825,0.2240352779626846,-0.002622234635055,0.1199927223846316,-0.0119733480596914,-10.810393109321597,14933.0
23.4,3.0,205.0,20.32829475402832,37.23020553588867,-79.7827573007637,40.45900057377579,269.01515268421167,0.0408152490854263,-0.005331540480256,-0.6966994404792786,0.7161812782287598,-0.0653328570015053,0.2439220674825622,2.9994255965488423,-0.0089291641488671,0.1479708701372146,-0.0094212014228105,0.2578546819835901,-0.1251919569075107,-10.779543199539184,14934.0
23.6,3.0,207.0,20.427207946777344,37.48466110229492,-79.78275683667168,40.45900057970708,269.591861120224,0.0429584383964538,-0.0093707060441374,-0.6890591382980347,0.7233700752258301,0.0030914727035444,0.2687011044250508,3.092912019772177,0.0852472707629203,-0.0814810916781425,-0.1624939292669296,0.3608132591843605,-0.0822561812773347,-10.445187714099882,14934.0
23.7,3.0,208.0,20.412181854248047,36.450931549072266,-79.78275682254268,40.45900043789175,269.9045115623474,0.03877405077219,-0.0060406662523746,-0.6831860542297363,0.7291893362998962,0.0221989103230869,0.220326764471905,3.150322111619305,-0.1103213354945182,-0.1211767494678497,-0.2036011070013046,0.2201772708445787,-0.1812889378890395,-10.320956600904465,14934.0
23.9,3.0999999046325684,212.0,20.70265769958496,31.512880325317383,-79.78275668497447,40.45900027511667,270.5166686687469,0.0155740594491362,-0.0025584658142179,-0.6740015745162964,0.7385613322257996,0.0979305248199207,0.0899754383225348,3.228905424293403,-0.0687857270240783,-0.1686046868562698,-0.0205162912607193,0.1504659435711801,-0.2139079593122004,-10.317400324344636,14935.0
24.0,3.0999999046325684,209.0,20.81283950805664,30.272403717041016,-79.78275673721222,40.45900009058153,270.8399344596864,0.0079170959070324,-0.0022406296338886,-0.6708763241767883,0.7415236234664917,0.1496370114404358,0.0198331898460235,3.2390188642663635,-0.0479266047477722,-0.0687224492430687,-0.0465322621166706,0.157591561563313,-0.0929220233950764,-9.990266150236131,14935.0
24.2,3.2000000476837163,209.0,20.671358108520508,32.2126350402832,-79.78275661621146,40.45899989775171,271.46338473892206,0.0008124924497678,-0.007428478449583,-0.668103039264679,0.7440313100814819,0.1765261700785254,-0.0121123119669756,3.1278583394939887,0.081728808581829,0.0716435089707374,0.1194544583559036,0.3241006020829082,-0.2682411094196141,-9.400952181816102,14936.0
24.31,3.2000000476837163,209.0,20.52737045288086,34.669734954833984,-79.78275663173184,40.458999760765685,271.7737675819397,0.0001827008818509,-0.010661793872714,-0.6677408814430237,0.7443174719810486,0.1545694778943623,0.0165151998071479,3.082847485034052,-0.1937792301177978,-0.0283444952219724,0.0123766399919986,0.1883518444932996,-0.0356402868870645,-9.381274546980858,14936.0
24.5,3.2000000476837163,206.0,21.16090965270996,32.38757705688477,-79.78275654117873,40.458999439095294,272.35469066238403,0.0075603262521326,-0.0120717426761984,-0.669730544090271,0.7424677014350891,0.1405194602958413,0.058620529858394,3.0656092157475903,0.162304475903511,-0.0513747707009315,0.2126228064298629,0.352113333195448,-0.3822345702722669,-10.029229656457902,14937.0
24.6,3.2000000476837163,209.0,21.271089553833008,30.12927055358887,-79.78275611593753,40.45899946906415,272.86454593276983,0.0171836335211992,-0.0032561325933784,-0.673943817615509,0.7385755777359009,0.0423848457219564,0.1202286733126588,3.001802619496397,0.0900730565190315,-0.0412992797791957,0.1187873631715774,0.3534828241914511,-0.2670431793853641,-10.025131927728651,14937.0
24.8,3.400000095367432,210.0,21.262325286865234,30.224693298339844,-79.78275608909486,40.45899942204967,273.16360389328,0.0186217203736305,-0.0011430933373048,-0.6754742860794067,0.7371475696563721,-0.0009485997027302,0.1078410786663263,2.973977337420993,0.0372991859912872,0.1262329816818237,0.166009172797203,0.2367477683722973,-0.3815701438486576,-9.553380323052409,14938.0
24.9,3.400000095367432,212.0,21.29112243652344,30.96420669555664,-79.78275619252187,40.458999173275146,273.5732222709656,0.0167531073093414,-0.0032144482247531,-0.67708420753479,0.7357078194618225,0.0059203147434136,0.0941737123998434,2.9594634909794526,0.0248482469469308,0.0354570671916008,0.1269445419311523,0.363079895786941,-0.3436767877265811,-9.479413045048712,14938.0
25.1,3.400000095367432,214.0,21.21099090576172,31.306133270263672,-79.78275581605821,40.458998980160295,274.270658126831,0.0139480866491794,-0.0101371007040143,-0.6797413825988771,0.7332492470741272,0.0496562600975043,0.1240160874285095,2.8989013661527347,-0.1808416992425918,0.06960429251194,-0.007034299429506,0.1973106376826763,-0.0891398889943957,-9.2446929448843,14939.0
25.2,3.5,214.0,21.334943771362305,29.461322784423828,-79.78275577256376,40.45899891039058,274.55863772964483,0.0112230880185961,-0.0134402140974998,-0.6805554628372192,0.7324873208999634,0.0630262768818361,0.1240644549127071,2.860314527551308,-0.04690458253026,0.0209335852414369,-0.0004021621134597,0.3147196947410703,-0.1203671543207019,-9.42966785788536,14939.0
25.3,3.5999999046325684,217.0,21.304895401000977,29.69192314147949,-79.78275573103133,40.45899885746359,274.8430806312561,0.0090274652466177,-0.0148790869861841,-0.6811806559562683,0.7319085597991943,0.070602724672436,0.1251078502409433,2.820343937931385,0.0352019146084785,-0.0490124523639678,0.0005670419195666,0.3269181194901466,-0.1713057490624487,-9.436669313907624,14939.0
25.5,3.5999999046325684,218.0,21.1846981048584,31.74348068237305,-79.78275576672833,40.4589988360331,275.53097116088867,0.0097329625859856,-0.0117244226858019,-0.6816909313201904,0.731481671333313,0.0531137918608259,0.1094539954153869,2.8023869774459795,0.3468649685382843,0.0409964732825756,0.0819544196128845,0.4058900659158826,-0.3679625035822392,-9.625136184096338,14940.0
25.7,3.700000047683716,222.0,21.173429489135746,30.87673759460449,-79.78275575172093,40.45899882948882,276.2276445541382,0.0188629236072301,-0.0083159627392888,-0.6821207404136658,0.7309489846229553,-0.0576111436599335,0.1446123994920312,2.849448278956716,-0.0683056563138961,0.024229422211647,-0.036295112222433,0.4207044253125787,-0.1995464667677879,-9.626865790486336,14941.0
25.8,3.700000047683716,225.0,21.07827377319336,32.96010208129883,-79.78275570250352,40.45899886492413,276.5126053009033,0.0205308850854635,-0.0079896263778209,-0.6820214986801147,0.7310002446174622,-0.0763082326177711,0.1633852294177419,2.8355856918192544,0.1139777451753616,0.0043947207741439,0.0247198473662138,0.5936175922304392,-0.3939462143182755,-9.662674723863605,14941.0
26.0,3.900000095367432,228.0,21.28360939025879,29.77144241333008,-79.78275581014688,40.45899892294077,277.19210969543457,0.0270290672779083,-0.0035787522792816,-0.6800255179405212,0.7326813340187073,-0.1046828683320862,0.168121290654731,2.801719061577173,-0.1036746576428413,-0.0646526589989662,-0.093147724866867,0.3519126640632749,0.0612007231637835,-9.142643828988076,14942.0
26.1,4.0,232.0,21.09830665588379,33.11913681030273,-79.782756000619,40.45899897897351,277.5894209060669,0.0271912086755037,-0.0001437200262444,-0.6789833903312683,0.7336500287055969,-0.0990279849716391,0.1668385200840677,2.7757350839531583,0.0943471491336822,-0.0194674152880907,0.0831580534577369,0.6016893810778856,-0.2293927019834518,-8.95364953994751,14942.0
26.3,4.099999904632568,235.0,21.010662078857425,33.826847076416016,-79.78275587353828,40.45899898959025,278.13646089172363,0.0193736478686332,-0.0013594779884442,-0.6781826615333557,0.7346367239952087,-0.0759143584480925,0.1474648506695884,2.703587030348616,-0.1474842131137848,0.1316410154104232,-0.1362998634576797,0.2931805988028645,0.0872549202572554,-9.445029078125954,14943.0
26.41,4.199999809265137,235.0,21.02443504333496,33.747329711914055,-79.78275576208333,40.45899915010445,278.7973428878784,0.0213193073868751,-0.016037268564105,-0.678487241268158,0.7341277003288269,-0.0130835608106865,0.1927042607840133,2.733074647471683,-0.0303361341357231,0.1225538104772567,0.0497390367090702,0.3969430585205555,-0.1304159507341682,-9.578429210186004,14943.0
26.6,4.300000190734863,239.0,21.019428253173828,34.84467315673828,-79.78275590446238,40.45899916639914,279.1960016403198,0.0239902976900339,-0.0217503979802131,-0.678686797618866,0.7337136268615723,0.011085801378513,0.2239168101042569,2.8274609178492787,0.0515712536871433,0.0302713979035615,0.0123045966029167,0.5825816670432687,-0.0470259075472131,-9.869972552061082,14944.0
26.7,4.300000190734863,240.0,21.083282470703125,33.40540313720703,-79.78275581325012,40.45899915116565,279.4796959075928,0.0277391746640205,-0.0217549968510866,-0.6783859729766846,0.7338595986366272,0.026419834718152,0.2567587578094629,2.8273125070997835,0.1148233041167259,0.0073584900237619,-0.0315235219895839,0.6455306345969439,-0.0290396666340529,-9.830024374723433,14944.0
26.9,4.300000190734863,248.0,20.89297103881836,36.196475982666016,-79.78275598026809,40.458999284670725,280.1477266464233,0.0267218574881553,-0.0186833422631025,-0.6789942979812622,0.7334191799163818,-0.0384798679177238,0.2413129280754358,2.92628623501847,0.0219911765307188,0.0088437208905816,0.0746658369898796,0.5761439557000995,-0.2425423956289887,-10.062881551980972,14945.0
27.0,4.300000190734863,249.0,20.867929458618164,36.00563049316406,-79.78275596326921,40.45899968125147,280.7588936004638,0.0214430298656225,-0.0162079371511936,-0.6811097264289856,0.7316879034042358,-0.0733682429114844,0.2101076628256273,3.036184152668908,0.0156362503767013,0.0238493792712688,0.0551174543797969,0.5559801979735494,-0.2266209938563406,-10.236299443244937,14945.0
27.2,4.400000095367432,251.0,21.06199645996093,33.548534393310554,-79.78275593169155,40.45899973109204,281.06543981170654,0.0218971874564886,-0.0127963963896036,-0.6815963983535767,0.731288731098175,-0.0706820974935278,0.1957068458709974,3.080362796916863,0.0744006335735321,0.0232350770384073,0.0285709276795387,0.4919156547635794,-0.1097889290750026,-10.231798256635669,14946.0
27.3,4.400000095367432,252.0,20.99689102172852,34.136966705322266,-79.78275590411805,40.45899977779307,281.37563954925537,0.0257306415587663,-0.0109185734763741,-0.6815272569656372,0.7312588095664978,-0.0805223442360157,0.1764660806376964,3.107320024442447,0.093947596848011,0.085948146879673,0.0177637301385402,0.5623111976310611,-0.1160176664125174,-10.0687042093277,14946.0
27.5,4.5,253.0,21.039459228515625,33.53263092041016,-79.78275615165703,40.45900050279619,281.9864851150512,0.0338751040399074,-0.0095798382535576,-0.6804913282394409,0.7319099903106691,-0.1684062641650287,0.198034587681199,3.1344104215588784,-0.0175803303718566,-0.0643199756741523,0.059496022760868,0.5606475185975432,-0.195573978088796,-10.119658015966415,14946.0
27.6,4.400000095367432,254.0,21.014419555664062,26.69410514831543,-79.78275638190479,40.4590013288326,282.2766605529785,0.0316530168056488,-0.0104446979239583,-0.6803988218307495,0.7320836782455444,-0.2185594194301174,0.1999232557600589,3.1309476529413227,0.0048807491548359,-0.0990215837955474,0.0181762184947729,0.5492944185063243,-0.2765689149498939,-10.050485454797744,14947.0
27.8,4.400000095367432,254.0,20.546152114868164,31.07553291320801,-79.78275638091394,40.45900153918469,282.90177880859375,0.0216685198247432,-0.0151548841968178,-0.6811236143112183,0.7316908836364746,-0.180158322787353,0.1757926002039475,3.099244774076624,-0.1682032644748687,0.1224006786942482,-0.0707961991429328,0.4179872972890735,0.0367282984033227,-9.619115890860556,14947.0
27.9,4.300000190734863,254.0,20.443483352661133,31.31408500671387,-79.78275644676344,40.45900142519115,283.1395403060913,0.0191369354724884,-0.0189794711768627,-0.6812921166419983,0.7315153479576111,-0.1064113827309346,0.1652605357464917,3.0051579625468885,0.1876125037670135,0.0315342061221599,0.1143052726984024,0.6107995623350144,-0.3660204239934683,-9.647977747321129,14948.0
28.0,4.300000190734863,255.0,20.47102928161621,31.40155601501465,-79.78275643818318,40.45900151986746,283.44013368225103,0.0207410883158445,-0.0194578282535076,-0.6810650229454039,0.7316704988479614,-0.1145419600580874,0.1787254815500913,2.993033116756456,-0.0987150743603706,0.0069801425561308,-0.0966538414359092,0.4078424877673388,0.1389307301212102,-9.592153794765473,14948.0
28.2,4.300000190734863,253.0,20.75023651123047,36.27599334716797,-79.78275648795858,40.459001845046174,284.03002130126947,0.0309286899864673,-0.0127442283555865,-0.6806175708770752,0.7318748831748962,-0.1499222247568896,0.1852830721134088,2.9282578907046783,-0.0496759451925754,-0.0463524274528026,-0.0718566104769706,0.4782154457643628,-0.1060146975517273,-9.59603634595871,14949.0
28.4,4.300000190734863,252.0,20.88670921325684,34.5822639465332,-79.78275653943318,40.459002007864726,284.64107476806635,0.0321928635239601,-0.0151498196646571,-0.6815393567085266,0.7309159636497498,-0.154252204474603,0.1973568847198022,3.0059325511990123,-0.0153499068692326,0.0477808825671672,0.0972082912921905,0.4893900595977903,-0.3142535620182753,-10.010525583028793,14949.0
28.5,4.400000095367432,251.0,20.846643447875977,33.53263092041016,-79.78275656227453,40.459002073398274,284.94363748168945,0.0302641801536083,-0.015193648636341,-0.6819458603858948,0.7306183576583862,-0.1310154063525557,0.1865751149875545,3.028600967229085,0.0438799485564231,0.0412951335310936,-0.0393564738333225,0.5509732637554408,-0.1700796427577734,-10.011712567806244,14949.0
28.7,4.300000190734863,252.0,20.82160377502441,35.504669189453125,-79.78275681656952,40.45900269691537,285.53351174926763,0.0268621239811182,-0.0127508165314793,-0.68174147605896,0.730988621711731,-0.1495710636652862,0.1410666996848383,3.023106789665849,0.0698898583650589,-0.1285018175840377,0.0490067228674888,0.5616526549682022,-0.2719897045567632,-9.76189788043499,14950.0
28.81,4.300000190734863,251.0,20.93929672241211,32.48299789428711,-79.78275687512335,40.459002784740896,285.8364387664795,0.0273530706763267,-0.0102587677538394,-0.6812632083892822,0.731455385684967,-0.1615667442859304,0.1287414154535652,3.031705349462806,-0.0712976455688476,-0.0336702316999435,-0.0215833112597465,0.5511187497898936,-0.0386163003835827,-9.81761424422264,14950.0
29.0,4.300000190734863,250.0,21.06074523925781,31.24251937866211,-79.7827572446989,40.45900341952694,286.4322010192871,0.0282203126698732,-0.0092512741684913,-0.6805027723312378,0.7321434617042542,-0.1934981729883918,0.1154116657007164,3.0326137621422244,0.0446277111768722,0.1638680547475814,0.0157219972461462,0.5356366018205881,-0.1977682188525796,-9.837011797428133,14951.0
29.1,4.400000095367432,250.0,21.009410858154297,32.944198608398445,-79.78275740630313,40.459003655884665,286.7306800994873,0.0275657698512077,-0.0097692441195249,-0.6800619959831238,0.7325711250305176,-0.1798262053836669,0.1114170997084867,3.015295940770337,0.0198298394680023,0.0078981993719935,0.0507012158632278,0.5431645630672575,-0.2682763388939202,-9.742977460026742,14951.0
29.3,4.5,248.0,21.01191520690918,30.90059280395508,-79.78275751241455,40.4590038334504,287.33054887390136,0.0281193759292364,-0.012403062544763,-0.6800990104675293,0.7324758172035217,-0.1687262878705732,0.1245093311603841,2.985503257535564,-0.0550810359418392,0.2051176130771637,0.0160358864814043,0.4257892736792565,-0.1893969063833356,-9.67065208017826,14952.0
29.4,4.5,248.0,20.870433807373047,36.16466903686523,-79.78275771941335,40.45900393043321,287.62628327941894,0.0293134320527315,-0.0145534817129373,-0.6802494525909424,0.7322497367858887,-0.1233569642650162,0.129445221255261,2.9773049926473942,0.0998140424489975,0.0557517446577549,0.058366484940052,0.6357513856887818,-0.3625558390840888,-9.71057043671608,14952.0
29.5,4.5,248.0,20.8917179107666,32.99190902709961,-79.78275777066166,40.45900399092972,287.9238086853028,0.0313349366188049,-0.0149927632883191,-0.6801772713661194,0.7322242259979248,-0.1301945556766524,0.1486098767593927,2.9671502194029835,-0.0372312143445014,-0.0739958062767982,-0.0870860964059829,0.6673935931921006,-0.0936508331447839,-9.729936999678612,14952.0
29.71,4.599999904632568,248.0,20.81909942626953,34.987804412841804,-79.78275784531071,40.459004236784494,288.8275943908692,0.0323876067996025,-0.0109783243387937,-0.6799102425575256,0.73249751329422,-0.1108336268587205,0.1598819098910176,2.966346532908215,0.0844091400504112,-0.077355645596981,0.0621983893215656,0.5837096314877271,-0.1292203961312771,-9.607164182066915,14953.0
29.9,4.599999904632568,251.0,21.02443504333496,31.592397689819336,-79.78275790820595,40.459004236118886,289.1423469696045,0.0319491699337959,-0.0101712821051478,-0.6788678169250488,0.7334945797920227,-0.0958752129746928,0.1735508603776703,2.9848457751478144,-0.0494726598262786,-0.1753708273172378,-0.1160901859402656,0.6299100903421639,-0.1242689647804945,-9.836665642261506,14954.0
30.0,4.599999904632568,253.0,21.109575271606445,29.85891151428223,-79.78275792195406,40.459004234486855,289.44147073364263,0.0314424969255924,-0.0092064710333943,-0.6774753332138062,0.7348155379295349,-0.0818281394654111,0.1767389857061354,2.985346906452319,-0.0963571891188621,0.0595532692968845,-0.0490772947669029,0.4831632500141859,-0.0201842640945687,-9.682591509819034,14954.0
30.2,4.699999809265137,253.0,20.964336395263672,32.85673141479492,-79.78275801670384,40.45900435148576,290.039592376709,0.0306163430213928,-0.0138779720291495,-0.6770409345626831,0.7351773977279663,-0.0718174503327066,0.1892900536641767,2.9503634433088863,-0.2532155215740204,0.0452962629497051,-0.0987371057271957,0.6020396658405662,0.2617056947574019,-9.459019126296043,14955.0
30.3,4.800000190734863,254.0,20.940547943115234,32.634078979492195,-79.78275801091058,40.4590043311272,290.3340126190185,0.0321263931691646,-0.018404645845294,-0.6776102185249329,0.7344886660575867,-0.0276253775165435,0.1964901819740281,2.9285750649782862,-0.0139903631061315,0.0103639541193842,0.0276445969939231,0.7336321677267552,-0.3267292909696698,-9.603868691325188,14955.0
30.5,4.800000190734863,254.0,20.97184944152832,31.592397689819336,-79.78275820328992,40.459004269103325,290.9390045318604,0.0341736748814582,-0.0213359706103801,-0.6805667281150818,0.7315777540206909,-0.0036302075687213,0.2231814625117739,2.9489073299842845,0.0963297486305236,-0.1040754541754722,0.1042559668421745,0.8066021300107241,-0.2378367757424712,-9.86117249250412,14955.0
30.6,4.800000190734863,254.0,20.87168502807617,33.96997833251953,-79.7827582244405,40.45900433394282,291.54210626220697,0.0332062020897865,-0.0173018481582403,-0.683814287185669,0.72869473695755,-0.0229297092252968,0.2151675701294872,2.98712790569838,0.017792273312807,-0.007204569876194,0.0298825297504663,0.7137492225319148,-0.0947519369423389,-9.849598513841627,14956.0
30.8,4.800000190734863,254.0,20.986873626708984,31.39360427856445,-79.78275824752923,40.45900430967391,291.841817489624,0.0311880391091108,-0.0145362820476293,-0.6844474077224731,0.7282497882843018,-0.0303288298466266,0.1921389762663324,2.98977833624236,0.0684220567345619,-0.0118106501176953,-0.0512682609260082,0.6706094156205654,-0.1516556326858699,-9.802199229598044,14956.0
30.9,4.800000190734863,254.0,20.779033660888672,35.56828308105469,-79.78275837088972,40.45900436673321,292.13796578979486,0.0307229850441217,-0.0129222823306918,-0.6840788722038269,0.7286462187767029,-0.0310860752238577,0.1707035002519192,2.980222954339791,0.0692941695451736,-0.1378246843814849,-0.137261614203453,0.648969601392746,-0.1697389510832727,-9.713400489091873,14957.0
31.1,4.800000190734863,253.0,20.835376739501957,34.248291015625,-79.78275855216881,40.45900441148025,292.73230897521967,0.0342827774584293,-0.0161620695143938,-0.68340003490448,0.7290596961975098,-0.0396716669349813,0.166158480101335,2.998170838626483,0.0417813658714294,0.0882892683148384,0.0217505134642124,0.7067886970192194,-0.0975002379342913,-9.84222517490387,14957.0
31.2,4.800000190734863,254.0,20.99563789367676,31.186857223510746,-79.78275862373852,40.45900434516102,293.3340393218993,0.036559872329235,-0.0151809649541974,-0.6833535432815552,0.7290136814117432,-0.0417749520303202,0.1845029647853544,3.0032885309881,-0.0259796511381864,-0.0637188926339149,0.0047864555381238,0.5950819177553058,-0.2305708611197769,-9.875772989988327,14958.0
31.4,4.800000190734863,253.0,20.78654670715332,34.00973892211914,-79.78275879446127,40.45900442053634,293.6233783874512,0.0360625460743904,-0.0130976056680083,-0.6832018494606018,0.7292210459709167,-0.0502722974205746,0.1688185985065458,2.9841360322168167,-0.0405452921986579,0.0410770289599895,-0.0336342118680477,0.5243712465092539,-0.1231572811771184,-9.695324991345409,14958.0
31.5,4.800000190734863,253.0,20.87418937683105,32.952152252197266,-79.7827588579173,40.459004382368605,293.92248307800287,0.0344452410936355,-0.013398764654994,-0.6830072999000549,0.7294759154319763,-0.0383859037334507,0.1436569085800676,2.9914923063711734,0.094916246831417,0.071865789592266,-0.0001068234923877,0.6323991769552231,-0.2990275220945477,-9.869365611076354,14958.0
31.7,4.800000190734863,250.0,20.93553924560547,33.03961944580078,-79.78275908112094,40.4590043528619,294.52338945007324,0.0276710223406553,-0.016037156805396,-0.6822945475578308,0.7303775548934937,-0.0211872109520341,0.1407665485018373,3.020800914333277,-0.1287252604961395,-0.1555993109941482,-0.1790253967046737,0.5797957611456513,0.0119157301448285,-9.882843443155288,14959.0
31.8,4.800000190734863,249.0,20.93804359436035,32.18082809448242,-79.78275915741155,40.45900430959446,294.8258491668701,0.027259973809123,-0.0150507958605885,-0.6813851594924927,0.7312624454498291,0.0018639728361038,0.1241913315840465,3.0280034098768227,0.0696510449051857,0.1121978908777237,-0.0467464961111545,0.5552123123779893,-0.0480515046045184,-9.85410905599594,14959.0
32.0,4.800000190734863,248.0,20.966840744018555,31.4810733795166,-79.78275945003875,40.45900433952925,295.42465364074707,0.0313623175024986,-0.0145880170166492,-0.6792595982551575,0.7330825924873352,-0.0224691043624526,0.1261298818349384,3.0287628321062545,-0.0675142109394073,-0.1309859454631805,-0.0766373947262764,0.7585562168061734,-0.1570433302782476,-9.837723988294602,14960.0
32.1,4.800000190734863,248.0,20.801570892333984,34.622024536132805,-79.78275962004332,40.45900436990296,295.72049676513666,0.033021479845047,-0.0132634099572896,-0.6788309216499329,0.7334319353103638,-0.0326575038057549,0.1402895060403119,3.0202325258038063,-0.0628584250807762,-0.0526257455348968,-0.086877666413784,0.6359756994992495,0.0163764430582523,-9.692159308791162,14960.0
32.3,4.699999809265137,248.0,20.960580825805664,30.701799392700195,-79.78275977140459,40.45900428179925,296.3255153808594,0.0307302251458168,-0.0122800432145595,-0.6793376803398132,0.7330792546272278,-0.0370819005148188,0.1348658265023528,3.0212652694143727,-0.0586030632257461,-0.093001902103424,0.0654061511158943,0.8072493436932564,-0.3161322358623147,-9.750764197111131,14961.0
32.4,4.699999809265137,249.0,20.96934509277344,31.322036743164062,-79.78276006898602,40.459004336656726,296.92210542297363,0.0236897189170122,-0.0139011554419994,-0.6797977089881897,0.7328851819038391,0.0042486751795116,0.1129195377722518,3.0043767641343795,0.1612130105495453,-0.0914465561509132,0.0964305326342582,0.5364567103609443,-0.0118277638102881,-9.649247762560844,14961.0
32.6,4.599999904632568,249.0,20.87168502807617,31.74348068237305,-79.78276025548072,40.45900447408491,297.22320901489263,0.0261861998587846,-0.0121239619329571,-0.6801987290382385,0.7324596047401428,-0.0284848051606868,0.1030760122005348,3.0104766820648177,-0.0918927565217018,0.0995236188173294,-0.1075208112597465,0.4554260323941708,0.0187925296963658,-9.703450282216073,14962.0
32.7,4.599999904632568,248.0,20.76651382446289,33.93021774291992,-79.78276031947927,40.45900444742481,297.5242363128661,0.0296058114618062,-0.0116217453032732,-0.680709958076477,0.7318623661994934,-0.0249076090785374,0.102289901878029,3.0073398890632896,0.1001416519284248,0.1046623364090919,0.1313256174325943,0.5858131673187018,-0.3634094229340553,-9.793085174560549,14962.0
32.9,4.699999809265137,247.0,20.86041641235352,33.278175354003906,-79.78276053649894,40.459004482130815,298.1309810791016,0.0304786209017038,-0.0157782677561044,-0.6809461116790771,0.7315288782119751,-0.0600771931524783,0.1407281058790047,3.0230181255673343,-0.0948926359415054,0.106474369764328,-0.0025141520891338,0.5338085794821382,-0.2060491735674441,-9.800222870707511,14963.0
33.0,4.699999809265137,248.0,20.8917179107666,33.32588577270508,-79.78276060103155,40.45900446370153,298.4335514221192,0.030930321663618,-0.0169074032455682,-0.680229902267456,0.7321507930755615,-0.0239912348049221,0.1369497058130217,3.0228360921846944,0.1956328451633453,-0.0171948913484811,0.073872685432434,0.7397796379029751,-0.4530174911767245,-9.904335469007492,14963.0
33.2,4.699999809265137,248.0,21.013166427612305,30.773365020751957,-79.78276079489359,40.45900452304747,299.0395179901123,0.0329272225499153,-0.0110204750671982,-0.6800139546394348,0.7323765158653259,-0.0237891871482179,0.1638835425403328,3.0296889646673035,0.2724702954292297,-0.0163264404982328,0.1272599697113037,0.7143089472502471,-0.2943899309076369,-9.72519023001194,14964.0
33.31,4.699999809265137,248.0,20.87669372558593,33.0634765625,-79.78276084452004,40.4590044989938,299.3424793395996,0.0312630087137222,-0.0058626700192689,-0.6803385615348816,0.7322074770927429,-0.061153339159369,0.1542496872982931,3.0179400982008766,-0.0121976658701896,-0.1737284958362579,0.070477619767189,0.7498771946132183,-0.2739289884455502,-9.687052350640297,14964.0
33.5,4.699999809265137,247.0,20.84789657592773,33.158897399902344,-79.78276122562028,40.45900474695593,300.2472911987305,0.0286505408585071,-0.0084438072517514,-0.6810560822486877,0.7316218614578247,-0.070916207533694,0.1225094073406817,3.0255650124077214,-0.1326261162757873,0.0759810432791709,-0.0800902619957923,0.7215922390669585,-0.4149255124479532,-9.806622648239136,14965.0
33.7,4.800000190734863,245.0,20.65758514404297,35.70346450805664,-79.78276125568425,40.45900472909079,300.5485950622558,0.0288097020238637,-0.0130590256303548,-0.6811531782150269,0.7314574122428894,-0.0501241079185394,0.1357277204115466,2.9879630310783654,0.1378452777862548,0.0904108211398124,0.2112983018159866,0.7336933442205191,-0.5716246061772109,-9.536266107559204,14965.0
33.8,4.800000190734863,245.0,20.7802848815918,34.311904907226555,-79.78276127611386,40.45900472033918,300.84756051635736,0.0275815743952989,-0.0182193797081708,-0.6816454529762268,0.7309355735778809,-0.0685383125540091,0.1681548549185854,2.985735628905272,-0.2816486656665802,-0.0475039556622505,-0.1480889022350311,0.6619265927374364,-0.152066527493298,-9.686034350395202,14965.0
34.0,4.800000190734863,244.0,20.7702693939209,35.305877685546875,-79.78276141436089,40.4590048932251,301.4595333251953,0.0261303428560495,-0.0209439545869827,-0.6830575466156006,0.7295965552330017,-0.0373491448372643,0.1831938825622544,3.014623336808105,0.205738753080368,-0.0506377592682838,0.0942936986684799,0.7197385986149312,-0.4896731013804674,-9.887183246612553,14966.0
34.11,4.900000095367432,243.0,20.882953643798828,32.33986282348633,-79.78276153447622,40.45900506123218,301.7609821472168,0.0292070861905813,-0.0155137460678815,-0.6836861968040466,0.7290263772010803,-0.0771907696462263,0.1786693144819214,3.030922960672488,0.0509185269474983,-0.0530110374093055,-0.1885309964418411,0.6768921757489443,-0.0117668454162776,-9.904024397134783,14966.0
34.2,4.900000095367432,245.0,20.87544059753418,34.39937210083008,-79.7827615657545,40.45900510768711,302.06493341064447,0.0331579521298408,-0.0090761268511414,-0.6838570833206177,0.7288057208061218,-0.1091276613045225,0.1681259191741026,3.0383308352257337,0.1360960453748703,0.0860517546534538,0.1244221106171608,0.4871504663676024,-0.3107712892815471,-9.825602710247038,14967.0
34.4,4.900000095367432,243.0,20.856660842895508,33.0078125,-79.78276168646433,40.45900529806509,302.6718212280273,0.038511786609888,-0.0044046202674508,-0.6834999918937683,0.728920578956604,-0.1759561074091755,0.1545363338096889,3.033680680247412,0.059329055249691,-0.0269252676516771,-0.0019631586037576,0.5679896845668555,-0.4944747617840767,-9.813004299402238,14967.0
34.6,4.900000095367432,242.0,20.72769927978516,34.136966705322266,-79.78276185106493,40.459005443844205,303.27663766479486,0.0386294834315776,-0.0052615287713706,-0.6829207539558411,0.7294514775276184,-0.1733413936378409,0.1624596244362712,3.025911029990902,-0.1600152552127838,0.0311034545302391,0.0618339106440544,0.5576559003442526,-0.2558892683498561,-9.74548474609852,14968.0
34.7,4.900000095367432,241.0,20.867929458618164,32.013843536376946,-79.78276189218417,40.45900545715217,303.5801044616698,0.0346228033304214,-0.0082134213298559,-0.6826731562614441,0.7298569679260254,-0.1430196889520763,0.1623074030052356,3.029619683577605,-0.075290746986866,0.0603355690836906,0.0370192602276802,0.4994945233315229,-0.3116390526294708,-9.767104825973512,14968.0
34.9,4.800000190734863,242.0,20.63629913330078,35.274070739746094,-79.78276199558026,40.4590056279112,304.18479501342773,0.0326963029801845,-0.0064427540637552,-0.6807488203048706,0.7317585349082947,-0.1055950325925323,0.139882463633952,3.013714199972392,-0.0345490723848342,-0.15313021838665,-0.1446771472692489,0.5512575115263463,-0.2060972120985388,-9.718420323729514,14969.0
35.0,4.900000095367432,241.0,20.767765045166016,32.69769287109375,-79.78276204220326,40.45900562825568,304.4864460144043,0.0338468663394451,-0.0083978353068232,-0.6802294850349426,0.7321692705154419,-0.1118799045006117,0.1361314953401901,3.0105707570695674,-0.0885037705302238,0.0714920833706855,-0.0238966140896081,0.489632426686585,-0.1482728357054293,-9.718556563854216,14969.0
35.2,4.800000190734863,240.0,20.65508079528809,34.407325744628906,-79.78276226931682,40.45900578031927,305.09017144775385,0.0329218544065952,-0.0111790485680103,-0.6792889833450317,0.7330468893051147,-0.0724481993678375,0.145586973933089,2.976775162643865,0.1293147206306457,0.0917967483401298,0.0352724902331829,0.6532762219011784,-0.2949705776944757,-9.64059095978737,14970.0
35.31,4.800000190734863,240.0,20.678869247436523,35.31382751464844,-79.78276231547531,40.459005775944746,305.38875161743164,0.031826201826334,-0.0100068487226963,-0.679460346698761,0.7329533696174622,-0.0811463393684658,0.1403010344265526,2.9856995937267947,0.0147412521764636,-0.0579916164278984,0.0046319114044308,0.6829555191099644,-0.2965302128344774,-9.888149206638335,14970.0
35.5,4.699999809265137,241.0,20.67010498046875,34.68563842773437,-79.7827623717228,40.45900588557771,305.99752008056635,0.0297604743391275,-0.0044065932743251,-0.6805722117424011,0.7320630550384521,-0.0885228457970346,0.1272672001620582,3.0310212037655853,-0.1187509447336196,-0.0241496879607439,-0.046394009143114,0.5371045453101397,-0.1009877548925578,-9.919004963636398,14970.0
35.6,4.599999904632568,240.0,20.666349411010746,36.80876159667969,-79.78276254151795,40.45900601353381,306.30321466064447,0.0265613906085491,-0.0064116059802472,-0.6813424825668335,0.7314546704292297,-0.0989868317739731,0.1123831787608907,3.050875783465811,-0.0729096606373786,0.0853032544255256,0.0484182313084602,0.4841204392164946,-0.2557060677744448,-9.976662018299104,14971.0
35.8,4.599999904632568,240.0,20.666349411010746,34.83672332763672,-79.78276261159856,40.45900599523885,306.9169689331055,0.0206182990223169,-0.012765715830028,-0.6822671890258789,0.7307007312774658,-0.0367656825997683,0.1216239520884459,3.09477506134498,-0.0206998009234666,0.0720465406775474,0.0472001656889915,0.4216163716837764,-0.0948088467959314,-10.01345620751381,14971.0
35.9,4.599999904632568,240.0,20.75900077819824,33.96997833251953,-79.7827627173987,40.45900621178446,307.22001611328125,0.0216671992093324,-0.0122101083397865,-0.6825305223464966,0.7304338216781616,-0.0392456677381839,0.1117029875359149,3.1034928337625654,0.1322474479675293,0.1535400450229644,-0.0097180716693401,0.4538412542268634,-0.1302002341579645,-10.030098552703857,14972.0
36.11,4.400000095367432,241.0,20.697650909423828,34.097206115722656,-79.78276287382381,40.45900633703357,307.83610498046875,0.0350325778126716,-0.0059902258217334,-0.6803610324859619,0.7320148348808289,-0.0876387623763679,0.1290601017932087,3.1052691468571134,0.0822610333561897,-0.0307899750769138,-0.1855958849191665,0.4922759894281626,-0.1556461746431887,-9.904011533260348,14972.0
36.2,4.400000095367432,240.0,20.37962913513184,30.200838088989247,-79.7827629615611,40.459006329796594,308.45455895996093,0.0362205170094966,-0.0033967040944844,-0.6760825514793396,0.7359272837638855,-0.1134537006943872,0.1447197335552752,3.0402219264150663,0.1147007569670677,0.1255426704883575,-0.0338335521519184,0.5400130600109697,-0.1018081466574222,-9.707184898853304,14973.0
36.4,4.300000190734863,243.0,20.111690521240234,34.256240844726555,-79.78276304174621,40.45900641976821,308.75144921875,0.0324587188661098,-0.0045877872034907,-0.6741586923599243,0.7378587126731873,-0.1087839957891865,0.1305698330781446,2.980693983443085,-0.2253433912992477,-0.1750410497188568,-0.0735675916075706,0.4213484230265021,-0.13557661190629,-9.313256226181984,14973.0
36.5,4.300000190734863,244.0,20.16552925109864,34.566360473632805,-79.78276308975003,40.45900637100192,309.0477520141601,0.029083902016282,-0.005324846599251,-0.6741570830345154,0.737995982170105,-0.042942091264552,0.1101588186018259,2.943393452222513,0.0230477787554264,-0.0127481501549482,0.1503641754388809,0.5407274435833097,-0.134570872541517,-9.422823107242584,14974.0
36.7,4.300000190734863,246.0,20.68638229370117,34.105159759521484,-79.78276313138998,40.45900647673773,309.6601291809082,0.0186485853046178,-0.0083405068144202,-0.6791344881057739,0.7337296009063721,-0.0170009105443658,0.1166105411426864,2.980731885481464,-0.1066945120692253,0.017320679500699,0.1184902489185333,0.4964340906590223,-0.1403369032591581,-9.890937159061432,14974.0
36.81,4.199999809265137,244.0,20.800317764282227,32.39552688598633,-79.78276314669252,40.45900642722025,309.9609867248535,0.0151344630867242,-0.0106081012636423,-0.6826376914978027,0.7305232882499695,0.012281669872008,0.0988169240485094,3.032035293417927,-0.0391233451664447,0.132371574640274,0.1566855013370514,0.4049618569761515,-0.220798793323338,-10.186758323907853,14974.0
37.0,4.199999809265137,244.0,20.641307830810547,35.37744140625,-79.78276323504045,40.45900637613293,310.58279763793945,0.0282940249890089,-0.0123514123260974,-0.6840452551841736,0.7287859916687012,0.0203915819967138,0.1367436143562518,3.047087389604649,0.104730024933815,0.021368708461523,-0.0525733642280101,0.5924093747511506,-0.1599252584204077,-9.714605600237848,14975.0
37.1,4.199999809265137,244.0,20.586217880249023,36.156715393066406,-79.782763367951,40.4590064188858,311.188216796875,0.0303841009736061,-0.010299309156835,-0.6822115182876587,0.7304506897926331,-0.0443899201299762,0.1674244969372155,3.0647150612075147,-0.0541626662015914,-0.096958965063095,-0.008466730825603,0.6554167413711548,-0.2684699548222125,-9.805621604919434,14976.0
37.3,4.199999809265137,248.0,20.687633514404297,34.16082000732422,-79.78276338652964,40.45900637485094,311.49602471923833,0.0276383329182863,-0.0089771943166852,-0.6819058060646057,0.7308624982833862,-0.0295879037301863,0.1571658891481838,3.0792191123769785,-0.0106864180415868,-0.1304316371679306,-0.0700269564986229,0.6424693979322911,-0.0503154825512319,-9.948049253225326,14976.0
37.4,4.099999904632568,246.0,20.791553497314453,33.071426391601555,-79.78276349097494,40.45900640250634,311.80269967651367,0.0255736429244279,-0.0085164047777652,-0.681638240814209,0.7311927080154419,-0.0211382421680235,0.1400413141699731,3.081733206173188,0.0050361054018139,-0.0768863633275032,-0.0837049782276153,0.4744518854096532,-0.1577280757762491,-9.89102486729622,14976.0
37.6,4.099999904632568,247.0,20.68888664245605,33.89841079711914,-79.78276360268495,40.4590063401467,312.41851007080083,0.0265459772199392,-0.0119092436507344,-0.6795135140419006,0.7330858707427979,-0.009350978673718,0.1248583362221082,3.0490182391541225,-0.1285005360841751,0.0571520067751407,0.0115806190297007,0.3422882567346096,-0.1028231136593967,-9.586355695724489,14977.0
37.7,4.099999904632568,248.0,20.17053604125977,32.419384002685554,-79.7827636365064,40.45900627857032,312.72224771118164,0.0272460971027612,-0.0139545798301696,-0.6788537502288818,0.7336351275444031,0.0162810978662137,0.1230307613322645,3.023274416648312,0.018463309854269,0.2406114488840103,0.0030018587131053,0.3350845966860652,-0.1533722472935915,-9.472894569039346,14977.0
37.9,4.199999809265137,249.0,20.51485061645508,37.15068817138672,-79.7827636805061,40.459006219913896,313.02185784912115,0.0269430726766586,-0.016653461381793,-0.6778010129928589,0.7345628142356873,0.0165928591295555,0.1207843990716606,2.9649850142164627,0.0599549897015094,0.0434186942875385,0.0056773736141622,0.5666950744763017,-0.046294969045557,-9.231268322467804,14978.0
38.0,4.300000190734863,247.0,20.692642211914062,34.70949172973633,-79.78276377695717,40.45900610924519,313.6287227783203,0.0230088476091623,-0.0160369351506233,-0.6776692867279053,0.7348318696022034,0.0159944192770078,0.1578602861225775,2.929186886324872,0.011325635947287,0.0321342125535011,0.0664085447788238,0.4977493852749467,-0.2230975713394582,-9.602537865042684,14978.0
38.2,4.300000190734863,247.0,20.61125946044922,34.876480102539055,-79.7827639430321,40.45900614079957,314.24329339599615,0.018474156036973,-0.0124909942969679,-0.6810849905014038,0.7318646907806396,-0.0141701775684049,0.1220748966030741,2.9999236794093864,0.0821917504072189,-0.0873488932847976,0.1778625398874282,0.5557283291593195,-0.4648946479707957,-9.99899136543274,14979.0
38.3,4.400000095367432,246.0,20.705162048339844,35.210453033447266,-79.78276395550967,40.45900614243875,314.54482614135736,0.0226072147488594,-0.0106877908110618,-0.6823817491531372,0.7305682301521301,-0.0366150376769453,0.130709067014685,3.027215312181775,-0.0395044311881065,-0.0041060033254325,-0.0822464674711227,0.4695608722418546,-0.0323344995640218,-10.002854036092758,14979.0
38.4,4.400000095367432,246.0,20.635047912597656,35.289974212646484,-79.78276400475309,40.45900618912175,314.85518609619135,0.0294352881610393,-0.0085532069206237,-0.6829033493995667,0.7298654317855835,-0.055642083497244,0.1426116705183036,3.0647409279571884,0.0688540190458297,0.1393676698207855,-0.0077227368019521,0.4743746656179429,-0.1522859533969313,-10.067657557725909,14979.0
38.5,4.400000095367432,245.0,20.805326461791992,31.44926643371582,-79.78276401209658,40.45900618754288,315.1635318908692,0.0372408479452133,-0.0072473725304007,-0.6825413107872009,0.7298616766929626,-0.0746360224228366,0.1606967425635397,3.0931506587804685,0.1727663725614547,0.1546898037195205,-0.0312863774597644,0.5615328235924244,-0.1844134706631303,-10.07027594089508,14980.0
38.7,4.400000095367432,245.0,20.55241203308105,35.9420166015625,-79.78276414916654,40.45900636439735,315.7741809997558,0.0490548834204673,-0.0060319402255117,-0.6799875497817993,0.7315561175346375,-0.1360453808574458,0.1944853192411077,3.0729269892718967,-0.0196137633174657,-0.0854616537690162,-0.029326656833291,0.7361606499552728,-0.3242443339526653,-9.820708590745928,14980.0
38.8,4.5,246.0,20.653827667236328,34.52660369873047,-79.7827641956553,40.459006327515056,316.0831638488769,0.0456081964075565,-0.0068472707644104,-0.6797779202461243,0.7319666147232056,-0.1334036061066335,0.201280699942342,3.0870745502305845,-0.1426902562379837,-0.1273140162229538,-0.0620179772377014,0.6990821398794651,-0.2083056871779263,-9.894019811153411,14981.0
39.0,4.5,245.0,20.72644805908203,32.73745346069336,-79.78276437166673,40.45900637222231,316.70109521484375,0.0233065597712993,-0.0112990224733948,-0.6793031096458435,0.7334006428718567,-0.061290783105912,0.1626293183025563,3.0975246036752244,-0.0585096701979637,-0.2050882279872894,0.0503186210989952,0.674121545702219,-0.3876523444801569,-9.9818929374218,14981.0
39.1,4.5,244.0,20.74648094177246,32.33986282348633,-79.78276458530136,40.45900634607217,317.32493936157226,0.0151097765192389,-0.0102217691019177,-0.679909348487854,0.7330693006515503,0.0132966367683461,0.0969832326275912,3.1298363362879504,0.084756851196289,0.1640319675207138,-0.1062515303492546,0.6325649455189705,-0.0905290138442069,-9.958270186185835,14982.0
39.3,4.599999904632568,242.0,20.870433807373047,31.775287628173828,-79.78276460169313,40.45900632352589,317.63754235839843,0.0252337269484996,-0.0090804882347583,-0.6792370080947876,0.7334288954734802,0.0139282678054078,0.1008892493971031,3.1143492047305377,0.1930310279130936,0.1151720210909843,-0.0959706827998161,0.5112023301422596,-0.0572381199337542,-9.63422509610653,14982.0
39.4,4.599999904632568,240.0,20.854156494140625,30.05770492553711,-79.78276466250622,40.45900648954515,317.9428211364746,0.0377152562141418,-0.0080684870481491,-0.6783802509307861,0.7336979508399963,-0.0596620610447242,0.1327979490168698,3.0626844061671767,0.0406973175704479,0.2279006689786911,-0.1294200420379638,0.4057954506576061,-0.0532472856156528,-9.395348795056345,14982.0
39.6,4.599999904632568,239.0,20.779033660888672,32.46709442138672,-79.78276488010002,40.45900652829094,318.5646740112305,0.0427833795547485,-0.0127871679142117,-0.6784821152687073,0.7332586050033569,-0.1240428380906842,0.1934810995330182,2.9964373109448665,-0.200574517250061,-0.111218973994255,-0.0963939428329467,0.5816698303073645,-0.3209110555797816,-9.405608904361726,14983.0
39.7,4.599999904632568,238.0,20.800317764282227,33.34973907470703,-79.7827649351072,40.45900650939711,318.8638187561035,0.0371613427996635,-0.0150828147307038,-0.6789940595626831,0.7330475449562073,-0.1046158502942203,0.1880878833171017,2.976742757877976,-0.1530519872903824,-0.0214201640337705,0.019232565537095,0.5518325486406684,-0.1914218154363334,-9.467627981901169,14983.0
39.8,4.599999904632568,241.0,20.74021911621093,33.53263092041016,-79.78276500106564,40.45900649309507,319.16101800537115,0.0300344750285148,-0.0137423602864146,-0.6791362762451172,0.7332687377929688,-0.0661750968690806,0.1620593449154922,2.96255960639963,0.0596948154270649,-0.0406974367797374,0.1296699792146682,0.6747463206946851,-0.3144278821349144,-9.661975981593134,14984.0
40.0,4.599999904632568,238.0,20.817846298217773,31.33794021606445,-79.78276534317449,40.45900674729381,320.10441552734375,0.0248514097183942,-0.0048644640482962,-0.6816684007644653,0.7312229871749878,-0.0884758328469186,0.0842812836676471,3.0769543092527893,0.2255901843309402,0.2024661749601364,0.0305795893073082,0.4832022070884705,-0.0806882869452238,-10.012910077571869,14985.0
40.2,4.699999809265137,236.0,20.71768379211425,33.278175354003906,-79.78276539700954,40.45900677612835,320.41124307250976,0.0347514376044273,-0.0008757492178119,-0.6823434829711914,0.7302047610282898,-0.1156664050365124,0.0875201667062365,3.050786497231821,0.161000981926918,0.0283172521740198,-0.0686242133378982,0.4593308760970831,-0.4360573498159647,-9.659209663867951,14985.0
40.31,4.599999904632568,235.0,20.58120918273925,36.53840255737305,-79.78276544899641,40.45900681295686,320.7150989685058,0.0418620221316814,-0.0009056309354491,-0.6823890805244446,0.7297890186309814,-0.2013509564632452,0.1210789894621962,3.021751935025572,-0.0896302312612533,0.1220359280705452,0.009532849304378,0.4146340287476778,-0.5291892425715924,-9.52596331357956,14985.0
40.5,4.599999904632568,232.0,20.760251998901367,31.679866790771484,-79.78276563174491,40.45900697649724,321.3314510498047,0.0347209721803665,-0.0051166987977921,-0.6808651089668274,0.7315675616264343,-0.1857957910419076,0.1637375002230079,3.0660520083993084,0.0546112954616546,-0.1033813282847404,0.039135992527008,0.7138795423507691,-0.5218118105828762,-10.05424521446228,14986.0
40.6,4.599999904632568,231.0,20.867929458618164,30.74950981140137,-79.78276583742819,40.45900707368644,321.64046060180664,0.0335948169231414,-0.0018924858886748,-0.6786965131759644,0.7336476445198059,-0.1755944284390499,0.1452716686994376,3.08196763525796,-0.0180888306349515,-0.1747846007347107,-0.1039539203047752,0.6699292382597923,-0.3018202984705567,-9.985843316316606,14986.0
40.8,4.5,231.0,20.99689102172852,28.65024185180664,-79.7827659376248,40.45900712737068,322.25926171875,0.0416378490626812,0.0065003577619791,-0.6769541501998901,0.7348178029060364,-0.1673283989191428,0.1237841998330029,3.062818738297235,0.1534218192100525,-0.1466370522975921,-0.0235480424016714,0.6354242339730263,-0.4071566093713045,-9.619096595048903,14987.0
40.9,4.400000095367432,229.0,20.824108123779297,31.695770263671875,-79.7827660605995,40.45900728216269,322.86088525390625,0.0387508459389209,0.0077094221487641,-0.6798592209815979,0.7322775721549988,-0.187016345317392,0.1039996155216394,2.9747142878192783,-0.022851737216115,-0.0999299511313438,0.1433183848857879,0.4815976580232382,-0.136878384836018,-9.261863293647767,14987.0
41.1,4.300000190734863,229.0,20.72018814086914,33.5723876953125,-79.78276615083145,40.45900743970287,323.1797100219726,0.0356270745396614,0.0023912587203085,-0.6804230809211731,0.7319491505622864,-0.1770709016110652,0.0969276304829647,3.0036337261593697,-0.2465414851903915,-0.0671311244368553,-0.042245764285326,0.4635104658454657,-0.4238734334707261,-9.769857695102694,14988.0
41.2,4.300000190734863,228.0,20.825359344482425,31.822999954223643,-79.78276620373398,40.45900740996676,323.4814258728028,0.0311564300209283,-0.0036605063360184,-0.6801629066467285,0.7323894500732422,-0.1387364396824568,0.1072964336921219,3.026061751222728,-0.304941713809967,-0.0250151474028825,-0.1024366170167923,0.4143906018510461,-0.1883156100288033,-9.89067052602768,14988.0
41.3,4.300000190734863,229.0,20.90298652648925,31.14709854125977,-79.78276625436108,40.4590073735717,323.7854038391113,0.0267665181308984,-0.0067955777049064,-0.679376482963562,0.7332701086997986,-0.0717125010973489,0.1129431368363579,3.047557248684016,-0.0403040759265422,0.0327256359159946,-0.0446494035422802,0.5624732385948301,-0.1833592907711864,-9.941143691539764,14988.0
41.5,4.199999809265137,229.0,20.63003921508789,35.536476135253906,-79.78276655927051,40.45900750546386,324.7273059997558,0.0249817613512277,0.0008819785434752,-0.6795716285705566,0.7331832051277161,-0.0545527875679336,0.0856852996621685,3.110146079406128,0.0760440230369567,0.0993568375706672,0.1215669736266136,0.3779544815048576,-0.1838783042505384,-10.008985426425934,14989.0
41.7,4.099999904632568,226.0,20.74272346496582,33.254318237304695,-79.78276659027755,40.4590074758286,325.03951989746093,0.0265189968049526,0.0007978694629855,-0.6810669898986816,0.7317403554916382,-0.0763261099916099,0.0782081303700091,3.127495407112128,0.0612002462148666,0.0916898176074028,0.1246684789657592,0.4897809459641576,-0.4112127497792244,-10.030975635051728,14990.0
41.81,4.0,227.0,20.800317764282227,30.83697891235352,-79.78276661742309,40.45900745043132,325.35299264526367,0.0271410942077636,-0.0021712505258619,-0.6819278597831726,0.7309125065803528,-0.0956650375725404,0.0918932751585962,3.135599778003395,-0.0501388572156429,-0.0348280519247055,0.0964001268148422,0.3878981468081473,-0.5306004680693149,-9.955429608821868,14990.0
42.0,4.0,228.0,20.86542510986328,31.84685516357422,-79.78276667327704,40.45900756713166,325.9776111755371,0.0260238815099,-0.0028492147102952,-0.6807019114494324,0.7320926189422607,-0.082050698716907,0.1413424972756782,3.10622215972848,0.0640247017145156,0.1004612669348716,-0.0390870049595832,0.3998530715703965,-0.3298801362141967,-9.657575367093086,14990.0
42.1,4.0,228.0,20.831619262695312,31.50492858886719,-79.78276673509222,40.45900761907033,326.2919880065918,0.0279233157634735,-0.001740671810694,-0.6796025633811951,0.7330468893051147,-0.0828241964112279,0.1320596545349837,3.062371339312147,0.1028996631503105,-0.0517986565828323,0.0288663394749164,0.4341190343722701,-0.5620451858639718,-9.540232858657838,14991.0
42.3,4.0,229.0,20.834123611450195,31.727577209472656,-79.78276671252142,40.4590076019546,326.8993984375,0.0334973223507404,-0.0028047547675669,-0.6778426766395569,0.7344382405281067,-0.101654186242144,0.1533479807366913,2.9990763495907844,0.0300972871482372,0.1364931613206863,-0.00320734991692,0.5612124692648649,-0.2127923836559056,-9.442845143079758,14991.0
42.4,4.099999904632568,229.0,20.74397659301757,32.005889892578125,-79.78276685556105,40.459007759910094,327.21427880859375,0.0338194146752357,-0.0045264502987265,-0.6773145198822021,0.7349019050598145,-0.1175126619678693,0.1609185662007578,2.981711509845732,0.0724152103066444,-0.0331901311874389,0.0792727023363113,0.5429361927509309,-0.4831516652181745,-9.502187950015069,14992.0
42.6,4.199999809265137,228.0,20.72269058227539,32.45119094848633,-79.7827669352704,40.45900785852669,327.82950173950195,0.0305702742189168,-0.0051371525041759,-0.6779792904853821,0.7344270944595337,-0.1102070122675493,0.1589571870863956,3.018580544653516,-0.0796741172671318,0.0338201597332954,0.0832321196794509,0.518469286300242,-0.2687044464424252,-9.858834775686264,14992.0
42.7,4.300000190734863,227.0,20.72394371032715,32.896488189697266,-79.78276694724272,40.459007855229046,328.13328897094726,0.026262916624546,-0.0053729997016489,-0.6790190935134888,0.7336310744285583,-0.0932101439282522,0.1446596613224209,3.042271948167403,0.052609272301197,-0.003200004575774,0.0949844121932983,0.6350450420379639,-0.2816109507344663,-9.959148437976838,14993.0
42.9,4.300000190734863,224.0,20.68888664245605,33.135040283203125,-79.78276695805414,40.45900796175359,328.7509952697754,0.0297234337776899,-0.0047838860191404,-0.6796273589134216,0.732939600944519,-0.1010493970935542,0.1298460541226984,3.0316519090839096,0.0757510513067245,0.1265175491571426,0.1245212629437446,0.3768011913076043,-0.3573069032281637,-9.659637095332148,14993.0
43.0,4.300000190734863,224.0,20.894222259521484,31.234567642211918,-79.78276697398209,40.45900797305647,329.05365335083013,0.0328760743141174,-0.0016300734132528,-0.6795815229415894,0.7328612208366394,-0.1060892002148762,0.1321534441301304,3.013276137690966,0.1507672667503357,0.1109582260251045,0.1506253331899643,0.3946566510200501,-0.474410735629499,-9.607881635427477,14994.0
43.2,4.300000190734863,224.0,20.71142196655273,32.872634887695305,-79.78276709226259,40.459008095719625,329.6583934936524,0.0340740047395229,0.0045329076237976,-0.6792327165603638,0.7331175804138184,-0.1405279572053043,0.1250110411221502,2.960672131632404,0.0189697053283453,-0.1098136380314827,-0.0773257166147232,0.4252590043097735,-0.3761221833899617,-9.544835786819457,14994.0
43.31,4.300000190734863,224.0,20.74272346496582,32.80902099609375,-79.78276711288615,40.45900808539918,329.9537769470215,0.0312470141798257,0.0028228333685547,-0.6787229776382446,0.7337239384651184,-0.1454267731310962,0.1139230024230072,2.936961656289192,-0.1759032756090164,0.021538633853197,-0.021142603829503,0.4262031834572554,-0.2641412428021431,-9.517149220705033,14994.0
43.5,4.300000190734863,220.0,20.67511367797852,33.103233337402344,-79.7827671843062,40.45900822355321,330.56081735229486,0.0269324611872434,-0.001971251098439,-0.6788123846054077,0.73381507396698,-0.0829628733403401,0.101303989881646,2.9507702816114607,0.021722849458456,-0.1298053413629532,0.0154372975230216,0.4577860417217016,-0.4006752631813288,-9.888255625963213,14995.0
43.6,4.199999809265137,219.0,20.447240829467773,37.98562240600586,-79.7827672874725,40.45900832883017,330.871135345459,0.0267079193145036,-0.0019227740122005,-0.6790774464607239,0.7335782051086426,-0.0914500969819056,0.0938607672965784,2.993234303751362,-0.0428832806646823,-0.0813057646155357,-0.1283889263868332,0.4085750342532993,-0.2900455227680505,-9.958005892038344,14995.0
43.81,4.099999904632568,218.0,20.539892196655277,35.65575408935547,-79.78276735965568,40.45900830936265,331.4796138916016,0.0210548862814903,-0.0012654316378757,-0.6795977950096129,0.733281672000885,-0.0919172368351784,0.0940566566111227,3.1024343438002173,-0.0379763133823871,-0.0123675838112831,0.0855195969343185,0.3563033017516136,-0.4012363766133785,-10.352953734397891,14996.0
43.9,4.099999904632568,218.0,20.622528076171875,32.379623413085945,-79.78276721321276,40.45900836160822,331.7913204345703,0.0185994822531938,-0.0006213138694874,-0.6798012852668762,0.7331602573394775,-0.074839408014543,0.1139290651844669,3.158287440620433,0.0218638870865106,0.0553065948188304,0.0753847658634185,0.2901462958753109,-0.2186105459555984,-10.4150137424469,14996.0
44.1,3.900000095367432,216.0,20.78278923034668,31.520832061767567,-79.78276721029505,40.45900852960028,332.4255977783203,0.0276712104678154,0.0049939178861677,-0.6785581707954407,0.7340083718299866,-0.0758237253474406,0.0920975382018208,3.1488675673033777,0.2025427669286728,0.1276870816946029,0.0227879527956247,0.4289185938611627,-0.3101130755245685,-9.732838972806933,14997.0
44.2,3.799999952316284,217.0,20.71142196655273,33.437210083007805,-79.78276720312375,40.459008511862095,332.7391964111328,0.0296690538525581,0.0040535354055464,-0.6776863932609558,0.7347411513328552,-0.1181873953603528,0.1093798970854799,3.1184889618466016,-0.1179986968636512,-0.0345387905836105,-0.1306430995464325,0.3476868813112378,-0.1333477903436869,-9.573914574980735,14997.0
44.4,3.799999952316284,222.0,20.73020362854004,34.129013061523445,-79.78276719316122,40.45900848098609,333.04979669189447,0.0293127056211233,0.0021743671968579,-0.6771350502967834,0.7352715134620667,-0.1038979123845738,0.1225657938586829,3.09471471914222,-0.0787705108523368,0.0902239009737968,0.0406107865273952,0.3851137027144432,-0.2684508600085974,-9.59946339905262,14998.0
44.5,3.799999952316284,224.0,20.6137638092041,34.566360473632805,-79.78276715213894,40.45900853522468,333.6664043579101,0.0240755882114172,0.0043603414669632,-0.6778547167778015,0.7347886562347412,-0.0518241053633766,0.1374216341591368,3.045212170633143,-0.0102462815120816,-0.167133942246437,0.0768891796469688,0.4043658795207739,-0.3023823255300522,-9.724792619347571,14998.0
44.7,3.700000047683716,226.0,20.78404235839844,31.47312164306641,-79.7827670981676,40.45900855664778,334.29582940673833,0.0204418748617172,-0.0029404559172689,-0.6780546307563782,0.734721302986145,-0.0107090810880139,0.1177791702492421,3.124276919008892,0.0202737916260957,0.1910689175128936,0.0113149378448724,0.4101307590678334,-0.1350546200014651,-10.051622153520585,14999.0
44.8,3.5999999046325684,228.0,20.68888664245605,33.4531135559082,-79.78276704326231,40.45900847586572,334.60893975830083,0.0223542228341102,-0.0089293206110596,-0.6782513260841371,0.7344356179237366,0.0246804844707584,0.1457902321291181,3.1318178604095865,-0.0504937954246997,0.0120193371549248,0.0316055938601493,0.5327455191314221,-0.2600043011829257,-9.971926943063735,14999.0
45.0,3.5999999046325684,233.0,20.71267509460449,32.061553955078125,-79.78276700985619,40.45900852851051,335.24268304443365,0.0244204923510551,-0.0145473014563322,-0.6803666949272156,0.7323204278945923,0.0308992956922506,0.204681068902241,3.1717071390869656,-0.0937292948365211,0.019384741783142,-0.0149604426696896,0.5006774516031146,-0.0603786137793213,-10.027178453207016,15000.0
45.1,3.5999999046325684,235.0,21.15840530395508,25.20712280273437,-79.78276690325707,40.45900849600984,335.87765466308593,0.01924379914999,-0.0168519373983144,-0.6833274364471436,0.7296639084815979,0.0272412923971626,0.1953867970441976,3.137908230583672,-0.0651132389903068,-0.140110895037651,0.0727660655975341,0.4913149995356799,-0.1419210053421557,-9.925937422513964,15000.0
45.3,3.5999999046325684,243.0,21.311155319213867,22.352436065673828,-79.7827668739612,40.4590084590077,336.18863641357416,0.0183064062148332,-0.0189157798886299,-0.6839553117752075,0.7290489077568054,0.0325239393541513,0.1757486167034399,3.062528775330972,0.0301802065223455,0.0765591859817504,0.0588540583848953,0.3547488925606013,-0.229794661514461,-9.078743702173233,15001.0
45.4,3.5999999046325684,243.0,21.45889663696289,20.15774726867676,-79.78276688205516,40.45900847501521,336.4959102783203,0.0212444569915533,-0.0205568857491016,-0.6833882331848145,0.7294564843177795,0.0295237694673199,0.1660559665424264,2.944825308233931,-2.678370765352156e-05,0.0419316254556179,0.0213908068835735,0.4120986760407687,-0.2657496291026473,-8.738553280234338,15001.0
45.6,3.5999999046325684,246.0,21.39629364013672,21.70834350585937,-79.78276692705133,40.45900848690089,337.077376953125,0.0278490930795669,-0.0211255121976137,-0.6803911328315735,0.732015073299408,-0.017370277083238,0.1680822918662155,2.651645821265649,0.0096996147185564,-0.0436080582439899,-0.0551721639931201,0.4244199288636446,-0.1347845882736146,-8.125122470855713,15002.0
45.71,3.5999999046325684,246.0,21.481433868408203,20.8734073638916,-79.78276694461171,40.45900849363103,337.33415185546875,0.0292108580470085,-0.0193410832434892,-0.6788082718849182,0.7334794402122498,-0.0261384070526304,0.1512193564383565,2.4734351724156047,0.1132819652557373,-0.0043330104090273,-0.0646547675132751,0.4517360738664866,-0.0936810193955898,-8.090727394223213,15002.0
45.8,3.5999999046325684,247.0,21.49145126342773,21.119911193847656,-79.78276697488019,40.459008506811365,337.5735927734375,0.0296633280813694,-0.016530405730009,-0.6774684190750122,0.7347676157951355,-0.0435841134235082,0.1299259935077791,2.3045956987556715,0.0780016481876373,-0.0718395113945007,-0.0394744016230106,0.3965123014524579,-0.1891306570731104,-8.050812546014786,15002.0
46.0,3.5999999046325684,244.0,21.51398658752441,20.56328773498535,-79.78276714709551,40.4590086841895,338.23966943359375,0.0286695584654808,-0.0108107365667819,-0.6759036183357239,0.7363528609275818,-0.091523779840531,0.0566105964668151,1.8244128326582856,-0.0221914947032928,0.0062766228802502,-0.0388576388359069,0.4404950575903058,-0.2688384207710624,-8.001540398597717,15003.0
46.2,3.5999999046325684,239.0,21.46265411376953,21.81966781616211,-79.78276721392885,40.45900872607167,338.413314453125,0.027821721509099,-0.0114577896893024,-0.6765329241752625,0.7357974648475647,-0.0956225439547237,0.0388022289992858,1.6511382864559505,-0.0424181781709194,-0.0103494226932525,0.124051921069622,0.4244100616872311,-0.3973744003102184,-8.05892321884632,15003.0
46.3,3.5999999046325684,237.0,21.471418380737305,19.95895195007324,-79.78276728316831,40.45900877272491,338.57044183349615,0.028142787516117,-0.0089533580467104,-0.6775215864181519,0.7349097728729248,-0.088327340180425,0.0259978811692491,1.4940200675232256,0.102996714413166,-0.0171308685094118,0.0459863692522048,0.4806145948916674,-0.2547472888603807,-8.271464245319368,15003.0
46.5,3.700000047683716,234.0,21.411319732666016,21.74015045166016,-79.7827674386089,40.45900889302603,338.9013439331055,0.0298801939934492,-0.0034043525811284,-0.680603563785553,0.7320345044136047,-0.112262330059017,-0.0016488767381079,1.2663747829676375,0.0562952794134616,-0.0316073857247829,0.0219093821942806,0.4291778447851538,-0.3748428856953978,-8.418871382474897,15003.0
46.6,3.700000047683716,231.0,21.390033721923828,21.994606018066406,-79.78276759559198,40.45900899053729,339.2367168579101,0.027858842164278,0.0001978978980332,-0.684876561164856,0.7281263470649719,-0.1303381484794504,-0.017502158233557,1.1312251304681722,4.908009213977493e-05,-0.0053839799948036,-0.0248857494443655,0.3538913983851671,-0.3666539698094129,-8.559545450806619,15004.0
46.8,3.5999999046325684,226.0,21.42008399963379,22.551231384277344,-79.78276768721955,40.459009060711736,339.34472619628906,0.0288726557046175,0.0035040648654103,-0.6864098906517029,0.7266330122947693,-0.1102520888442349,-0.0378384350030078,1.0231398972994863,0.1918716728687286,0.0051020346581935,0.0520537942647934,0.2976148713380098,-0.4615967817977071,-8.753228037357331,15004.0
46.9,3.5999999046325684,223.0,21.47642517089844,21.915088653564453,-79.78276782751924,40.45900908156465,339.56844293212885,0.030989995226264,0.0068227485753595,-0.6872796416282654,0.7256994843482971,-0.1137547094032791,-0.0496576410079103,1.0239342066655202,0.1169584020972252,0.0197700392454862,0.0092823281884193,0.3401028233394027,-0.4649771302565933,-8.867103731632232,15004.0
47.1,3.5999999046325684,217.0,21.42884826660156,21.33460998535156,-79.78276804842426,40.45900917197044,339.8482128295898,0.0357779040932655,0.0155480140820145,-0.6842215061187744,0.7282301187515259,-0.0958920819000057,-0.0617324515435106,0.9095219018351768,0.0788071900606155,-0.0496284738183021,-0.1206831261515617,0.2946046516299248,-0.466855329014361,-8.868071445822716,15004.0
47.2,3.700000047683716,214.0,21.83075523376465,11.204049110412598,-79.78276815663719,40.459009198002384,339.9346462402344,0.033623494207859,0.0178133249282836,-0.6816442012786865,0.7306938171386719,-0.0824347575790283,-0.0572945110077702,0.8115572413754694,-0.0108423419296741,-0.1220311895012855,-0.0564782284200191,0.3565413930639625,-0.4276171132922173,-8.802711853981018,15004.0
47.3,3.700000047683716,211.0,21.656721115112305,19.45003890991211,-79.78276825878103,40.459009208113216,340.00928460693365,0.0311724971979856,0.0167812723666429,-0.678620457649231,0.7336354851722717,-0.064701989785454,-0.0714873338368577,0.6543902551976797,-0.1285873800516128,0.0767664089798927,-0.0946134477853775,0.2384178062528372,-0.5237464349716902,-8.23533079147339,15005.0
