time,wind_speed,wind_angle,battery_voltage,battery_current,position_x,position_y,position_z,orientation_x,orientation_y,orientation_z,orientation_w,velocity_x,velocity_y,velocity_z,angular_x,angular_y,angular_z,linear_acceleration_x,linear_acceleration_y,linear_acceleration_z,node_ids
0.0,1.2999999523162842,181.0,24.12952041625977,0.0318070948123931,-79.78239278956502,40.45807026008504,267.6153519983292,-0.0030035630334168,0.0047777793370187,0.3111461997032165,0.9503453373908995,-0.0024913222146488,0.0133591468466613,0.0093880321964597,0.0006293298210948,-0.0025008900556713,0.0065197949297726,-0.0238664910499937,-0.113129936736077,-9.808283842206002,14932.0
0.12,1.399999976158142,180.0,24.130773544311523,0.0397588685154914,-79.78239284463537,40.45807036655311,267.61185809326173,-0.0030007264576852,0.0047811870463192,0.3111463785171509,0.9503452777862548,-0.001624498659048,0.0085746522840893,0.0133775480043003,0.0007829479291103,0.0021924225147813,-0.0028473564889281,-0.0222563117556274,-0.1027813791576773,-9.807817234396936,14932.0
0.3,1.2999999523162842,181.0,24.13703346252441,0.0318070948123931,-79.78239293611762,40.45807049862128,267.6092229719162,-0.0030065784230828,0.004779786337167,0.3111459016799927,0.9503453969955444,-0.0018709490805236,0.0122419842944309,0.014904177317326,3.9223259591381066e-06,0.0028971484862267,-0.0029953601770102,-0.020970616384875,-0.1029837750457227,-9.809924570918083,14932.0
0.5,1.2999999523162842,180.0,24.12701797485352,0.0238553211092948,-79.78239294635478,40.45807050680486,267.61071571064,-0.0030059181153774,0.0047806343063712,0.3111459612846374,0.9503453969955444,-0.0018067066317548,0.0127038835517487,0.0149531618951858,-0.0038370455149561,-0.0029422014486044,0.001499148318544,-0.0254560931702144,-0.1126184424106031,-9.808248758912088,14932.0
0.6,1.2000000476837158,180.0,24.13452911376953,0.0238553211092948,-79.78239303204947,40.458070636975016,267.60925563526155,-0.0030087307095527,0.0047803306952118,0.3111453056335449,0.9503455758094788,-0.0022761098674365,0.0144245312812832,0.0157714274115689,-0.000526855525095,-8.058425737544894e-05,-0.0022106401156634,-0.0248833561129868,-0.1101182278152555,-9.808050538301467,14932.0
0.81,1.2000000476837158,176.0,24.13703346252441,0.0397588685154914,-79.78239304407009,40.45807064650964,267.61081870746614,-0.0030087307095527,0.0047803306952118,0.3111453056335449,0.9503455758094788,-0.0020024899154715,0.0147542718258668,0.0155708166045844,0.0027379535604268,0.0010980964871123,0.0006052780663594,-0.0209558224724605,-0.1073065850324928,-9.810509877204897,14932.0
0.91,1.100000023841858,175.0,24.139537811279297,0.0318070948123931,-79.78239310977395,40.45807076397073,267.6101414794922,-0.0030062552541494,0.0047826692461967,0.3111437261104584,0.9503461122512816,-0.0013256977068408,0.0115065492388836,0.0163883332267166,0.000499707122799,-0.001256818883121,0.005022584926337,-0.0233119397470727,-0.1096533924434334,-9.809488953351975,14932.0
1.1,1.100000023841858,178.0,24.124513626098643,0.0397588685154914,-79.78239311935197,40.45807077162398,267.6117750043869,-0.0030062552541494,0.0047826692461967,0.3111437261104584,0.9503461122512816,-0.0020719346044572,0.0117390199291117,0.0162965553972121,0.0016976851038634,0.0005012259352952,-0.0036298208869993,-0.0228631842182949,-0.1067398436553776,-9.807199768424033,14932.0
1.21,1.100000023841858,177.0,24.12952041625977,0.0318070948123931,-79.78239317870327,40.45807090647369,267.61184080791475,-0.0030085609760135,0.0047857635654509,0.3111418485641479,0.9503467082977296,0.0007165185100094,0.0123448966881155,0.0169683610852176,0.0010958157945424,0.0011408425634726,-0.0065736607648432,-0.0238628616649657,-0.1059009783435613,-9.806629080176354,14932.0
1.4,1.100000023841858,178.0,24.12952041625977,0.0318070948123931,-79.78239320833818,40.45807101447906,267.61096128177644,-0.0030056326650083,0.0047911843284964,0.311140775680542,0.950347065925598,0.0043221260775293,0.0066703567037449,0.0178249159472034,-6.315519567579031e-05,-0.0020269895903766,0.0045988424681127,-0.0239034221554175,-0.1110663081519305,-9.809580754637716,14932.0
1.5,1.100000023841858,177.0,24.12075614929199,0.0318070948123931,-79.78239321014978,40.458071028907405,267.6144787902832,-0.0030049898196011,0.0047918455675244,0.3111408054828644,0.950347065925598,0.0041270653451817,0.0072699169862112,0.0174535313873989,0.0025974288582801,0.0002839984663296,0.0051138820126652,-0.025401154467836,-0.1118650378100574,-9.807851732969285,14932.0
1.7,1.100000023841858,180.0,24.12200927734375,0.0636141896247863,-79.78239328254628,40.45807113522732,267.6143624420166,-0.0030060037970542,0.0047881864011287,0.3111417889595032,0.9503467082977296,9.05425542126786e-05,0.0078620326811245,0.0175956358957036,-0.0004989080480299,0.0008112959330901,-0.0047480566427111,-0.0235356893925927,-0.1028760218247771,-9.806546634435652,14932.0
1.8,1.100000023841858,179.0,24.13828468322754,0.0477106422185897,-79.78239336777156,40.45807127144311,267.6152959699631,-0.0030143775511533,0.0047851293347775,0.3111410737037659,0.9503469467163086,-0.0011569484899462,0.0153892427984085,0.0149895008222607,0.0011162832379341,-0.0012304462725296,-0.0045303162187337,-0.0220762609108351,-0.1032747471146285,-9.807257655858995,14932.0
2.0,1.0,179.0,24.13452911376953,0.0238553211092948,-79.78239337939445,40.458071282429145,267.61678882789613,-0.0030143775511533,0.0047851293347775,0.3111410737037659,0.9503469467163086,-0.0006407396912167,0.0158651299481293,0.0149833978507651,0.0021901393774896,-0.0001999824162339,0.006489725317806,-0.0259807140380144,-0.1132406592462212,-9.80867034316063,14932.0
2.1,1.0,178.0,24.130773544311523,0.0318070948123931,-79.78239343071235,40.45807139014413,267.61787017536165,-0.0030088750645518,0.004787512589246,0.3111390471458435,0.9503476023674012,-0.0003068499959989,0.0100944786962315,0.0123740048944363,-0.0005904077552258,0.0016380664892494,0.0077523002400994,-0.0264575727470219,-0.1140521979611367,-9.807527797222136,14932.0
2.3,1.0,177.0,24.13828468322754,0.0397588685154914,-79.78239343825388,40.45807139727403,267.619096362114,-0.0030088750645518,0.004787512589246,0.3111390471458435,0.9503476023674012,-0.000936941551446,0.0101933112067915,0.0122022910450072,0.0004530879377853,-0.0020669049117714,-0.0025916374288499,-0.0229743681102991,-0.1022134226560592,-9.808863301277162,14932.0
2.4,1.0,175.0,24.13202476501465,0.0397588685154914,-79.78239348386008,40.45807150694715,267.62135788154603,-0.0030072566587477,0.0047892215661704,0.3111378848552704,0.9503479599952698,-0.0003057141571218,0.008112953483824,0.0110797701621988,-0.0020066588185727,0.0028162077069282,-0.0026104971766471,-0.0217963117570616,-0.1021515335328877,-9.808358101844789,14932.0
2.6,1.0,175.0,24.0856990814209,0.7315632104873657,-79.78239348978397,40.458071513004576,267.622462474823,-0.0030072566587477,0.0047892215661704,0.3111378848552704,0.9503479599952698,-5.9480394893254855e-05,0.0086737236285442,0.0110640555924377,0.00010376755381,-0.0004897436592727,0.0031497396994382,-0.0255142980907112,-0.1135536680091172,-9.807978032827377,14932.0
2.7,1.0,175.0,24.0856990814209,0.326022744178772,-79.78239355415127,40.45807161604699,267.62565430355073,-0.0030100014992058,0.0047753709368407,0.3111974000930786,0.9503285884857178,-0.0016213025389709,0.0087970769173073,0.0102222903382549,0.0030323108658194,-0.0038034773897379,0.0107479356229305,-0.0260857286606915,-0.1143697200436145,-9.810281835794449,14932.0
2.9,1.0,174.0,24.10072326660156,0.3339745104312897,-79.78239359038044,40.45807171689778,267.6318781013489,-0.0030124376062303,0.0047828834503889,0.3111627101898193,0.9503398537635804,-0.0015986061683679,0.0068511647940063,0.0172476959341446,0.0019225315190851,0.0036408370360732,-0.0005225505447015,-0.020503624852281,-0.1025120966043323,-9.80790903568268,14932.0
3.0,1.0,173.0,24.10823631286621,0.3180709481239319,-79.7823936029759,40.45807172542381,267.6353233690262,-0.0029984866268932,0.0048009166494011,0.3111927807331085,0.9503299593925476,-0.0018557801304873,0.0071293570658731,0.0170055013514016,0.0022910521365702,0.0005186876514926,0.0009211472934111,-0.0179608603427186,-0.1055150072928518,-9.8123470723629,14932.0
3.2,1.0,171.0,24.10197639465332,0.3101191818714142,-79.78239365529022,40.45807183694233,267.64071305942537,-0.00297696236521,0.0048064244911074,0.3111856579780578,0.9503323435783386,-0.0021822145403115,0.010591795621074,0.0183988505423667,0.0031946464441716,-0.0015176135348156,-0.0038157487288117,-0.0304257582407444,-0.1153362921997904,-9.806327948570251,14932.0
3.3,0.8999999761581421,171.0,24.10698509216309,0.3498780429363251,-79.78239369085324,40.45807196955533,267.64901157569886,-0.0030147505458444,0.0048248125240206,0.3111973702907562,0.950328290462494,0.0036650128996431,0.0147357223878155,0.0191690927151353,0.0014466836582869,0.0008136496180668,0.0008941332926042,-0.0237728145439177,-0.1057183168083429,-9.807458215355872,14932.0
3.5,0.8999999761581421,168.0,24.09571647644043,0.3975887000560761,-79.7823936976597,40.45807198192463,267.6509059305191,-0.0030200656037777,0.0048296367749571,0.3111792802810669,0.9503341913223268,0.0028846076576053,0.0148094147961202,0.0190549238300418,-0.0028740400448441,0.0006025558104738,0.0013704636367037,-0.0201188917667605,-0.1079097984172403,-9.809111223220826,14932.0
3.6,0.8999999761581421,169.0,24.094463348388672,0.4452993273735046,-79.78239374627212,40.45807209749361,267.6598002548218,-0.0030118380673229,0.0048721148632466,0.3111893832683563,0.9503306746482848,0.0014778871048126,0.015585314709426,0.0190559671748844,-0.0001851399429142,0.0016046511009335,0.0034508483950048,-0.0153460917121265,-0.1199864823091775,-9.810204652547837,14932.0
3.8,1.0,168.0,23.47845458984375,3.912272691726685,-79.78239375527532,40.458072110203744,267.6617216701508,-0.0030113488901406,0.0048688128590583,0.3111850023269653,0.9503321647644044,0.0019770799039265,0.0165981282436701,0.0193187983838782,0.0024417378008365,-0.0019948631525039,-0.0090053044259548,-0.0175725846667774,-0.1232870254106819,-9.805750828385351,14932.0
3.91,0.8999999761581421,163.0,24.01934051513672,0.6202383637428284,-79.78239377839745,40.45807221800622,267.6713977689743,-0.0032389976549893,0.0051325038075447,0.311102956533432,0.950356900691986,0.0042434323153074,0.0166954097963089,0.0206225394772468,0.0097703859210014,-0.0025036972947418,-0.0397084951400756,-0.0242182878660969,-0.0674521687114611,-9.802699751257895,14932.0
4.1,1.0,165.0,24.09947204589844,1.4154157638549805,-79.7823937842047,40.458072230388936,267.6733032102585,-0.003222650848329,0.0051256213337183,0.3111861050128937,0.9503297805786132,0.0019780749789274,0.0133974143006713,0.0190333661263814,-0.0100228413939476,0.0032216266263276,-0.0045839571394026,-0.0274083574209362,-0.1061629244685173,-9.814323431253433,14932.0
4.2,1.0,165.0,23.73011779785156,2.345773220062256,-79.78239379998345,40.45807229524938,267.68625899505616,-0.0033019827678799,0.0052472283132374,0.3111779391765594,0.9503315091133118,-0.0008361669771266,0.0076249397661377,0.0243015562261995,-0.002496208064258,-0.0350745022296905,-0.0178101882338523,-0.0439941582083702,-0.1342576353717595,-9.801084750294685,14932.0
4.4,1.0,171.0,24.086952209472656,0.2862638533115387,-79.782393802034,40.45807240044638,267.69699319553376,-0.003248234745115,0.0051699434407055,0.3111505806446075,0.9503410458564758,0.003063336105967,0.0109577117358391,0.0271575296544929,-0.0030339274089783,-0.0260980241000652,-0.0213053580373525,-0.0595171864377334,-0.0896285060886293,-9.79431016623974,14932.0
4.5,1.0,170.0,24.08194351196289,0.2703603208065033,-79.78239380929162,40.458072421705104,267.7023146982193,-0.0031736411619931,0.0050738169811666,0.3112494349479675,0.9503094553947448,0.0063777737685655,0.0121295629392006,0.027090395418147,0.008027259260416,0.0140354912728071,0.0002376157790422,-0.0518307747831568,-0.1403911727294325,-9.791862521767618,14932.0
4.7,1.0,171.0,23.83278465270996,3.8645620346069336,-79.78239378104247,40.45807249414392,267.71009942245485,-0.0030931334476917,0.0050401072949171,0.3113287687301636,0.9502839446067808,0.0050433271662772,0.0086185418797165,0.0261236691903362,-0.0049023111350834,-0.0009272487368434,-0.018370458856225,-0.0192315790755674,-0.1147414293698966,-9.805963082313538,14932.0
4.8,1.0,171.0,23.71384048461914,4.842630386352539,-79.78239379313621,40.4580725859998,267.72160729122163,-0.0031083077192306,0.0050871856510639,0.3112633228302002,0.9503050446510316,0.0043520433220793,0.0106317367843899,0.0239384776667584,-0.0086544184014201,-0.0330532304942607,-0.0158109087496995,-0.018163739311276,-0.1095389331970364,-9.812128386497498,14932.0
5.0,1.100000023841858,172.0,23.539804458618164,6.96575403213501,-79.78239379616629,40.45807259651322,267.72402485561366,-0.0032448931597173,0.0052011176012456,0.3113170266151428,0.9502863883972168,0.0052442437226758,0.0096823477433316,0.0233497306433733,0.0003646470140665,0.0049303476698696,0.0020342678762972,-0.0278667494351975,-0.1039898341801017,-9.809424633979797,14932.0
5.11,1.100000023841858,174.0,23.44965744018555,7.6575584411621085,-79.78239376387094,40.4580726610618,267.7353000278473,-0.0034230782184749,0.0054743713699281,0.3113359212875366,0.9502780437469482,0.0109786199210868,0.0058111147650417,0.025811620248897,0.0267312508076429,0.0242837537080049,-0.0014545563608407,-0.020471686720848,-0.1517661816067993,-9.801322147250175,14932.0
5.3,1.2000000476837158,174.0,23.185474395751957,10.265740394592283,-79.7823937575198,40.45807266939728,267.73779698562623,-0.00362886977382,0.0060643828473985,0.311336487531662,0.9502735137939452,0.0054399627584354,0.0030523265182528,0.0270010301569201,-0.0164090022444725,0.0490466505289077,-0.0236440151929855,0.0104121917299926,-0.1139726666919887,-9.881217917203903,14932.0
5.4,1.2000000476837158,176.0,23.07404327392578,11.784528732299805,-79.78239374374236,40.45807276495552,267.7499470348358,-0.0040923538617789,0.0079234987497329,0.3112373650074005,0.9502903819084167,0.0135939753922548,0.0065720241839356,0.0263228613909488,0.0012662620283663,-0.0521303713321685,-0.0524500161409378,-0.0094018476828932,-0.1900065151602029,-9.875092374086382,14932.0
5.6,1.2000000476837158,177.0,22.821128845214844,14.60740852355957,-79.7823937354138,40.458072777844144,267.75278397750856,-0.0039918106049299,0.009155124425888,0.3114010393619537,0.9502261877059937,0.0062791631580154,0.0054519184673952,0.0315940482460637,0.0035563241690397,0.0073733860626816,0.0817561224102974,-0.1617602608725428,-0.3643219905719161,-9.80443637430668,14932.0
5.71,1.2000000476837158,178.0,22.68214988708496,16.110294342041016,-79.78239373249892,40.45807282995069,267.76720663261415,-0.0019406793871894,0.0122841075062751,0.311591625213623,0.950134813785553,0.0096267244275612,0.0081957912514057,0.0363925461948104,-0.0418338552117347,0.075779765844345,-0.0240653455257415,0.0762935470696538,-0.0833919481001794,-9.85652278661728,14932.0
5.9,1.2000000476837158,178.0,22.41045570373535,19.100160598754886,-79.78239366780276,40.45807286277947,267.77780064296724,-0.0012581010814756,0.0127861695364117,0.3121379315853119,0.9499499797821044,0.0136300811122435,0.0098614848133351,0.0285161577725554,-0.0729558169841766,-0.0531189627945423,0.0369562245905399,0.1115362050198018,-0.2636672528833151,-9.774223226308823,14932.0
6.0,1.2000000476837158,176.0,22.266469955444336,20.73822593688965,-79.78239365641738,40.45807292582778,267.78517945957185,0.0013959768693894,0.0030175831634551,0.3201704919338226,0.9473540782928468,0.0268535862373163,0.0428365676173119,0.0605922450898629,-0.1754153817892074,-0.0478050373494625,-0.0438043884932994,0.2560999508388341,-0.2054898325726389,-10.085523140430452,14932.0
6.2,1.2000000476837158,170.0,21.96096992492676,24.22110366821289,-79.78239354001686,40.458073007848455,267.7971214885712,0.0026827668771147,-0.0069295717403292,0.3253202438354492,0.9455747604370116,0.0150831515401467,0.0458332553471678,0.1095294473768669,-0.2551023364067077,-0.0663966462016105,-0.0656300336122512,0.1870268836989999,-0.112784320609644,-10.362491712570192,14932.0
6.3,1.100000023841858,169.0,22.426733016967773,17.175830841064453,-79.78239334349556,40.45807321258947,267.8388111228943,0.0027488155756145,-0.0152248563244938,0.3324534893035889,0.9429928064346312,0.0328594569586566,0.0794689911789726,0.3258683809418921,0.1425236016511917,-0.0227967482060194,-0.0491971373558044,0.1538029129989445,0.1368078527972102,-10.80265256524086,14932.0
6.5,1.100000023841858,161.0,22.36788558959961,18.60715103149414,-79.78239339147693,40.45807328540348,267.87315126609803,0.0012725626584142,-0.0058476687408983,0.3345551490783691,0.9423571825027466,0.0271378741415087,0.0995567306459933,0.3498690951114758,0.195769116282463,0.0456323213875293,0.0004868923861067,0.1592043332755565,0.2424447471275925,-10.244217742681505,14932.0
6.6,1.100000023841858,156.0,22.322813034057614,19.37052154541016,-79.7823935756445,40.4580734041818,267.9487415189743,0.0058535495772957,0.0066894958727061,0.3334276974201202,0.9427338242530824,0.028809808674997,0.1191976502798639,0.2487680961621975,0.0386157482862472,0.0207422021776437,0.0688845068216323,0.2904770107381046,-0.0227208045171573,-9.34181987464428,14932.0
6.8,1.0,144.0,22.21513557434082,20.348588943481445,-79.78239363903644,40.45807350780232,267.9709263677597,0.0067622051574289,0.0063865170814096,0.3319879174232483,0.943237841129303,0.0389743663426027,0.1333052968791599,0.193897920496814,0.0036391119938343,0.0100195966660976,0.0496389493346214,0.3299366714805365,0.0567093397770077,-9.27479733467102,14932.0
6.9,1.0,142.0,22.18508720397949,20.706418991088867,-79.7823933580446,40.45807350278057,268.0067689652443,0.0093290144577622,-0.0003843087470158,0.3289446532726288,0.9443031549453736,0.0716091027846708,0.0837353231138752,0.1011057607884208,-0.072659358382225,0.028205307200551,-0.0092926593497395,0.2196769319102168,0.1081182607915252,-9.500015709400175,14933.0
7.1,1.0,138.0,22.163801193237305,20.467866897583008,-79.78239335404896,40.458073604625454,268.01604940843583,0.0095968693494796,-0.0021475097164511,0.3284548223018646,0.9444684982299804,0.0714608191923224,0.0873931758881271,0.0858229100962735,-0.0102247791364789,0.0154953217133879,0.0104211531579494,0.1982946509867906,0.0110404841881245,-9.618169226646422,14933.0
7.2,1.0,131.0,22.09243392944336,21.12786293029785,-79.78239295231239,40.45807388036191,268.0791414613724,0.0112745156511664,-0.0051529663614928,0.3286805152893066,0.9443598389625548,0.0964878025761766,0.0909888084537328,0.1604794146846421,0.0508066043257713,0.0938241705298423,0.0342076793313026,0.2858155556023121,0.0578426169650629,-10.007211381196976,14933.0
7.4,1.0,130.0,22.141263961791992,21.040393829345703,-79.78239250977902,40.4580739908697,268.1065095896721,0.012837141752243,-0.0041536400094628,0.3285317122936249,0.9443966150283812,0.1086614412953831,0.0674008059347767,0.1893054257109301,0.0080046085640788,0.068920113146305,-0.0161080211400985,0.1478924743272364,0.0331185746379196,-10.089383472204212,14933.0
7.5,1.0,128.0,22.12248420715332,20.80183982849121,-79.78239243391391,40.45807418255623,268.15039839696885,0.0192201230674982,-0.0039355540648102,0.3295899033546448,0.943920373916626,0.0775961433020386,0.0750086581251252,0.2343611648397953,-0.0504412204027175,-0.0216431058943271,-0.0192599333822727,0.3580782606080174,-0.0057190428581088,-9.949261965751653,14933.0
7.7,1.0,127.0,22.02607536315918,21.8355712890625,-79.7823921370674,40.45807436416789,268.18099507045747,0.0185811277478933,-0.0052889552898705,0.329209566116333,0.9440593123435974,0.0873672710410529,0.0875502860148605,0.2309275430860521,-0.0574777349829673,-0.0111723411828279,-0.0240434054285287,0.3312111086770892,0.0300416738307103,-9.91938620209694,14933.0
7.81,1.100000023841858,129.0,22.103702545166016,19.89533805847168,-79.78239178240996,40.45807452736221,268.2360003228188,0.0200711525976657,-0.0082541219890117,0.3301969468593597,0.9436626434326172,0.0581631291311752,0.0817934435586067,0.2417908244320452,-0.0568635649979114,0.0006033738027326,-0.0009740170789882,0.3736527580395341,-0.1024948747269809,-9.946420218944551,14933.0
8.0,1.100000023841858,134.0,21.99101829528809,21.779909133911133,-79.78239180075643,40.45807460012147,268.2602541680336,0.0198751706629991,-0.009013551287353,0.3315353691577911,0.9431903958320618,0.0272701510672612,0.0828192068032592,0.2316797247234533,-0.0102060521021485,-0.0649522617459297,-0.0531626865267753,0.2455524326115847,0.063958041658625,-9.697037640810011,14933.0
8.1,1.2000000476837158,138.0,22.033588409423828,21.223283767700195,-79.78239161031084,40.45807476061812,268.32472732019426,0.018172537907958,-0.004857450723648,0.3338661789894104,0.9424328207969666,0.0184124229918324,0.0902965298347289,0.2614722705395299,0.1712494641542434,0.0363665111362934,0.0222773756831884,0.2554993504285812,-0.0525277217756956,-9.991757190227508,14933.0
8.3,1.2999999523162842,143.0,21.870820999145508,23.65652656555176,-79.78239167385453,40.45807481618832,268.349678539753,0.0185165908187627,-0.0005829866277053,0.3346865773200989,0.9421474933624268,0.0042603917287622,0.08186741376856,0.1928617238281341,0.1621814519166946,0.0567826256155967,0.0032326418440788,0.2164403884112835,-0.0910945400968194,-9.13048980653286,14933.0
8.4,1.2999999523162842,145.0,21.684267044067383,25.27868843078613,-79.78239161939834,40.45807513415504,268.400825404644,0.0078248493373394,0.012784325517714,0.3366602957248688,0.9415069818496704,0.0305427311699156,0.1311686152844351,0.0932990949584171,0.1689705550670623,0.0051034064963459,-0.0402469262480735,0.2501488192006946,-0.0319538275524973,-9.69157634139061,14933.0
8.6,1.2999999523162842,142.0,21.622915267944336,26.59073257446289,-79.78239168879708,40.4580752384551,268.4140839214325,0.0091091627255082,0.0151151493191719,0.3376211822032928,0.9411166906356812,0.0324712722972761,0.1282561405882999,0.1757505323945168,-0.037839762866497,0.1455282419919967,-0.0823778137564659,0.2082441086880863,0.0473501767683774,-10.343636780977253,14933.0
8.7,1.2999999523162842,141.0,21.554052352905277,27.664220809936523,-79.78239160340596,40.4580755659221,268.4946045513153,0.0232078861445188,0.0066262753680348,0.3388924300670624,0.9405155181884766,0.0839412308358828,0.1570696278468757,0.4442846286903053,-0.0629461482167244,0.0512826889753341,0.0386692956089973,0.4542171571031213,-0.0690917508210986,-11.122959530353546,14933.0
8.9,1.2999999523162842,146.0,21.364994049072266,28.23674964904785,-79.78239129412701,40.45807577451382,268.55084716629983,0.0267643071711063,0.0003958410816267,0.3387979567050934,0.9404783844947816,0.0742453276426067,0.1656037100505639,0.5714646594151305,-0.1620249599218368,-0.0026423148810863,-0.0347564369440078,0.4600180701166392,0.0716339740063995,-11.371627578735351,14933.0
9.0,1.2999999523162842,149.0,21.24354362487793,30.852882385253903,-79.78239134769359,40.45807602493595,268.7052063281536,0.0241908989846706,-0.0008074978832155,0.3391376137733459,0.9404253959655762,0.0872492113001515,0.150405521784382,0.9589329943599292,0.1078563928604126,-0.0457144528627395,0.0012635226594284,0.3980981028825045,0.1550190790370106,-11.72210266828537,14933.0
9.2,1.600000023841858,157.0,21.20097541809082,31.71962547302246,-79.78239104907485,40.45807599713569,268.8132454017997,0.0227934960275888,0.0011904636630788,0.3389287889003753,0.9405351877212524,0.0817238762044328,0.1447596839254987,1.1678589193075182,0.0259163733571767,-0.0267559066414833,0.0608077980577945,0.4121814506873489,0.0221153938584029,-11.954613690376284,14933.0
9.3,1.600000023841858,161.0,21.08828926086425,31.60034942626953,-79.78239074896915,40.45807602450164,269.094433539629,0.0236702002584934,-0.0002848329604603,0.3366109430789947,0.941346287727356,0.076133235993496,0.1306301567229646,1.5900551633790163,-0.050775408744812,-0.0245678350329399,0.013434063643217,0.3898830572515726,0.228920155595988,-12.002497708797454,14934.0
9.5,1.7999999523162842,161.0,20.830368041992188,34.908287048339844,-79.7823907378789,40.4580760943086,269.2652168507576,0.0240973215550184,-0.0016867925878614,0.3360257148742676,0.9415429830551147,0.082916021236932,0.1307095415603503,1.814777457842759,-0.0816094055771827,0.0173565223813056,0.1026874110102653,0.3694477329030633,0.1379356619250029,-11.999148423671723,14934.0
9.6,1.8999999761581416,162.0,21.041963577270508,32.912391662597656,-79.78239044068808,40.45807606801539,269.67553784799577,0.0278080627322196,-0.0023083433043211,0.3363924920558929,0.9413083791732788,0.0803922798610451,0.1187246495012888,2.2817448985263016,0.0604407377541065,0.0328847467899322,0.002373153110966,0.4586630509793759,0.128323597703129,-12.211409368515014,14934.0
9.8,2.0,170.0,21.18219375610352,30.35192108154297,-79.78239041985398,40.45807607979409,269.915777229786,0.0262657906860113,0.0043897666037082,0.3358623087406158,0.9415346384048462,0.0801425383975399,0.1215412825908527,2.5137896074088264,0.1596977412700653,0.0149686392396688,-0.00638332311064,0.5798438544943929,0.1702925544977188,-12.148790366649628,14934.0
9.9,2.0,173.0,21.172178268432614,30.272403717041016,-79.78239007893039,40.458075878206,270.46810337257386,0.0193864833563566,0.0247913710772991,0.3346183896064758,0.9418281316757202,0.0292711173399876,0.0879284208907143,2.9011467447250485,0.2086981683969497,-0.0128486063331365,-0.0651238411664962,0.5046034914627672,0.0234023386146873,-11.627169613838197,14935.0
10.1,2.200000047683716,169.0,21.32868385314941,27.11554908752441,-79.78238994591628,40.45807587146565,270.7663069601059,0.0175473280251026,0.0300016440451145,0.3348416984081268,0.9416332244873048,-0.0039407070842392,0.0810100962684066,3.060867366160232,-0.0180590543895959,-0.0862382799386978,-0.0244066044688224,0.4280596744269133,-0.1098494568932801,-11.420385171175006,14935.0
10.21,2.400000095367432,166.0,21.600378036499023,24.18929672241211,-79.7823892742163,40.45807562684025,271.4352385635376,0.0197836887091398,0.0210163593292236,0.3375089168548584,0.9408798217773438,0.0389739416601829,0.034636576024806,3.2670538693464635,-0.1138603240251541,-0.0094898892566561,-0.0330278277397155,0.3196327080577612,-0.0983928519487381,-11.027311946153644,14936.0
10.4,2.700000047683716,156.0,21.526508331298828,24.61074066162109,-79.78238881848594,40.458075377528246,271.79426070404054,0.0197733752429485,0.0171522907912731,0.3387402892112732,0.9405158162117004,0.0974228235186817,0.0091085353060744,3.304617529229501,-0.0433381274342536,-0.0216548331081867,-0.0796846002340316,0.3992902770638466,0.1106652257032692,-10.161270310878754,14936.0
10.5,2.799999952316284,164.0,21.516490936279297,25.62856674194336,-79.7823881766682,40.45807537681903,272.4546396369934,0.0167726632207632,0.0215833019465208,0.3408778309822082,0.9397101402282716,0.1484264345550308,-0.0314091072895984,3.3085669005552565,-0.0163935627788305,0.0150241320952773,0.0512219369411468,0.3333891599625349,-0.0189071728102862,-9.804860297441484,14937.0
10.7,3.0,159.0,21.70179557800293,23.09990310668945,-79.78238801566776,40.45807507628534,272.771582567215,0.0177742391824722,0.0229550208896398,0.3404647707939148,0.9398090243339542,0.1350485849368806,-0.0372094333311039,3.29441195421998,-0.0200910773128271,0.0501576922833919,-0.0205325689166784,0.3718539352342486,0.0319407832366414,-9.787996927499773,14937.0
10.8,3.0,155.0,21.53276824951172,24.97652244567871,-79.7823877254549,40.458074803375226,273.39386769485475,0.0233646277338266,0.0238316189497709,0.3390556573867798,0.9401742219924928,0.1362072095566057,-0.0369094854300613,3.21258021838408,-0.0379852578043937,0.1163397431373596,0.0575144849717617,0.3858041857928038,-0.0982349131722003,-9.50975775539875,14938.0
11.0,3.2000000476837163,154.0,21.550296783447266,24.181344985961918,-79.78238732546951,40.45807479957276,273.7124092216492,0.0278516728430986,0.0247256383299827,0.3380317091941833,0.940397560596466,0.1828643049200233,-0.0356606852518051,3.1875739527809466,0.001881840871647,0.0507092289626598,0.0041899620555341,0.3361102714017033,0.1390358795039356,-9.485488886833194,14938.0
11.1,3.2000000476837163,155.0,21.51774406433105,24.66640281677246,-79.78238713491147,40.4580743640965,274.3394772644043,0.0277922563254833,0.021192017942667,0.3371177315711975,0.9408135414123536,0.1657277877712158,-0.0370046654009722,3.0953860889103733,-0.1094796955585479,-0.1494269073009491,-0.0792579725384712,0.4399218842759728,-0.0110751380771398,-9.252157500386238,14939.0
11.3,3.400000095367432,154.0,21.526508331298828,25.159412384033203,-79.78238669201271,40.458074329872666,274.6443383331299,0.0236045941710472,0.0150823192670941,0.3377655744552612,0.9408133625984192,0.2051850137015634,-0.0713866712934518,3.0406724950519024,-0.0855460092425346,-0.1768334358930587,-0.056840531527996,0.3647614088281989,0.0270379819907248,-9.27143810927868,14939.0
11.4,3.5,151.0,21.481433868408203,24.61869239807129,-79.78238668608178,40.458073669431954,275.276608669281,0.0117687107995152,0.017269903793931,0.3400583267211914,0.9401721954345704,0.1993060542005482,-0.1443773998659351,2.968691118259726,0.0950737968087196,-0.0398415066301822,-0.0577446892857551,0.4313170851767064,0.0350194816058501,-9.422850004434586,14940.0
11.6,3.5999999046325684,168.0,21.49145126342773,24.332427978515625,-79.78238624971543,40.45807362648294,275.5706932182312,0.0073639582842588,0.0207708664238452,0.3431530296802521,0.9390209913253784,0.2000877272680416,-0.1725652714620061,2.938938434262349,0.1137423068284988,-0.0010021788766607,-0.0709895640611648,0.3857356637343765,0.0173076852411031,-9.527236837148669,14940.0
11.71,3.5999999046325684,164.0,21.375009536743164,26.40784072875977,-79.78238635808252,40.45807278538037,276.1988374824524,0.0070886141620576,0.0263434201478958,0.3480458557605743,0.9370805621147156,0.1381367922975204,-0.1770256067219878,2.9435051897488784,0.026253355666995,0.0717300176620483,-0.0368345379829406,0.4315884325280786,-0.1122627215646207,-9.730153931379318,14941.0
11.9,3.5,165.0,21.23477935791016,27.40181350708008,-79.78238635186348,40.45807190393804,276.54433222961427,0.010162703692913,0.0242702327668666,0.3485865890979767,0.936907172203064,0.0842455662784665,-0.1814775550458214,2.965937182315713,-0.115417793393135,0.0409022755920887,-0.0547214038670063,0.5116048743948339,0.0291997752757743,-9.778293473124505,14941.0
12.0,3.5,164.0,21.405059814453125,25.286640167236328,-79.78238548587545,40.4580718355054,277.1373116607666,0.0087948646396398,0.0197487920522689,0.3501607477664947,0.9364401698112488,0.1931890829421956,-0.1458471699997129,2.994541105392536,0.084511213004589,-0.1353857517242431,-0.0787157341837883,0.5403835176676512,0.0462200287543237,-9.921839693784712,14942.0
12.2,3.5,162.0,21.41257095336914,25.859169006347656,-79.78238555345766,40.45807095473832,277.47420474243165,0.0023674825206398,0.0196569077670574,0.3493101000785828,0.9367980360984802,0.1458065651860863,-0.1699130323570264,2.999281530799799,0.0418455563485622,-0.1705053150653839,0.0107649993151426,0.3706703126057983,-0.0929301455430686,-9.72354073047638,14942.0
12.3,3.5,166.0,21.4426212310791,25.83531379699707,-79.78238512218459,40.45806989650264,278.0818278427124,-0.0046323384158313,0.0210448782891035,0.3493446409702301,0.9367464780807496,0.1075083508555309,-0.2359965475972161,2.988118658662384,0.0392153523862361,0.0220290031284093,-0.0658017694950103,0.3413070208579302,0.0726860525552183,-9.750423889160157,14943.0
12.5,3.5,164.0,21.28736686706543,27.20301818847656,-79.78238471519316,40.45806987232066,278.37915202331544,-0.0050597828812897,0.0245360564440488,0.3494036793708801,0.9366374015808104,0.1376455287000475,-0.2142671645188509,2.9710840639849643,0.0624915845692157,0.0247484967112541,0.0295607764273881,0.4222428642958403,-0.1067600348219275,-9.709855322241784,14943.0
12.6,3.5,162.0,21.40005111694336,24.714113235473643,-79.78238357995423,40.45806885469904,278.9882228012085,-0.0085463263094425,0.0201686825603246,0.3492122590541839,0.9367876052856444,0.1415396417498901,-0.2209035062998233,2.966019050695915,-0.0385038666427135,-0.0877738818526268,-0.0450315102934837,0.420491988658905,-0.0969014008250087,-9.844229600429538,14943.0
12.8,3.400000095367432,158.0,21.361236572265625,25.42182159423828,-79.7823831447811,40.45806888754768,279.2838627929688,-0.0089062601327896,0.0156172653660178,0.3516096770763397,0.9359740614891052,0.1864668843657904,-0.2016224182119001,2.9675605466798367,-0.0650307089090347,-0.01446392852813,-0.0744647905230522,0.354919887073338,-0.0496892046416178,-9.834748924970627,14944.0
12.9,3.400000095367432,160.0,21.32743263244629,26.527118682861328,-79.78238179602995,40.45806853845533,279.9005944366455,-0.0051893950439989,0.0062996023334562,0.3538640141487121,0.9352612495422364,0.2743258820492695,-0.1695900257003346,2.9644311263038907,-0.0599306225776672,-0.0250681489706039,-0.0254034604877233,0.3504230127856135,-0.1199570726417005,-9.74516841173172,14944.0
13.1,3.299999952316284,153.0,21.477678298950195,24.88109970092773,-79.7823813883358,40.45806866058415,280.1964728469849,-0.0041207843460142,0.0020845346152782,0.3559900522232056,0.9344784021377563,0.3101299862462515,-0.1178313410072755,2.9703363386123907,-0.0449850745499134,0.0154882278293371,-0.0142534840852022,0.5337001867219806,-0.0834126508980989,-9.918500933647156,14945.0
13.21,3.299999952316284,150.0,21.427595138549805,25.52519416809082,-79.78238012997734,40.45806840922452,280.8145644302368,-0.0093604763969779,-0.0024096048437058,0.3586848080158233,0.9334087371826172,0.3350850527035036,-0.0807567049146446,2.9828840699393213,-0.0287165939807891,-0.1155454367399215,0.0233196504414081,0.3473712047562003,-0.1281542294472456,-9.812269889116289,14945.0
13.4,3.2000000476837163,155.0,21.39253807067871,24.332427978515625,-79.78237901093566,40.45806799288793,281.12829180908204,-0.0122049218043684,-0.0038256892003118,0.3581750690937042,0.9335668087005616,0.3364444114531444,-0.1162123239310177,2.997882004686609,0.0297550894320011,-0.0558281615376472,0.0450078956782817,0.2906056677550077,-0.1864360042847693,-9.894387016296388,14946.0
13.5,3.0999999046325684,155.0,21.39379119873047,24.54712677001953,-79.78237844435272,40.45806839203611,281.7318751449585,-0.0108428439125418,-0.0087863085791468,0.3592400848865509,0.9331408739089966,0.3312286866924048,-0.0157028467779833,3.0292812610828608,0.0525491200387477,0.0174398589879274,0.012363932095468,0.4132509795203805,-0.1844409708492458,-9.94812760591507,14946.0
13.7,3.0,153.0,21.32367515563965,26.15338516235352,-79.78237720926327,40.45806808511446,282.0479523773193,-0.0104682734236121,-0.0088143199682235,0.3568522334098816,0.9340606331825256,0.339691431354544,-0.0088750493459334,3.0361165821328795,-0.0565203353762626,-0.0031830132938921,-0.0955143347382545,0.3956135113164783,0.0804668601974845,-9.847432705163955,14947.0
13.8,3.0,152.0,21.254812240600582,26.00230026245117,-79.78237581036358,40.45806815989064,282.6615302200317,-0.0077325757592916,-0.0149402720853686,0.3528541922569275,0.9355271458625792,0.3498442528137134,0.0538905647805528,3.056745246454963,-0.055971797555685,0.0492227785289287,0.0649584680795669,0.4591402568668127,-0.1742234365828335,-9.998578552007675,14947.0
14.0,2.900000095367432,155.0,21.435108184814453,23.736045837402344,-79.78237568480121,40.45806844288313,282.96829196166993,-0.0056028575636446,-0.0194496996700763,0.3520523309707641,0.9357614517211914,0.3318698802277484,0.1205127006268892,3.072007886361176,-0.1792795062065124,0.0048949723131954,-0.0099590476602315,0.2987196479178965,0.0474603236932307,-9.956271607875824,14947.0
14.1,2.799999952316284,159.0,21.37876510620117,25.07989501953125,-79.7823739899022,40.45806859109409,283.5848185653686,-0.0013371313689276,-0.026041030883789,0.3463647663593292,0.9377374649047852,0.3700612999867408,0.1581716029024195,3.0693871034308504,-0.012453930452466,0.0591091141104698,0.0458929203450679,0.3568000958114862,-0.2163094107806682,-9.879889429807664,14948.0
14.3,2.799999952316284,153.0,21.38126945495605,24.730016708374023,-79.78237400540334,40.458068892111285,283.8930661315918,0.0004883445217274,-0.0293669831007719,0.3470376133918762,0.9373912215232848,0.3279162562213458,0.2259046541851964,3.0815817205347003,-0.0542537048459053,0.0380069576203823,-0.0006509057129733,0.371861719340086,-0.1183485401608049,-9.93086428642273,14948.0
14.4,2.799999952316284,150.0,21.427595138549805,24.75387191772461,-79.7823721233358,40.45806924694006,284.5072075958252,0.0069001941010355,-0.0363841392099857,0.3453215956687927,0.9377534985542296,0.3117092404973537,0.2543932178106305,3.1029635972278564,-0.1594520807266235,0.0484512634575367,-0.0783595964312553,0.305543805398047,0.0053546608239412,-9.959610368013385,14949.0
14.6,2.700000047683716,156.0,21.592866897583008,22.64665222167969,-79.78237230258627,40.458069516983024,284.81844207000734,0.0106710894033312,-0.0392437577247619,0.3484684526920318,0.9364378452301024,0.2674880768873274,0.3106988417466506,3.1027928399374303,-0.0928420275449752,0.0574946627020835,-0.0551706403493881,0.356716042086482,-0.1280830213241279,-9.854455211162568,14949.0
14.71,2.5999999046325684,157.0,21.3599853515625,24.34037971496582,-79.78237036030481,40.458070109025456,285.427873336792,0.0189863946288824,-0.0434876754879951,0.3492477238178253,0.9358282685279846,0.2407025181020048,0.3417389447691106,3.0407754392759414,-0.0073561193421483,0.0557358711957931,-0.0617367103695869,0.3155991159752011,-0.0888873623684048,-9.647153289914131,14950.0
14.9,2.5999999046325684,152.0,21.390033721923828,23.88712882995605,-79.78236833669956,40.45807083481185,285.72187205505367,0.0225915517657995,-0.0437197163701057,0.3416596353054046,0.9385344386100768,0.3110062737802877,0.3399291059576864,3.0223673155721493,-0.0413033105432987,0.1156297102570533,-0.0660105720162391,0.2671636320278048,0.0280163308046758,-9.742093945741654,14950.0
15.0,2.5,149.0,21.362489700317383,25.14350891113281,-79.78236897880892,40.45807119609528,286.32778903198243,0.0320496633648872,-0.0431730113923549,0.343613862991333,0.9375705122947692,0.1148134739315771,0.4000517176816325,3.0167540882196384,-0.039317712187767,0.0672439560294151,-0.0731101110577583,0.2680716498009861,0.0670649596955627,-9.757438209056852,14951.0
15.2,2.5,148.0,21.336196899414062,25.47748374938965,-79.7823668010712,40.458072513059385,286.6192338104248,0.0367205552756786,-0.0444141216576099,0.3326600193977356,0.9412844777107242,0.1984626376064011,0.4135450738413831,3.006098074939373,-0.0890488550066948,0.1120030507445335,0.0107966158539056,0.2304650996066629,-0.0318571109510958,-9.887832287549973,14951.0
15.3,2.5,149.0,21.30990219116211,24.674354553222656,-79.78236566204747,40.458074248687744,287.2154309387207,0.04637436196208,-0.0458451211452484,0.325032889842987,0.943451762199402,0.1556176102996004,0.4753154480187177,3.0318669539232896,-0.0156996641308069,0.0954605042934417,-0.067552350461483,0.2703033492900431,0.0787677506916224,-9.981731554269787,14952.0
15.5,2.5,137.0,21.799455642700195,18.63895797729492,-79.78236611650591,40.458074321165206,287.5203435058594,0.0503102652728557,-0.0465718358755111,0.3264407217502594,0.9427282214164734,0.0373483175596782,0.4533316693440614,3.0366516210176653,-0.0594579577445983,0.092352457344532,-0.0029513088520616,0.1631782837584615,-0.0653317536134272,-9.81187110900879,14952.0
15.6,2.400000095367432,134.0,21.695533752441406,19.87943458557129,-79.78236579131331,40.45807630839497,288.10960360717775,0.0632830709218978,-0.0477940402925014,0.3186150789260864,0.9445609450340272,-0.0356768499488933,0.4928956647173027,2.8861016167898628,-0.0438247956335544,0.1479217708110809,0.0169165376573801,0.2107058778405189,0.1016512494161725,-9.021849124431611,14953.0
15.8,2.400000095367432,146.0,21.872074127197266,18.14594841003418,-79.7823663891713,40.458076226349,288.3933503265381,0.070983812212944,-0.0468748919665813,0.3183497786521912,0.9441490769386292,-0.1393936320532594,0.4492907553361544,2.7987323523024403,-0.0114787323400378,0.1848471164703369,0.0373836308717727,0.1888384607434272,-0.0136705709248781,-8.925496366024017,14953.0
15.9,2.299999952316284,158.0,21.902122497558597,17.25535011291504,-79.78236687687941,40.45807796012432,288.9239499206543,0.0979091823101043,-0.0465928725898265,0.3065000772476196,0.9456746578216552,-0.2547740109055565,0.4506399800991725,2.5558875297661707,-0.0671023800969123,0.3120225369930267,0.0408718287944793,0.1325228669866919,0.1391947958618402,-8.518555299639702,14953.0
16.1,2.400000095367432,184.0,21.690526962280277,19.577266693115234,-79.78236756555066,40.4580776581816,289.1692483062744,0.1127337664365768,-0.0440528206527233,0.3066396713256836,0.9440988302230836,-0.3646104694619775,0.3937969167701171,2.4241529616210435,-0.0124771306291222,0.2393446564674377,0.0201852843165397,0.2196504915319384,0.1672338759899139,-8.463578023910522,14954.0
16.21,2.400000095367432,216.0,21.763145446777344,19.35461807250977,-79.78236866433973,40.45807973461902,289.6292588348389,0.1312881112098693,-0.031648401170969,0.2978568375110626,0.9450096487998962,-0.4938970743783738,0.3466465275918796,2.2139099262929176,0.1450691521167755,0.1973228305578232,0.0129966009408235,0.276749630458653,0.2319303570315242,-8.705126502513886,14954.0
16.4,2.400000095367432,299.0,21.59537124633789,22.026412963867188,-79.782369770098,40.458082356992186,289.87161990356446,0.1372265964746475,-0.0220966376364231,0.2868679165840149,0.9478330016136168,-0.5496204072869556,0.4119662525267042,2.129637512817668,0.1986818611621856,0.2081717401742935,0.0096304817125201,0.4377993084490299,0.2235010840371251,-8.909392549395562,14954.0
16.5,2.5,317.0,21.46014976501465,22.91701316833496,-79.78237118219431,40.45808208821172,290.293861114502,0.1437140554189682,0.0039895744994282,0.285749226808548,0.947458565235138,-0.7424165286135099,0.107336225539736,2.071141251269504,0.3347965180873871,0.068988062441349,0.0349913127720356,0.4088783585652709,0.2296520259976387,-9.307851060032846,14955.0
16.7,2.5999999046325684,324.0,21.607891082763672,21.056297302246094,-79.78237340653338,40.45808563542872,290.570150100708,0.1422007232904434,0.0168335139751434,0.2671543657779693,0.9529555439949036,-0.8093296476282014,0.2398411064061886,2.048231728446116,0.3211768865585327,0.0572454221546649,0.034132994711399,0.3373137014731765,0.2780713935568929,-9.399581009745598,14955.0
16.8,2.700000047683716,327.0,21.56156539916992,22.583038330078125,-79.78237687568058,40.458087706227005,291.0189263458252,0.1399209648370742,0.0376897454261779,0.2397137135267257,0.9599682092666626,-0.9579705315119096,0.1384211762186919,1.98598109072301,0.2378069311380386,0.0185242835432291,-0.0006102083134464,0.4249826502799988,0.4834132915735245,-9.32760353922844,14956.0
17.0,2.799999952316284,344.0,21.632932662963867,20.809791564941406,-79.78237751462737,40.458086836228034,291.20810290527345,0.1387345343828201,0.0533660091459751,0.2410779297351837,0.9590548872947692,-0.9128991710703832,-0.1419919126531911,1.980460293474676,0.3142236769199371,0.0519832745194435,-0.0547403916716575,0.6591863682121039,0.526369569003582,-9.388625666499136,14956.0
17.1,2.900000095367432,358.0,21.6917781829834,19.58521842956543,-79.78237996579395,40.45808553220543,291.55275317382814,0.1321470290422439,0.0845907330513,0.2349603027105331,0.95925772190094,-0.901481956835274,-0.4877217393625482,1.872883299714672,0.2845823466777801,-0.0025462338235229,0.0167034789919853,0.6931953824311495,0.4830985286459327,-9.229176188707353,14956.0
17.3,3.400000095367432,355.0,21.89961814880371,17.27125358581543,-79.78238006910641,40.45808433617639,291.7177559967041,0.1286771744489669,0.0999034345149994,0.2348645031452179,0.9582798480987548,-0.7951540432298259,-0.7202795548001909,1.815166144898728,0.2919747233390808,-0.0328082330524921,0.1066884547472,0.6318543626368046,0.4131854907050729,-9.039201321601867,14956.0
17.4,3.5,353.0,21.94344139099121,16.921375274658207,-79.78238671900397,40.45808688876159,292.12374468994136,0.1246674358844757,0.1239588484168052,0.1898951381444931,0.9659359455108644,-0.8015510794838847,-0.8059114600504661,1.5873054271459324,0.3061264753341675,-0.1316888481378555,0.1637237221002578,0.6570823207497597,0.3174872184544802,-8.427794233560562,14957.0
17.6,3.799999952316284,87.0,22.203866958618164,15.140177726745604,-79.78238666253661,40.45808565587479,292.2542721862793,0.1058550477027893,0.1282475292682647,0.1954385042190552,0.9665148854255676,-0.6917437247201267,-0.8910092976446045,1.4255638705667857,-0.3304715752601623,-0.9741549491882324,-0.0666642934083938,1.586868839263916,-0.3391909500584006,-7.859247820973398,14957.0
17.71,4.0,108.0,21.7844295501709,18.464019775390625,-79.78239251513229,40.45808558336378,292.5081441040038,-0.0330197773873806,-0.0291320793330669,0.1576965004205703,0.986505389213562,-0.6532820820452337,-0.9917131602217334,0.777566023407519,-1.5731215476989746,-1.864434003829956,0.4334624409675598,0.8996028258651495,0.465153241083026,-7.288219265341759,14957.0
17.9,4.300000190734863,105.0,22.15503692626953,13.42259407043457,-79.78239930172761,40.45808747266714,292.69521495056154,-0.0852514579892158,-0.0994516015052795,0.0925694704055786,0.9870524406433104,-0.8471778951491279,-0.9292544166360436,0.7117599422324483,-0.2976375222206116,-0.8490140438079834,0.4939996302127838,0.0106952700577676,1.5676196591556073,-8.64090828716755,14957.0
18.0,4.5,102.0,22.220144271850582,16.014873504638672,-79.78240066486543,40.45808569151408,292.8344418640137,-0.0268208719789981,0.0223353132605552,-0.0024359349627047,0.999387800693512,-0.5579984684210872,-0.9738522251205898,0.4100080795788341,1.9657928943634035,1.4509494304656982,1.1351972818374634,-0.4453002628684044,1.005527183935046,-7.678002262115479,14957.0
18.2,4.900000095367432,235.0,21.566574096679688,21.19147682189941,-79.7824024583937,40.45808377677485,292.8514687652588,0.0368582382798194,0.1124710515141487,-0.0673181787133216,0.9906867146492004,-0.5308284640447073,-0.9268671829704836,0.127086178463233,1.2386623620986938,0.8867952227592468,1.1589434146881104,1.0128975992649794,-0.6685799932479859,-7.153297687768936,14957.0
18.3,5.0,210.0,21.666736602783203,20.380395889282227,-79.78240574185209,40.45808101608071,292.90178271484376,0.054550714790821,0.0892387181520462,-0.2005313485860825,0.9740883111953736,-0.1624036690993187,-0.9993198531712244,0.1022254596252651,-1.1340863704681396,0.0822377800941467,1.2097299098968506,1.3934123937785623,-0.7610741740465164,-8.9958582508564,14957.0
18.5,5.099999904632568,201.0,21.606639862060547,20.865455627441406,-79.7824064077392,40.45808022116493,292.9147450561524,0.0379531607031822,0.0440788231790065,-0.2683208584785461,0.961571991443634,0.1242197114895881,-0.9836430648239612,0.1291683199825725,-0.8341135978698729,-0.0742165520787239,1.3258354663848877,1.075468215420842,-0.1311237561888993,-9.448322229981423,14957.0
18.6,5.199999809265137,197.0,21.574085235595703,21.30280303955078,-79.78240747036517,40.45807858536092,292.943591796875,0.0168005973100662,0.0173052735626697,-0.4050944745540619,0.9139566421508788,0.4914915964407898,-0.8438538037257134,0.1316623727710232,-0.0627917945384979,-0.0074211251921951,1.4619221687316897,0.5584100815281272,-0.281320289298892,-9.93650801897049,14957.0
18.8,5.199999809265137,271.0,21.710559844970703,19.40232849121093,-79.78241248510814,40.45807688997712,292.9941174621582,0.0147507088258862,0.0144925704225897,-0.4820094406604767,0.8759219646453857,0.5643069460636083,-0.8981108976097015,0.1850187575321575,0.0007244979497045,0.0035602613352239,1.6220117807388306,0.6527075801789761,-0.6933262869715691,-9.963178339004518,14957.0
18.9,5.099999904632568,285.0,21.560312271118164,21.68448829650879,-79.78241562975782,40.45807329589893,292.96929904174806,0.0100590381771326,0.0049090427346527,-0.6124373078346252,0.7904399037361145,0.807570291549745,-0.7012842955703779,0.1708139661540103,-0.0981174930930137,0.1023562476038932,1.4219743013381958,0.4615494924411178,-0.5325913719087839,-9.843709198236466,14957.0
19.1,5.0,272.0,21.51774406433105,22.757976531982425,-79.78241600030225,40.4580723962569,292.98330851745607,0.0060514938086271,-0.0001686901960056,-0.671578586101532,0.7409086823463441,0.8587377854999313,-0.540305064778396,0.1620308470514974,-0.2172721922397612,-0.0793129131197929,1.640161156654358,0.2520850881189108,-0.547373023442924,-9.829187053442002,14957.0
19.21,4.900000095367432,264.0,21.522750854492188,21.461837768554688,-79.78241767784601,40.45806847351062,292.89245959472663,-0.001703284215182,-0.0134869469329714,-0.7778695225715637,0.6282788515090942,0.9354393886207776,-0.2583882041156983,0.1184739121939907,-0.2387066632509232,-0.0247181504964828,1.5471583604812622,0.1118312884122133,-0.3985533451661468,-9.99358853816986,14957.0
19.4,4.699999809265137,278.0,21.511484146118164,21.93894386291504,-79.78241749808308,40.458065383678495,292.7351586456299,-0.005644092336297,-0.0190939046442508,-0.8207024931907654,0.5710088610649109,0.9677847604999936,-0.1052004234215532,0.0340802773343907,-0.1847705096006393,0.0384214334189891,1.4182932376861572,0.0840710199717432,-0.3391981494426727,-9.835479826927186,14957.0
19.5,4.599999904632568,282.0,21.550296783447266,21.899185180664062,-79.78241904491061,40.45806372691405,292.7743355865478,-0.0197478532791137,-0.0236014891415834,-0.8967553377151489,0.4414553642272949,0.8317818584792241,0.1150909495894,0.0454186500184968,-0.1136743351817131,0.0158458352088928,1.3749291896820068,-0.2412481875345111,-0.5356231166794896,-9.915421789884569,14957.0
19.7,4.199999809265137,264.0,21.23477935791016,25.75579643249512,-79.78241726299117,40.45806090442117,292.57520838928224,-0.0251987241208553,-0.0300750602036714,-0.920965611934662,0.387663334608078,0.7220224821511892,0.2621063744598793,-0.0336554423472479,-0.0945315957069397,0.0897021666169166,1.2438586950302124,-0.3265441900491714,-0.2909495023079217,-10.038999184370038,14957.0
19.8,4.099999904632568,255.0,21.20347785949707,25.67627716064453,-79.78241581095429,40.45805757598625,292.3853985900879,-0.0205676406621933,-0.0393014065921306,-0.9530858397483826,0.2994324266910553,0.4708562646392042,0.3569018237312748,0.0455476567809264,-0.0072294762358069,0.0439524315297603,0.7882525324821472,-0.1643981956690549,-0.3508332315087318,-10.859012707471848,14957.0
20.0,3.799999952316284,257.0,21.751876831054688,21.24713897705078,-79.78241590237471,40.45805714151064,292.40041705322267,-0.042110938578844,-0.0466928258538246,-0.9619233012199402,0.2659889161586761,0.1896115411147145,0.3283125002324947,0.1605294264352666,-1.5141347646713257,0.048337884247303,0.4882844984531402,-0.0229625274986028,-1.5467249263823033,-10.883504354953766,14957.0
20.1,3.5999999046325684,252.0,20.775278091430664,33.0634765625,-79.78241221580805,40.45805354240152,292.1426980133057,-0.234038770198822,-0.1469340920448303,-0.9307629466056824,0.2394088357686996,-0.4842029895376778,0.146932606796427,-0.0427392716490768,-1.6003422737121582,0.6138182282447815,0.2118941247463226,-0.1192295876517892,0.4637952252477408,-9.73460307776928,14957.0
20.3,3.299999952316284,231.0,20.365856170654297,36.53044891357422,-79.78241146191573,40.45805379308322,292.12573405456544,-0.2698466181755066,-0.1834886074066162,-0.9167373180389404,0.2304509133100509,-0.91652741408708,-0.0162486620299641,0.3719878807646503,-0.3864242434501648,0.3378174602985382,0.0986830219626426,0.13857985150069,0.8436693841964007,-11.188361806869509,14957.0
20.4,3.299999952316284,220.0,20.748985290527344,30.566619873046875,-79.78240654480517,40.45805297007943,291.87051554870607,-0.2094054520130156,-0.1610915660858154,-0.933111608028412,0.2439297139644623,-1.7288671012936592,-0.2415842180988139,1.3122821016350188,1.6945438385009766,-0.7491461038589478,-0.1155998557806015,0.7641802150011063,1.4636166961491108,-12.294018831253052,14956.0
20.5,3.0999999046325684,163.0,21.173429489135746,24.39604187011719,-79.7824044034161,40.45805438539672,291.8758771057129,-0.1282937675714492,-0.097471497952938,-0.9543284177780152,0.2515895962715149,-2.1499004575755785,-0.3944113342649436,1.3864569198277763,1.9931236505508425,-0.9642234444618224,0.0269550830125808,0.3546602341532707,0.8561592561006547,-11.733738627433777,14956.0
20.7,3.0,168.0,21.55906105041504,21.74810218811035,-79.78239981150519,40.458053023219534,291.68656130981446,-0.0502158179879188,-0.0406006462872028,-0.9645589590072632,0.2558435499668121,-2.5685914686925906,-0.4917282499788235,1.0123917721418725,1.4804649353027344,-0.4836855530738831,0.1098474040627479,-0.3340633804723621,0.1899509666115045,-11.184122575521467,14956.0
20.9,3.0,146.0,21.977245330810547,15.720657348632812,-79.78239251931487,40.45805319738164,291.6139542694092,0.0443733446300029,-0.0349975600838661,-0.9655746221542358,0.2539130449295044,-2.7504182672051334,-0.5586071585339417,0.2853971455301246,0.4512195885181427,0.5763485431671143,0.0241831094026565,-0.3121258698776365,0.1685893336683512,-10.387570420503618,14956.0
21.0,2.900000095367432,135.0,21.751876831054688,19.593170166015625,-79.78238757070159,40.458048883762544,291.7013852233887,0.0657458305358886,-0.0600554086267948,-0.9724575877189636,0.2154002785682678,-2.6914549132018246,-0.0530840906877591,0.1950368996542469,0.3364552855491638,0.7203421592712402,-0.0335250496864318,-0.0640697737270966,0.3185396441817284,-9.652956066727636,14956.0
21.2,2.900000095367432,152.0,21.456392288208008,22.83749389648437,-79.78237635088671,40.458047488857495,291.47608729553224,0.1139625906944274,-0.1245194375514984,-0.9628467559814452,0.2107928246259689,-2.460245479226287,-0.3486998333632788,-0.1860338799808438,0.3235633671283722,0.6421880722045898,0.0213554985821247,0.1434271384589374,0.4456608168035746,-9.20864602982998,14956.0
21.3,2.900000095367432,144.0,21.15464973449707,26.376033782958984,-79.78237405684389,40.458048762502216,291.47852297973634,0.1372343152761459,-0.1463362276554107,-0.9565776586532592,0.2114515155553817,-2.227690609993774,-0.6286157906739451,-0.2267179515715065,0.3616353869438171,0.2804802060127258,0.0914280861616134,0.3803977040201425,0.3085624670237303,-9.393391731977465,14956.0
21.4,2.900000095367432,128.0,21.082029342651367,26.702056884765625,-79.78236760579584,40.45805107015664,291.32430812072755,0.1675360351800918,-0.1443139910697937,-0.95039701461792,0.218748152256012,-1.7705890517996263,-1.104651180262136,-0.1478528778956527,0.158300295472145,-0.2609021961688995,-0.0919476151466369,0.7256836820393802,0.3263654114305973,-10.356611752510071,14956.0
21.6,2.900000095367432,122.0,21.25731658935547,24.39604187011719,-79.78236256897006,40.458054488471326,291.1872841949463,0.1273740381002426,-0.052912525832653,-0.9572989344596864,0.2540766298770904,-1.4202338405114932,-1.2853372047016058,-0.1453642813817708,-0.6106061935424805,-2.4478204250335693,-0.8202580213546753,1.8038167659938336,-0.3052678350917995,-9.674485514760017,14956.0
21.7,2.900000095367432,114.0,21.45388984680176,21.597017288208008,-79.78236181499058,40.45805606708869,291.1711747283936,0.0640496239066124,0.0393212959170341,-0.949840247631073,0.3035703897476196,-1.2897648881356216,-1.3198396294343917,-0.1966789958500068,-0.6018686890602112,-1.2758607864379885,-0.8371219038963318,-0.5240646696835757,-0.1093735118117183,-10.216622393131257,14956.0
21.9,2.900000095367432,106.0,21.3599853515625,22.93291664123535,-79.78235733377977,40.4580581885488,291.0938012237549,0.0394893586635589,0.0571687519550323,-0.934498131275177,0.3491210639476776,-1.4027181670242796,-1.099666408085064,-0.2732988908254805,-0.0720506310462951,0.3374224603176117,-1.1007447242736816,-0.9621322922408582,0.3084839316084981,-10.901920745372774,14956.0
22.1,2.900000095367432,97.0,21.331188201904297,22.78183174133301,-79.78235635729962,40.458061040793694,291.10177394104005,0.0843212977051734,-0.0122612426057457,-0.8839017152786255,0.459845095872879,-1.2598189719946102,-0.7557050541783906,-0.0776090398006286,0.3090409338474273,0.7853551506996155,-1.4718313217163086,0.2732682713493705,0.5895060494542123,-10.324702327251437,14956.0
22.21,2.799999952316284,94.0,21.312406539916992,22.43195343017578,-79.78235255720378,40.45806372719533,291.0610329742432,0.1070803180336952,-0.0390432253479957,-0.8502273559570312,0.5139288902282715,-1.3475987673529106,-0.5400072713047994,-0.0420793560804639,0.2578974068164825,0.3872082233428955,-1.4795854091644287,0.7637558533251286,0.3347298534214497,-10.22097155213356,14956.0
22.3,2.700000047683716,65.0,21.341203689575195,23.55315399169922,-79.78234870103266,40.458068819818735,290.9807984466553,0.1097757890820503,-0.05162063986063,-0.7653541564941406,0.6320741176605225,-1.3474558709934206,-0.3350184043385935,-0.0339311770061656,0.1546899974346161,-0.1431550234556198,-1.5882292985916138,0.6811317725479603,0.3341897899657488,-10.218526246547698,14955.0
22.5,2.5999999046325684,43.0,21.37626266479492,21.915088653564453,-79.78234883180792,40.45807112252147,291.0033070678711,0.1006112098693847,-0.0441333130002021,-0.6590444445610046,0.7440363764762878,-1.1673161129812522,-0.2743605393940714,0.128020001687494,0.1467855274677276,-0.2002744972705841,-1.4956421852111816,0.3049904577992857,0.2373367291688919,-10.50813649892807,14956.0
22.7,2.5,42.0,21.301137924194336,23.31460189819336,-79.78234651588694,40.45807571986481,290.9085270996094,0.0969261080026626,-0.0416624695062637,-0.6031542420387268,0.7906166911125183,-1.2788624146480638,-0.1365660145710904,0.0682583802989946,0.1476995795965194,-0.1497082859277725,-1.5286469459533691,0.319425899349153,0.3278895612806082,-10.294130744934083,14955.0
22.8,2.5,42.0,21.32993507385254,23.12375831604004,-79.7823469706363,40.45807677232161,290.921453201294,0.0968044251203537,-0.0388667695224285,-0.5401502847671509,0.8350784778594971,-1.1910765543714692,-0.1155240888732607,0.1088318747374193,0.1653638184070587,-0.0623533353209495,-1.6365269422531128,0.3999891289696097,0.5002294452488423,-10.239953953027726,14955.0
22.9,2.400000095367432,26.0,21.37250518798828,22.55918312072754,-79.78234709965757,40.45808132892611,290.8794724578857,0.0981035381555557,-0.0344179533421993,-0.4071625173091888,0.9074193239212036,-1.1403982670451256,0.0205283781482082,0.1244578490221646,0.1973000764846801,-0.0481931753456592,-1.5774129629135132,0.3756286783888936,0.4120378284528852,-10.31907028913498,14955.0
23.1,2.400000095367432,12.0,21.401302337646484,21.469789505004886,-79.78234707876446,40.458086082572606,290.8544041748047,0.0975528433918953,-0.0302434414625167,-0.2643884718418121,0.9589930772781372,-1.0624845555203732,0.201809080453381,0.1035291015697409,0.1609381884336471,0.0203275140374898,-1.4612433910369873,0.268762461785227,0.3879051634669304,-10.124898290634157,14955.0
23.2,2.400000095367432,14.0,21.388782501220703,21.398223876953125,-79.78234794898425,40.45808673334236,290.86945506286617,0.0983628630638122,-0.0299269016832113,-0.1950175315141677,0.9753959774971008,-0.9784133453466892,0.1829961831001763,0.1204945215890891,0.1561578810214996,0.0345715694129467,-1.3059033155441284,0.3137867349386215,0.3373540838062763,-10.019661272764209,14955.0
23.4,2.400000095367432,16.0,21.527759552001957,20.714370727539062,-79.78234824158353,40.4580893740478,290.8691117401123,0.0977431684732437,-0.0308927074074745,-0.1386162638664245,0.9850266575813292,-0.9451697229675022,0.2620532809946317,0.0866839425322161,0.0848633348941803,0.0572438649833202,-1.0616995096206665,0.22428621891886,0.5062774396687746,-9.905171620845795,14955.0
23.6,2.5,348.0,21.03319931030273,25.668325424194336,-79.7823501233138,40.45809012083796,290.8892285461426,0.1031553000211715,-0.0306049399077892,-0.0597658790647983,0.9923962354660034,-0.853142363036028,0.0906945525650649,0.0995281030272406,0.1332116723060608,0.2105099856853485,-0.5021108984947205,0.2098366344161332,0.4485063277557492,-9.780132422447204,14955.0
23.71,2.5,333.0,21.215999603271484,25.71603775024414,-79.78235110557726,40.45809196186328,290.9059922332764,0.1019118204712867,-0.0376732647418975,-0.040755920112133,0.9932440519332886,-0.95564296989428,0.0331617165612593,0.1112212415573004,-0.6857241988182068,0.2219563275575637,-0.3736570775508881,-0.2726705031841993,-0.3253982819616795,-10.105111312866214,14955.0
23.8,2.700000047683716,335.0,20.71267509460449,31.98203468322754,-79.78235355256163,40.45809355422834,290.9512765045166,0.1821275949478149,-0.1680389642715454,-0.0326868593692779,0.968258261680603,-1.233131323293066,-0.3290624839734825,0.4147548781529492,-0.9095104932785034,0.7924619317054749,-0.1536244451999664,0.5191596597433089,0.7798946070671082,-10.317962826490405,14955.0
24.0,2.799999952316284,337.0,20.635047912597656,31.520832061767567,-79.78235723555848,40.45809250360457,290.97666903686525,0.1910448670387268,-0.1800223886966705,-0.0357675664126873,0.9642689824104308,-1.5277121507795686,-0.7724619568276607,1.2945072584721116,0.7267918586730957,-0.7027387022972107,0.1288298964500427,1.1920563599467278,1.411953476071358,-11.396291134357451,14955.0
24.1,3.0,5.0,21.09830665588379,24.21315193176269,-79.78235938139011,40.458094420061975,291.05831690979005,0.1391557157039642,-0.1250434070825576,-0.0477978475391864,0.9811806082725524,-1.7627671813966397,-0.837147477845586,1.4183153569330198,1.3143566846847534,-1.334589958190918,0.1243494823575019,1.1485918132960795,1.2767275509238245,-11.20802716255188,14956.0
24.3,3.0999999046325684,0.0,21.65046119689941,18.599199295043945,-79.78236201067563,40.458093409780666,291.0928666229248,0.0722379609942436,-0.0543243587017059,-0.0559456832706928,0.9943342208862304,-1.9590636653504667,-1.1782442543555478,1.251733730716387,1.322779417037964,-1.3216722011566162,0.1830392628908157,0.5786944746226073,0.8335399601608515,-10.71009932756424,14956.0
24.5,3.5,356.0,21.80696678161621,16.643062591552734,-79.78236720970914,40.45809565305291,291.26409312438966,-0.0049352776259183,0.0339369997382164,-0.0760474503040313,0.9965142607688904,-2.119764363296724,-1.3041846436460622,0.4727734927917787,0.4449748396873474,-0.2422604411840439,0.1765942722558975,0.173280225880444,0.3212879817187786,-10.038365346193316,14956.0
24.6,3.700000047683716,353.0,21.952205657958984,13.669099807739258,-79.78237248698098,40.458099652434726,291.4359471435547,-0.0006088677328079,0.0658422484993934,-0.0930603742599487,0.993480920791626,-1.9644117884208765,-0.9159566241641706,0.1041439394451137,0.3138521909713745,0.1031907349824905,0.1277393698692321,0.3798859264701605,0.3195604218542576,-9.028780998587608,14956.0
24.7,4.0,255.0,21.96347427368164,14.957286834716797,-79.78237481610897,40.45809914884051,291.4609124298096,0.0086073707789182,0.0773448273539543,-0.0939233228564262,0.992533266544342,-1.7587085156841116,-0.8821227720618758,-0.0781029479920113,0.2319917678833008,0.1676686406135559,-0.061702225357294,0.8582011038064957,0.4712562358751893,-8.646916885972024,14956.0
24.9,4.099999904632568,240.0,21.85204124450684,18.13004493713379,-79.78237772582659,40.45810294915201,291.5528561706543,0.0145651865750551,0.0877794027328491,-0.102565087378025,0.9907386898994446,-1.7112411050541187,-0.5721532971788131,-0.2386636648625421,0.2044956982135772,0.09525216370821,0.0454575270414352,0.7866387856006622,0.216974166110158,-8.408137063980103,14956.0
25.1,4.199999809265137,235.0,21.82574844360352,17.136072158813473,-79.78238155026663,40.458102578435934,291.5235020751953,0.0076374113559722,0.0936896279454231,-0.0975193679332733,0.990784466266632,-1.2872451508598497,-0.4737722052161456,-0.5483571583073706,-0.0520654171705246,-0.2691569924354553,0.0371226295828819,0.6465953394770623,-0.0292336114682257,-8.499079978466034,14956.0
25.2,4.300000190734863,232.0,21.620410919189453,19.935096740722656,-79.78238439093163,40.45810582645112,291.5919015045166,-0.0076339892111718,0.0858793184161186,-0.0987078845500946,0.9913744330406188,-1.220746933704134,-0.2090895091266074,-0.6206835721403746,-0.2349691987037659,-0.2665959596633911,-0.143619880080223,0.7817000079900027,0.1480543873831629,-8.677534076571465,14956.0
25.3,4.199999809265137,221.0,21.53902816772461,20.952924728393555,-79.78238847914065,40.45810854055753,291.6188542480469,-0.0447156429290771,0.0629485622048378,-0.0912779495120048,0.992827534675598,-1.0139974090816073,0.1683642150433381,-0.6464728758288963,-0.2933783233165741,-0.2742858231067657,-0.0918575823307037,0.565670788474381,0.4553530883789063,-9.18860996067524,14956.0
25.5,4.099999904632568,230.0,21.312406539916992,22.81363868713379,-79.78239058845217,40.458109382116334,291.51051875305177,-0.0797125697135925,0.0463867746293544,-0.0842446535825729,0.992167830467224,-0.7956074106003477,0.5597833913571474,-0.5550699305996539,-0.1780371814966201,-0.3922551572322845,0.0513821095228195,0.4240550626069308,0.268757162746042,-9.947614220380784,14956.0
25.6,4.0,228.0,21.22726821899414,24.141586303710927,-79.78239274032858,40.45811203538752,291.6153084869385,-0.0977391228079795,0.0397047810256481,-0.0831314623355865,0.9909388422966005,-0.7981730792063833,0.8775668253664505,-0.3646625853397327,-0.2041788399219513,-0.3468874990940094,-0.1311757713556289,0.5310406172275544,0.3926618734002113,-10.251943084001544,14956.0
25.8,3.799999952316284,230.0,21.112079620361328,25.93868637084961,-79.78239345967685,40.458112988834685,291.5733277435303,-0.11600873619318,0.0345780551433563,-0.0816316679120063,0.9892839193344116,-0.721071731390778,1.137060868324709,-0.2132995708450255,-0.0753138288855552,-0.3713261187076569,-0.0152500504627823,0.3463269285857677,0.2989769619517029,-10.594599276781082,14956.0
26.0,3.400000095367432,244.0,20.95181655883789,27.529041290283203,-79.78239503629106,40.45811676316444,291.6286389465332,-0.1493439972400665,0.032199990004301,-0.0774597227573394,0.9852205514907836,-0.621033457633499,1.7554884687099326,0.3019303310998517,-0.0482111796736717,-0.2581380903720856,0.0059770382940769,0.1278249215707183,0.2154243798740208,-11.071237399578097,14956.0
26.11,3.2000000476837163,250.0,20.936792373657227,27.94253349304199,-79.78239493949347,40.45812030544265,291.5784794921875,-0.1662148684263229,0.0228381194174289,-0.0748271495103836,0.9829812049865724,-0.4756857174639035,2.3575065400993926,0.7692563685841352,-0.2258195281028748,-0.1118096783757209,-0.1190504506230354,0.2641621465981007,0.2744601166248321,-11.303459569215777,14956.0
26.2,2.799999952316284,261.0,20.85791206359864,27.95048522949219,-79.78239497562987,40.45812274551576,291.5820138092041,-0.1723532527685165,0.0123868770897388,-0.0733755603432655,0.982220470905304,-0.4409979660192078,2.6866187897779907,1.0104971387444808,-0.2295870035886764,-0.1795322299003601,-0.0390751101076602,0.1189228646457195,0.2196897592395544,-11.323121416568757,14956.0
26.4,2.799999952316284,267.0,20.906742095947266,28.05385780334473,-79.78239415424036,40.45812561910473,291.5369965667725,-0.1803489774465561,0.0013982766540721,-0.0749009177088737,0.9807457327842712,-0.3600005952859333,3.02585540800586,1.2240199876698057,-0.2085138410329818,-0.1725727915763855,0.0162194110453128,0.1295834534056484,0.113007839564234,-11.293236297369006,14956.0
26.6,2.700000047683716,286.0,20.80657958984375,28.43554306030273,-79.78239378975051,40.458132245539815,291.5762574310303,-0.1961244940757751,-0.028232617303729,-0.0714079439640045,0.977567970752716,-0.3921501586256504,3.6774183957071576,1.7753630295526537,-0.3508302271366119,-0.1206325963139534,0.0445877276360988,-0.0700230706622824,0.1595044050738215,-11.362952649593351,14956.0
26.7,2.700000047683716,298.0,20.906742095947266,27.028079986572266,-79.78239259072616,40.45813635461997,291.57388468933107,-0.2017449289560318,-0.0449647568166256,-0.0720366388559341,0.975749969482422,-0.3617044893395808,4.0207101896786765,2.055065935133455,-0.3848693072795868,-0.0389604195952415,-0.0327505432069301,-0.1864132549613714,0.3031499735824764,-11.458283314704897,14956.0
26.8,2.900000095367432,313.0,20.940547943115234,27.19506645202637,-79.78239103046133,40.45814544753289,291.62453623962404,-0.2077546864748001,-0.0781708061695098,-0.0701817274093627,0.9725234508514404,-0.4292515500730061,4.693489041498799,2.5533975201426853,-0.3371580243110657,-0.0058488678187131,0.0353751666843891,-0.2486544353328645,0.3051121712476015,-11.105769885778429,14956.0
27.0,3.0999999046325684,320.0,20.970598220825195,25.859169006347656,-79.78239099009738,40.45815043121106,291.6688668365478,-0.2019144296646118,-0.095204196870327,-0.0685588493943214,0.97235107421875,-0.5503150320873743,4.976750633015462,2.804186745198034,-0.3589686751365661,0.2912156879901886,0.1410964727401733,-0.7917212585359812,0.3397375916317105,-11.10342632174492,14956.0
27.1,3.5,343.0,21.18219375610352,22.75002479553223,-79.78238908860256,40.45816137799416,291.716899597168,-0.127719298005104,-0.1314473450183868,-0.0718371719121933,0.9804329872131348,-0.7061198236023554,5.621445189683304,2.817341587404747,-0.3914379179477692,0.9809561967849731,0.2212022989988327,-0.8361649945378304,0.4277782040834427,-11.007512104511258,14956.0
27.3,3.700000047683716,1.0,21.37876510620117,22.074125289916992,-79.78238954827937,40.45816712734493,291.7777726287842,-0.0826857388019561,-0.1512791961431503,-0.0704532265663147,0.9825040102005004,-1.0140256687448288,5.959099134525733,2.4364297712384007,-0.3141638934612274,0.7224224209785461,0.3058367669582367,-0.6924998561292887,0.2920227039232849,-10.513319470882417,14956.0
27.5,4.300000190734863,7.0,21.368749618530277,20.8177433013916,-79.78238794752409,40.45817892396597,291.79562159729005,-0.0395045801997184,-0.1775570511817932,-0.0807089582085609,0.9799994826316832,-1.4992577192086878,6.316191130701284,1.6458569917136123,-0.2628107368946075,0.1673671603202819,0.208102136850357,-0.6110868433490396,0.6661680167913437,-9.974105615615846,14956.0
27.6,4.599999904632568,9.0,21.521499633789062,20.412202835083008,-79.78238908107787,40.45818489170859,291.8498818511963,-0.0288579855114221,-0.1881770491600036,-0.0815022140741348,0.9783220887184144,-1.7937611037633294,6.306700179576604,1.5794065652561593,-0.2352656573057175,0.1376229226589203,0.0989571809768676,-0.7296842738986016,0.8230405535548926,-9.994561514854432,14956.0
27.7,5.300000190734863,29.0,21.430099487304688,20.777984619140625,-79.78238828385896,40.45819707910581,291.8354699249268,-0.0066399662755429,-0.2083880305290222,-0.0917003452777862,0.9737152457237244,-2.3219086237260056,6.219618683254024,1.448907984300281,-0.1987238824367523,0.2858861684799194,0.0910552442073822,-0.7079127511382103,0.8981891153007746,-9.877209066152574,14956.0
27.9,5.699999809265138,35.0,21.15089225769043,24.06206703186035,-79.7823891325855,40.458209542900256,291.8089596862793,0.0217088535428047,-0.2231873720884323,-0.0956280454993248,0.9698306322097778,-2.8900657008459563,6.029378794454079,1.3014978336445824,-0.0292775277048349,0.3495689928531647,-0.0287088993936777,-0.6633189609646798,1.12919930331409,-10.072554016113283,14956.0
28.1,6.300000190734862,34.0,21.377513885498047,21.294851303100582,-79.78239169306819,40.45821535724728,291.83859034729005,0.034781701862812,-0.2235007733106613,-0.092036984860897,0.9697251319885254,-3.2055948745512337,5.872176105035247,1.295730825866863,0.1155753210186958,0.2816393375396728,0.0101859429851174,-0.9897747849673032,1.0511563698202373,-10.230383230447767,14956.0
28.21,6.5,33.0,21.395042419433597,21.891233444213867,-79.78239054786617,40.4582225841891,291.7694546813965,0.0433346927165985,-0.2187179923057556,-0.0989416763186454,0.969791293144226,-3.342427370108091,5.885738522018948,1.1559518444293464,0.1918337494134903,0.2835091650485992,-0.1023559793829918,-0.5637277587130666,1.0413044692575932,-10.228694554567335,14956.0
28.4,7.0,41.0,21.763145446777344,16.150053024291992,-79.78239289589563,40.458236310077,291.7505871887207,0.0561267882585525,-0.201446920633316,-0.1069567054510116,0.9720232486724854,-3.8995456777722746,5.644884140050928,1.0600355440637237,0.1896437704563141,0.1244067624211311,0.0903305783867836,-0.7337703812867403,1.2397469817101956,-10.11753430724144,14956.0
28.5,7.199999809265138,40.0,22.001035690307614,12.786452293395994,-79.78239648570964,40.458241901334354,291.7665078277588,0.0634305402636528,-0.1901213675737381,-0.1085143014788627,0.9736812114715576,-4.284262431620748,5.334641615521114,1.0628156152072945,0.2379017919301987,0.0533632822334766,0.1375752836465835,-0.6266810385882855,1.1563460252434017,-9.922781095504762,14956.0
28.6,7.400000095367432,36.0,22.266469955444336,11.068869590759276,-79.78240043514508,40.4582563952223,291.7624737854004,0.0800957679748535,-0.1618248075246811,-0.1225829496979713,0.9758949875831604,-4.715931117379627,5.111136268357535,0.575280328895345,0.2563967704772949,0.3173608779907226,0.0984904468059539,-0.4855291065573693,1.0559347144514324,-8.648795011639596,14956.0
28.8,7.5,34.0,22.054872512817383,14.758492469787598,-79.782406864667,40.4582703734516,291.7295643920898,0.1164416894316673,-0.1422812938690185,-0.1320659667253494,0.9740411043167114,-5.243510255337919,4.646189781633948,-0.0815190006483643,0.2170372307300568,0.2733201086521149,0.2113628387451172,-0.3033381077460945,0.948099851757288,-8.428567235469819,14956.0
28.9,7.599999904632567,37.0,21.72182846069336,17.61318016052246,-79.78241144788954,40.458275549378826,291.6777302856445,0.135573536157608,-0.1261441558599472,-0.1322694718837738,0.9737619757652284,-5.468919701515036,4.215537526747426,-0.38319154888606,0.4219980239868164,0.057314433157444,0.1383372843265533,-0.3265216782689095,0.8215780918300152,-8.666400393247606,14956.0
29.1,7.699999809265138,46.0,21.86831855773925,17.08041000366211,-79.78241623289249,40.45828048430122,291.6139599914551,0.1514739692211151,-0.1031639575958252,-0.1309275031089782,0.9743053317070008,-5.551826798260171,3.8308309390592017,-0.7136021387442898,0.5257179141044617,0.1880871951580048,0.0499813929200172,0.0575664319563657,1.201779110133648,-9.114654961824415,14956.0
29.3,7.599999904632567,43.0,21.695533752441406,17.907394409179688,-79.78242546924086,40.45829246168019,291.51616831970216,0.1693183928728103,-0.0627937242388725,-0.1322501599788665,0.9746271967887878,-5.628508245702192,3.162582225820798,-1.329169774395857,0.379398375749588,-0.0643358528614044,-0.0040855486877262,-0.0915335654933005,0.7058758735656738,-9.559250927567485,14956.0
29.4,7.599999904632567,41.0,21.912139892578125,15.291261672973633,-79.78243039557667,40.45829872138203,291.4650818939208,0.1685474812984466,-0.0417647249996662,-0.134240061044693,0.9756162762641908,-5.5752402863355135,2.9172090306034004,-1.4807489552061934,0.3963804543018341,-0.2189868837594986,0.1859727650880813,0.0050727884843945,0.7974166658520699,-10.09640597820282,14956.0
29.5,7.400000095367432,64.0,21.914644241333008,15.87969207763672,-79.78244079475253,40.45830648803831,291.3009888763428,0.150876984000206,-0.0018857336835935,-0.1325661242008209,0.9796217679977416,-5.2995008360336815,2.230420904131059,-1.6889022161218674,0.3197251856327057,-0.2308447659015655,-0.0342195816338062,-0.0498740314738825,0.9260679817199708,-9.953869571685791,14956.0
29.7,7.300000190734862,66.0,21.769405364990234,16.674869537353516,-79.78245135399565,40.45831510818255,291.1361539001465,0.1321958303451538,0.026704829186201,-0.1334676593542099,0.9818337559700012,-5.004178494076067,1.810154253141229,-1.7841132555396475,0.1920693516731262,-0.3455637991428375,0.2534232437610626,-0.0860783234238624,0.8020024178177119,-9.932326090335849,14956.0
29.8,7.0,60.0,21.72683525085449,18.797992706298828,-79.78245661975404,40.45831993552792,291.04861994934083,0.1199472993612289,0.0422359183430671,-0.1357629001140594,0.9825463891029358,-4.841936824715769,1.7308906038813023,-1.8754376184781203,0.2861775457859039,-0.2878792881965637,-0.0752531886100769,0.1126266011036932,0.7433625923842192,-9.693570826649667,14956.0
30.0,6.9000000953674325,58.0,21.56532096862793,20.06232643127441,-79.78246152316447,40.458322839918814,290.9529740447998,0.105815090239048,0.0606310851871967,-0.1334322988986969,0.9835257530212402,-4.612558631033033,1.5421070801429524,-1.9070199739325453,0.3101294934749603,-0.412617176771164,0.0939132794737816,-0.1599320740811526,0.6003924686461687,-9.825952373743055,14955.0
30.2,6.599999904632568,250.0,21.5991268157959,19.163774490356445,-79.78247131863506,40.45833004364646,290.75677272033687,0.0925883129239082,0.098726749420166,-0.1331758797168731,0.9818068146705629,-4.061506728414697,1.434941662751631,-2.0101771104572475,0.2670584619045257,-0.0146330064162611,0.0710269510746002,-0.0380410988163203,0.7365619882196188,-10.416853276491166,14955.0
30.3,6.4000000953674325,232.0,21.7844295501709,18.05847930908203,-79.78247560669202,40.458332424769495,290.6615807647705,0.0933807939291,0.1111142188310623,-0.1325589120388031,0.9804906249046326,-3.722710993310128,1.2687052845273306,-2.048146414278432,0.2814745604991913,-0.0507348850369453,0.0061503862962126,0.1215352544188499,0.539643260166049,-10.234567497968674,14955.0
30.4,6.0,228.0,21.015670776367188,27.02012825012207,-79.78248441143002,40.45833847993241,290.4367959136963,0.0717624053359031,0.117960050702095,-0.1295184344053268,0.981916844844818,-3.201701054080865,1.1611684217344818,-2.097701658711012,0.0129311922937631,-0.066988930106163,-0.0124645503237843,0.2561932322010398,0.5118308327347041,-10.031848039627077,14955.0
30.6,5.800000190734862,226.0,21.25356101989746,23.736045837402344,-79.78249255612188,40.45834406586503,290.2118527526856,0.0441640652716159,0.1190619692206382,-0.1240160465240478,0.9841208457946776,-2.7265970417227097,1.2769074235357911,-1.8334644239403013,-0.216651514172554,-0.2090320438146591,0.1042452156543731,0.1480206745304167,0.2800178951025009,-10.592922295331958,14955.0
30.8,5.400000095367432,232.0,20.8529052734375,28.26060485839844,-79.78249548800629,40.458345927275744,290.1169850463868,0.0355499014258384,0.1162687093019485,-0.1227955222129821,0.9849563837051392,-2.44202453229243,1.295225927588748,-1.6510453591799692,0.0117705343291163,-0.1213359907269477,0.0292838811874389,0.0543558446131646,0.6353137215971947,-10.677660144567492,14955.0
30.9,5.199999809265137,238.0,20.870433807373047,27.544944763183597,-79.78249804679966,40.45834770647926,290.0295960540772,0.0264003220945596,0.1216052174568176,-0.1228783354163169,0.9845893383026124,-2.1592100203342137,1.3375664234016895,-1.4228527367510355,0.0207922011613845,-0.2201179414987564,0.0994099080562591,0.185841031819582,0.6199996445327998,-11.206381756067277,14955.0
31.0,4.800000190734863,234.0,20.941801071166992,27.89482307434082,-79.78250402083295,40.4583526571526,289.8705880279541,-0.0039187995716929,0.1092854738235473,-0.1281761825084686,0.9857038855552672,-1.7791683475207716,1.4907159902755018,-0.9985136104765028,-0.4183957576751709,-0.3916318118572235,-0.0431435480713844,0.2650576294027269,0.50498217176646,-11.406181114912036,14954.0
31.2,4.599999904632568,232.0,20.57119369506836,31.838903427124023,-79.78250831900898,40.45835719897136,289.75988360595704,-0.051708023995161,0.0832730904221534,-0.1341749876737594,0.986097812652588,-1.4904977801312245,1.7797606620505175,-0.3679372622086781,-0.2149956673383712,-0.3048004508018493,0.2236906588077545,0.1851707581803202,0.3185436275973916,-12.007036317586902,14954.0
31.3,4.099999904632568,249.0,20.40592193603516,33.564437866210945,-79.78251090705776,40.4583600459409,289.7048279876708,-0.065963514149189,0.0754810720682144,-0.1401828825473785,0.985038161277771,-1.4333070436332829,1.9512195026407069,0.0099372082528528,-0.0559123940765857,-0.0998422652482986,0.0824669748544693,-0.0387928588874638,0.5066428906470537,-12.38495239019394,14954.0
31.5,3.900000095367432,259.0,20.627534866333008,30.43939018249512,-79.78251177445546,40.458362156395104,289.71615954589845,-0.069924846291542,0.0737000256776809,-0.1426711082458496,0.9845424890518188,-1.30416722942038,2.0944981562420786,0.4046842128356859,0.0202395115047693,0.0727987214922905,0.0493207350373268,0.1526209714449942,0.4946589125320315,-12.785641028881075,14954.0
31.7,3.5,260.0,20.747732162475582,28.90469741821289,-79.78251392487583,40.45836733270022,289.74016162109376,-0.0618109516799449,0.0683495625853538,-0.1462612301111221,0.984944462776184,-1.096287324252196,2.42777458904958,0.9001337586460545,-0.0728076845407486,0.1476366966962814,-0.011013719253242,0.1679436731524765,0.1238181079085916,-12.20404772400856,14954.0
31.8,3.299999952316284,262.0,20.870433807373047,26.54302215576172,-79.78251403397094,40.45837252123508,289.89932795715333,-0.0660252720117569,0.0452843643724918,-0.1426400542259216,0.9865311980247498,-0.8601971131648545,2.7758397187458987,1.2563346015024963,-0.2465973943471909,-0.0489218458533287,-0.0189262330532074,0.3471842765808106,0.1187929833680391,-11.497644431591036,14954.0
31.9,3.0,271.0,20.983118057250977,25.64447021484375,-79.7825150131284,40.45837568186646,289.9134404296875,-0.0730366483330726,0.0309749264270067,-0.141320914030075,0.9867799282073976,-0.8075052135101016,2.930782170188144,1.3720795865117972,-0.2714132964611053,-0.0838220864534378,-0.0380336493253707,0.2784378312528133,0.2276486602798105,-11.142709085941314,14954.0
32.1,2.900000095367432,281.0,21.08828926086425,24.435800552368164,-79.78251473241343,40.458378620026544,290.01642962646486,-0.0804903581738472,0.0189708564430475,-0.1378781050443649,0.9869909882545472,-0.7183206048135324,3.08682118499296,1.5287497065929485,-0.2194151431322097,-0.1298833787441253,-0.0210786387324333,0.1396471236739307,0.1516678935661912,-10.84053784489632,14955.0
32.2,2.5999999046325684,287.0,21.029443740844727,25.79555511474609,-79.78251492455256,40.45838533305316,290.16283770751954,-0.0933888778090477,0.0023618899285793,-0.134693294763565,0.9864739179611206,-0.6446772344436794,3.418180850765822,1.733862049492351,-0.1246255785226822,-0.0850536003708839,0.0548768639564514,0.0742567562917247,0.0983258465118706,-10.44128645181656,14955.0
32.4,2.5,292.0,21.0281925201416,24.777727127075195,-79.78251544568603,40.45838920287191,290.19691821289064,-0.0964877158403396,-0.0045362911187112,-0.1353828161954879,0.9860736131668092,-0.6767985914858674,3.5943108607181475,1.786008349443627,-0.025367809459567,0.003773538628593,0.0328052602708339,0.0779051402024924,0.036208601987455,-10.343263728618624,14955.0
32.6,2.400000095367432,307.0,21.24855232238769,22.288822174072266,-79.78251458818258,40.45839659640096,290.4159447784424,-0.0950014442205429,-0.0229986812919378,-0.1366780400276184,0.98578143119812,-0.7275657631646645,3.9468036640852353,1.919760629346488,-0.1803701221942901,0.0400769487023353,0.0418798103928566,-0.0532115764869377,0.0574545537075027,-10.078136937618256,14955.0
32.7,2.400000095367432,318.0,21.294878005981445,21.74810218811035,-79.78251487673424,40.45840094695832,290.4774090881348,-0.0934522822499275,-0.0340193435549736,-0.1371842473745346,0.9855403900146484,-0.8226358786777699,4.142652916878733,1.8940398050046487,-0.265475332736969,0.0696240738034248,0.0859830677509307,-0.0180716410966124,0.0316922194696962,-9.912334460020066,14955.0
32.8,2.400000095367432,329.0,21.390033721923828,20.809791564941406,-79.78251460862315,40.45840985281809,290.73272677612306,-0.0914865359663963,-0.0540455915033817,-0.1350676566362381,0.9851223826408386,-0.983072122724465,4.494694852838098,1.9235010784088007,-0.1441057324409485,0.0112126609310507,-0.0024714525789022,-0.0780660848133266,0.1641003531217575,-9.715565128326416,14955.0
33.0,2.5,334.0,21.3700008392334,20.78593635559082,-79.78251434712323,40.458418964213024,290.92417880249025,-0.0984872356057167,-0.0612091347575187,-0.1350961178541183,0.9840237498283386,-1.1701338654046167,4.818711141842204,1.92948483368497,-0.0647759065032005,-0.1124097257852554,-0.0898378789424896,-0.0017899240739643,0.1923144111782312,-9.55320139825344,14955.0
33.1,2.5999999046325684,350.0,21.431352615356445,20.030517578125,-79.78251432050999,40.45842423859653,291.10029765319825,-0.1027877479791641,-0.0641524717211723,-0.1351581364870071,0.9833877086639404,-1.3050916383010622,4.9695479008408885,2.012459831562178,-0.156052678823471,-0.0768467932939529,-0.0227117203176021,-0.2563962767645717,0.2397384729981422,-9.443584815859795,14956.0
33.3,2.700000047683716,354.0,21.455141067504886,20.8256950378418,-79.78251443452972,40.45842922145879,291.1856267089844,-0.1054866090416908,-0.0703742876648902,-0.135058581829071,0.9826897978782654,-1.4285027606672511,5.1103991945496565,2.044812778395494,-0.153925821185112,0.0246547572314739,-0.0281300675123929,-0.1425467305071652,0.2253269136697054,-9.41664376974106,14956.0
33.5,3.0,358.0,21.487693786621094,20.37244415283203,-79.78251475121246,40.45844001038897,291.44644900512696,-0.1066687852144241,-0.0875791907310485,-0.1355365067720413,0.9811124205589294,-1.676693271450659,5.402394129716416,2.1221352157595392,-0.2250328809022903,0.0718647837638855,0.0632321536540985,-0.4978393958508969,0.2840011280402541,-9.288304987549784,14956.0
33.6,3.0999999046325684,1.0,21.4238395690918,21.37436866760254,-79.78251560538786,40.45845143011251,291.6872613067627,-0.0982480496168136,-0.1030599549412727,-0.1355758756399154,0.9804821014404296,-1.9588915493409376,5.691038477115481,2.1431450171221025,-0.0822204127907753,0.0517343133687973,0.0506567656993866,-0.3334381669387221,0.2208421723544597,-9.396402463316916,14956.0
33.7,3.5,10.0,21.617908477783203,17.764263153076172,-79.78251637623809,40.45845720591525,291.74720545959474,-0.0960985869169235,-0.1068337336182594,-0.1350049376487732,0.980370044708252,-2.1471128357634264,5.825137847029676,2.098548273228108,-0.0186541527509689,0.0318153128027915,-0.0971295088529586,-0.3659604534879327,0.3230686050653458,-9.389105722904208,14956.0
33.9,3.700000047683716,12.0,21.52024841308593,20.046422958374023,-79.78251722238568,40.4584638576901,291.908378326416,-0.0964027345180511,-0.1092717796564102,-0.1340791285037994,0.9801985025405884,-2.3149423693665208,5.97013252685446,2.107925515826208,-0.013981738127768,-0.0083923749625682,-0.0186817646026611,-0.4268411146849394,0.188202904947102,-9.13929746747017,14956.0
34.1,4.099999904632568,13.0,21.58284950256348,18.702571868896484,-79.78251937471744,40.45847589903472,291.99206896972663,-0.0975975394248962,-0.1182720214128494,-0.1293400675058365,0.9796722531318665,-2.652128764403646,6.177619009067389,2.082083225031304,-0.1395273804664611,0.0152020389214158,-0.0576989017426967,-0.4872902148216963,0.5707159488648177,-9.195144224166867,14956.0
34.2,4.300000190734863,13.0,21.606639862060547,17.605226516723633,-79.78252097397312,40.45848293443171,292.09782572937013,-0.0963851660490036,-0.1205213069915771,-0.1263749599456787,0.9799050092697144,-2.8120701459273025,6.311819708699753,2.13065125712112,-0.0392485298216342,0.0263927578926086,-0.0772761851549148,-0.690511437356472,0.4516211395338178,-9.187914726734162,14957.0
34.31,4.699999809265137,14.0,21.537776947021484,18.980884552001957,-79.78252460660497,40.45849670841408,292.2188260192871,-0.0896971151232719,-0.120924212038517,-0.1197481378912925,0.9813216328620912,-3.1362017533294684,6.5365770773959815,2.131387670847655,0.0587195307016372,0.1551102995872497,-0.0815746113657951,-0.8371499580144882,0.4287065592035652,-9.198722135424612,14957.0
34.5,5.0,13.0,21.471418380737305,19.648834228515625,-79.78252899087205,40.45851014535726,292.24028178405763,-0.0760238245129585,-0.1196595132350921,-0.1082320660352706,0.9839653372764589,-3.4461362127195136,6.755940000216564,1.8802011100623188,0.1428923904895782,0.0792605429887771,-0.2054514735937118,-0.7951833949238062,0.5733385712653399,-9.068937921524046,14957.0
34.6,5.800000190734862,14.0,21.670494079589844,17.28715705871582,-79.78253166530419,40.45851787626904,292.31505366516114,-0.0742050036787986,-0.1134135350584983,-0.1034522354602813,0.9853571653366088,-3.5700484538080137,6.87044211042113,1.8478518054446185,0.0982643067836761,0.0157667081803083,0.021903783082962,-0.8916305127739906,0.4973223192617298,-9.554153324961662,14957.0
34.8,6.099999904632568,14.0,21.710559844970703,16.921375274658207,-79.78253435678138,40.4585247848684,292.3177125091553,-0.0709125027060508,-0.1078468635678291,-0.0995307937264442,0.9866276979446412,-3.6951036603008767,6.921547636094514,1.8232058781991216,0.0044780769385397,-0.1055558398365974,0.1963310986757278,-1.2646773165464402,0.3172512833029032,-9.698149196505549,14957.0
35.0,6.9000000953674325,13.0,21.99853134155273,14.225723266601562,-79.78254038883081,40.45853987237954,292.3960015411377,-0.0770437642931938,-0.1081742569804191,-0.0943066924810409,0.98664528131485,-3.9178137719105983,7.048664943819494,1.852781669002275,-0.0293684601783752,-0.2844196557998657,0.2441934198141098,-1.5850100094079973,0.1245299059152603,-9.488201410174373,14957.0
35.1,7.199999809265138,11.0,21.96722984313965,14.567649841308596,-79.78254730641359,40.45855502701683,292.4263741607666,-0.0818642452359199,-0.1045428216457367,-0.0928827673196792,0.9867836236953736,-4.1211227811881965,7.1311403740611246,1.9234995477924213,-0.0030443337745964,-0.1729426085948944,0.3761422634124756,-1.2915635450184346,0.4841261037066579,-8.87540853202343,14957.0
35.2,7.599999904632567,11.0,21.821990966796875,16.189811706542972,-79.78255079969425,40.45856219051689,292.4106156463623,-0.0775589123368263,-0.1027293354272842,-0.0935018360614776,0.987263321876526,-4.27003604403545,7.13984538449555,1.8002018333656329,0.0868227109313011,0.1678962111473083,-0.0816194787621498,-1.2212585243582723,0.8946879487484694,-8.626403099298477,14957.0
35.4,7.900000095367432,11.0,21.83075523376465,16.595352172851562,-79.78255481800981,40.458570288217736,292.4195820922852,-0.0660859942436218,-0.0981094986200332,-0.0952187627553939,0.9884030818939208,-4.451189979613505,7.191827664404357,1.6675405510410315,0.1015407741069793,0.3414433300495148,-0.0213527809828519,-1.043068574219942,0.9230161736905576,-8.656723836064339,14957.0
35.6,8.300000190734862,12.0,21.875829696655277,14.83800983428955,-79.78256248006575,40.45858468045457,292.33749171447755,-0.0356967821717262,-0.0820155441761016,-0.1010727211833,0.9908499121665956,-4.79231622441809,7.13302341247671,1.0244188902060318,0.1308846324682235,0.246520459651947,0.0570762157440185,-1.119852382913232,0.6545503301918507,-9.135894387960434,14957.0
35.7,8.5,13.0,21.680509567260746,17.660890579223633,-79.78256681702041,40.45859274761543,292.3124386901856,-0.0237330961972475,-0.0775255486369133,-0.1051459610462188,0.9911462664604188,-4.957710705316251,7.105750630640213,0.7582410942428475,0.0518518164753913,0.1550371497869491,0.004120189230889,-1.073170113489032,0.9181998221576214,-9.359385495185853,14957.0
35.8,8.800000190734863,12.0,21.769405364990234,16.762338638305664,-79.7825755715677,40.458607971199584,292.2147557373047,-0.0070732994936406,-0.0629664808511734,-0.112826220691204,0.9915924072265624,-5.244462872895533,6.907863915786487,0.3439285288617825,0.1108681708574295,0.1372839361429214,0.0897217690944671,-1.2369856341183183,0.7806641737371683,-9.433083801269534,14957.0
36.0,8.800000190734863,12.0,21.686769485473643,17.80402183532715,-79.78257985900626,40.45861502099056,292.1614815826416,0.0077250488102436,-0.0584572553634643,-0.1151543855667114,0.991595983505249,-5.349421954509198,6.757788558664954,0.1455354486556492,0.0956650450825691,0.4051766097545624,0.0426761917769908,-0.8232729072868824,0.7593643750995398,-9.836598984003068,14957.0
36.1,8.699999809265138,13.0,21.602882385253903,20.01461410522461,-79.78258903480027,40.45862952872285,292.041419708252,0.0410063676536083,-0.0455117039382457,-0.1151024028658866,0.9914629459381104,-5.480451426007152,6.437714744259254,-0.3669619987543433,0.2063235938549041,0.1948563903570175,-0.026226220652461,-0.9780299945175648,0.6933355694264174,-9.77446354687214,14957.0
36.3,8.699999809265138,13.0,21.624168395996094,18.94907760620117,-79.78259354636556,40.45863623144349,291.9899365539551,0.0587138086557388,-0.0348948575556278,-0.1129137203097343,0.9912545680999756,-5.475529264852342,6.2107878950101245,-0.6352161142915981,0.2642743587493896,0.2782679498195648,-0.0684142783284187,-0.9592005714029074,0.6841270087659359,-10.238958756923676,14956.0
36.5,8.399999618530272,12.0,21.87708282470703,15.943306922912598,-79.78260334486626,40.45865008718646,291.85468455505367,0.0905198752880096,-0.0172239914536476,-0.1093884408473968,0.9897190928459167,-5.374529632323643,5.7584409828863325,-1.1813483327676133,0.2051399499177932,0.2610877156257629,0.0443151369690895,-0.8562144391983748,0.7298849795758725,-10.32782240152359,14956.0
36.6,8.199999809265138,11.0,21.895862579345703,14.80620288848877,-79.78260794990952,40.45865619944439,291.81036921691896,0.1042062938213348,-0.0100732930004596,-0.1075217798352241,0.9886752367019652,-5.288171492262396,5.472385971475808,-1.3916574955372705,0.0250508841127157,0.1767687499523162,-0.087252140045166,-0.7008991621434689,0.7816124459356071,-10.150949975252152,14956.0
36.8,7.900000095367432,9.0,22.203866958618164,12.460430145263672,-79.78261770087296,40.45866853643261,291.6787621612549,0.1340515166521072,0.0038329905364662,-0.1080469861626625,0.985059142112732,-5.054837275313436,4.859596445991659,-1.7752499083839264,0.2549844086170196,0.3400194346904754,-0.0681653022766113,-0.2506796002015472,0.9215243297070266,-10.077657465934754,14956.0
36.9,7.800000190734862,17.0,21.872074127197266,15.434392929077148,-79.78262744182975,40.45867984364944,291.5180241699219,0.1535403579473495,0.0157188381999731,-0.1102242693305015,0.9818497896194458,-4.865367557779253,4.15106329976898,-2.184585129410666,0.1501079499721527,0.2293354421854019,0.1145426407456398,-0.4173913563787937,0.7557752810418606,-9.336232275366784,14956.0
37.1,7.300000190734862,15.0,21.516490936279297,19.712448120117188,-79.78263188930742,40.45868469370226,291.44302912902833,0.162496343255043,0.0275850258767604,-0.1083894073963165,0.9803498387336732,-4.6784572580981925,3.78580484182194,-2.3649951635702897,0.4888198673725128,0.2422132939100265,-0.1493056118488311,-0.1540698749385774,0.7000972165167332,-9.109118233323096,14956.0
37.2,7.0,15.0,21.54153251647949,20.809791564941406,-79.7826368609318,40.45869004874705,291.3237130279541,0.1752431541681289,0.0445264689624309,-0.1064406931400299,0.9777411222457886,-4.51619619927113,3.4561578746931083,-2.555607758890926,0.3593463003635406,0.2902429699897766,0.0510506890714168,-0.136007177112624,0.6157900878041983,-9.385223756432532,14956.0
37.4,6.5,206.0,21.308650970458984,23.8076114654541,-79.78264606978153,40.458699053612726,291.0983292694092,0.2001165151596069,0.0589431039988994,-0.1060969159007072,0.972225546836853,-4.056926601401862,2.672327661399477,-2.8481895981252463,0.01531642396003,0.0171887725591659,0.0756213814020156,0.0093382226675748,0.2769345486536622,-10.02009279727936,14956.0
37.5,6.199999809265138,190.0,21.26608085632324,22.137739181518555,-79.78265015506305,40.45870271133485,290.98871966552736,0.1966210901737213,0.067913144826889,-0.1032939329743385,0.9726553559303284,-3.8410797433270383,2.2824735386358337,-2.8245237302824746,0.1627509593963623,-0.3743814527988434,-0.1389084756374359,0.4575966650247574,0.331591908596456,-10.000926793813706,14955.0
37.6,5.599999904632568,190.0,21.09830665588379,25.46953201293945,-79.78265837777312,40.45870983721816,290.7445866699219,0.144318476319313,0.1104117333889007,-0.0847489014267921,0.9796933531761168,-3.2025365618921,1.9415102552928107,-2.73061099774024,0.5515114665031433,-0.723587691783905,-0.0050150486640632,0.160478624291718,0.5086577680706978,-9.914700243473051,14955.0
37.8,5.300000190734863,190.0,20.67636489868164,31.22661590576172,-79.78266578025175,40.45871630599355,290.4992425079346,0.1115219965577125,0.1162039041519165,-0.0685355737805366,0.98456209897995,-2.541158813023713,1.9384988075123888,-2.393001205616967,-0.4814057350158691,0.1074829623103141,0.0228524859994649,-0.205849344972521,-0.1955292286165058,-11.032898375988006,14955.0
37.9,4.5,254.0,20.665096282958984,30.39963150024414,-79.78266874478712,40.4587186686689,290.39014407348634,0.1103817895054817,0.0952445492148399,-0.0685474202036857,0.9869375228881836,-2.3404595121734744,1.8240461999369488,-2.043260695281925,-0.5056090950965881,-0.0111148143187165,-0.1036207899451255,0.3514285876974463,0.2533944258838892,-11.929913882017136,14955.0
38.1,4.099999904632568,264.0,20.493566513061523,33.182750701904304,-79.78267142176028,40.458720824538034,290.3003937835693,0.0979986861348152,0.0791872590780258,-0.0706067159771919,0.9895152449607848,-2.1867799140019,1.699998804292968,-1.6556383529222167,-0.140547513961792,-0.2697893381118774,0.0619895830750465,0.3585105160251261,0.27437266420573,-12.156224516630171,14955.0
38.3,3.400000095367432,256.0,20.67010498046875,30.638185501098643,-79.7826769810568,40.45872573580825,290.20666667175294,0.0586561672389507,0.0824913159012794,-0.0805579721927642,0.991597294807434,-1.9774390318119743,1.6072947785028144,-0.8194934924619647,0.150090143084526,-0.346513420343399,0.2125018537044525,0.3023914618045091,0.2133179021626711,-12.849982620477675,14955.0
38.4,3.0,259.0,20.747732162475582,28.936504364013672,-79.78267979450284,40.45872836410253,290.1703507537842,0.0368459783494472,0.0903485044836998,-0.088366724550724,0.9912975430488586,-1.876378543504707,1.6102316953733609,-0.5040052111065121,0.0974245518445968,-0.3176557719707489,0.1817546337842941,0.2343068116530776,0.0418571881810203,-12.656525151729586,14955.0
38.5,2.5999999046325684,294.0,20.681373596191406,30.240596771240234,-79.78268315006258,40.45873171017245,290.21302005004884,0.0122925452888011,0.0938963815569877,-0.1051822528243064,0.989933967590332,-1.5774191896910763,1.5357707094534063,0.0608456016161964,0.0238124243915081,-0.0241194646805524,0.2353411763906479,0.194758108779788,-0.1152447832748294,-11.97103851914406,14955.0
38.7,2.5,306.0,21.09455108642578,23.69628715515137,-79.78268641259409,40.458735606305744,290.25882502746583,-0.0079611679539084,0.0932442620396614,-0.1167736425995826,0.9887396693229676,-1.342469050484998,1.5693468096665475,0.3952185917401288,0.0464280657470226,-0.0646333396434784,-0.0269987396895885,0.1256798522360623,-0.1704806338436901,-11.086707962751388,14955.0
38.8,2.200000047683716,316.0,21.01817512512207,25.71603775024414,-79.7826883325914,40.45873782201813,290.233537399292,-0.0168634708970785,0.0916945859789848,-0.1144635751843452,0.9890429377555848,-1.253676799847689,1.6341562325403431,0.4616492927193478,-0.0825698301196098,-0.190287098288536,-0.085023395717144,0.1386386891081929,-0.165945241022855,-10.78325501203537,14955.0
39.0,2.0999999046325684,324.0,21.046972274780277,24.714113235473643,-79.7826891044086,40.4587395482662,290.29852839660646,-0.031525619328022,0.0850416421890258,-0.1049505174160003,0.9903330206871032,-1.1154222892318642,1.7230696876954164,0.5881000102978862,-0.222337394952774,-0.2517933249473572,-0.1622354388236999,0.2541147480346262,-0.3384477689489722,-10.65200139284134,14955.0
39.2,2.0,349.0,21.341203689575195,21.30280303955078,-79.78269107133603,40.45874381046715,290.35984774780275,-0.0587427131831646,0.0620635151863098,-0.08213771879673,0.9929505586624146,-0.8377413207900676,1.9769799641295616,0.8452775939646726,-0.1211724281311035,-0.1342942118644714,-0.1551901251077652,0.1171301905531436,-0.1551963044889271,-10.488044296503068,14955.0
39.3,2.0,2.0,21.31991958618164,21.430030822753903,-79.78269268645623,40.45874853004653,290.41298266601564,-0.077324204146862,0.0653787404298782,-0.0653272271156311,0.9927129149436952,-0.6167986699753025,2.307771706672148,0.9381256056634806,0.1347975879907608,-0.2199898213148117,-0.1942790895700454,0.2357499775663018,-0.0974596180580556,-9.906979579925537,14955.0
39.4,2.0999999046325684,20.0,21.308650970458984,23.09990310668945,-79.78269283079949,40.458750829512034,290.4781720275879,-0.0879277661442756,0.0716724321246147,-0.0583657883107662,0.9918292164802552,-0.5199024680701478,2.4656545722069483,1.0030998340098576,0.0447284951806068,-0.1712891459465026,-0.1409163773059845,0.1053840205259621,-0.4453021266683936,-9.863816603422164,14955.0
39.6,2.200000047683716,29.0,21.183446884155277,23.33050537109375,-79.78269285310648,40.45875328212404,290.5425526733398,-0.094944953918457,0.0734467804431915,-0.052491221576929,0.99138081073761,-0.4095086710180352,2.6277043053927054,1.1049185866805622,-0.0311862863600254,-0.1141908317804336,0.028904614970088,-0.1176748495548963,-0.6499582924693823,-10.055378404855729,14955.0
39.8,2.400000095367432,31.0,21.268585205078125,21.98665428161621,-79.78269276079783,40.458759108357256,290.68391581726075,-0.0965702459216118,0.066494345664978,-0.0468712709844112,0.991995930671692,-0.20556571799481,3.022242698524685,1.280022911047999,-0.0711290389299392,0.0340280756354332,-0.0061417864635586,0.0509734130837023,-0.4396627429872752,-10.094974579811096,14955.0
39.9,2.5999999046325684,35.0,21.431352615356445,20.53148078918457,-79.78269226581662,40.45876208547388,290.7928406829833,-0.0944842025637626,0.0622670799493789,-0.0463273636996746,0.9924964904785156,-0.1050209972420715,3.2002357762225966,1.336396966306645,-0.0147872231900692,0.0867283567786216,-0.0438646301627159,0.1631516971997916,-0.3995229231566191,-10.11286238193512,14955.0
40.0,3.0,33.0,21.26482963562012,22.082077026367188,-79.78269130798796,40.45876851859065,290.9252965087892,-0.1008659675717353,0.0496656112372875,-0.047686081379652,0.9925147294998168,0.0155251991487223,3.588694040397097,1.3630535989794033,-0.129297986626625,-0.1236952990293502,0.1324855685234069,-0.0875019194371998,-0.6978312011808158,-9.697177389264109,14955.0
40.2,3.0999999046325684,30.0,21.35497665405273,21.39027214050293,-79.78269012153518,40.45877589264144,291.0972020263672,-0.1147913113236427,0.0352300368249416,-0.0589531138539314,0.9910128116607666,0.0570263250124353,3.926838778763992,1.4963325901185185,-0.10959243029356,-0.0801616832613945,0.1541838645935058,-0.4172509501129389,-0.2311165342479944,-9.625386444926262,14956.0
40.3,3.400000095367432,35.0,21.24855232238769,22.54327964782715,-79.7826894840771,40.45877995648704,291.2348553771973,-0.117979347705841,0.0256027523428201,-0.0653636828064918,0.9905316829681396,0.0096645329136403,4.100309246557403,1.5829363882113034,-0.2106098979711533,-0.0452359095215797,0.134890928864479,-0.3569005948305129,-0.3081165437400341,-9.741996297240258,14956.0
40.5,3.5999999046325684,35.0,21.467660903930664,19.27510070800781,-79.78268901230234,40.458783525715326,291.28534861755367,-0.1235680729150772,0.0094040548428893,-0.0708725824952125,0.9897573590278624,-0.0483146184564897,4.258258481009183,1.6280803190465356,-0.3953357040882111,-0.1130606010556221,0.041236612945795,-0.3283081488311291,-0.2373022671416402,-9.791675995588305,14956.0
40.7,4.0,30.0,21.451385498046875,19.680641174316406,-79.78268802314945,40.45879211689982,291.484441482544,-0.1375400871038437,-0.0224452186375856,-0.0813242495059967,0.9868968725204468,-0.1531024815375468,4.5909925384404815,1.771413489754473,-0.209215447306633,-0.0882421657443046,0.049354963004589,-0.5321445715427399,0.0527847525849938,-9.443767248988152,14956.0
40.8,4.099999904632568,27.0,21.526508331298828,17.780166625976562,-79.78268689435303,40.45880210399206,291.66333743286134,-0.1483106166124344,-0.0426425673067569,-0.0881931632757186,0.9840770363807678,-0.3951183329649458,5.003325417755819,1.9065408777608808,-0.1896414756774902,-0.0158612877130508,0.1329239010810852,-0.5262814587727189,-0.1822963400557637,-9.326524143218997,14956.0
40.9,4.400000095367432,34.0,21.542783737182614,19.02064323425293,-79.78268644133233,40.45880701065895,291.6990162963868,-0.152930736541748,-0.0567724518477916,-0.0890716239809989,0.9825758934020996,-0.5270146842865688,5.205367715767983,1.9329970664047949,-0.3028078377246857,0.0312289539724588,-0.0246567055583,-0.5386877154931426,-0.037998569458723,-9.104436367750168,14956.0
41.1,4.599999904632568,37.0,21.501466751098643,19.259197235107425,-79.78268606834246,40.45881782635026,291.83221217346187,-0.1559107005596161,-0.079475499689579,-0.0895187929272651,0.9804906249046326,-0.7781671726465995,5.591587778624579,2.036490325788669,-0.1169017180800438,0.0221160519868135,0.0456267669796943,-0.7377836908400061,-0.1088164731580764,-9.100655558109285,14956.0
41.3,5.099999904632568,31.0,21.542783737182614,19.457990646362305,-79.78268601025884,40.45882333515996,291.84179850769044,-0.1532918661832809,-0.0830813646316528,-0.0884418487548828,0.9807023406028748,-0.9541670271320372,5.808725467409648,2.047375293094083,-0.0859985202550888,0.0830747112631797,-0.0486110411584377,-0.7321824967861176,0.0066999681014567,-9.186348257660867,14956.0
41.4,5.199999809265137,28.0,21.55530548095703,19.163774490356445,-79.78268621311298,40.4588297453288,291.9242055053711,-0.1458410620689392,-0.0847665965557098,-0.086950734257698,0.981827199459076,-1.1244039429686168,6.026291787403084,2.089464973140369,-0.0666786283254623,0.1758295446634292,-0.034722588956356,-0.9422565829753876,0.1004392860643565,-9.365098809599877,14956.0
41.6,5.5,27.0,21.662981033325195,17.414384841918945,-79.78268664908862,40.45884124595412,291.9093777770996,-0.1279909312725067,-0.088868111371994,-0.0847006291151046,0.9841477274894714,-1.4523490574287825,6.405126435260724,1.847089953345848,-0.0381433479487896,0.1358250826597213,-0.0426186434924602,-0.6974256236851216,0.1542366850376129,-9.225155058503152,14956.0
41.7,5.699999809265138,27.0,21.70304679870605,17.223543167114258,-79.782687490885,40.45884827626684,291.97098513793946,-0.1244936436414718,-0.0897122025489807,-0.0821233391761779,0.984737992286682,-1.6235056904222187,6.61002369945325,1.7738746460860626,0.0188062135130167,0.0398562215268611,-0.0381455495953559,-0.6881125440448523,-0.0637290683481842,-9.116043675541876,14956.0
41.81,5.9000000953674325,24.0,21.56782531738281,21.08015251159668,-79.78268955814887,40.45886222091588,291.97936602783204,-0.1234020665287971,-0.0942254662513732,-0.073149487376213,0.9851613044738772,-1.9183560426549733,6.966783588388177,1.6748246884732447,-0.1153427511453628,-0.0100222425535321,-0.0773549526929855,-0.8578334601223471,0.1027687345538288,-8.899240613579753,14956.0
42.0,6.099999904632568,23.0,21.470165252685547,19.267148971557614,-79.7826920319081,40.45887573566905,291.8877579803467,-0.1179692521691322,-0.1038687080144882,-0.0606980882585048,0.9857029318809508,-2.099957109648906,7.289124894749695,1.657542066358797,-0.0492698289453983,0.2093406319618225,-0.19824780523777,-0.8797470702230931,0.5447317995876074,-9.308779013156892,14956.0
42.1,6.4000000953674325,21.0,21.44637680053711,20.56328773498535,-79.78269395608797,40.45888357094584,291.8946530456543,-0.1108095422387123,-0.1028490588068962,-0.0566363371908664,0.9868818521499634,-2.1856891273924965,7.469902150846636,1.6905611580102369,0.0157145913690328,0.1959981024265289,0.0075456378981471,-0.8328571515530349,0.4959309377521277,-9.649564681649206,14956.0
42.3,6.5,19.0,21.622915267944336,18.797992706298828,-79.7826956575128,40.4588906845307,291.8431107635498,-0.1022011414170265,-0.1009891182184219,-0.0526840761303901,0.9882208704948424,-2.300861035059689,7.6150275414951025,1.6304878044392992,0.0207196846604347,0.2061448842287064,-0.1380707919597625,-0.8926452239602805,0.5027263890579343,-9.895510851144794,14956.0
42.5,6.9000000953674325,16.0,21.5452880859375,20.038471221923828,-79.78270003914889,40.45890616243157,291.7764584655762,-0.0979600623250007,-0.1069680675864219,-0.0445401221513748,0.9884219765663148,-2.5521210387748465,7.922860722479387,1.5141214011683877,-0.1254634708166122,-0.1338305324316024,0.1367016434669494,-1.0808407102525237,0.2479042192921043,-9.570962315797804,14956.0
42.6,7.099999904632568,14.0,21.496458053588867,19.712448120117188,-79.78270232080268,40.458913625457136,291.72052546691896,-0.0966712161898613,-0.1097569540143013,-0.0423571690917015,0.988339066505432,-2.642728106394605,8.01730026928946,1.548101297496199,-0.0081024132668972,0.0404712259769439,0.1583160161972046,-1.2194008639454843,0.2783984721824527,-9.602348999977114,14956.0
42.7,7.300000190734862,11.0,21.56907844543457,18.32088661193848,-79.78270807535279,40.458929783688674,291.6333634490967,-0.0882840231060981,-0.111950471997261,-0.0423536449670791,0.988877773284912,-2.9475002050062384,8.232460821350719,1.6216496373286726,-0.0246036928147077,0.1029717177152633,-0.0139665864408016,-0.8149971237033606,0.7931553612649441,-9.935909264087677,14956.0
42.9,7.400000095367432,11.0,21.521499633789062,19.12401580810547,-79.78271465283274,40.45894629843768,291.53943034362794,-0.0727666094899177,-0.1116256266832351,-0.045171421021223,0.9900527596473694,-3.3431402022561256,8.375697614499714,1.5627804843899955,-0.0516660250723362,0.1672088354825973,0.1124006658792495,-1.0689522975683212,0.7087306304275991,-10.008750368356708,14956.0
43.1,7.699999809265138,7.0,21.90337562561035,15.967162132263184,-79.78271792078361,40.45895417837362,291.4865128631592,-0.0607901699841022,-0.1106195822358131,-0.0478447414934635,0.9908475279808044,-3.5158827218835547,8.403641281995817,1.4712283614178971,0.1153613775968551,0.2512239813804626,0.1424132287502288,-0.960471682995558,0.8214045757055283,-10.112296371459964,14956.0
43.2,7.800000190734862,6.0,21.815731048583984,16.285232543945312,-79.78272190003945,40.45896287131229,291.4360406036377,-0.0496929623186588,-0.1104467883706092,-0.0522313192486763,0.9912638664245604,-3.750935420663482,8.443461877134045,1.3069992653497755,-0.02089280821383,0.0976308956742286,0.2151751220226288,-0.9667991012334824,0.7393497944623232,-9.949246762990953,14956.0
43.3,8.100000381469728,7.0,21.81072425842285,14.973190307617188,-79.78273009511317,40.458979484998494,291.3314263458252,-0.018940782174468,-0.115292802453041,-0.0630941316485405,0.9911447763442992,-4.247309294035068,8.346274793101731,1.0680848120825508,-0.0387197732925415,0.2724886536598205,0.1352645009756088,-1.0252189982682467,0.8414929774403572,-10.156530557870868,14956.0
43.51,8.199999809265138,11.0,21.791942596435547,17.279205322265625,-79.78273824375147,40.45899519650109,291.2340714569092,0.0290110241621732,-0.1162491664290428,-0.0687271580100059,0.9904146790504456,-4.736374550591483,8.030818306293012,0.4127865761721453,0.2004339694976806,0.6071050763130188,0.2291362285614013,-1.0827176664769649,0.9430341164767744,-9.207642062902451,14956.0
43.6,8.300000190734862,8.0,21.71807098388672,16.969085693359375,-79.78274329268574,40.459003643539575,291.1613518829346,0.0645442903041839,-0.1092594116926193,-0.0672330260276794,0.9896343946456908,-4.937193903636997,7.828801067876032,-0.0370002927049294,0.3077106177806854,0.8495955467224121,-0.0561593249440193,-0.8945771440118552,1.3382329505681991,-9.880164248943329,14956.0
43.81,8.399999618530272,7.0,21.66798973083496,16.348846435546875,-79.7827477770419,40.459011138101374,291.1051480407715,0.1028484925627708,-0.0940296500921249,-0.0652407705783844,0.988091230392456,-5.048883580255757,7.513875217501829,-0.5709641504361387,0.457576334476471,0.7319685816764832,-0.0515836104750633,-0.7052608926594258,1.3470970371365547,-10.519138619899753,14956.0
44.0,8.399999618530272,29.0,21.902122497558597,14.241626739501951,-79.78275779121428,40.45902609919277,290.98706408691413,0.1530746519565582,-0.062572956085205,-0.0636797919869422,0.9841736555099488,-5.169414300576322,6.682050068117702,-1.637434927532036,0.1665098965167999,0.2591787278652191,0.1830162554979324,-0.5180741972476244,0.8038769620656968,-10.900664763450624,14955.0
44.1,8.399999618530272,54.0,21.86205673217773,14.861865043640137,-79.78276263632746,40.45903273787906,290.9443585510254,0.1641918718814849,-0.0544238835573196,-0.0644646883010864,0.9828141331672668,-5.150163894552526,6.207694448473668,-1.9240312168173528,0.1407866179943084,0.1975309401750564,0.0614560209214687,-0.6210461499541998,1.0242926531285048,-10.528233379125597,14955.0
44.2,8.300000190734862,52.0,21.945945739746094,14.003073692321776,-79.7827731383752,40.45904580714,290.82438822937013,0.1778340190649032,-0.0525635182857513,-0.06471449136734,0.9805225133895874,-5.173484140850189,5.370908971263534,-2.082861261927806,0.110285073518753,0.2448092252016067,-0.1303560435771942,-0.3468360017985106,1.057793982848525,-10.19476550102234,14955.0
44.4,8.300000190734862,50.0,21.7205753326416,17.40643310546875,-79.78278387658015,40.45905765473258,290.69338961791993,0.1898715198040008,-0.0297189895063638,-0.0562050007283687,0.9797482490539552,-5.084281734003449,4.576618578787428,-2.153932039380974,0.4135372638702393,0.0813341438770294,-0.1358399093151092,-0.2683981619775295,1.158465348556638,-9.99944160103798,14955.0
44.5,8.0,84.0,21.69803810119629,17.183782577514652,-79.78278895704102,40.459062598019976,290.624593460083,0.193698912858963,-0.0093399779871106,-0.0503572151064872,0.9797232747077942,-4.925140023103873,4.180073735515431,-2.2553283104343773,0.5445365905761719,-0.0018107406795024,-0.0511266440153122,-0.1602857209928334,0.7636837133020163,-10.324062641859054,14955.0
44.7,7.900000095367432,120.0,21.332439422607425,22.288822174072266,-79.78279461946235,40.45906846162945,290.5404526824952,0.1984642148017884,0.0122608402743935,-0.0452671274542808,0.9789855480194092,-4.738457104419954,3.8389017915952297,-2.3864515980727194,0.5959474444389343,0.1528738886117935,0.1195812001824379,-0.3789276409149169,0.8449494127929211,-10.418196966648102,14955.0
44.9,7.5,117.0,21.37626266479492,20.91316604614257,-79.78280493599334,40.459077781376536,290.3913514251708,0.1921897828578949,0.0534800961613655,-0.0341697707772254,0.979303538799286,-4.247304710663894,3.1598463443777205,-2.540343502075965,0.4360092878341675,-0.3334854245185852,-0.0222457740455865,0.0229835820430889,0.5831608702987433,-10.497491058111189,14955.0
45.0,7.300000190734862,115.0,21.427595138549805,21.350513458251957,-79.78281412462736,40.45908456235377,290.23716708374025,0.1790896952152252,0.0714994743466377,-0.0179651752114295,0.9810667634010316,-3.644568048925373,2.594986672602741,-2.3935964325862567,-0.0433674715459346,0.1050667464733123,0.0001194908181787,-0.4682687106728554,0.3416163020208478,-10.47159607887268,14955.0
45.1,6.9000000953674325,208.0,20.980613708496094,26.78952598571777,-79.78281884520821,40.4590885449884,290.1522824401856,0.1803591251373291,0.0676981508731842,-0.0152456136420369,0.981149971485138,-3.420224422418217,2.365685235422488,-2.3128089606485487,-0.1134958416223526,-0.0411382019519805,-0.064562439918518,-0.1259198895748704,0.8058840188384057,-10.64133373260498,14955.0
45.31,6.599999904632568,201.0,20.968093872070312,27.02012825012207,-79.78282720034352,40.45909448046479,290.0061452026368,0.1430709511041641,0.06429935246706,-0.0115606971085071,0.987553894519806,-3.030839562516281,1.9324455872419668,-1.8742657545326984,-0.050285592675209,-0.648003876209259,-0.0307039618492126,0.0788086812011897,0.6941363456100226,-11.161057648658751,14955.0
45.5,6.199999809265138,197.0,20.777782440185547,29.016023635864247,-79.7828307975248,40.45909657442946,289.94200106811525,0.1062101274728775,0.0573385320603847,-0.0105511480942368,0.992633044719696,-2.853717849964666,1.8109381269431144,-1.531404828972156,-0.1540133655071258,-0.6133691072463989,-0.0355371683835983,0.0098967870790511,0.8588573075830936,-11.430679779052737,14954.0
45.6,5.9000000953674325,195.0,20.946807861328125,27.44952392578125,-79.78283415994305,40.45909844633507,289.8917691345215,0.0710598677396774,0.0490469858050346,-0.0119074219837784,0.996194303035736,-2.7019860600059658,1.7448360216500478,-1.1422320261984422,-0.1158562675118446,-0.5477975606918335,-0.0108538931235671,0.0023565799412608,0.7943617880344391,-11.57152750968933,14954.0
45.8,5.400000095367432,272.0,21.016923904418945,25.81941032409668,-79.78284091536169,40.459103033929466,289.8508488769532,0.0200545042753219,0.0373712107539176,-0.0193206015974283,0.9989133477211,-2.4936402262003905,1.7254505568569876,-0.4307838361480994,0.0481765270233154,-0.295335590839386,0.0041435230523347,-0.1360454398300498,0.9079296994954348,-11.700642217397691,14954.0
45.9,5.199999809265137,278.0,20.882953643798828,26.9167537689209,-79.78284437051582,40.45910565081849,289.8223874206543,0.0051687280647456,0.0426211319863796,-0.02535898424685,0.9987561106681824,-2.4096179448556603,1.7722676702747653,-0.1970673734419398,0.0957030728459358,-0.2338254153728485,0.0100211519747972,-0.0195517735183239,0.7962103121727705,-11.59822823524475,14954.0
46.0,4.800000190734863,273.0,20.90924644470215,26.471454620361328,-79.78284951582887,40.45910902876819,289.8645665283203,-0.009223242290318,0.0552167296409606,-0.0361188985407352,0.9977783560752868,-2.150089944281265,1.7250689213086845,0.2054257053956784,0.1515190154314041,0.2602386772632599,0.1271402686834335,-0.3089920546486974,0.5642226524278522,-11.716132661104202,14954.0
46.2,4.599999904632568,270.0,20.707666397094727,30.009994506835927,-79.78285405422102,40.45911250881558,289.92663737487794,0.0601046122610569,0.0619846619665622,-0.0474862940609455,0.995133340358734,-1.881907104380171,1.5857904149364976,0.3848691574013141,0.0067028733901679,0.8775352239608765,0.0852931961417198,-0.1123832290247082,0.3780912698060274,-11.527726017236713,14954.0
46.41,4.099999904632568,261.0,20.648820877075195,30.62228202819824,-79.78285600792616,40.45911404625849,289.9711701507568,0.0978461354970932,0.0602413862943649,-0.0498134195804596,0.9921269416809082,-1.7291755073718242,1.4866432852521672,0.3945313001167911,0.0163203086704015,0.6518287658691406,-0.097660444676876,0.3250994161516428,0.4412773784995079,-11.486259902715686,14954.0
46.51,3.900000095367432,244.0,20.667600631713867,29.77144241333008,-79.78285769799511,40.45911537449043,290.0563599700928,0.1203060150146484,0.0548673346638679,-0.0491664670407772,0.9899994134902954,-1.5743041896831176,1.3560075602377002,0.4741478004593032,-0.0629404112696647,0.2905895709991455,-0.1102302446961402,0.4964330673962832,0.3424953212589026,-11.471247761249543,14955.0
46.6,3.5999999046325684,241.0,20.708919525146484,29.723730087280277,-79.78286067867606,40.45911750651844,290.23720332336427,0.1290656924247741,0.0386572852730751,-0.0418535694479942,0.9899979829788208,-1.303892793043765,0.9996171286550992,0.8017968783207339,-0.1261314749717712,-0.0013015691656619,-0.163758099079132,0.289535097386688,0.3580769449844957,-11.409006489515304,14955.0
46.8,3.5,238.0,20.84789657592773,27.179162979125977,-79.78286194635147,40.459118159091744,290.3585545654297,0.129157543182373,0.0318198837339878,-0.0364924259483814,0.9904414415359496,-1.1764039542862934,0.7916508555340728,0.9984326152462664,-0.1262010633945465,0.0384299121797084,-0.1351824402809143,0.1896088314056396,0.2403253507241607,-11.263091561794283,14955.0
46.9,3.2000000476837163,211.0,20.881702423095703,27.83916091918945,-79.78286424797362,40.45911904787761,290.6024148101807,0.1377381682395935,0.0303341597318649,-0.0248907413333654,0.9896911382675172,-0.9676692621896252,0.386569927479656,1.2604629835617769,0.0426288321614265,0.0595563277602195,-0.1014958992600441,0.3371491754427552,0.2148633578047157,-10.786635872125624,14955.0
47.1,3.0999999046325684,201.0,21.02318382263184,25.294591903686523,-79.78286523672175,40.45911901476112,290.7422730560303,0.1427491754293441,0.0316951349377632,-0.020287174731493,0.9890432357788086,-0.8829117375670115,0.1765086691106393,1.3574923879685212,0.1015534698963165,0.0941714942455291,0.0209820829331874,0.343913599960506,-0.0264587239176034,-10.549269322156906,14955.0
47.3,2.900000095367432,192.0,21.16716957092285,21.30280303955078,-79.78286707983641,40.4591187036586,291.00328036499025,0.1584235876798629,0.0272258538752794,-0.0139076439663767,0.9868978261947632,-0.7621573838355498,-0.2501087918838688,1.442330029096314,-0.0906948372721672,0.1233655586838722,-0.0496673732995986,0.3441488042101264,0.1701490967161953,-9.905122504234315,14956.0
47.4,2.900000095367432,188.0,21.1846981048584,23.12375831604004,-79.78286793897016,40.459118639899046,291.11854907226564,0.1520470231771469,0.002594058169052,-0.0101551217958331,0.9883176684379578,-0.8267539318789487,-0.3666522779803224,1.3615037516508637,-1.1279151439666748,-0.676058292388916,-0.1168438866734504,1.130573472082615,-0.8173232191801072,-8.974335819482802,14956.0
47.6,2.799999952316284,143.0,21.29863548278809,19.752206802368164,-79.78286996985027,40.45911718497253,291.3287598724365,0.0018325288547202,-0.1580724716186523,-0.0630483254790306,0.9854109883308412,-0.749691061326507,-0.7164002855815294,1.1974898326005898,-1.1836811304092407,-1.5239497423171997,0.6439617872238159,0.319898610189557,0.7924952837079764,-8.718035985231399,14956.0
