time,wind_speed,wind_angle,battery_voltage,battery_current,position_x,position_y,position_z,orientation_x,orientation_y,orientation_z,orientation_w,velocity_x,velocity_y,velocity_z,angular_x,angular_y,angular_z,linear_acceleration_x,linear_acceleration_y,linear_acceleration_z,node_ids
0.0,0.699999988079071,170.0,22.980138778686523,0.0477106422185897,-79.782795396104,40.458962354465854,266.1374816145003,0.0060558225959539,0.0136754876002669,-0.792186439037323,0.6100958585739136,-0.0015093253693143,-0.0013057058907511,0.0113028203661405,0.0063147712498903,-0.0002976927207782,-0.0008237176807597,-0.1414781153015792,-0.2509311583824456,-9.802748867869376,14931.0
0.19,0.699999988079071,171.0,22.98264312744141,0.055662415921688,-79.78279528626435,40.4589624784504,266.1402685339749,0.0060497722588479,0.013680825009942,-0.7921894192695618,0.6100919842720032,-0.0014477994280609,0.0035746964316732,0.0113740284361577,-0.0064583998173475,0.000733372522518,-0.0076074781827628,-0.1407191375736147,-0.2629910041205585,-9.805216392874716,14931.0
0.3,0.699999988079071,171.0,22.97763442993164,0.0636141896247863,-79.78279522656477,40.45896260172441,266.1418594117464,0.0060536949895322,0.0136772934347391,-0.7921928763389587,0.610087513923645,0.0028599370978588,-0.00107719686103,0.0110230289946216,0.0045970422215759,0.00203139311634,-0.0007083473028615,-0.1421039409656077,-0.2523872978053987,-9.803901938796043,14931.0
0.5,0.699999988079071,167.0,22.990154266357425,0.0477106422185897,-79.78279523020522,40.45896259754781,266.14409673541786,0.0060536949895322,0.0136772934347391,-0.7921928763389587,0.610087513923645,0.0017619012586793,-0.0010823183164476,0.0114797444309662,-0.0024414318613708,-0.0004179769020993,-0.003764294553548,-0.1404819416161626,-0.2619339371658862,-9.804786037802694,14931.0
0.6,0.699999988079071,167.0,22.97638320922852,0.0477106422185897,-79.78279516860653,40.45896272965045,266.14570299863817,0.006055811420083,0.0136753115803003,-0.7921953201293945,0.6100844144821167,0.0040288489873056,-0.0035308896766368,0.0111230702994476,0.0053539793007075,-0.0011534951627254,0.0041264132596552,-0.1429018118139356,-0.2522339363023639,-9.803071634173394,14931.0
0.79,0.699999988079071,166.0,22.98639869689941,0.0397588685154914,-79.78279509991805,40.45896285119754,266.14690427437426,0.0060504814609885,0.0136759746819734,-0.7921974658966064,0.610081672668457,0.0033157121962597,-0.0016084771607274,0.0083749235273307,-0.0032946995925158,-0.0004221267590764,-0.0066308472305536,-0.1383884922321885,-0.2641320882551372,-9.806434952616693,14931.0
0.9,0.8000000119209291,165.0,22.972625732421875,0.0477106422185897,-79.78279510290182,40.45896284833952,266.1477384711802,0.0060504814609885,0.0136759746819734,-0.7921974658966064,0.610081672668457,0.0036514824125352,-0.0019100121628308,0.0084602929769701,0.0038188169710338,0.0002277314633829,0.0022269873879849,-0.1428657052572816,-0.2529747967980802,-9.804093727469445,14931.0
1.1,0.8000000119209291,165.0,22.9788875579834,0.0238553211092948,-79.78279505337309,40.4589629664949,266.14807372123005,0.0060516935773193,0.0136741884052753,-0.7921998500823975,0.6100786328315735,0.0047703275968493,-0.0038197486003122,0.0055741242948785,-0.0074826553463935,-0.000381730904337,-0.0024086814373731,-0.1396661728061735,-0.2649381452053785,-9.805808715820312,14931.0
1.2,0.8000000119209291,163.0,22.988903045654297,0.0477106422185897,-79.78279498780051,40.458963119102776,266.1500786948204,0.0060411426238715,0.0136675061658024,-0.7922041416168213,0.6100732684135437,-0.0030360262552243,-0.0034821461568597,0.0073858960016863,-0.0020578044932335,-0.0017934628995135,0.0021500517614185,-0.1430777490511536,-0.2524855310283601,-9.803513098955158,14931.0
1.4,0.8000000119209291,163.0,22.980138778686523,0.0318070948123931,-79.78279499083662,40.45896312248415,266.15084031552084,0.0060411426238715,0.0136675061658024,-0.7922041416168213,0.6100732684135437,-0.0036666257540746,-0.0035494088179357,0.0076156340014848,-0.0036977222189307,0.000289642921416,-0.0062602562829852,-0.1390207315608859,-0.2648762012645602,-9.806130312681196,14931.0
1.5,0.8000000119209291,163.0,22.97638320922852,0.0477106422185897,-79.78279492599452,40.45896324594012,266.1526973615587,0.0060390504077076,0.0136718247085809,-0.7922077775001526,0.6100684404373169,-4.815707314811706e-05,-0.0009572865397704,0.008832509565448,-0.0019093545852229,-0.0002132860972778,0.0025977639015764,-0.1434046906325966,-0.253680299911648,-9.802622568011282,14931.0
1.7,0.8000000119209291,163.0,22.980138778686523,0.0477106422185897,-79.782794927024,40.458963246046665,266.15358769848945,0.0060390504077076,0.0136718247085809,-0.7922077775001526,0.6100684404373169,-0.000568143866622,-0.000884601970405,0.0089903171980874,-0.0026277394499629,0.0014739271719008,-0.0039189681410789,-0.1408055301848799,-0.2593517519161105,-9.804020052552223,14931.0
1.8,0.8000000119209291,163.0,22.9788875579834,0.0397588685154914,-79.78279488772239,40.4589633779401,266.15358490452167,0.0060392296873033,0.0136672193184494,-0.7922102808952332,0.6100652813911438,-0.0013365617443726,-0.0039778329151285,0.0063114246064923,-0.0024163438938558,0.0017964059952646,5.992055230308324e-05,-0.1422812943253666,-0.2545716348476708,-9.804229382872585,14931.0
2.0,0.8000000119209291,164.0,22.97638320922852,0.0318070948123931,-79.78279489188215,40.45896337985529,266.1542342710495,0.0060399184003472,0.0136677222326397,-0.7922102808952332,0.6100652813911438,-0.0018650701761636,-0.0040838656590998,0.0065818484879466,-0.0035582594573497,0.001491715433076,-0.0052755251526832,-0.1411778059601783,-0.2589139781892299,-9.805432155132292,14931.0
2.1,0.8000000119209291,164.0,22.98389434814453,0.0477106422185897,-79.78279479816125,40.45896350089017,266.15369298636915,0.0060298279859125,0.0136769525706768,-0.7922129631042479,0.6100616455078125,-0.0007868370158717,0.005268356000161,0.0044869695950372,0.0037541994825005,0.0023916962090879,0.0050563169643282,-0.1430247586593032,-0.2548256598226726,-9.803140631318092,14931.0
2.3,0.8000000119209291,165.0,22.98765182495117,0.055662415921688,-79.782794784904,40.458963500903046,266.1546385097504,0.0060296119190752,0.0136770773679018,-0.7922155857086182,0.6100583076477051,-0.0021788357437599,0.0054205403596317,0.0050139851731327,-0.0033436506055295,0.0032231642398983,-0.0046389573253691,-0.1373418132215738,-0.2652675444446504,-9.805523956418035,14931.0
2.4,0.8000000119209291,169.0,22.98765182495117,0.0318070948123931,-79.78279472784527,40.45896361941593,266.15668308317663,0.0060299672186374,0.0136758685111999,-0.7922159433364868,0.6100578904151917,0.0001897300045294,0.004089778782888,0.0074205163602987,-0.0051933242939412,0.0006380096892826,0.001915622735396,-0.1420890305656939,-0.254480272103101,-9.80359729886055,14931.0
2.6,0.699999988079071,169.0,22.99140739440918,0.055662415921688,-79.78279469874684,40.45896375882332,266.1579147349298,0.0060318331234157,0.0136659787967801,-0.7922189235687256,0.6100542545318604,-0.0009775575203636,-0.0026049069852293,0.008658855837243,-0.0038154427893459,-0.000625962682534,-0.0033620551694184,-0.1396892510354519,-0.2660173036716878,-9.805073136091233,14931.0
2.7,0.699999988079071,170.0,22.98514747619629,0.055662415921688,-79.78279465964481,40.45896389032947,266.15991375550635,0.0060321469791233,0.0136627964675426,-0.7922220826148987,0.6100501418113708,-0.0018787172463144,-0.0049308685610891,0.0092219233524469,-0.0004609300522133,0.0011319391196593,0.0019662142731249,-0.1428289682976901,-0.2567629885487259,-9.8023547655344,14931.0
2.9,0.699999988079071,170.0,22.98264312744141,0.0477106422185897,-79.7827946647248,40.4589638927927,266.1608481514454,0.0060321469791233,0.0136627964675426,-0.7922220826148987,0.6100501418113708,-0.0021429443113307,-0.0050045993440022,0.0092955466429088,-0.0011722890194505,-0.0015985404606908,-0.0043351929634809,-0.1413094870839268,-0.2562644951418042,-9.803285057544713,14931.0
3.0,0.699999988079071,170.0,22.98138999938965,0.055662415921688,-79.78279466983291,40.458963895627925,266.1617880868912,0.0060321469791233,0.0136627964675426,-0.7922220826148987,0.6100501418113708,-0.0019993564087369,-0.0053134271007377,0.0092146174529939,0.0052584698423743,0.0008118851692415,0.0041828723624348,-0.1423692675121128,-0.2567986017465592,-9.80263309299946,14931.0
3.2,0.699999988079071,169.0,22.98514747619629,0.055662415921688,-79.78279459470045,40.458964017664144,266.1639192286134,0.0060251667164266,0.0136681515723466,-0.7922248840332031,0.6100464463233948,-0.0019912824751067,8.774915743665456e-05,0.0098341335077252,-0.0008826794219203,-0.0041914479807019,-0.0027669467963278,-0.1387829052004963,-0.2671766420826316,-9.804270898103717,14931.0
3.3,0.699999988079071,168.0,22.98765182495117,0.0477106422185897,-79.78279455664055,40.45896415567217,266.1653118091822,0.0060266219079494,0.0136625869199633,-0.7922280430793762,0.6100424528121948,-0.001867677140826,-0.0040988269821844,0.0098454550336559,0.005953524261713,0.0016937877517193,0.0050000543706119,-0.1416682411730289,-0.257166428156197,-9.803152325749398,14931.0
3.5,0.699999988079071,164.0,22.9788875579834,0.0318070948123931,-79.78279456416955,40.458964161469005,266.16732408806683,0.0060266219079494,0.0136625869199633,-0.7922280430793762,0.6100424528121948,-0.0029873889930305,-0.0041221791031958,0.0100679242289951,-9.883984603220596e-05,0.0043194741010665,-0.0014926308067515,-0.1397286740597337,-0.2658919539861381,-9.804403629899024,14931.0
3.61,0.699999988079071,164.0,22.98765182495117,0.0636141896247863,-79.78279450371276,40.45896426296094,266.17025388360025,0.0060277357697486,0.0136706940829753,-0.792231559753418,0.6100376844406128,0.0031224624001006,-0.0003035796944229,0.0107372244133938,-0.000589701347053,-0.0026633406523615,-0.0029643974266946,-0.1419445952028036,-0.2582854755967855,-9.804166232943537,14931.0
3.8,0.699999988079071,163.0,22.99140739440918,0.055662415921688,-79.78279444484943,40.458964393382026,266.1722815591097,0.0060211522504687,0.0136667424812912,-0.7922350168228149,0.6100334525108337,0.00080390038501,-0.0002733329349083,0.010693816648079,0.0015231040306389,0.0006745170103386,-0.0031288675963878,-0.1422962412703782,-0.2533915570937097,-9.803851068019869,14931.0
3.9,0.699999988079071,162.0,22.988903045654297,0.0397588685154914,-79.7827944452658,40.45896439270757,266.17334957748653,0.0060211522504687,0.0136667424812912,-0.7922350168228149,0.6100334525108337,0.0006725160267573,-0.0003912779250712,0.0106869014135383,0.0052097248844802,-0.0007621293189004,0.0037863529287278,-0.1407313162274658,-0.2590575090609491,-9.804226459264756,14931.0
4.09,0.699999988079071,160.0,22.98765182495117,0.055662415921688,-79.78279436782628,40.458964531676685,266.1768549713493,0.0060137631371617,0.0136663410812616,-0.7922366857528687,0.6100313067436218,-0.0032437654390215,0.0028155932399317,0.0109076545651715,0.0025709939654916,0.001650086371228,-0.0032647429034113,-0.1391229938808828,-0.2664956424571574,-9.805683000683787,14931.0
4.2,0.699999988079071,159.0,22.988903045654297,0.055662415921688,-79.78279436343706,40.45896453380981,266.17796547293665,0.0060137631371617,0.0136663410812616,-0.7922366857528687,0.6100313067436218,-0.0034021523727254,0.0027586235592013,0.0110866124579383,0.0045270198024809,0.0036642625927925,0.0037531238049268,-0.1405772603675723,-0.2605900094658137,-9.804729904532431,14931.0
4.39,0.699999988079071,156.0,22.98765182495117,0.0397588685154914,-79.782794273988,40.45896466611468,266.181806306839,0.0060089542530477,0.0136692766100168,-0.7922391891479492,0.6100280284881592,-0.0027015263379201,0.0062091431584686,0.011158607135593,0.0026848025154322,-0.0012581137707456,-0.0038073651958256,-0.1397728388104588,-0.264810621086508,-9.805549684166907,14931.0
4.51,0.699999988079071,154.0,22.98264312744141,0.0477106422185897,-79.7827942659144,40.45896466706825,266.18292627066376,0.0060084722936153,0.0136690661311149,-0.7922391891479492,0.6100280284881592,-0.0029386828105722,0.0061032987551509,0.0112159038361788,0.0022039155010133,0.0028906224761158,0.0067947441712021,-0.140459036976099,-0.2606992793083191,-9.803913048505784,14931.0
4.7,0.699999988079071,149.0,22.980138778686523,0.055662415921688,-79.78279422871078,40.45896479592788,266.1899087685347,0.0060139959678053,0.013664511963725,-0.7922419309616089,0.6100244522094727,0.0001973276728297,0.0003151764385021,0.0156562338801888,0.0024052222725003,0.0023667530622333,-0.004085348919034,-0.1389151893183589,-0.2651327113062143,-9.805985886454582,14931.0
4.81,0.8000000119209291,148.0,22.98389434814453,0.055662415921688,-79.78279414077609,40.45896492403657,266.19666369587185,0.0060094310902059,0.0136662973091006,-0.7922450304031372,0.6100204586982727,-0.0013229500658075,0.0032240698045745,0.0173575032450217,-0.0089234309270977,0.0010811040410771,-0.001379658235237,-0.1407675506919622,-0.260810376405716,-9.804894211292268,14931.0
4.99,0.8000000119209291,144.0,22.9788875579834,0.055662415921688,-79.7827941367667,40.45896492386049,266.19839665621515,0.0060092946514487,0.0136661957949399,-0.7922450304031372,0.6100204586982727,-0.001276241403655,0.0030264243230832,0.0174175838323188,0.0021873514633625,-0.0004598967498168,0.0012660323409363,-0.1418100361526012,-0.2522032384201884,-9.803887905478476,14931.0
5.1,0.8000000119209291,143.0,22.98765182495117,0.055662415921688,-79.78279412459409,40.45896509562269,266.20348711639645,0.0060110953636467,0.0136495074257254,-0.7922462821006775,0.6100192070007324,-0.0062263485290585,-0.0083325197087927,0.0143823501234311,-0.0044248523190617,0.0012527542421594,-0.0021220580674707,-0.1409689872711897,-0.2607499308139085,-9.80390837073326,14931.0
5.3,0.8000000119209291,137.0,22.988903045654297,0.0477106422185897,-79.78279406208681,40.45896524253894,266.208650636971,0.0060081374831497,0.0136480620130896,-0.7922487854957581,0.6100159883499146,-0.0052241672549969,-0.0088076764652186,0.0131021223555398,-9.593672439223155e-05,-0.0003580604388844,-0.0004119914374314,-0.1395504618901759,-0.265240226984024,-9.805560793876648,14931.0
5.4,0.8000000119209291,137.0,22.98765182495117,0.0318070948123931,-79.78279407031779,40.4589652490784,266.2099989759922,0.0060081374831497,0.0136480620130896,-0.7922487854957581,0.6100159883499146,-0.0055062064523092,-0.0089358811399724,0.0132062281215533,0.0054212133400142,0.0007240526610985,0.0048159761354327,-0.1411150854360312,-0.2603895961493254,-9.804617637991903,14931.0
5.59,0.8000000119209291,136.0,22.99766731262207,0.0954212844371795,-79.78279397316406,40.458965390260346,266.21748364299543,0.0060006924904882,0.0136555917561054,-0.7922523617744446,0.6100112795829773,-0.0047635285750602,-0.0013896121645939,0.0129132641539412,0.0029326670337468,-0.0014527345774695,-0.004502470139414,-0.1392013465706259,-0.2650922558829188,-9.805154997110368,14931.0
5.7,0.8999999761581421,134.0,22.98765182495117,0.0477106422185897,-79.78279397311628,40.45896539469136,266.21879279196264,0.0060006924904882,0.0136555917561054,-0.7922523617744446,0.6100112795829773,-0.0050636049360961,-0.0015075349728699,0.0129842035637224,0.0055931489914655,0.0021804985590279,0.0026218136772513,-0.1396622716169804,-0.2619267195090651,-9.805012909770012,14931.0
5.8,0.8999999761581421,133.0,22.98389434814453,0.055662415921688,-79.78279389170778,40.45896552355448,266.2268286827207,0.0059983516111969,0.0136563153937459,-0.7922528386116028,0.6100106239318848,-0.0041844654174887,-0.0001849704975624,0.01547601322937,-0.0075315786525607,-0.0024497197009623,-0.0043348292820155,-0.1402891296800226,-0.2643354982696473,-9.805528049468997,14931.0
6.0,0.8999999761581421,133.0,22.988903045654297,0.0477106422185897,-79.78279388955815,40.45896553028233,266.2299710246921,0.0059981308877468,0.0136566720902919,-0.7922547459602356,0.610008180141449,-0.0044633537415917,-0.0004575269781708,0.0157466517438696,0.0031223243568092,-0.000281753251329,0.0050967638380825,-0.1405667079705745,-0.2519330787844956,-9.805357895493508,14931.0
6.11,0.8999999761581421,134.0,22.97638320922852,0.0397588685154914,-79.78279380490483,40.45896565489853,266.23898838043215,0.0059963362291455,0.01365861389786,-0.7922576069831848,0.6100044250488281,-0.0027255378801091,0.0008974533977211,0.0180366029862768,-0.0066387555561959,-0.0039937063120305,-0.0056823422200977,-0.1399310973566025,-0.2634762682020664,-9.805502906441689,14931.0
6.3,0.8999999761581421,138.0,22.98264312744141,0.0477106422185897,-79.78279373720369,40.458965788244186,266.2505857604742,0.0059997201897203,0.0136570613831281,-0.7922616004943848,0.6099992394447327,0.0003201397812651,-0.0021845372721675,0.0196679475018339,0.0021583945490419,0.0001254763192264,0.0068686474114656,-0.1417380240373313,-0.2513080662488937,-9.80345111846924,14931.0
6.4,0.8999999761581421,139.0,22.97638320922852,0.1351801604032516,-79.78279373942499,40.45896578836335,266.25257113158705,0.0059997201897203,0.0136570613831281,-0.7922616004943848,0.6099992394447327,-0.0007721326042742,-0.0020811117095005,0.0199593947001052,-0.0058395843952894,-0.0003701213863678,-0.0049298768863081,-0.1411513929907232,-0.2644671885296703,-9.805043315291403,14931.0
6.6,0.8000000119209291,141.0,22.98264312744141,0.055662415921688,-79.78279364602452,40.4589659413526,266.2652636128664,0.0059925452806055,0.0136547023430466,-0.7922655940055847,0.6099942326545715,-0.0039514400975767,-0.0011634258659995,0.020735493122579,0.0021306814160197,-0.0007361926836892,0.0059708398766815,-0.1402421418204903,-0.263693181630224,-9.804039348363878,14931.0
6.7,0.8000000119209291,142.0,22.980138778686523,0.055662415921688,-79.78279364588923,40.45896594484106,266.26735953569414,0.0059925452806055,0.0136547023430466,-0.7922655940055847,0.6099942326545715,-0.0049542538608549,-0.0011526724385256,0.020930173055208,-0.0068558836355805,-0.0039431056939065,-0.0031597791239619,-0.1406639453396201,-0.2636909523792565,-9.804092558026316,14931.0
6.9,0.8000000119209291,142.0,22.97513008117676,0.0795177370309829,-79.78279357774255,40.45896607193981,266.2808133172989,0.0059918826445937,0.0136526580899953,-0.7922656536102295,0.6099942326545715,-0.0023917020014508,-0.0028594482358543,0.021694679605193,-0.0002477790985722,-0.001914239837788,0.0032161944545805,-0.1397736702114343,-0.2624320833943785,-9.806122126579288,14931.0
7.0,0.8000000119209291,141.0,22.98264312744141,0.1669872552156448,-79.78279357993752,40.458966074456185,266.2830091226101,0.0059887049719691,0.0136504527181386,-0.7922548055648804,0.6100084185600281,-0.0034469523777354,-0.0028107258094446,0.0220226097194571,-0.003223184030503,0.0014764373190701,-0.0048910835757851,-0.1416269817575812,-0.2644696005061269,-9.805144472122194,14931.0
7.2,0.8000000119209291,142.0,22.9788875579834,0.1431319266557693,-79.78279346528771,40.45896620092853,266.29526067852976,0.0059785437770187,0.0136532392352819,-0.7922491431236267,0.6100158095359802,-0.0029426162469154,0.0026023249971738,0.0190026089234645,0.0010729752248153,-0.0023282715119421,0.0034562614746391,-0.1398866128362715,-0.2629513344168663,-9.804385503530504,14931.0
7.3,0.8000000119209291,142.0,22.98138999938965,0.1272283792495727,-79.78279337056048,40.45896633040087,266.3065438079834,0.0059706959873437,0.013647043146193,-0.7922478318214417,0.6100176572799683,-0.0013536584590878,0.0030551882121226,0.0165949092841006,-0.0100638391450047,-0.0026889608707278,-0.0028318495023995,-0.1397124114912003,-0.2638188419491053,-9.805050331950188,14931.0
7.5,0.8000000119209291,145.0,22.97638320922852,0.1113248318433761,-79.78279336271105,40.45896633075889,266.3098913240433,0.0059496192261576,0.0136402230709791,-0.7922501564025879,0.6100150346755981,-0.0018808867145532,0.0028814313087478,0.0169553344623415,0.0027750497683882,-0.0016079357592388,0.0047316579148173,-0.139676917064935,-0.2623006672225893,-9.80610692381859,14931.0
7.6,0.8000000119209291,146.0,22.973878860473643,0.1351801604032516,-79.78279326411358,40.458966480039614,266.3245235192776,0.0059371143579483,0.013616545125842,-0.7922418713569641,0.6100265383720398,-0.0052269450908704,0.0024822635359704,0.019280409794073,-0.0048966147005558,0.0013564408291131,-0.0025464606005698,-0.1394784223660826,-0.2650340578146279,-9.804142844080925,14931.0
7.8,0.8000000119209291,146.0,22.97638320922852,0.1510837078094482,-79.78279317509809,40.45896661646203,266.3389757531881,0.0059181055985391,0.0135741401463747,-0.7922410368919373,0.6100285649299622,-0.005878739097618,0.0017877205635037,0.0171524722453633,0.0026778248138725,0.0027072716038674,0.0027794193010777,-0.1411700127180666,-0.2509449176117778,-9.80319384098053,14931.0
7.9,0.8000000119209291,147.0,22.980138778686523,0.1272283792495727,-79.78279317088844,40.458966621175925,266.34071515083315,0.0059055313467979,0.0135753946378827,-0.7922409176826477,0.6100288033485413,-0.0072704871757055,0.0019284885276327,0.0173732555602846,-0.0062228678725659,-0.0016518665943294,-0.001666591502726,-0.1398585096560418,-0.264517565947026,-9.805203529000284,14931.0
8.1,0.8000000119209291,149.0,22.973878860473643,0.1272283792495727,-79.78279308113329,40.45896674262305,266.35595662474634,0.0059077343903481,0.013579336926341,-0.7922430038452148,0.6100261807441711,-0.0034958379007564,0.0022144179650395,0.0157286668527263,0.0015581233892589,-0.0016568930586799,0.0052699032239615,-0.140529952738434,-0.2615121884644032,-9.805664289593697,14931.0
8.2,0.8000000119209291,150.0,22.96887016296387,0.1272283792495727,-79.78279307721176,40.4589667452092,266.357550393343,0.0059077343903481,0.013579336926341,-0.7922430038452148,0.6100261807441711,-0.0047838858065381,0.0023813645655947,0.0160608064052292,-0.0078207841143012,-0.000197366302018,-0.0064473450183868,-0.1391158310417086,-0.2647331272065639,-9.80623731672764,14931.0
8.4,0.8000000119209291,152.0,22.966365814208984,0.1113248318433761,-79.78279295809193,40.45896688602346,266.3740472006798,0.0058999601751565,0.0135797327384352,-0.7922455668449402,0.6100228428840637,-0.0075805674487178,0.004838841168258,0.0154576810953914,0.0049212989397346,0.0009581133490428,0.0052920109592378,-0.1401154856476932,-0.2621812561154366,-9.804000172019006,14931.0
8.5,0.8000000119209291,154.0,22.97137451171875,0.1351801604032516,-79.78279294986619,40.45896689157526,266.3756183493137,0.0058999601751565,0.0135797327384352,-0.7922455668449402,0.6100228428840637,-0.0089102700605024,0.0050261267989374,0.0156808504967701,-0.0047444584779441,-0.0017355115851387,-0.0032660143915563,-0.140238395947963,-0.2644836338236928,-9.803929420709611,14931.0
8.7,0.8000000119209291,156.0,22.98264312744141,0.1510837078094482,-79.78279285110499,40.458967012464136,266.3928192663193,0.0059032724238932,0.0135823460295796,-0.7922486066818237,0.6100188493728638,-0.0055718743504307,0.0045338721713046,0.015049506915293,0.0018225432140752,0.0029061154928058,0.0048118713311851,-0.1396183626819402,-0.2612549109756946,-9.803759266734124,14931.0
8.8,0.8000000119209291,157.0,22.97513008117676,0.1192766055464744,-79.78279276547876,40.45896717614313,266.4086905527115,0.0058942167088389,0.0135707706212997,-0.7922489643096924,0.6100186705589294,-0.0157677216394271,0.0012989723952036,0.0144134762401266,-0.0074799256399273,-0.0019285791786387,-0.0054103094153106,-0.1388680461421609,-0.2646597081050277,-9.805606986880305,14931.0
9.0,0.8000000119209291,158.0,22.9788875579834,0.1351801604032516,-79.7827927528146,40.45896720287582,266.4116847920418,0.0058948379009962,0.0135714998468756,-0.7922519445419312,0.610014796257019,-0.0166460048569852,0.0010272992509189,0.0146996759324747,0.0042019095271825,-0.0011498986277729,0.0053460607305169,-0.1418880142550915,-0.2520481410250068,-9.80414459824562,14931.0
9.1,0.8000000119209291,159.0,22.97137451171875,0.1510837078094482,-79.78279263976243,40.45896729629019,266.4280247199536,0.0058982777409255,0.013584105297923,-0.7922554016113281,0.6100099682807922,-0.0075879917975647,0.0063356213235573,0.0150797172955318,-0.0053520505316555,-0.0037172811571508,-0.0034777710679918,-0.141078914925456,-0.2653548141382634,-9.805687093734742,14931.0
9.3,0.8000000119209291,159.0,22.973878860473643,0.1590354740619659,-79.78279254114635,40.45896743236908,266.44632966399195,0.0058997464366257,0.0135827036574482,-0.7922579646110535,0.6100067496299744,-0.0074220680816222,0.0039186899062194,0.014310476282349,0.0041508614085614,0.0006920673768036,0.0004756194248329,-0.1408372970111668,-0.2509125934727489,-9.803203196525574,14931.0
9.41,0.8000000119209291,161.0,22.980138778686523,0.1192766055464744,-79.78279253406991,40.458967438008365,266.4477892327309,0.0058997464366257,0.0135827036574482,-0.7922579646110535,0.6100067496299744,-0.0087265623683903,0.0040573506039514,0.0146829871605066,-0.0073288525454699,-0.0018186351517215,-0.0046397964470088,-0.1403782814461738,-0.2626217707246542,-9.806585226058962,14931.0
9.6,0.699999988079071,161.0,22.98138999938965,0.1033730581402778,-79.78279243507819,40.45896757473408,266.46646485805513,0.0058995382860302,0.0135817732661962,-0.7922614812850952,0.6100019812583923,-0.0084045475785369,0.0026501435390042,0.0143708965377512,-0.0007143690017983,0.0010690137278288,0.0024139948654919,-0.1391753721423447,-0.2629773545265197,-9.806069501638412,14931.0
9.7,0.699999988079071,161.0,22.98514747619629,0.055662415921688,-79.78279242917813,40.45896758148286,266.467931996584,0.0058995382860302,0.0135817732661962,-0.7922614812850952,0.6100019812583923,-0.0097110706589528,0.0028237181438824,0.0146183010098761,-0.0095188692212104,-0.0031930850818753,-0.0050833243876695,-0.140196771081537,-0.2634024836495519,-9.805091262459756,14931.0
9.9,0.699999988079071,161.0,22.97763442993164,0.0477106422185897,-79.78279233884011,40.45896771085805,266.4844406652451,0.0058994521386921,0.0135819036513566,-0.7922638058662415,0.6099990606307983,-0.009211000084296,0.002148551396686,0.0110577418369981,-0.0008437499054707,0.0004336239653639,0.0054784924723207,-0.1391434591356665,-0.2648703905940056,-9.805124591588974,14931.0
10.0,0.699999988079071,159.0,22.98264312744141,0.0477106422185897,-79.78279233345619,40.458967718330406,266.4855779516697,0.0059021329507231,0.0135830314829945,-0.7922636866569519,0.6099991202354431,-0.0104445806523466,0.0022767862180545,0.0112860826294382,-0.005027687177062,-0.0016814944101497,-0.0077238576486706,-0.1411549835465848,-0.2619563210383058,-9.80448782980442,14931.0
10.2,0.699999988079071,157.0,22.98138999938965,0.055662415921688,-79.78279224508493,40.45896782700672,266.5021104323864,0.0059051448479294,0.0135872736573219,-0.792267382144928,0.6099943518638611,-0.005271870284215,0.002582568831806,0.0080580140506259,-0.0055582635104656,0.0014127760659903,0.001211529248394,-0.1400434369873255,-0.2655601427704096,-9.804689558744432,14931.0
10.3,0.699999988079071,156.0,22.98138999938965,0.055662415921688,-79.7827921751412,40.45896793428744,266.520296882391,0.0059111416339874,0.0135874105617403,-0.7922700047492981,0.6099907755851746,-0.0010556169033741,-0.0009290567004784,0.0101690204166815,-0.0021474759560078,-0.0011137792607769,-0.0046556838788092,-0.1401830483973026,-0.2599347193166613,-9.804766157269476,14931.0
10.5,0.699999988079071,154.0,22.98514747619629,0.055662415921688,-79.78279217648377,40.458967936713634,266.5223813760281,0.0059111416339874,0.0135874105617403,-0.7922700047492981,0.6099907755851746,-0.0022439369550919,-0.0011154645458369,0.0105455189383845,-0.0037298940587788,-0.0008215212728828,0.0035740577150136,-0.1431304836273193,-0.2533288091607392,-9.802582222223284,14931.0
10.6,0.699999988079071,153.0,22.97513008117676,0.0636141896247863,-79.7827920638687,40.45896806262827,266.54089648604395,0.0059038992039859,0.0135898627340793,-0.7922738194465637,0.6099859476089478,-0.0053782361213483,0.003258570511012,0.0118425766248773,-0.0022551636211574,0.0008909456664696,-0.0046214824542403,-0.1408728645276278,-0.2587517544999719,-9.803950470685962,14931.0
10.79,0.699999988079071,152.0,22.98765182495117,0.0636141896247863,-79.78279198025716,40.45896818089825,266.55967469096186,0.0059025338850915,0.0135884089395403,-0.7922742962837219,0.6099853515625,-0.0062387485404146,0.0023952679129957,0.012496205086124,-0.0020755517762154,-0.0016133877215906,9.470332588534802e-05,-0.1417127531021833,-0.253560961894691,-9.803367503285408,14931.0
10.89,0.699999988079071,151.0,22.98639869689941,0.055662415921688,-79.7827919755294,40.45896818556921,266.5609442996979,0.0059031285345554,0.0135890785604715,-0.7922773361206055,0.6099813580513,-0.0070408110625458,0.0024256525285028,0.0126781053412643,-0.0033736987970769,-0.0010832964908331,-0.0044885431416332,-0.1398540511541068,-0.2566109061241149,-9.804032331705091,14931.0
11.09,0.6000000238418579,148.0,22.980138778686523,0.0636141896247863,-79.7827918910718,40.45896829069801,266.5798165011406,0.0059047765098512,0.0135920085012912,-0.7922802567481995,0.6099774837493896,-0.0041730872960827,0.0026139335933856,0.0131679946442377,-0.0044583715498447,-0.0010661898413673,-0.0012079856824129,-0.1391464649699628,-0.2664893018826843,-9.805319888591765,14931.0
11.2,0.6000000238418579,147.0,22.973878860473643,0.0636141896247863,-79.7827918868112,40.45896829350533,266.5811485755444,0.0059047765098512,0.0135920085012912,-0.7922802567481995,0.6099774837493896,-0.0047995928396485,0.0025535676659541,0.0133220969302831,0.0045859445817768,0.0014271752443164,-0.0047757723368704,-0.1410285283718258,-0.2551994979009032,-9.802969307899476,14931.0
11.4,0.6000000238418579,143.0,22.98389434814453,0.0477106422185897,-79.78279180692796,40.45896837894279,266.6003857064248,0.0059107011184096,0.0135992290452122,-0.7922831177711487,0.6099735498428345,0.0007728566839429,0.0039892614878252,0.0137815370488852,-0.0044189766049385,-0.0019282232969999,-0.0017502314876765,-0.1382963254954666,-0.2668084684945643,-9.805347370505334,14931.0
11.5,0.6000000238418579,141.0,22.98514747619629,0.0636141896247863,-79.78279180256244,40.45896837700076,266.601760815382,0.0059107011184096,0.0135992290452122,-0.7922831177711487,0.6099735498428345,0.0004639777210642,0.0039433847921149,0.0139556528355487,0.0023260379675775,-0.0011172613594681,0.00060683011543,-0.1414255269058048,-0.2522584032453597,-9.803426560163498,14931.0
11.7,0.6000000238418579,139.0,22.98639869689941,0.0636141896247863,-79.78279172561379,40.4589685089782,266.62077198505403,0.0059080617502331,0.0135954972356557,-0.7922861576080322,0.6099696755409241,-0.0041903974800136,0.002645565493629,0.0141526055573307,-0.0063082706183195,-0.0013632935006171,-0.0052354489453136,-0.1414338226430118,-0.2653531878814101,-9.804182605147362,14931.0
11.81,0.5,139.0,22.98514747619629,0.0636141896247863,-79.78279164164194,40.45896861647685,266.6387551236153,0.0059051094576716,0.0135979680344462,-0.7922870516777039,0.6099684238433838,-0.003180012268749,0.0049741063677534,0.0167640241019081,0.0059448638930916,-0.0003053884138353,0.0020359058398753,-0.142272285958752,-0.2515572124533355,-9.803721844553948,14931.0
11.99,0.5,141.0,22.9788875579834,0.0636141896247863,-79.78279162734624,40.45896862048973,266.64215735673906,0.0059056975878775,0.0135986860841512,-0.7922897338867188,0.6099649667739868,-0.0052583724815466,0.0051381535246345,0.0173029588589675,-0.0058738165535032,-0.0011601531878113,-0.0005356590263545,-0.1396335654426366,-0.2642157034389675,-9.804264466166495,14931.0
12.1,0.5,141.0,22.9788875579834,0.0636141896247863,-79.78279158855464,40.458968717847206,266.65854481935503,0.0059126075357198,0.0135974185541272,-0.7922915816307068,0.609962522983551,-0.0002275107971971,0.0003519740378042,0.0156169050789595,0.0072653125971555,0.0022649259772151,0.0023119049146771,-0.1429482240881771,-0.2522788502275944,-9.802503284811976,14931.0
12.3,0.5,141.0,22.972625732421875,-0.0238553211092948,-79.7827915465579,40.458968812050095,266.6762576508522,0.0059169265441596,0.0135964816436171,-0.7922941446304321,0.6099591851234436,0.0013967273029858,-0.0023505183366372,0.01480726068262,-0.002439173636958,-0.0011717141605913,-0.0047929701395332,-0.1400681597460061,-0.2603816475905478,-9.803936437368394,14931.0
12.4,0.5,140.0,22.98138999938965,0.0318070948123931,-79.78279154964585,40.45896881101413,266.67774490594866,0.0059169265441596,0.0135964816436171,-0.7922941446304321,0.6099591851234436,0.0014917605937799,-0.0025702144290637,0.0149264673732365,0.0039825686253607,0.0035413820296525,0.0008413072209805,-0.1427392683550715,-0.2530735051073134,-9.802748867869376,14931.0
12.6,0.5,138.0,22.972625732421875,0.055662415921688,-79.7827914755413,40.45896893111288,266.6952577638626,0.005909152328968,0.0135979522019624,-0.7922973036766052,0.6099551320075989,-0.0037498310092716,0.0016685191106346,0.0151190677350319,-0.0041826828382909,-0.0001754765980876,-0.0051670195534825,-0.1410084468405693,-0.2570513659156859,-9.804669678211214,14931.0
12.7,0.5,137.0,22.97763442993164,0.0636141896247863,-79.78279147244912,40.458968933712455,266.69679401397707,0.005909152328968,0.0135979522019624,-0.7922973036766052,0.6099551320075989,-0.0037961237762627,0.00146975110147,0.0154185650169473,0.0045800618827343,0.0016996620688587,0.00563918473199,-0.1429253377206623,-0.2551727286167443,-9.803937606811523,14931.0
12.9,0.6000000238418579,136.0,22.988903045654297,0.0318070948123931,-79.78279142357063,40.45896902944136,266.7135807681084,0.005911748856306,0.0136007396504282,-0.7923003435134888,0.6099510788917542,-0.0019044182120005,0.0020181528167309,0.0149503681567943,-0.001242725062184,0.0018642412032932,-0.0048742438666522,-0.1403526816051453,-0.2553627813979983,-9.803666880726814,14931.0
13.01,0.6000000238418579,137.0,22.98389434814453,0.055662415921688,-79.78279142057174,40.458969030429024,266.7150869178772,0.005911748856306,0.0136007396504282,-0.7923003435134888,0.6099510788917542,-0.002046707435437,0.0018390615958486,0.0150674630827788,0.0057938992977142,0.0026074873749166,0.0047454368323087,-0.1424038209021091,-0.2556137365847826,-9.802971062064172,14931.0
13.2,0.6000000238418579,138.0,22.97763442993164,0.055662415921688,-79.78279137658015,40.45896912720357,266.73138127803804,0.0059123551473021,0.0136015377938747,-0.7923042774200441,0.6099458932876587,-0.0022376446531241,0.0019464173548373,0.0151545137563632,-0.0028976013418287,-0.0023490970488637,-0.0037777577526867,-0.1416798625141382,-0.2543851817585528,-9.803836449980736,14931.0
13.3,0.6000000238418579,138.0,22.98264312744141,0.0477106422185897,-79.78279136667878,40.458969236754285,266.745629529953,0.0059166122227907,0.0135967498645186,-0.7923075556755066,0.6099417209625244,-0.0020902018630031,-0.0028258570580985,0.0141334380892383,0.0076270923018455,-0.0010678502731025,0.0058047822676599,-0.1418423785641789,-0.2566528050787747,-9.803921234607698,14931.0
13.5,0.699999988079071,136.0,22.98639869689941,0.055662415921688,-79.78279137063002,40.45896924297168,266.7485471773148,0.0059166122227907,0.0135967498645186,-0.7923075556755066,0.6099417209625244,-0.0041962681854989,-0.0027447030621299,0.0146788101505147,0.0005718228640034,-8.465565042570233e-05,-0.0048032328486442,-0.1389095522370189,-0.2666565505228937,-9.805570149421692,14931.0
13.6,0.699999988079071,134.0,22.98264312744141,0.055662415921688,-79.78279132011488,40.458969337372096,266.7640709090233,0.0059089856222271,0.0136006725952029,-0.7923092842102051,0.609939455986023,-0.0025547055559333,0.0022545204640567,0.0178119820357232,0.0043501039035618,0.0008243547054007,0.0058087985962629,-0.142361373770982,-0.259034796282649,-9.802981587052344,14931.0
13.8,0.8000000119209291,132.0,22.98514747619629,0.0477106422185897,-79.78279132435756,40.45896945199581,266.7785482811928,0.0059192050248384,0.0136116398498415,-0.7923062443733215,0.6099430918693542,-0.003582851652063,-0.0030294728319626,0.0158089698758724,-0.0011165043106302,-0.0016338682034984,-0.0042027775198221,-0.138746533691883,-0.2663866284303367,-9.806139083504675,14931.0
13.9,0.8000000119209291,132.0,22.980138778686523,0.0397588685154914,-79.78279132656341,40.45896945561685,266.7801580834389,0.0059095509350299,0.0136055294424295,-0.7923086285591125,0.6099401712417603,-0.0038395986409151,-0.0032039804198008,0.016043779789638,0.0065115941688418,0.0031153508462011,0.0041228453628718,-0.1413273667730391,-0.2577507111802697,-9.80463693380356,14931.0
14.1,0.8999999761581421,132.0,22.97638320922852,0.055662415921688,-79.78279133066309,40.458969551494455,266.7936756420136,0.0059000817127525,0.0135823357850313,-0.7923094034194946,0.6099398732185364,-0.0019418471003274,-0.0045327005881554,0.0154455886047132,0.0015090459492057,-0.0014087245799601,-0.0033561307936906,-0.1406384094525128,-0.2545571629889309,-9.803834111094476,14931.0
14.2,0.8999999761581421,129.0,22.97513008117676,0.0636141896247863,-79.78279133501226,40.45896955409457,266.7952396678925,0.0058861514553427,0.0135772954672575,-0.7923025488853455,0.609948992729187,-0.0022612168567285,-0.0046007667823786,0.0155585189351145,0.0045346980914473,0.0017797104083001,0.0055659660138189,-0.1418599658925086,-0.2581191223114729,-9.803306692242623,14931.0
14.39,0.8999999761581421,130.0,22.9788875579834,0.0318070948123931,-79.78279131107819,40.45896966536884,266.8099300670624,0.0058973999693989,0.0136005636304616,-0.7923029065132141,0.6099479794502258,-0.0055969479022888,-0.0001345985386656,0.0181361427231066,3.614433126131189e-06,0.0007393374689854,-0.00440643588081,-0.1401853690110147,-0.2547861180268228,-9.803420712947846,14931.0
14.5,0.8999999761581421,131.0,22.96887016296387,0.055662415921688,-79.7827913092409,40.458969670058046,266.81177250623705,0.0058833737857639,0.013595032505691,-0.7922918796539307,0.6099624633789062,-0.00589112432181,-0.0001861653105834,0.0183822543699758,0.0050771147944033,0.0013980065705254,0.0024824396241456,-0.1422931349370628,-0.2564746659994125,-9.803763944506644,14931.0
14.7,0.8999999761581421,130.0,22.98138999938965,0.0318070948123931,-79.7827913327423,40.45896978177999,266.8261574316025,0.0058865714818239,0.0135919628664851,-0.7922970652580261,0.6099557876586914,-0.0062654578196021,-0.004320262658758,0.020319933324993,0.0005455071222968,0.0007421267800964,-0.0064799138344824,-0.139834261983633,-0.26649273712188,-9.805730947852137,14931.0
14.8,0.8999999761581421,129.0,22.98514747619629,0.0477106422185897,-79.78279136305503,40.458969870189,266.83517394542696,0.0058952178806066,0.0135947568342089,-0.7922989726066589,0.6099531054496765,0.0003786762466546,-0.0062558752353119,0.0165724902159084,0.0077739958651363,0.0011688055237755,0.0061174011789262,-0.1425724948011338,-0.2573251069709659,-9.804158631563189,14931.0
15.0,0.8999999761581421,127.0,22.97638320922852,0.055662415921688,-79.78279137645491,40.45896987362004,266.838578145504,0.0058952178806066,0.0135947568342089,-0.7922989726066589,0.6099531054496765,-0.001782095153381,-0.0062401393781716,0.0173162004588652,-0.0039081727154552,0.0010391557589173,-0.0050031645223498,-0.1406028327997774,-0.2661804227158427,-9.806171827912332,14931.0
15.09,0.8000000119209291,127.0,22.98639869689941,0.055662415921688,-79.78279140694066,40.458969967419264,266.84753416061403,0.0058988542295992,0.0135953733697533,-0.7923010587692261,0.6099504232406616,0.0007428278046029,-0.0070248930213105,0.0159789304881104,0.0051441132090985,0.0020786984823644,0.0040734689682722,-0.1428551711328327,-0.2564254214800894,-9.803932929039002,14931.0
15.3,0.8000000119209291,128.0,22.97513008117676,0.0318070948123931,-79.78279143108188,40.45897007950406,266.8571644830704,0.0058948136866092,0.0135946944355964,-0.7923031449317932,0.6099477410316467,-0.0024227970173567,-0.0047346694805452,0.0146855542159236,-0.0013095343019813,-0.0026403518859297,-0.0026255038101226,-0.1394588981475681,-0.266521425023675,-9.805430400967598,14931.0
15.4,0.8000000119209291,127.0,22.97012138366699,0.0079517737030982,-79.78279143559935,40.458970082493856,266.85865537405016,0.0058948136866092,0.0135946944355964,-0.7923031449317932,0.6099477410316467,-0.0025182412907434,-0.0048616645789357,0.0148512464144349,0.0038253215607255,0.0019250989425927,0.0026337995659559,-0.1424324996676296,-0.2548202876932919,-9.80412881076336,14931.0
15.6,0.8000000119209291,129.0,22.98389434814453,0.0477106422185897,-79.78279146563342,40.458970182870665,266.86742536306383,0.0058977394364774,0.0135979717597365,-0.7923056483268738,0.6099443435668945,-0.001047965987151,-0.002511934885306,0.0140047452697074,-0.0030565473716706,-0.0013918119948357,-0.0079627390950918,-0.1409344795625657,-0.2578580258600414,-9.803570401668551,14931.0
15.7,0.8000000119209291,131.0,22.98389434814453,0.0715659633278846,-79.78279146805448,40.45897018413636,266.86883846998217,0.0058977394364774,0.0135979717597365,-0.7923056483268738,0.6099443435668945,-0.0011664206411829,-0.0026045924350846,0.0141475419984876,0.0078764576464891,0.0003132826241198,0.0036101178266108,-0.1430022103339433,-0.2542850116454065,-9.801932596564292,14931.0
15.9,0.8000000119209291,136.0,22.98389434814453,0.055662415921688,-79.78279150251677,40.45897031928933,266.8766069221497,0.0058944392949342,0.0135920885950326,-0.7923086285591125,0.609940767288208,-0.0079373389175434,-0.0033261877519186,0.0135313852751086,-0.0019590994343161,-0.0012303406838327,-0.0053817862644791,-0.1408517049159854,-0.2592229304462671,-9.804438128471377,14931.0
16.0,0.8000000119209291,137.0,22.955097198486328,0.7395149469375609,-79.7827915038249,40.45897032669459,266.87799690246584,0.0058944392949342,0.0135920885950326,-0.7923086285591125,0.609940767288208,-0.0080112495555001,-0.003500793194872,0.0137524721246011,0.0055838651023805,0.0027835313230752,0.0032094474881887,-0.142872329056263,-0.2531000368483365,-9.803322479724883,14931.0
16.2,0.8000000119209291,140.0,22.96010589599609,0.3578298389911652,-79.78279154404058,40.45897042213527,266.8846609997749,0.0058902790769934,0.0136126894503831,-0.792317807674408,0.6099283695220947,-0.0051676102455337,-0.001322762546928,0.0134419299106542,-0.0017632242524996,0.0005718063330277,0.0050645000301301,-0.1308422310277819,-0.2498751877807081,-9.805725100636485,14931.0
16.3,0.8000000119209291,142.0,22.97137451171875,0.3498780429363251,-79.7827916061347,40.45897051122383,266.8871770310402,0.0058871763758361,0.0136451786383986,-0.7922655344009399,0.6099954843521118,-0.0004651168761385,-0.0048045319022573,0.0083104573930558,0.0056667062453925,0.0005187115166336,-0.0147462813183665,-0.1409687680006027,-0.257930312063545,-9.805038637518884,14931.0
16.5,0.8000000119209291,146.0,22.962610244750977,0.3578298389911652,-79.78279161601236,40.45897051363821,266.8889276790619,0.0058825304731726,0.0136451572179794,-0.7922925353050232,0.6099605560302734,-0.0032547772841224,-0.0039355721327878,0.0090819178873235,-0.0080292653292417,-0.0051966342143714,-0.0158886257559061,-0.1463187784608453,-0.2572266910225153,-9.805053255558017,14931.0
16.61,0.8000000119209291,149.0,22.96010589599609,0.3578298389911652,-79.78279165821023,40.4589706410499,266.8907401967049,0.0058804247528314,0.013654856942594,-0.792275607585907,0.6099822521209717,-0.0058891870507515,-0.0046850764639506,0.0059691657277461,0.0092598795890808,-0.0015294284094125,0.0085976375266909,-0.1455234840419143,-0.2548754159733653,-9.80254187643528,14931.0
16.79,0.8999999761581421,153.0,22.96511459350586,0.4055404663085937,-79.78279171374706,40.45897074870528,266.8922279286385,0.0058785662986338,0.0136734610423445,-0.7922803163528442,0.6099757552146912,-0.0062693482899402,-0.0031572677643074,0.0041033832706385,-0.0088407471776008,-0.0006302598048932,0.0026502746623009,-0.1377565818093717,-0.2622365305759013,-9.803101454973223,14931.0
16.91,0.8999999761581421,154.0,22.9638614654541,0.4293957948684693,-79.78279171545309,40.45897075460008,266.892668466568,0.0058943522162735,0.0136735131964087,-0.7923054695129395,0.6099429726600647,-0.0068985007242159,-0.0035190702658605,0.0042034745009005,0.0057062320411205,0.0046357908286154,-0.0038968310691416,-0.148208973146975,-0.2595439974032342,-9.798268731236456,14931.0
17.1,0.8999999761581421,156.0,22.96135711669922,5.661663055419923,-79.78279177168368,40.45897084863119,266.8942929315567,0.0058791418559849,0.0136525854468345,-0.7923112511634827,0.609935998916626,-0.0052651654042113,-0.0015679337686286,0.006649623376676,-0.004011183977127,-0.0010758190182968,-0.0087815513834357,-0.1376594175305217,-0.2687471493892372,-9.804453331232072,14931.0
17.2,0.8999999761581421,158.0,22.708444595336918,3.363600254058838,-79.7827918537206,40.45897095235206,266.89334819793703,0.0058829481713473,0.0133345080539584,-0.7923946380615234,0.6098347306251526,-0.0023292458918264,-0.0052370039845364,0.0040893578272488,-0.0005555747193284,-0.0057912380434572,-0.0073224175721406,-0.1558145927265286,-0.2722917497903109,-9.833068435192107,14931.0
17.4,0.8999999761581421,158.0,22.96135711669922,0.3021674156188965,-79.78279185812598,40.45897095581529,266.8937741327286,0.0059043685905635,0.0133637655526399,-0.7923686504364014,0.6098675727844238,-0.0023017488301765,-0.005535995053376,0.0044747232795518,0.00515130860731,-0.0176140293478965,0.0103540839627385,-0.1188916368596256,-0.2565726068615913,-9.808056970238686,14931.0
17.5,0.8999999761581421,159.0,22.95885467529297,1.8209562301635744,-79.78279186308755,40.45897096045512,266.8942317771912,0.0058245561085641,0.0133913420140743,-0.7923573851585388,0.6098824143409729,-0.0029316574112433,-0.0049726667326589,0.0043767258359735,0.0013902036007493,0.0107327764853835,-0.0073137986473739,-0.1294705016445368,-0.2290219519659877,-9.79756004869938,14931.0
17.7,0.8999999761581421,159.0,22.93756866455078,0.5725277066230774,-79.78279192414392,40.45897103891888,266.89203272342684,0.0058504003100097,0.0134515855461359,-0.7923839092254639,0.6098464131355286,-0.0017445932358956,-0.0029152272083727,0.0032448656931422,-0.0162084940820932,0.0317473895847797,-0.0141351614147424,-0.1288485680334269,-0.2153230037726462,-9.80141277909279,14931.0
17.8,0.8999999761581421,159.0,22.966365814208984,0.3021674156188965,-79.78279200944392,40.45897114393229,266.88911209583284,0.0058624115772545,0.0134936925023794,-0.7923761010169983,0.6098554134368896,-0.003520778299022,-0.0063573814161077,0.0018231316593686,-0.0040210648439824,-0.0059448182582855,0.0011077129747718,-0.1362415956426411,-0.2343019328825176,-9.812683871984484,14931.0
18.0,0.8999999761581421,157.0,22.94508171081543,0.9939717650413512,-79.78279202153007,40.45897115147711,266.8895147252083,0.0058368952013552,0.0135695971548557,-0.7923156023025513,0.6099327206611633,-0.0047301716856893,-0.0056769353378841,0.0022631091821905,-0.0269973520189523,-0.0138221224769949,0.0172886941581964,-0.1470543125085532,-0.2553044006042183,-9.803435330986977,14931.0
18.09,0.8000000119209291,157.0,22.80986022949219,3.101191759109497,-79.78279210206561,40.45897122051199,266.88817558765413,0.0058306423015892,0.0135442754253745,-0.792303740978241,0.6099486947059631,0.0031077516639092,-0.0065893909427937,0.0044063543407618,0.0174587108194828,-0.0047221924178302,-0.0026841657236218,-0.1373381952568888,-0.2831581788137555,-9.812333039045336,14931.0
18.3,0.8000000119209291,156.0,22.73849296569824,5.446965217590332,-79.78279216736522,40.45897129801386,266.88481317043306,0.0058542434126138,0.0135393822565674,-0.7923429608345032,0.6098975539207458,0.0020993075087857,-0.0037205720499354,0.0042682989023374,0.0043774326331913,0.0068579008802771,-0.0056896894238889,-0.1247558003012091,-0.2438709195703268,-9.808466860055924,14931.0
18.4,0.8000000119209291,157.0,22.66587448120117,6.369370937347412,-79.782792171772,40.45897129741912,266.8852547812462,0.0057876436039805,0.0134772500023245,-0.7923524379730225,0.6098873615264893,0.0019227950258708,-0.0030734614378461,0.0038716594435841,0.0002021468535531,-0.0010233160573989,0.0001560616947244,-0.1538147536106407,-0.3212480013817549,-9.798655232191086,14931.0
18.6,0.8999999761581421,157.0,22.55694580078125,8.19827938079834,-79.78279225829633,40.45897138180451,266.8829950499535,0.0058513982221484,0.0135763324797153,-0.7924486994743347,0.6097593903541565,-0.0008447666362523,-0.0071141959782822,0.005512044302027,0.0100507335737347,-0.0240145958960056,0.0034489505924284,-0.1595340066030621,-0.3201908613368869,-9.785921750664713,14931.0
18.7,0.8999999761581421,158.0,22.47681427001953,9.605742454528809,-79.78279226613802,40.4589713850423,266.88376669168474,0.0058743031695485,0.0133274924010038,-0.7924626469612122,0.6097466349601746,-0.0038394260346155,-0.0089405664482847,0.0068839281427196,0.0173530746251344,-0.0030400259420275,0.0394486710429191,-0.1493871048744768,-0.2800684369727969,-9.78273852646351,14931.0
18.9,0.8999999761581421,157.0,22.362876892089844,12.357056617736816,-79.78279235073934,40.45897144640676,266.879139046669,0.005903020966798,0.0130842979997396,-0.7925214171409607,0.6096752285957336,0.0047353006740517,-0.01205840791213,0.0032889915723141,0.0198831763118505,-0.0172304455190897,0.0743038281798362,-0.24260967515409,-0.4037482308223844,-9.741712707281112,14931.0
19.0,0.8999999761581421,158.0,22.263965606689453,13.756568908691404,-79.78279235985332,40.458971445871065,266.87982461929323,0.0060233012773096,0.0130432453006505,-0.792608916759491,0.6095612049102783,-0.0018119805436129,-0.0031310385396123,0.0111963459132105,-0.0074961520731449,0.052428975701332,-0.0382905527949333,-0.0301878313813358,0.0576805897057056,-9.86342367053032,14931.0
19.2,1.0,157.0,22.114971160888672,16.810050964355472,-79.78279240374056,40.45897150855812,266.87528316259386,0.0076833833009004,0.0131333451718091,-0.7926167845726013,0.6095302700996399,0.0079386989239402,-0.0088923736517105,0.0106082081972768,0.0170595757663249,-0.0076434486545622,-0.0055742771364748,-0.2148893230967224,-0.250563039612025,-9.836956833601,14931.0
19.3,1.0,157.0,22.031084060668945,18.16185188293457,-79.7827924806843,40.45897156714212,266.8697404074669,0.008665008470416,0.0124774500727653,-0.7925628423690796,0.6096010804176331,0.0005008456341541,-0.0138988211128447,0.0046515913854746,0.0314648039638996,0.021334471181035,-0.1077073961496353,-0.2297730268165469,-0.1439359924010932,-9.716150434613226,14931.0
19.5,1.0,157.0,21.86330986022949,22.11388397216797,-79.78279251203001,40.45897156353074,266.8717747139931,0.0101049048826098,0.0105524528771638,-0.7925137281417847,0.609679102897644,0.0122869745106099,-0.015951175805702,0.0129079714661978,0.0434542670845985,-0.0166390500962734,0.126133382320404,-0.1330071808956563,-0.1014174430165439,-9.84030728816986,14931.0
19.6,1.100000023841858,158.0,21.76439666748047,23.42592620849609,-79.78279258815752,40.45897161226933,266.8670729804039,0.01159359049052,0.0101582584902644,-0.7923352122306824,0.6098912954330444,0.0065589424250054,-0.0004442180063999,0.0183704021240509,-0.0247414726763963,-0.0473213456571102,-0.0518489480018615,-0.0312468991801142,-0.4655260376259685,-9.830433679819109,14931.0
19.8,1.100000023841858,158.0,21.59161376953125,27.06783866882324,-79.7827926296994,40.4589716130777,266.8621361660957,0.0118714841082692,0.011829218827188,-0.7925307750701904,0.6096015572547913,0.0487932113439195,0.0158067824459643,0.0177126204605755,0.1345910429954528,-0.0876440703868866,0.0305884405970573,0.1852751492522657,-0.4136410618945957,-9.783623794913291,14931.0
19.9,1.2000000476837158,158.0,21.48894691467285,28.67409706115723,-79.78279262061146,40.45897156997948,266.8665525722504,0.0103199603036046,0.0109486347064375,-0.7918720841407776,0.6105015873908997,0.0471348909594599,0.015153758497305,0.0771611949064626,-0.0551034919917583,0.1423055529594421,-0.0211823377758264,0.1459341138973832,0.028724501710385,-10.239784383773804,14931.0
20.1,1.2000000476837158,161.0,21.723079681396484,23.95869445800781,-79.78279281593187,40.45897159526557,266.8753749537468,0.000137655850267,0.0066006225533783,-0.7911800146102905,0.6115477085113525,0.0445890658196486,0.0437424258891349,0.2455665850096728,-0.2015217989683151,0.0292531214654445,0.0340292155742645,0.0612905510142445,-0.2614711117744446,-10.912243419885638,14931.0
20.2,1.2000000476837158,160.0,21.843276977539062,20.388347625732425,-79.78279276741931,40.45897153785817,266.9044754910469,-0.008021805435419,0.0025290655903518,-0.7913997173309326,0.6112412810325623,0.0440592995723916,0.0493217970528687,0.3294925650757149,-0.1468898952007293,-0.0459759719669818,0.1319665014743805,0.0342920445813797,-0.2681502583064139,-10.59572895884514,14931.0
20.4,1.2000000476837158,160.0,21.699291229248047,23.577009201049805,-79.78279278433423,40.45897137612335,266.9493762660027,-0.0045079719275236,-0.0061173713766038,-0.7936382293701172,0.6083425879478455,0.0045225578728959,0.0740422343992995,0.2558607635652564,-0.0719729885458946,0.1440865397453308,0.0582078397274017,0.0098146428354084,0.1089240162447095,-9.608463433384896,14931.0
20.5,1.2999999523162842,160.0,21.690526962280277,24.35628318786621,-79.78279269434583,40.45897135421461,266.9733165311813,-0.0017315187724307,-0.0087699992582201,-0.7947457432746887,0.6068767309188843,-0.0263285494629966,0.0981620492281335,0.2145786616004975,-0.1915212571620941,0.0104299988597631,-0.0519120097160339,0.2052777430973947,0.0176862330688163,-9.425902251005173,14931.0
20.7,1.2999999523162842,162.0,21.63167953491211,24.809534072875977,-79.78279254888227,40.45897151809757,267.0019715833664,-0.0044327690266072,-0.0049498747102916,-0.7955024242401123,0.6059141159057617,-0.0176388962336683,0.0880459242611917,0.1140019209425363,0.0907555520534515,-0.1820905357599258,-0.0320444628596305,0.190642326772213,-0.3158623503148556,-9.529922463297844,14932.0
20.8,1.399999976158142,161.0,21.624168395996094,25.14350891113281,-79.78279247416934,40.45897181956292,267.01105610609056,-0.0029718223959207,-0.0039545698091387,-0.7948430776596069,0.6067948937416077,-0.0600882563738412,0.0937948888230752,0.1031900454879213,0.2195537388324737,-0.0594088546931743,0.019464049488306,0.1227931549586355,-0.0816566954925656,-9.644628462195396,14932.0
20.9,1.399999976158142,162.0,21.63543701171875,24.83338928222656,-79.782792341823,40.45897187238739,267.02113203287126,-0.0009391902713105,-0.002856443170458,-0.7937385439872742,0.6082516312599182,-0.0922984431162638,0.0942320808589822,0.094407039584549,0.0565730817615985,0.1097596958279609,-0.0998253375291824,-0.013775172131136,0.1693044846877456,-9.61747340798378,14932.0
21.1,1.399999976158142,163.0,21.560312271118164,25.60471153259277,-79.78279209414187,40.45897199285222,267.0347960996628,0.0032500084489583,-0.0030249084811657,-0.7908138036727905,0.6120408177375793,-0.1037275069320108,0.1083421478196469,0.0908146546634784,0.0801199674606323,-0.0576133206486702,-0.0710401535034179,0.1228912968188524,-0.1990128352493048,-9.896534113883972,14932.0
21.2,1.399999976158142,162.0,21.53276824951172,27.163259506225582,-79.78279194278491,40.4589720651936,267.0446835565567,0.0055717900395393,-0.0023158588446676,-0.7900992035865784,0.6129493117332458,-0.0954989156807686,0.0896646525167164,0.100141055605181,0.2127940356731414,0.0690030306577682,0.1422413289546966,0.0756156994588673,-0.0244105539098382,-9.897753843069076,14932.0
21.41,1.399999976158142,162.0,21.50271797180176,27.139404296875,-79.78279178992254,40.458972240749134,267.05119381427767,0.0067041157744824,-0.0028384195175021,-0.7895713448524475,0.6136155724525452,-0.1103244598351065,0.0830193150602249,0.1364829904692246,-0.0530057922005653,-0.0202294159680604,-0.0969032421708107,0.05774941326119,-0.3064964995533228,-10.121094092130662,14932.0
21.6,1.399999976158142,163.0,21.470165252685547,26.90085029602051,-79.7827916561913,40.45897256400943,267.0772913503647,0.0097132790833711,-0.0044527808204293,-0.7898429036140442,0.6132161617279053,-0.124344759473928,0.0597095953512551,0.1960719355794596,-0.1218235418200492,0.0544202141463756,-0.0892808586359024,0.0856227430980652,-0.0585359322885051,-10.135610389709472,14932.0
21.7,1.399999976158142,161.0,21.644201278686523,18.02667236328125,-79.78279156629866,40.45897264412107,267.0983544993401,0.0110721560195088,-0.0039339484646916,-0.7900494933128357,0.6129305362701416,-0.0955572559580107,0.0437442490099496,0.2215595422785427,0.1222111657261848,-0.0117236599326133,0.1244108378887176,0.1203788761608302,0.014649358280003,-10.086234161853788,14932.0
21.8,1.399999976158142,159.0,21.85329246520996,21.787860870361328,-79.78279148480233,40.45897284791063,267.0944030094147,0.0123659148812294,-0.0042775478214025,-0.7900296449661255,0.612929105758667,-0.113940445545915,0.0547459753721799,0.1775912311501792,-0.1358341872692108,0.0094235157594084,-0.1061659976840019,-0.0255179868615232,-0.1145860761590302,-9.4899590831995,14932.0
22.01,1.399999976158142,159.0,21.278602600097656,31.14709854125977,-79.78279133589666,40.45897298789559,267.10750053405764,0.0096513610333204,9.61723126238212e-05,-0.7894012928009033,0.6138015985488892,-0.0874379183937881,0.0484169649509334,0.0091871483481464,-0.125246986746788,-0.1536644846200943,-0.104654848575592,0.1861469691060484,-0.4424296088889241,-9.39836186528206,14932.0
22.1,1.399999976158142,159.0,21.32993507385254,30.08951187133789,-79.78279124944136,40.45897301525576,267.1151220607758,0.0056163100525736,0.0018384202849119,-0.7892623543739319,0.6140278577804565,-0.0618023836316008,0.0489985357808073,0.0638418539963945,0.0228353515267372,-0.0497653074562549,0.0830834135413169,0.1253123912774026,-0.2758097453601658,-10.389170218706134,14932.0
22.3,1.399999976158142,159.0,21.03069496154785,35.98972702026367,-79.78279113165318,40.45897329149943,267.1357687520981,-0.0023814640007913,-0.0033615161664783,-0.788537323474884,0.6149730682373047,-0.1011254663885583,0.0433521338031892,0.2653362009671496,-0.1126928925514221,0.0829164311289787,-0.0568785071372985,0.0575474513461813,-0.0520492459461092,-10.896087563037872,14932.0
22.5,1.399999976158142,154.0,20.866676330566406,38.77285003662109,-79.78279098845222,40.45897343633891,267.22382662773134,0.0069509427994489,-0.005393598228693,-0.7879125475883484,0.6157244443893433,-0.0906460720832348,0.0354017352546654,0.6477831957205987,0.097351886332035,0.097743347287178,0.1462295949459076,0.0030296160187572,-0.1793261006847024,-11.323755254745484,14932.0
22.61,1.399999976158142,156.0,20.831619262695312,39.7270622253418,-79.78279099612756,40.45897370263732,267.26998410701754,0.0086387554183602,-0.0075133712962269,-0.7878966927528381,0.6157010197639465,-0.1238577791067398,0.0256798385944257,0.8446958978479333,-0.0606374628841877,0.0378126427531242,-0.0400588363409042,0.1622667759284377,-0.079282936071977,-12.057432299852376,14932.0
22.7,1.5,154.0,20.78278923034668,40.33934783935547,-79.78279095200824,40.45897380674037,267.3657719898224,0.0064427177421748,-0.0088843302801251,-0.7881437540054321,0.6153934597969055,-0.1274036610685026,0.0233156620785138,1.0723688090846248,-0.0126345576718449,-0.0342344045639038,0.1264895796775818,0.1537514757737517,-0.1300286823324859,-12.078502156734464,14932.0
22.9,1.600000023841858,155.0,20.698902130126957,41.99331665039063,-79.78279103654808,40.45897417132219,267.5941531467438,-0.0010743755847215,-0.0040074526332318,-0.7886165976524353,0.6148713231086731,-0.1474827775187435,0.0129035108795716,1.5238669451670162,0.0886292830109596,-0.102053090929985,0.0410429686307907,0.1427983891870826,-0.0837029468826949,-12.166712082624436,14932.0
23.09,1.600000023841858,153.0,20.665096282958984,41.9217529296875,-79.7827911355865,40.45897462778591,267.9044751930237,-0.0039026252925395,0.0065063377842307,-0.7884026765823364,0.6151127815246582,-0.190196248306622,-0.0125617130819094,1.970232527806253,0.0348342582583427,-0.0498625300824642,0.1228945404291153,0.0560141058359295,-0.134474466573447,-12.2323330450058,14932.0
23.2,1.7000000476837158,151.0,20.667600631713867,41.7468147277832,-79.78279106421591,40.45897480014124,268.1141412067413,-0.0016573740867897,0.0081718200817704,-0.7878172993659973,0.6158525943756104,-0.212311370122628,-0.0115509136020183,2.220148369032232,0.0420956723392009,0.0341881290078163,-0.0823288783431053,0.0016896763024851,-0.0737461801618337,-12.27596730709076,14933.0
23.3,1.8999999761581416,151.0,20.653827667236328,41.794525146484375,-79.78279129426552,40.458975110808936,268.2630741405487,0.0038843310903757,0.0076194354332983,-0.7873697876930237,0.6164216995239258,-0.2083454592161645,-0.0131367379332621,2.387257366528809,0.1710917502641678,0.1409979909658432,0.0343062877655029,0.0862987451814115,0.0011351821012794,-12.2785307264328,14933.0
23.5,2.0,152.0,20.296993255615234,36.16466903686523,-79.78279112826131,40.45897540798121,268.78589985847475,0.0207802336663007,0.007064526900649,-0.7872775793075562,0.6162081360816956,-0.2219356924945462,0.0403461875983869,2.816783432402913,0.2098163366317749,0.0887208506464958,0.0314801633358001,0.1056930732820183,-0.0579493332188576,-11.868428070545194,14933.0
23.6,2.200000047683716,154.0,20.293237686157227,35.592140197753906,-79.78279153565146,40.45897567039986,268.9091586875916,0.0264442432671785,0.0109031312167644,-0.7878397703170776,0.6152157187461853,-0.2295103017927997,0.0515121796759218,2.8281549495612683,0.0147831756621599,-0.0651286393404007,0.1109873577952385,0.1841449007391929,-0.1053322452586144,-11.269277915954593,14933.0
23.8,2.200000047683716,158.0,20.41719055175781,32.54661178588867,-79.78279180406189,40.45897600582549,269.3034431743622,0.0156529173254966,0.0206154063344001,-0.7904563546180725,0.6119711995124817,-0.1997282231264808,0.0352635209129366,2.8822788990157027,-0.0415720604360103,-0.1791120171546936,0.0600874498486518,0.2058059476688504,-0.1753987634740769,-10.749592591524124,14934.0
24.0,2.400000095367432,162.0,20.49982643127441,32.125167846679695,-79.78279171147885,40.45897601992424,269.8923425483704,-0.0005782349035143,0.0137367518618702,-0.7921627759933472,0.6101550459861755,-0.0848946895900536,-0.0066530039395167,2.9938373310397823,-0.1104554533958435,0.0007404129137285,0.0031732979696244,0.0937466361187398,-0.0969898856431245,-10.512824796438217,14934.0
24.1,2.5,165.0,20.678869247436523,29.509033203125,-79.78279185125754,40.45897619802836,270.0319802570343,-0.0024939838331192,0.0056069153361022,-0.7923341989517212,0.610056459903717,-0.039582200611787,0.0197292417413473,2.8953429583531616,-0.1181627362966537,0.0421571880578994,-0.0547093488276004,0.1708976316824555,-0.1849123477935791,-10.015224405527118,14935.0
24.2,2.5999999046325684,170.0,20.57870483398437,30.79722023010254,-79.78279175132225,40.45897617470254,270.320202331543,-0.0032779152970761,-0.0018362464616075,-0.7924200296401978,0.6099643111228943,-0.0182787709945019,0.0693367378937995,2.8667906086111383,-0.2143968790769577,0.1479158848524093,-0.0218466576188802,0.0649350017588585,0.0325806901836767,-9.587512274980543,14935.0
24.4,2.5999999046325684,174.0,20.546152114868164,32.2126350402832,-79.78279166724954,40.4589762872028,270.7226691055298,0.0029626439791172,-0.0121120810508728,-0.791479766368866,0.6110681891441345,0.0039054464029158,0.1252512753340629,2.6785863471732605,0.0454709380865097,0.0623756907880306,-0.1221756935119628,0.1855441577173768,-0.1286300100758672,-9.464028435945512,14935.0
24.6,2.5999999046325684,181.0,21.08077812194824,31.385652542114247,-79.7827917854302,40.45897634934342,271.01869009017946,0.0148108443245291,-0.0109420539811253,-0.7899265289306641,0.6129250526428223,-0.0238378643389233,0.1286182957865154,2.5339406461889404,0.0496593602001667,0.0432159267365932,-0.0678183808922767,0.2314826064929366,-0.2426569645106792,-10.038732551336286,14936.0
24.7,2.700000047683716,183.0,21.288618087768555,27.958436965942383,-79.78279172871473,40.45897636219796,271.27346132278444,0.0142536684870719,-0.0097561944276094,-0.7894132137298584,0.6136191487312317,-0.0484311547848922,0.1236553819512642,2.549816512489097,0.0037295103538781,-0.0270157679915428,-0.0258487090468406,0.2477482082694769,-0.2573234807141125,-9.953323441743851,14936.0
24.9,2.799999952316284,192.0,21.133363723754886,30.82902717590332,-79.78279110852706,40.45897628850929,271.9211463737488,0.0086426995694637,-0.0087029002606868,-0.7884882092475891,0.6149277091026306,-0.0326594013455366,0.093507590885366,2.490430700675502,-0.0277960393577814,-0.0150533076375722,0.0265224650502204,0.0890256855636835,0.0510013061296194,-9.25427068412304,14936.0
25.01,2.799999952316284,192.0,21.254812240600582,28.91264915466309,-79.78279107157063,40.45897629753989,272.1681289482117,0.0071025458164513,-0.0103150587528944,-0.788070559501648,0.6154576539993286,-0.0322373219263696,0.0786580105362983,2.445597847758189,-0.0438204482197761,-0.0498781129717826,0.0092663606628775,0.1637232077121734,-0.1979270438477397,-9.36261374294758,14937.0
25.1,2.799999952316284,197.0,21.133363723754886,30.542762756347656,-79.78279053188193,40.45897635221407,272.55284116745,0.0074809659272432,-0.0117359040305018,-0.7880038022994995,0.6155132055282593,-0.0363083255241465,0.0877362848298978,2.4449153900082683,0.0301949456334114,0.160320445895195,-0.0312253143638372,0.0899789461679756,0.0550678618904203,-9.257217096090317,14937.0
25.3,2.900000095367432,199.0,21.20848655700684,29.723730087280277,-79.78279014043397,40.458976436955865,273.1563782501221,0.0117826275527477,-0.011781764216721,-0.7880476713180542,0.6153886914253235,-0.0715175582499959,0.1026189403092146,2.409511850655902,-0.0841980054974556,0.0133603550493717,-0.0788871124386787,0.2088522739335894,-0.0899274175800383,-9.38449226975441,14938.0
25.4,3.0,203.0,21.175933837890625,29.763490676879893,-79.78279010233258,40.45897648953985,273.39509008407595,0.0137526523321867,-0.009734783321619,-0.7883850336074829,0.6149513721466064,-0.0693883726480992,0.0847133928472706,2.35944516421565,0.1424797922372818,0.0513391010463237,0.1096129566431045,0.208720273040235,0.0063156415801495,-9.3323690199852,14938.0
25.6,3.0,205.0,21.125850677490234,30.39963150024414,-79.78278971292984,40.45897655309971,274.00030229568483,0.0159797333180904,-0.0081328526139259,-0.7894060611724854,0.6136094927787781,-0.1121266990151889,0.0781163130742583,2.362017355189069,-0.0170447286218404,0.0822721421718597,-0.0210361331701278,0.2141148593835533,-0.178469721134752,-9.605907615423204,14939.0
25.8,3.0,206.0,21.103315353393555,31.4890251159668,-79.78278936786933,40.45897661511796,274.6354651260376,0.0137344803661108,-0.0101112462580204,-0.7899168729782104,0.6129767894744873,-0.1038568237806611,0.0690803825590789,2.4064042272468926,-0.0053853429853916,-0.0271055772900581,-0.0562291033565998,0.1816778508201241,-0.1241205003205686,-9.603705554008483,14939.0
25.9,3.0,207.0,20.89797782897949,34.288047790527344,-79.78278935662844,40.45897668429991,274.8749670791626,0.0140442475676536,-0.0114837838336825,-0.7900115251541138,0.6128235459327698,-0.1031258387227169,0.0644777426777467,2.3846636347689376,-0.0414214134216308,-0.0555462911725044,-0.0793858096003532,0.1758593230694532,-0.2386756684631109,-9.646279131174088,14939.0
25.99,3.0999999046325684,209.0,21.04822540283203,31.902517318725582,-79.78278936043625,40.45897675763109,275.1138052749634,0.0163450241088867,-0.0122383506968617,-0.7898917198181152,0.6129063963890076,-0.0961373316713429,0.0556384257349355,2.3945633703220968,0.0216009095311164,0.089607149362564,-0.0747150555253028,0.2399550027027726,-0.2046017684228718,-9.844821338653563,14940.0
26.2,3.2000000476837163,213.0,20.88670921325684,34.431182861328125,-79.78278911689158,40.45897680316839,275.76355312347414,0.0184655841439962,-0.011234707199037,-0.7899376153945923,0.6128061413764954,-0.1101811151086505,0.0594499735187719,2.4989331052151624,-0.0459775477647781,0.0558457300066948,-0.00080101727508,0.1899020875431597,-0.1550591141916811,-10.024999780654907,14940.0
26.3,3.2000000476837163,217.0,21.0382080078125,31.4890251159668,-79.78278873560791,40.45897693298266,276.1874699401856,0.0194986779242754,-0.0113122034817934,-0.7897179126739502,0.613055944442749,-0.1352774325565807,0.0728701791581727,2.6340897474246154,-0.0823574215173721,0.0112263895571231,-0.0420107282698154,0.2893354149721563,-0.2807104612514377,-10.198213019371032,14941.0
26.49,3.0999999046325684,220.0,21.06074523925781,31.369747161865234,-79.78278879650975,40.45897710139057,276.71572063446047,0.0177620556205511,-0.0095763439312577,-0.7896465063095093,0.6132302284240723,-0.1368507397050095,0.0522495818550382,2.6227638035199936,-0.1134331151843071,-0.0504241697490215,-0.0803493335843086,0.2097630874067545,-0.1150897863786667,-9.598985096812248,14941.0
26.7,3.0999999046325684,223.0,21.13837242126465,29.866863250732425,-79.78278866315087,40.45897699836966,277.4490103530884,0.015553361736238,-0.0093065062537789,-0.7899885773658752,0.6128537058830261,-0.0917371439205958,0.0212659782857645,2.684598983300167,-0.0517486296594142,-0.0236254092305898,-0.0096468208357691,0.2279218897037208,-0.2058231238648295,-9.610367871522906,14942.0
26.81,3.0999999046325684,222.0,20.954320907592773,32.82492446899414,-79.7827887275909,40.45897685617214,277.8692126083374,0.018010826781392,-0.0086112953722476,-0.7902430295944214,0.6124682426452637,-0.0590007866189577,0.0160401017172863,2.7532744116041585,0.0553098693490028,0.1171112209558487,0.0670480951666832,0.1527120235562324,0.0704447005921974,-9.516739330887797,14942.0
26.9,3.0999999046325684,225.0,20.945556640625,33.89046096801758,-79.78278881732341,40.458976891997146,278.1435904312134,0.0202450212091207,-0.0074915941804647,-0.7902577519416809,0.6123943328857422,-0.0565944119617214,0.0051042445826333,2.740373642833108,0.1444498300552368,0.0609686188399791,-0.0351306721568107,0.2179968989454209,-0.1307995006721466,-9.66214964389801,14943.0
27.11,3.0999999046325684,227.0,20.990629196166992,33.747329711914055,-79.78278878566691,40.45897727704165,278.7013535308838,0.0207818392664194,-0.0059596691280603,-0.7898593544960022,0.6129068732261658,-0.1046922871620595,0.0066484483607705,2.762307814150486,-0.0442756451666355,-0.0988830402493476,-0.1060395091772079,0.3198538424447179,-0.0099425255530513,-9.82676279783249,14943.0
27.3,3.0,230.0,20.95181655883789,32.4989013671875,-79.7827888192323,40.458977360513465,279.33439014434816,0.0146315619349479,-0.0071892156265676,-0.7889330387115479,0.6142630577087402,-0.0627539408340736,-0.0117316477754205,2.828240488785502,-0.0593724735081195,-0.0716541483998298,-0.0501252114772796,0.3304536384344101,-0.1269253274425864,-9.8289952647686,14944.0
27.39,3.0,232.0,20.93804359436035,33.254318237304695,-79.78278893874908,40.458977385519376,279.6176352310181,0.01270292699337,-0.0088516557589173,-0.7883267402648926,0.6150619983673096,-0.0512907168757434,-0.0202342136028514,2.839994368575084,-0.1369539052248001,-0.0125556727871298,-0.1148347929120063,0.2857274088263512,-0.2265162738785148,-9.941513235569,14944.0
27.5,3.0,235.0,20.8917179107666,34.319854736328125,-79.78278906326314,40.45897741079688,279.90226600646974,0.0113772340118885,-0.0106037054210901,-0.7878343462944031,0.6156909465789795,-0.0338483385182479,-0.0246337585622763,2.860695075140109,-0.0827932208776474,0.0573162548243999,-0.0271214060485363,0.2113054184429348,0.0268207396566867,-10.010340811014176,14944.0
27.7,3.0999999046325684,236.0,21.11833953857422,29.25457572937012,-79.78278928164542,40.45897738720375,280.4842381286621,0.0121719511225819,-0.009572266601026,-0.7875809073448181,0.616016685962677,0.0107478114722025,-0.0170077286798849,2.9302569133829697,0.0744656547904014,0.0204405412077903,-0.0797409117221832,0.2225431822054088,-0.0308676524274051,-10.037462536096571,14945.0
27.8,3.0999999046325684,237.0,20.89547348022461,33.691665649414055,-79.78278955878305,40.45897732690532,280.7604565429688,0.0119627760723233,-0.0074627487920224,-0.7881597280502319,0.6153092384338379,0.0272691074404708,-0.033071380588051,2.913537609096532,0.1022609546780586,-0.0519793406128883,0.0139376511797308,0.2782825876772404,-0.0424918166454881,-9.74554965019226,14945.0
28.0,3.0999999046325684,238.0,20.980613708496094,31.12324333190918,-79.78278984685807,40.45897730906957,281.34150550842287,0.0124567914754152,-0.0062951277941465,-0.7889955639839172,0.614240288734436,0.009103146367001,-0.0386247729678345,2.9192914701150743,0.0291552152484655,0.0100067676976323,-0.0453977882862091,0.3237149051204324,-0.1194349254202097,-9.91692335486412,14946.0
28.2,3.0999999046325684,239.0,20.91550636291504,32.74540328979492,-79.78279018795799,40.45897738015813,281.91151473999025,0.0118383625522255,-0.0044595748186111,-0.789545476436615,0.613561749458313,-0.0047541626082491,-0.0360077309437155,2.9269712830489967,-0.0757671222090721,0.017161589115858,0.0218201596289873,0.2845018506981433,-0.1174510565120726,-9.812293277978895,14946.0
28.3,3.0999999046325684,240.0,20.906742095947266,33.492870330810554,-79.78279039964548,40.45897748384787,282.1916508483887,0.0120614971965551,-0.005253542214632,-0.7898653149604797,0.6131392121315002,-0.0075635532113207,-0.0436239144327338,2.9415105388914986,-0.149759441614151,-0.0523552112281322,-0.0878062471747398,0.3454187098145485,-0.3011087288707494,-9.887035896778109,14947.0
28.4,3.2000000476837163,241.0,20.894222259521484,33.11913681030273,-79.78279053448763,40.45897747132613,282.48573348999025,0.0113399280235171,-0.0057848603464663,-0.7899887561798096,0.6129893064498901,-0.005831524570679,-0.0314462615087955,2.9475558719953314,-0.1115643680095672,-0.0654550194740295,-0.1334601938724517,0.275937781110406,-0.1530544968042523,-9.867224360704425,14947.0
28.6,3.2000000476837163,240.0,20.887962341308597,33.755279541015625,-79.78279081360742,40.45897750683661,283.0577950286865,0.0112407729029655,-0.0048291282728314,-0.7896744012832642,0.6134042143821716,0.0108898173179085,-0.034120957673271,2.9669650622106527,0.0155304810032248,-0.0466486662626266,-0.072636492550373,0.2132768620178103,-0.0756666890066117,-9.91697013258934,14948.0
28.8,3.2000000476837163,239.0,20.91175079345703,33.30202865600586,-79.78279108951135,40.45897767240609,283.6329769897461,0.0111022787168622,-0.0049602384679019,-0.7889514565467834,0.6143351793289185,0.0030624739503594,-0.036187770418264,2.9942902721902973,0.0508670918643474,-0.0085229640826582,-0.0406286306679248,0.2062856568954885,-0.1010819133371114,-9.915344606637955,14948.0
28.9,3.2000000476837163,239.0,20.89797782897949,32.29215240478516,-79.78279120428202,40.45897766883872,283.9325089263916,0.0103236604481935,-0.0050384462811052,-0.7888408899307251,0.6144902110099792,0.000140953390179,-0.0249116948009778,3.003581801494922,0.0492767952382564,0.0092015638947486,0.0037362682633101,0.1984881024621427,-0.1001656363718211,-9.923010306358336,14948.0
29.1,3.2000000476837163,236.0,21.269838333129886,25.5649528503418,-79.78279149266021,40.458977771237,284.5097374725342,0.0084224548190832,-0.0062429681420326,-0.7887746095657349,0.6145931482315063,-0.0056991774876701,-0.0243875296743579,2.9562354025021493,-0.0585708245635032,0.0791040807962417,0.0327751561999321,0.2319377208687365,-0.0187421625573188,-9.365468353629112,14949.0
29.2,3.2000000476837163,238.0,21.20848655700684,27.25072860717773,-79.78279159034166,40.45897777326598,284.801216583252,0.0079295635223388,-0.0071656643413007,-0.7887087464332581,0.6146740913391113,0.0068923196462048,-0.016274730007142,2.871126381594978,0.0416767485439777,-0.0638767480850219,-0.0261737015098333,0.3564481665194035,-0.3236816856265068,-9.06914432823658,14949.0
29.3,3.0999999046325684,239.0,21.30739974975586,25.41386985778809,-79.78279178078135,40.45897787753972,285.0796494293213,0.0100555587559938,-0.0078096440993249,-0.78861004114151,0.6147617697715759,0.0176031168647344,-0.0262717616236697,2.789511466029768,0.1880663484334945,0.0652108192443847,0.1355783343315124,0.324921404980123,0.1427588565275073,-8.858722917437555,14950.0
29.5,3.0999999046325684,239.0,21.26357650756836,25.58085632324219,-79.78279195854702,40.45897788491384,285.6141419219971,0.013930169865489,-0.0074464655481278,-0.7878021001815796,0.6157258749008179,-0.0264956248309361,0.0082622542200045,2.543525871964233,-0.153479129076004,-0.0200362484902143,-0.1394172459840774,0.1862460976839065,-0.2359424605965614,-8.47533092737198,14950.0
29.6,3.0,240.0,21.282358169555664,25.80350685119629,-79.78279210586138,40.4589779239294,285.8535332489014,0.0141474129632115,-0.0066438950598239,-0.7873721718788147,0.6162797808647156,-0.0301221438893235,0.0038615001697925,2.4387936554017378,-0.0598843768239021,-0.0483809299767017,-0.0784816071391105,0.2143334173411131,-0.1485586183704436,-8.520278474092484,14950.0
29.8,2.900000095367432,241.0,21.33995246887207,24.658451080322266,-79.78279232161616,40.45897806596697,286.3065266418457,0.0135960420593619,-0.0065636099316179,-0.7872165441513062,0.6164919137954712,-0.0294765172706396,-0.0104112561852316,2.196847461678728,-0.1202748343348503,-0.0500083602964878,0.0029375539161264,0.1569588380120694,-0.1063988048024475,-8.464777287840842,14951.0
29.99,2.799999952316284,243.0,21.175933837890625,26.93265914916992,-79.78279249605427,40.45897807042108,286.72085998535164,0.0147468643262982,-0.0060726422816514,-0.7880719900131226,0.6153765320777893,-0.01384695094314,-0.0132691943385371,1.968547595256552,-0.0547492317855358,-0.055109467357397,-0.0128213064745068,0.12736776066944,-0.1892084067687392,-8.516266114711764,14951.0
30.09,2.700000047683716,244.0,21.33369255065918,24.49941635131836,-79.78279264263973,40.45897817522729,286.906176071167,0.0151176340878009,-0.00594202009961,-0.7887420654296875,0.6145097017288208,-0.0030537100230715,-0.0183841635077934,1.9083617818527776,0.10188689827919,-0.0578715912997722,0.00896967202425,0.3781910379230976,-0.3158318351581693,-8.985197022557257,14951.0
30.19,2.5999999046325684,244.0,21.272340774536133,26.15338516235352,-79.78279273037063,40.45897817436202,287.0921349334717,0.0154248587787151,-0.0060576787218451,-0.7892474532127379,0.6138516664505005,0.0087292028925653,-0.0254309343068778,1.808721957869332,0.2101549655199051,-0.0151018667966127,0.0908323302865028,0.2957326891645789,-0.1639715316519141,-8.880076949000358,14952.0
30.4,2.5999999046325684,245.0,21.24354362487793,27.00422477722168,-79.78279292959716,40.45897833086656,287.43842170715334,0.0170437656342983,-0.0045087137259542,-0.7896051406860352,0.6133619546890259,0.0007056918507247,-0.0262428107621813,1.6578600862841109,0.0652616843581199,0.043277658522129,0.0676144510507583,0.2938522246107459,0.076308484878391,-8.901836777329445,14952.0
30.5,2.5,245.0,21.172178268432614,27.64831733703613,-79.78279301523888,40.45897831772217,287.6003022003174,0.0182151012122631,-0.0027380250394344,-0.7894729375839233,0.6135089993476868,-0.0049978112332681,-0.0224350309786632,1.5855008330221452,-0.0267537552863359,0.0546108186244964,-0.0360685735940933,0.2340562219172717,0.0102417134167626,-9.027942507863044,14952.0
30.7,2.400000095367432,245.0,21.249805450439453,25.843265533447266,-79.78279315055686,40.458978388317966,287.9146218109131,0.020583277568221,-0.0016422306653112,-0.7884969115257263,0.614691972732544,0.0040021513945909,-0.0167172505042647,1.5083170594716775,-0.0688461288809776,-0.0965833887457847,-0.0242439527064561,0.3414110282063484,-0.3725205909088254,-9.219517757892609,14952.0
30.9,2.299999952316284,243.0,21.31616401672364,24.865196228027344,-79.78279339893929,40.45897842156435,288.2066674041748,0.0213962160050869,-0.0037540029734373,-0.7877776622772217,0.6155766248703003,0.0467401580452701,-0.0176513597787751,1.401595944176342,0.1637176871299743,0.0185571461915969,0.0147183360531926,0.3092310230433941,-0.1576738976687193,-9.14579840183258,14953.0
31.0,2.299999952316284,243.0,21.31741523742676,24.35628318786621,-79.78279349197119,40.458978365353936,288.3429055023193,0.0205383505672216,-0.004791819024831,-0.7876024842262268,0.6158226132392883,0.052578273528723,-0.0248155676611748,1.3233399414116045,0.0556405372917652,0.0069371028803288,0.1246387884020805,0.2644486967101693,-0.0143292963132262,-9.023927224874496,14953.0
31.1,2.299999952316284,242.0,22.078662872314453,12.22187614440918,-79.78279362228648,40.458978559708186,288.45767639160164,0.0175103228539228,-0.0071508754044771,-0.7875049114227295,0.6160181164741516,0.0340996908854901,-0.0257137808073471,1.2333649163251774,-0.1510428637266159,-0.0279504302889108,0.029627664014697,0.1603342346101999,-0.1186343410983681,-7.386775839328767,14953.0
31.3,2.200000047683716,241.0,21.41257095336914,22.17749786376953,-79.78279385145609,40.45897866707693,288.6106953430176,0.0063486751168966,-0.0128942001610994,-0.7619979381561279,0.6474199295043945,-0.0043630436718446,-0.051150003179575,0.7188124790045359,-0.1600844264030456,0.0043028183281421,-0.9260185956954956,0.1240931463148445,-0.1604817671701312,-7.54908928334713,14953.0
31.5,2.200000047683716,239.0,21.37876510620117,23.55315399169922,-79.78279402636663,40.45897870745267,288.7194027709961,0.006250443868339,-0.0079635651782155,-0.6972728371620178,0.7167343497276306,-0.0119312560472794,-0.069431464304081,0.4009035464461173,0.249700129032135,0.009520748630166,-0.8236170411109924,0.2008400353230536,-0.3221839578822255,-7.950221140980721,14953.0
31.6,2.200000047683716,231.0,21.35497665405273,24.403993606567383,-79.7827941717195,40.458978935195,288.6601624298096,0.0097080329433083,-0.0033119651488959,-0.662091851234436,0.7493525147438049,-0.0347239029919693,-0.0630228108143807,0.2726591329349046,0.21639646589756,0.0408301763236522,-0.915658712387085,0.20971773494035,0.0140901726018637,-8.735133828520775,14953.0
31.7,2.0999999046325684,235.0,21.29988670349121,24.952667236328125,-79.78279424583793,40.45897897302645,288.6833557891846,0.0127966310828924,-0.0005164715694263,-0.6295028924942017,0.7768926024436951,-0.0464929946562895,-0.0504546326476923,0.1946857227950425,0.0666937381029129,-0.0397588647902011,-0.695180356502533,0.3577442384138704,-0.075863685356453,-8.968723077178002,14953.0
31.91,2.0999999046325684,236.0,21.03695678710937,29.49312973022461,-79.78279449704497,40.458979167044674,288.5796551513672,0.0152260223403573,-0.000719487958122,-0.5825920701026917,0.8126218914985657,-0.022684198724776,-0.0246374768837218,0.0574674042867161,0.0324415080249309,0.0267656631767749,-0.4662033319473266,0.3575932706147433,-0.0807163718529045,-9.456665621995926,14953.0
32.0,2.0,226.0,21.25982093811035,25.636518478393555,-79.78279452918792,40.45897917238874,288.5863442230225,0.018616558983922,-0.0005985797615721,-0.5688313245773315,0.8222432732582092,7.608384103843996e-05,-0.0097773666444507,0.0785575756738504,0.0616070739924907,-0.0645507350564003,-0.1908913552761078,0.4144574062898755,0.1186622980982065,-9.8236298596859,14953.0
32.19,2.0,226.0,21.174680709838867,27.28253555297852,-79.78279473839736,40.45897935105969,288.4296841430664,-0.0057097016833722,0.0242966189980506,-0.5589154362678528,0.8288489580154419,0.0438230370127258,0.1080015748064563,-0.0194828180249482,0.1072017550468444,-0.6596805453300476,0.016887629404664,0.6679736369848251,-0.1589951856806874,-9.610702332258224,14953.0
32.39,1.8999999761581416,229.0,21.026939392089844,29.795297622680664,-79.78279438196262,40.45897955172956,288.3267254638672,-0.0556476823985576,0.0572398863732814,-0.5625320076942444,0.822912335395813,0.0736980406028081,0.3434974846600833,-0.0120325042266796,-0.1694555133581161,-0.5242945551872253,-0.0041483645327389,0.0766079536825418,-0.2737273143231869,-9.929339332580566,14953.0
32.5,1.7999999523162842,230.0,21.152145385742188,27.9266300201416,-79.78279387807845,40.45897961659696,288.32290313720705,-0.0739100947976112,0.06524708122015,-0.5665073394775391,0.8181378245353699,0.0982710815365485,0.5207642811067806,0.0616604087339743,-0.0982157289981842,-0.3764341175556183,0.1657664030790329,0.1106336050573736,-0.2768578770384192,-10.160144137144089,14953.0
32.59,1.7000000476837158,213.0,21.06199645996093,29.19891357421875,-79.78279315783955,40.45897998995388,288.28280685424807,-0.0838068649172782,0.067394845187664,-0.571276068687439,0.8136819005012512,0.1083212954214496,0.7148201956220797,0.1394413497406857,0.1267697513103485,-0.1375008672475814,0.2532473206520081,0.1376925547979772,-0.060724284723401,-10.202027742862702,14953.0
32.79,1.600000023841858,211.0,21.09079360961914,28.11747169494629,-79.78279117559629,40.45898082063119,288.2564892578125,-0.088967464864254,0.0681360960006713,-0.5810568332672119,0.806111216545105,0.0364332068441715,1.1681229756013902,0.2869104346570295,-0.2389928996562957,-0.0699958428740501,0.0770723298192024,0.2011576122231781,-0.178944770861417,-10.098880519866944,14953.0
33.0,1.5,205.0,21.13837242126465,27.3620548248291,-79.7827879118158,40.45898157568854,288.25924537658693,-0.0966896638274192,0.0714678838849067,-0.586730420589447,0.80080646276474,0.0057548828245439,1.6551965271178033,0.3974650601577247,-0.171663299202919,-0.1871584653854369,0.0191962160170078,0.2822807310149073,0.0765352289378643,-10.068549842834472,14953.0
33.1,1.5,201.0,21.03194808959961,29.278430938720703,-79.78278613966427,40.45898267435509,288.2220101165772,-0.1022899225354194,0.0744855031371116,-0.587279200553894,0.7994323372840881,-0.0336213944876711,1.8808902379525267,0.4685330802596422,0.0322910286486148,-0.0201028306037187,-0.0079401796683669,0.0366156846843659,-0.0309835232282057,-10.030215497016908,14953.0
33.3,1.5,186.0,21.07451820373535,28.332170486450195,-79.7827814985436,40.458984545612005,288.1969532775879,-0.1141440719366073,0.0803549662232399,-0.5845775008201599,0.7992393374443054,-0.1160937624440953,2.3742856244658856,0.6769394520312149,-0.1208870485424995,-0.1262067556381225,-0.0235455092042684,0.1542674011923372,-0.0244881574250757,-10.17750452041626,14953.0
33.4,1.5,175.0,21.02568817138672,29.413612365722656,-79.78277860302188,40.45898535072625,288.2001957702637,-0.1197096481919288,0.0834843069314956,-0.5822755694389343,0.7997845411300659,-0.1133941941026778,2.638306450616723,0.7954988908403475,-0.024658003821969,-0.0519196465611457,-0.021977437660098,-0.032234580698423,0.1110676420480012,-10.285012596845627,14953.0
33.5,1.5,150.0,21.015670776367188,29.64421272277832,-79.78277538462085,40.45898624380612,288.20336196899416,-0.1237593963742256,0.0878309160470962,-0.5798241496086121,0.8004832267761229,-0.0974768750258308,2.9073863647128126,0.905871872789202,0.1198017969727516,-0.1671328246593475,0.035754632204771,-0.0501298334542661,0.0698558905441314,-10.180554428100589,14953.0
33.7,1.600000023841858,136.0,20.92927932739257,30.75746154785156,-79.78276847829221,40.45898902657126,288.1575188446045,-0.125407800078392,0.0961639806628227,-0.5760720372200012,0.8019766807556152,-0.1441378924753895,3.4383636475723303,1.1358201707740498,-0.0064860614947974,0.0944500267505645,-0.0522156469523906,-0.19871208736673,0.0046974155120551,-10.235308924913406,14953.0
33.8,1.8999999761581416,109.0,20.91550636291504,30.36782455444336,-79.78276478705054,40.458991188638656,288.1115097808838,-0.1233505755662918,0.0973471850156784,-0.5747563242912292,0.8030959963798523,-0.1984251289891902,3.702496731662338,1.2348225743473722,-0.0161264557391405,0.0854401960968971,-0.0719827637076377,-0.2818511616624892,0.0743977701198309,-10.239631186723711,14953.0
34.0,2.0,98.0,21.10456657409668,28.26060485839844,-79.78275555937086,40.45899391081549,288.11618659973146,-0.1184840649366378,0.0963543951511383,-0.5750012397766113,0.8037729263305664,-0.1639070222788608,4.251433405469709,1.368498597588365,0.0532077737152576,0.0155093381181359,0.0523941293358802,-0.2769433742947877,-0.0126286770380102,-9.951086297035218,14953.0
34.2,2.400000095367432,83.0,21.13711929321289,27.74374008178711,-79.78274579032927,40.4589982159766,288.0802426147461,-0.1149165332317352,0.0947060734033584,-0.5745118260383606,0.804836094379425,-0.2289145006626884,4.7580642540439415,1.4197259539239586,-0.1352192461490631,0.1041178703308105,-0.092036448419094,-0.458184566013515,-0.1475869024917483,-9.828239804506303,14953.0
34.3,2.700000047683716,77.0,21.15089225769043,26.455551147460927,-79.78274076463681,40.45900093796879,288.0710682678223,-0.1126381978392601,0.0948508754372596,-0.5737313628196716,0.8056975007057191,-0.3026853612065125,4.980096425189888,1.435663229451544,-0.0526642799377441,0.0144390212371945,-0.0012870950158685,-0.512627004235983,0.0600716258212924,-9.71311806857586,14953.0
34.4,3.2000000476837163,68.0,21.08077812194824,27.74374008178711,-79.78273496193377,40.459002720938,288.06063697814943,-0.110161043703556,0.0955120921134948,-0.5741941332817078,0.8056321740150452,-0.2659676358554568,5.214536891129222,1.4484002871178,0.0485316663980484,0.0068253842182457,-0.0160669293254613,-0.4837826894223689,-0.122323952447623,-9.68839428663254,14953.0
34.61,3.5,66.0,21.16967391967773,26.19314384460449,-79.78272333252256,40.45900777630622,288.0478062438965,-0.104589007794857,0.0970600619912147,-0.5730699300765991,0.8069891929626465,-0.3479332609018093,5.637849013378582,1.4877614490620883,-0.0063332724384963,-0.0040695406496524,0.0444214753806591,-0.6256578489392997,-0.3294635586440563,-9.861090631484986,14953.0
34.8,4.099999904632568,61.0,21.046972274780277,28.729759216308597,-79.78271146766504,40.45901361683377,288.05814407348635,-0.101569727063179,0.0989494398236274,-0.5711499452590942,0.8085049390792847,-0.4342330381970987,6.010425746440368,1.5573656951867676,-0.1213373392820358,0.0342794843018054,-0.0994236096739769,-0.6366928604990244,-0.3479407966509462,-9.75737739801407,14953.0
34.9,4.300000190734863,60.0,21.10456657409668,27.560848236083984,-79.78270458944537,40.45901581151308,288.0422386932373,-0.1021842584013938,0.0979462191462516,-0.5712690353393555,0.8084656596183777,-0.3792802268592183,6.210057075267657,1.6144632065648927,-0.1709542721509933,0.00431625591591,-0.1508807241916656,-0.7283622184395792,-0.4042042040079832,-10.023996398448944,14953.0
35.0,4.900000095367432,58.0,21.009410858154297,28.578676223754893,-79.78269747598738,40.45901804725733,288.0266270446777,-0.1041533499956131,0.095416136085987,-0.5712270140647888,0.8085466027259827,-0.3536383836301213,6.402144004126903,1.6696688201734933,-0.1786657869815826,0.0800930559635162,-0.1689581423997879,-0.8620801466703415,-0.4040541498363017,-9.974726589918136,14953.0
35.2,5.099999904632568,59.0,20.9993953704834,30.84493064880371,-79.78268387597446,40.45902484573647,288.03701255798336,-0.1003467366099357,0.0924176201224327,-0.5700681805610657,0.8101924657821655,-0.4033825551224096,6.748104876567353,1.7566999059061232,-0.0010799255687743,0.0356175862252712,0.0252596624195575,-0.8532087510824204,-0.1237330948747694,-9.909702043533326,14953.0
35.3,5.599999904632568,59.0,20.854156494140625,31.80709648132324,-79.78267694091845,40.459029002871816,288.0361237335205,-0.0983329340815544,0.0944909676909446,-0.5686661601066589,0.8111850023269653,-0.5190567450274548,6.9275556614952505,1.7732441122893918,0.0625608786940574,0.0060178418643772,-0.1021250933408737,-0.9288130301982164,-0.324435318633914,-9.924834637641908,14953.0
35.5,5.9000000953674325,59.0,21.0382080078125,28.610483169555664,-79.78266103472768,40.45903424799417,288.0149807739258,-0.0983026325702667,0.1006042435765266,-0.5699931979179382,0.8095203638076782,-0.4651794239965794,7.260628356807344,1.9181140042232872,0.0272752456367015,0.0487245172262191,-0.1740124821662902,-1.0370000414550304,-0.3444363044947386,-9.97632404923439,14953.0
35.7,6.300000190734862,59.0,20.96934509277344,30.0736083984375,-79.78264501601109,40.4590416280986,287.990498046875,-0.104887492954731,0.0978892147541046,-0.5677556991577148,0.8105984330177307,-0.5373694173683812,7.589516321013972,2.03200730140052,-0.1581786274909973,0.0138092990964651,0.0128040192648768,-1.063368133530021,-0.1430747340805828,-9.822946904897693,14952.0
35.8,6.5,58.0,20.960580825805664,30.32011413574219,-79.78263717405856,40.45904669201645,287.97427032470705,-0.1082504168152809,0.0962410718202591,-0.5648555159568787,0.8123779296875,-0.6491719403850966,7.749288845865997,2.114391190439421,-0.0674728602170944,-0.0564242899417877,0.1317683756351471,-1.164260012358427,-0.0647885015979409,-9.79429145514965,14952.0
35.9,6.800000190734862,58.0,20.850400924682614,30.99601554870605,-79.78262841050291,40.45904969819541,287.9612355041504,-0.1108295619487762,0.0958673730492592,-0.5647398233413696,0.8121546506881714,-0.5665958239041169,7.923899884038239,2.2026958388759983,-0.0623489879071712,0.0016128831775858,-0.1748630702495575,-1.1272768118977547,-0.4015860766544938,-9.898550233840943,14952.0
36.1,7.0,58.0,21.03194808959961,27.84711265563965,-79.78261083891195,40.45905803568028,287.9236435699463,-0.1159939840435981,0.0956490710377693,-0.562620997428894,0.8129294514656067,-0.6813258030963031,8.240963903627442,2.4260759577003768,-0.097293458878994,-0.0332291088998317,0.110070951282978,-1.108694433644414,-0.1402653936389833,-10.140760617256165,14952.0
36.3,7.400000095367432,58.0,20.83662796020508,32.20468521118164,-79.78259216975573,40.459066119243545,287.8757614898682,-0.117731936275959,0.0958518981933593,-0.5607415437698364,0.813953697681427,-0.7122035070074705,8.578262296007454,2.5950901957416224,0.0528121478855609,0.0421419814229011,-0.1117494404315948,-1.310415260642767,-0.1456420454755425,-10.023595279455185,14952.0
36.4,7.599999904632567,58.0,20.906742095947266,32.14902114868164,-79.78258245669036,40.45906956565864,287.8686604309082,-0.1188977062702179,0.0962868854403495,-0.5604395270347595,0.8139408826828003,-0.6674270651891276,8.752578646606606,2.663670944761366,0.0072647440247237,0.0430090017616748,-0.0189389418810606,-1.2551228199899198,-0.3570399778336287,-10.105877298116685,14952.0
36.6,7.900000095367432,58.0,21.03194808959961,28.90469741821289,-79.78256269116069,40.45907828641347,287.8164715576172,-0.1204657852649688,0.09609255194664,-0.5576202273368835,0.8156678080558777,-0.7503868542275075,9.086934425345646,2.804523124655308,-0.0862952172756195,-0.0939966440200805,0.053920604288578,-1.4294072686135768,0.0238579189404845,-9.811229084730147,14952.0
36.7,8.100000381469728,58.0,20.7802848815918,32.90444183349609,-79.78255243507499,40.45908197759504,287.80928848266603,-0.1230712160468101,0.095971830189228,-0.5567377805709839,0.8158958554267883,-0.6944433092444557,9.251526865685824,2.8413190775230865,-0.0464703366160392,-0.088383562862873,-0.120311252772808,-1.355131696164608,-0.2867137610167265,-9.679054529070855,14952.0
36.8,8.399999618530272,57.0,20.96934509277344,30.328065872192383,-79.78254228391448,40.45908743169643,287.75814865112307,-0.1268178820610046,0.0959636941552162,-0.5547344088554382,0.816687285900116,-0.7725428005650595,9.406304928906136,2.9343664196787484,0.0659240558743476,-0.0816415697336196,-0.0177753083407878,-1.4997198906540872,0.149444608585909,-9.866689925193787,14952.0
37.0,8.600000381469728,57.0,20.95807647705078,29.99409103393555,-79.78252089966799,40.4590952701411,287.7407231140137,-0.1308857649564743,0.100311778485775,-0.5541660785675049,0.8159083724021912,-0.7280855804732796,9.703931353982629,3.1653187840464208,0.1125973835587501,0.0129687869921326,0.0947858318686485,-1.3972155690193178,-0.0820338774472475,-9.790950356125832,14952.0
37.1,8.899999618530273,57.0,20.92176818847656,30.51890754699707,-79.78251016179459,40.45910083948027,287.6793064880371,-0.1335369497537613,0.1023301258683204,-0.5522651076316833,0.8165169358253479,-0.8411427388093402,9.856038037079475,3.247277547782752,-0.0536678284406662,-0.1475208401679992,0.1840904057025909,-1.61585246399045,-0.2578777419403195,-9.8209109044075,14952.0
37.3,9.100000381469728,57.0,20.81283950805664,32.323959350585945,-79.78248754048363,40.4591103970874,287.62919090271,-0.1368546783924102,0.1052144020795822,-0.5508792996406555,0.8165371417999268,-0.8814716945531069,10.154829936862829,3.4797205264668967,-0.0249546337872743,0.0231525767594575,-0.0356114283204078,-1.7051110880076883,0.0380048552155494,-9.791340365409852,14952.0
37.5,9.399999618530272,55.0,20.84038352966309,31.775287628173828,-79.78246438825046,40.459119125064994,287.6079163360596,-0.1379678547382354,0.1059417352080345,-0.5507776141166687,0.8163242936134338,-0.8465626905755944,10.475263754964477,3.6682509200418174,0.0576148107647895,0.0475891754031181,0.0765231028199195,-1.5487882626056673,-0.0184995305165648,-10.016654634475708,14952.0
37.6,9.600000381469728,54.0,20.7990665435791,32.435287475585945,-79.78245237735561,40.45912451271013,287.57095764160164,-0.1402511149644851,0.1078842356801033,-0.5497409105300903,0.8163795471191406,-0.9058363158764032,10.635120912947958,3.755475898760833,0.0985555350780487,0.0388844348490238,-0.2708165943622589,-1.7232836495339872,-0.4102050917968154,-9.870828584432603,14952.0
37.71,9.899999618530272,54.0,20.76275634765625,33.087329864501946,-79.78244033718245,40.45912907876439,287.5619892883301,-0.1433558017015457,0.1101593822240829,-0.5496661067008972,0.815586507320404,-0.8947995969457859,10.780712821144292,3.884385264370272,0.0058378153480589,0.0060460092499852,-0.1185995489358902,-1.724537292569876,-0.2858278530277312,-9.851339814662934,14952.0
37.9,10.0,54.0,20.76901626586914,33.5723876953125,-79.7824154676712,40.459139479072455,287.52118537902834,-0.1490209996700287,0.1094951927661895,-0.5479368567466736,0.8158240318298341,-0.9419095873248328,11.0548901200485,4.169525677069752,-0.0541880540549755,0.0171721577644348,-0.0148937003687024,-2.0484071123600005,-0.0692893775738775,-9.734879066348077,14952.0
38.0,10.399999618530272,53.0,20.718935012817383,34.86057662963867,-79.78240288076735,40.4591442849635,287.5143933105469,-0.1495663523674011,0.108393371105194,-0.5476673841476439,0.8160522580146791,-0.9370887525898308,11.189783419288505,4.28673102009386,-0.0511560179293155,0.0986758321523666,0.0618663169443607,-2.3620665241777896,-0.5250820121169091,-10.210517899990082,14952.0
38.21,10.5,54.0,21.015670776367188,28.26060485839844,-79.7823771040785,40.45915509319851,287.48727272033693,-0.1213559657335281,0.0890329480171203,-0.5495186448097229,0.821812093257904,-0.95868253870543,11.483812006502497,4.2532756767003415,0.075523667037487,0.607454776763916,0.0989316776394844,-2.190810202360153,-0.189821103606373,-10.437798002958296,14952.0
38.39,10.899999618530272,53.0,21.192211151123047,25.437725067138672,-79.78235047849878,40.4591659817341,287.4789337921143,-0.0818859189748764,0.0703861713409423,-0.5521653890609741,0.8267126679420471,-0.9948420642489274,11.962923000456176,3.218758329066388,0.0022716459352523,0.1599767804145813,-0.12015450745821,-1.7236954396963116,-0.3622923123836517,-10.265181180238724,14952.0
38.51,11.0,53.0,21.13461685180664,25.994348526000977,-79.78233741201096,40.45917106049255,287.49692390441896,-0.0728356838226318,0.0662173703312873,-0.5529186129570007,0.8274003863334656,-1.0074094974033334,12.0861198893211,2.7961069706860395,-0.0209350995719432,0.176059603691101,-0.1752377599477768,-1.935097428560257,-0.2778780699893832,-9.794920030832287,14952.0
38.6,11.300000190734863,62.0,21.337448120117188,22.551231384277344,-79.78232350459274,40.45917685694066,287.4697727966309,-0.0690210983157157,0.0626686215400695,-0.5529550313949585,0.8279792070388794,-1.0554652554763595,12.149141815745663,2.540321746506072,-0.0515420362353324,0.1227195784449577,-0.1192885488271713,-1.9036250826716423,-0.5602087216079236,-9.409787324666976,14952.0
38.8,11.399999618530272,63.0,21.18094253540039,25.23892974853516,-79.7822968997462,40.45918790317457,287.45782707214363,-0.0694779157638549,0.0644668787717819,-0.5531184077262878,0.82769376039505,-1.07866618616559,12.19277032502734,2.3162204426623947,0.0012833137298002,-0.0230464991182088,-0.0722204595804214,-2.2318655499815945,-0.2214442893862724,-9.11884332239628,14952.0
39.0,11.5,63.0,21.39629364013672,20.777984619140625,-79.78227093668363,40.45919814315629,287.4702000427246,-0.0565814413130283,0.0505125112831592,-0.5543761849403381,0.8288028836250305,-1.0684883104936744,12.089441195862197,2.2282369309879804,-0.0039329058490693,0.3986139595508576,0.0526098310947418,-2.348743497133256,-0.2307707628048956,-9.313524028658868,14952.0
39.1,11.600000381469728,63.0,21.19346237182617,25.04808807373047,-79.78225701761707,40.45920383042996,287.46215484619137,-0.0441568754613399,0.0341097377240657,-0.5550068616867065,0.8299723267555237,-1.1006466733905318,12.122469849831676,1.8507966145418369,-0.0668953955173492,0.368487000465393,0.1103388890624046,-2.0554668943583967,-0.1633533530496061,-9.298889617323876,14952.0
39.2,11.600000381469728,68.0,21.15089225769043,27.012176513671875,-79.78224420082681,40.45920893199892,287.4648384857178,-0.0260438714176416,0.0194048695266246,-0.5562255382537842,0.8303965330123901,-1.081870811141661,12.069970267716888,1.367867181707604,0.1463371813297271,0.6100203990936279,0.0681891962885856,-2.0789155447483063,-0.1834000751003623,-9.589995587468149,14952.0
39.4,11.600000381469728,77.0,21.20723533630371,24.2052001953125,-79.78221818321036,40.45921950658071,287.4624905395508,0.0296821929514408,-0.0044473353773355,-0.5569085478782654,0.8300314545631409,-1.1382435676601654,11.832381112953222,0.2457545064891218,0.1499924212694168,0.7360256314277649,0.0810472145676612,-1.9374053245782847,-0.4052115696296096,-10.34612652540207,14952.0
39.5,11.5,78.0,21.24730110168457,23.855321884155277,-79.78220589725238,40.45922447650825,287.4829563903809,0.0507648028433322,-0.0151029666885733,-0.5559349060058594,0.8295367360115051,-1.1583829843183784,11.615794683952076,-0.4173342325744913,-0.0175864528864622,0.3221655189990997,0.0471395477652549,-1.86413985863328,-0.2108097755536436,-10.395201036930084,14952.0
39.69,11.5,78.0,21.521499633789062,18.686668395996094,-79.78218084793369,40.459234417892034,287.5037865447998,0.0631560683250427,-0.0278520639985799,-0.5526706576347351,0.8305363655090332,-1.09250530900588,11.108401783795276,-1.0923842058766529,0.0044137295335531,-0.1335227638483047,0.1752707809209823,-1.1180754871666432,0.0040383429452776,-10.487178908586502,14952.0
39.89,11.300000190734863,96.0,21.282358169555664,22.630748748779297,-79.78215702978781,40.4592442197847,287.53139923095705,0.0512660630047321,-0.0193729288876056,-0.5495379567146301,0.8336693048477173,-0.986075777563264,10.684976440231743,-1.1008619627472966,-0.026883590966463,-0.1868306249380112,0.0076615503057837,-1.0377662459760906,-0.6487196329236031,-9.771544032096864,14952.0
40.0,11.100000381469728,93.0,21.39379119873047,21.088104248046875,-79.78214598494199,40.45924880272354,287.5592617797852,0.0384483896195888,-0.0219719391316175,-0.5495730638504028,0.8342712521553041,-0.9842815880189636,10.462526448758386,-0.8707700724532395,-0.1652831733226776,-0.0725365132093429,0.1015814170241356,-1.3746565724909303,-0.1903004839271307,-9.885462995767591,14952.0
40.2,10.800000190734863,94.0,21.304895401000977,22.034364700317383,-79.78212340408547,40.45925796513158,287.5885205078125,0.0451566390693187,-0.0293803252279758,-0.5482384562492371,0.8345851898193359,-0.9686438836904414,10.075473622611264,-0.7604004974130559,-0.0015732694882899,0.2153244167566299,0.1608580946922302,-1.2595456539094452,-0.1954134902916848,-9.43671024441719,14952.0
40.31,10.600000381469728,94.0,21.461400985717773,20.277023315429688,-79.78211212119041,40.45926231263083,287.60551307678224,0.0534656047821044,-0.0272995382547378,-0.5476871728897095,0.8345267772674559,-0.932598773522358,9.89008337243434,-0.9223750649110244,0.0790925100445747,0.0672380849719047,0.0904335528612136,-1.1360488779097797,-0.3331136099249125,-9.464956973791123,14952.0
40.5,10.300000190734863,93.0,21.41257095336914,19.887386322021484,-79.78209198127175,40.45927083088221,287.62099884033205,0.0569848306477069,-0.0221537239849567,-0.5490639805793762,0.8335410356521606,-0.936764739622715,9.428179757223257,-1.1751143774783377,0.1103178635239601,-0.0576132386922836,0.047946885228157,-0.9977487791329622,-0.0517425960302352,-9.337850784659388,14952.0
40.6,10.100000381469728,94.0,21.441368103027344,19.49774932861328,-79.78208146820263,40.45927471018183,287.63325355529787,0.0536676496267318,-0.0166823361068964,-0.5505777597427368,0.8328900337219238,-0.9248416828441516,9.251328430474642,-1.1604093664565378,0.0471267029643058,-0.1844843477010727,0.146744504570961,-0.9468888933956624,-0.2093010477349162,-9.38199492394924,14952.0
40.8,9.699999809265137,94.0,21.48268699645996,19.664737701416016,-79.78206168119769,40.4592823589196,287.6345581817627,0.0416549071669578,-0.0052890749648213,-0.5526275038719177,0.8323700428009033,-0.9225995215947446,8.937056974266245,-1.029677630780116,-0.1264161318540573,-0.2608959972858429,-0.0174008663743734,-1.008047114610672,-0.4092735572531819,-9.209812549352646,14952.0
40.9,9.5,94.0,21.35497665405273,21.946895599365234,-79.78205242902945,40.45928625141086,287.61433074951174,0.0327852554619312,-0.0010300365975126,-0.5532342195510864,0.8323797583580017,-0.9086163042409496,8.789536567162074,-0.9364764135460482,0.0405115932226181,-0.3167304694652557,0.2075239419937133,-0.8919065744429827,-0.1658118148706853,-9.060937176346778,14952.0
41.0,9.100000381469728,89.0,21.26482963562012,23.736045837402344,-79.78204333017878,40.45929009120432,287.58693550109865,0.0227796249091625,0.0028449716046452,-0.5538773536682129,0.832281768321991,-0.927790652650904,8.672678286204171,-0.8170801770105773,-0.1377450227737426,-0.1237855106592178,-0.0753400549292564,-0.8883573876321316,-0.6634449684619904,-9.268934331536292,14952.0
41.2,9.0,87.0,21.395042419433597,21.47774124145508,-79.78202453409371,40.45929709496095,287.56197021484377,-0.0073531228117644,0.0110358539968729,-0.5538030862808228,0.8325421214103699,-0.8917432348552062,8.529443525163664,-0.4375193124536966,-0.055186279118061,-0.3497258722782135,0.0114478301256895,-1.069599438160658,-0.1125222100317478,-9.207987048625949,14952.0
41.3,8.699999809265138,88.0,21.38126945495605,21.779909133911133,-79.78201497947295,40.4593003464904,287.55629013061525,-0.0267025660723447,0.0195146650075912,-0.5524583458900452,0.8328841328620911,-0.8620471025032495,8.518885859045234,-0.1885902095699601,-0.1098915785551071,-0.5937719345092773,-0.0094673382118344,-0.7939324562251568,-0.5717130818590522,-9.09542171537876,14952.0
41.5,8.5,88.0,21.30739974975586,22.877254486083984,-79.78199731031016,40.45930773579286,287.46242378234865,-0.0663013607263565,0.0426024049520492,-0.5495486855506897,0.8317364454269409,-0.8781857797892273,8.5286758316988,0.4045053275628666,-0.0393052957952022,-0.5926357507705688,0.1976653784513472,-0.9286018726229668,-0.471196411550045,-8.899186234474183,14952.0
41.7,8.300000190734862,73.0,21.10456657409668,27.043983459472656,-79.78197891634072,40.45931458753663,287.37299774169924,-0.1026728600263595,0.0643687173724174,-0.5450351834297179,0.8296093344688416,-0.8268005131629976,8.629026606283903,1.0503568947014958,0.02932720631361,-0.4761596918106079,0.0416107177734375,-1.0562859128415585,-0.3702638945728541,-9.01443894803524,14952.0
41.8,8.300000190734862,67.0,21.041963577270508,26.805429458618164,-79.78196950203996,40.45931766784976,287.3249573516846,-0.1193763017654419,0.0740635767579078,-0.5425252914428711,0.8282091021537781,-0.7942501058165742,8.693115448007497,1.425062429833558,-0.0160114262253046,-0.3840176463127136,0.051357164978981,-0.8380613927543163,-0.1271407790668308,-9.423644641041756,14952.0
41.9,8.199999809265138,67.0,21.039459228515625,28.14132881164551,-79.78196028733535,40.45932150699052,287.25341651916506,-0.1338856220245361,0.0817272067070007,-0.540726363658905,0.8264444470405579,-0.7966408097676825,8.80645381656398,1.796591120394914,-0.0144897336140275,-0.3671945631504059,0.1827142387628556,-1.105385567396879,-0.1044345149304718,-9.602568855285645,14952.0
42.1,8.199999809265138,67.0,21.03069496154785,29.23072052001953,-79.78194126885211,40.459328542111614,287.1156773376465,-0.1554546505212783,0.0896752253174781,-0.5376176238059998,0.8238686919212341,-0.8014962161810522,9.038033957437548,2.507619888571957,-0.1770663261413574,-0.1846823841333389,0.0790131166577339,-1.2264166456460954,-0.1369227505847811,-10.21672062635422,14952.0
42.2,8.199999809265138,59.0,20.779033660888672,33.15094375610352,-79.78193142306742,40.45933264549711,287.0492176818848,-0.1609494984149933,0.0947634652256965,-0.537318229675293,0.8224379420280457,-0.8096296888819482,9.21488255335238,2.796397202625894,0.0617939010262489,-0.134621649980545,0.0270543787628412,-1.412096148133278,-0.0202981157787144,-10.306498775482178,14952.0
42.4,8.300000190734862,58.0,20.78529357910156,33.03166961669922,-79.78191125297097,40.45934017674696,286.9441876220704,-0.1614973098039627,0.1052841395139694,-0.5377610921859741,0.8207599520683289,-0.8283895927734892,9.52521470668056,3.316165407674851,0.2481555491685868,-0.1307604014873504,0.1074541583657264,-1.4547761446237564,-0.2821301286667586,-10.630118772983552,14951.0
42.59,8.5,58.0,20.68512916564941,34.876480102539055,-79.78189044999547,40.45934804950189,286.84865425109865,-0.162817895412445,0.1148136481642723,-0.5375070571899414,0.8193866014480591,-0.8796721396551518,9.86301697908194,3.6785231947117314,0.0214977469295263,0.0418299920856952,-0.0574326962232589,-1.5330814719200134,-0.5323930416628718,-10.548251906633377,14951.0
42.69,8.699999809265138,57.0,20.668853759765625,34.622024536132805,-79.78187933998181,40.45935258261142,286.8131813812256,-0.1630905717611313,0.1150768995285034,-0.5379598140716553,0.8189982771873474,-0.8851443013850556,10.052082687731923,3.903392346625471,0.008815630339086,0.0597157180309295,0.0390084683895111,-1.5722465609014036,-0.2200471337512136,-10.72204869747162,14951.0
42.79,9.0,54.0,20.69013786315918,34.08925628662109,-79.7818687627343,40.45935666682784,286.71991012573244,-0.1612098067998886,0.1135989129543304,-0.5386608839035034,0.8191161751747131,-0.8904700942001864,10.19963663096499,4.029890335273053,0.1177519708871841,-0.0748499184846878,0.07132488489151,-1.7580741441249848,-0.2346154715493321,-10.752446032762528,14951.0
43.01,9.199999809265137,54.0,20.84288787841797,31.974082946777344,-79.7818453274101,40.459366136834326,286.68485496521,-0.152296707034111,0.105106309056282,-0.5411503911018372,0.8203137516975403,-0.946692966077076,10.61682145255629,4.242959224059328,0.0006926464266143,0.2721499800682068,0.1044236272573471,-1.9701617190241807,0.0484201167337596,-10.814553987979894,14951.0
43.2,9.600000381469728,54.0,20.87669372558593,29.99409103393555,-79.78182149505234,40.45937578911885,286.5787949371338,-0.1344628930091858,0.0922499522566795,-0.5422089099884033,0.8242688775062561,-0.9641936171331992,11.03758204417291,4.064214660571453,0.0208673998713493,0.2013614773750304,-0.1026160046458244,-2.036046244651079,-0.2950123121961951,-10.495814076662064,14951.0
43.31,9.800000190734863,54.0,20.945556640625,27.71988296508789,-79.78180925033583,40.459380978580434,286.51158950805666,-0.1204727590084076,0.0858952477574348,-0.5420546531677246,0.8272153735160828,-0.9687885577128084,11.227190446453791,3.865416430248336,-0.0127344951033592,0.2006158381700516,-0.0057149706408381,-2.1351283371448515,-0.1967989880405366,-10.369151691198349,14951.0
43.4,10.100000381469728,57.0,21.02318382263184,27.15530776977539,-79.78179678569475,40.45938602338076,286.51999519348146,-0.1052660420536995,0.080467976629734,-0.5413807630538939,0.8302716016769409,-0.9408491902912908,11.42016593205114,3.5953334772315606,0.0609234794974327,0.1965496987104416,0.0048653152771294,-1.8613628697395328,-0.2179337855614722,-10.309658610820769,14951.0
43.59,10.300000190734863,59.0,21.163414001464844,25.20712280273437,-79.78177159241316,40.45939678135704,286.4342503356934,-0.0810205563902854,0.0735604763031005,-0.5405371189117432,0.8341727256774902,-0.8977673776253019,11.72590065889382,2.935168887043061,0.0109807206317782,0.0667529627680778,0.250829666852951,-1.9321363985538484,0.0182522298395633,-9.819559028148651,14951.0
43.7,10.699999809265137,59.0,20.948060989379886,28.538917541503903,-79.78175895794894,40.45940190132215,286.44407890319826,-0.0710265859961509,0.0730182826519012,-0.5403616428375244,0.8352442979812622,-0.8538305821828107,11.816099625282106,2.66957160029194,-0.0236671660095453,0.0866749212145805,-0.0522887520492076,-1.8873113510012636,-0.4487355751544237,-9.672003956437113,14951.0
43.9,10.800000190734863,59.0,21.18720245361328,23.8076114654541,-79.78173382925051,40.45941275971281,286.3647255706788,-0.0644217133522033,0.0705114603042602,-0.5399916768074036,0.8362337946891785,-0.8376087289066865,11.90493703832255,2.2788337382193298,-0.040153119713068,-0.0890255942940712,0.0316294208168983,-1.881905307769776,0.1338887948356568,-9.556479347348214,14951.0
44.1,11.100000381469728,62.0,21.10707092285156,26.16133689880371,-79.78170805076269,40.459423621023504,286.3175816345215,-0.0660074055194854,0.0710300803184509,-0.5412032604217529,0.8352825045585632,-0.8420374157609128,11.931484138630426,2.1919048850442766,-0.2584643065929413,-0.0241833981126546,-0.0214711613953113,-2.0205813825130465,-0.4221351658925414,-9.351878255009652,14951.0
44.2,11.100000381469728,62.0,21.228519439697266,22.57508659362793,-79.78169539525047,40.45942873892741,286.3135933685303,-0.0690474063158035,0.0664119869470596,-0.5420926213264465,0.8348398804664612,-0.8430477067545201,11.913587117290854,2.1854983918534554,-0.1954994946718216,-0.0465344153344631,0.0202726237475872,-1.8151726435124875,-0.2821682817488909,-9.486130326390269,14951.0
44.4,11.300000190734863,62.0,21.22726821899414,23.70423889160156,-79.78166993689005,40.459439389515616,286.30133102416994,-0.0723352879285812,0.0551653616130352,-0.5432630181312561,0.8346195220947266,-0.8679547651369076,11.9221436760523,2.0472361884569668,0.0417476296424865,-0.0359271056950092,0.0758039131760597,-1.5210788923501968,0.2290872580558061,-9.19214284837246,14951.0
44.5,11.300000190734863,62.0,21.083282470703125,26.38398551940918,-79.78165730584388,40.45944450078936,286.2859196472168,-0.0718840956687927,0.0586891509592533,-0.5436508655548096,0.8341654539108276,-0.8527999159893936,11.923686325487797,2.006119171148636,0.1954767405986786,-0.1038708537817001,0.1521203517913818,-1.9077404992282392,-0.0930854987539351,-9.199884561896324,14951.0
44.7,11.5,66.0,21.19095802307129,24.658451080322266,-79.78163176572009,40.45945485628369,286.2887558746338,-0.0637603402137756,0.0646843984723091,-0.545371949672699,0.8332587480545044,-0.9225028187339268,11.902098714141731,1.944396870713141,0.0174207799136638,0.0450886040925979,-0.1800033748149871,-1.768504261225462,-0.3253167133033276,-9.361561828851697,14951.0
44.8,11.5,65.0,20.964336395263672,29.04783058166504,-79.78161884072158,40.45946017322997,286.3134312438965,-0.0654394030570983,0.0633778199553489,-0.5457803010940552,0.8329614996910095,-0.9467952633100388,11.909224707679831,1.958782658313956,-0.0074302516877651,-0.0879945382475853,-0.0245548374950885,-2.036829333007336,-0.0209385138005018,-9.474601956009865,14951.0
44.99,11.600000381469728,65.0,21.11833953857422,25.040136337280277,-79.7815936703769,40.459470335521935,286.2919354248047,-0.0648781806230545,0.0601825602352619,-0.5472097396850586,0.8323043584823608,-0.949457760373489,11.848854230596904,2.0229729880833345,0.0376729369163513,0.0891644358634948,-0.176834762096405,-1.9764797817170616,-0.3131026472523808,-9.988777449131012,14951.0
45.1,11.699999809265137,65.0,21.24855232238769,23.69628715515137,-79.78158086662924,40.45947557781875,286.29913375854494,-0.0669749975204467,0.0605548024177551,-0.5470014214515686,0.8322480916976929,-0.9589084276815594,11.835701708368564,2.0465071303250744,-0.0180834960192442,-0.0327009595930576,-0.0052261357195675,-1.7747597587108612,-0.2629930689185858,-10.02908698439598,14951.0
45.2,11.800000190734863,67.0,21.25731658935547,22.90110969543457,-79.78156830709227,40.459480625264256,286.2988228607178,-0.0684622675180435,0.0616921298205852,-0.5466042757034302,0.8323045372962952,-0.9399776541755492,11.798296819511297,2.116846844909758,-0.0173623487353324,0.0361343324184417,-0.2681241035461426,-2.0227831515669825,-0.4184840913489461,-9.839607961177826,14951.0
45.4,11.800000190734863,69.0,21.14338111877441,27.67217254638672,-79.78154325152214,40.45949076429913,286.31317184448244,-0.0230437684804201,0.0419637151062488,-0.5467202067375183,0.835945725440979,-0.9054409665899494,11.633616294777156,1.8422415968106296,0.0001131185417762,0.8461890816688538,-0.0576574504375457,-2.6115726247429847,-0.1216159825399518,-9.771359260082246,14951.0
45.51,11.699999809265137,69.0,21.244796752929688,22.38424301147461,-79.7815309882762,40.45949566739253,286.3218235778809,0.0189772043377161,0.0204246584326028,-0.5465812087059021,0.8369418978691101,-0.8314806246954424,11.563198204484625,1.0699032895510647,0.1297935843467712,1.0306918621063232,0.0091268997639417,-1.5970532271265985,-0.0765842359140515,-11.079721709489824,14951.0
45.7,11.600000381469728,69.0,21.149641036987305,25.18326759338379,-79.78150681546259,40.45950526337217,286.35979125976564,0.0852203741669654,-0.0326576828956604,-0.5424742102622986,0.8351004123687744,-0.7171571419521012,11.135525385836262,-0.8460777553436649,-0.2038756161928177,0.4080293178558349,-0.0256856158375739,-1.4798778028786184,-0.4158556582778693,-10.91242000579834,14951.0
45.9,11.5,102.0,21.204730987548828,23.736045837402344,-79.78148341845656,40.4595144339219,286.4092163848877,0.0891224667429924,-0.0450073033571243,-0.5357711315155029,0.8384395241737366,-0.5696528690513499,10.44897926172824,-1.6702767617661909,-0.0639881938695907,-0.315405935049057,0.365065723657608,-1.1320820537209508,0.1482399268448352,-11.040879825353622,14951.0
46.01,11.399999618530272,103.0,21.188453674316406,23.338457107543945,-79.78147251712387,40.459518788429214,286.46525428771974,0.0799203068017959,-0.0402215011417865,-0.5349143147468567,0.8401558399200441,-0.5125303712175595,10.172565896765732,-1.473486749626777,-0.1252840310335159,-0.1909507364034652,-0.1056138947606086,-1.097443513646722,-0.4965835966542364,-10.80858047246933,14951.0
46.09,11.199999809265137,104.0,21.45889663696289,18.996788024902344,-79.78146172759743,40.45952298446527,286.5035290527344,0.0710944160819053,-0.0413564816117286,-0.5356376171112059,0.8404329419136047,-0.4891635264599565,9.921145033733916,-1.1981129176869607,-0.020820228382945,-0.0938930809497833,0.0904034525156021,-1.3141431529819971,-0.2531446401402354,-10.48328817129135,14951.0
46.31,10.899999618530272,104.0,21.51398658752441,18.631006240844727,-79.78144124798752,40.45953104554437,286.59942100524904,0.0740844830870628,-0.0635539516806602,-0.5390299558639526,0.8366117477416992,-0.6302944859609562,9.344064202690983,-1.1461256589205078,-0.3075681626796722,0.2877556085586548,0.1191235780715942,-1.3485297511518002,-0.1266313404031098,-9.418210238814355,14951.0
46.5,10.399999618530272,103.0,21.26107215881348,22.83749389648437,-79.78142242325376,40.45953895625957,286.66872261047365,0.1087405160069465,-0.0842450112104415,-0.5374510288238525,0.8320004343986511,-0.7920140632745488,8.595392486065089,-1.7483560892655696,-0.0006447620107792,0.5624222159385681,0.1542131602764129,-1.2643704839050771,-0.3109691809862852,-9.06222122490406,14951.0
46.61,10.100000381469728,110.0,21.48018264770508,20.316781997680664,-79.78141302289505,40.45954246846101,286.69089172363283,0.1281323283910751,-0.0906645059585571,-0.5356432795524597,0.8297279477119446,-0.7832968450367283,8.182997009004133,-2.125938593739192,0.0754901841282844,0.3079452216625213,0.1313723772764206,-0.937262987717986,-0.1561807015165686,-9.533351855278015,14951.0
46.7,9.5,111.0,21.48018264770508,19.593170166015625,-79.78140451248876,40.45954617420833,286.70080230712887,0.140991523861885,-0.094399407505989,-0.5352870225906372,0.8274527788162231,-0.8053164758338882,7.7007995896425,-2.4575648145400057,0.0954978391528129,0.2207615673542022,0.0102521758526563,-0.8463005581498146,-0.1737739866971969,-9.43596998691559,14951.0
46.9,9.199999809265137,112.0,21.13711929321289,24.01435661315918,-79.78138828781213,40.459552659678366,286.70216987609865,0.1636668890714645,-0.0980181992053985,-0.5354219675064087,0.8227568864822388,-0.7992772024331707,6.757380815507688,-2.7611492842327894,0.1006433591246604,0.2239735126495361,0.1415668427944183,-0.9807827174663544,-0.150557909309864,-9.38859584569931,14951.0
47.0,8.600000381469728,123.0,21.19721794128418,24.10182762145996,-79.78138106547122,40.459555946110655,286.67959831237795,0.1716163158416748,-0.0992864891886711,-0.5366242527961731,0.8201979398727417,-0.8365688424862558,6.2714600757864565,-2.8285400027697287,0.044479664415121,-0.0032603982836008,-0.0323367677628994,-0.6104667461290956,-0.445578334517777,-9.811329656839373,14951.0
47.19,8.300000190734862,125.0,21.069509506225582,26.495309829711918,-79.78136742115295,40.45956127690128,286.6399750518799,0.1684376746416092,-0.0886238515377044,-0.5399948954582214,0.8198659420013428,-0.8394842610089172,5.408082183437978,-2.7903940535961067,0.0821954309940338,-0.1344571709632873,-0.0727714896202087,-0.4605450869724155,-0.5201531016826629,-9.445861721634865,14951.0
