time,wind_speed,wind_angle,battery_voltage,battery_current,position_x,position_y,position_z,orientation_x,orientation_y,orientation_z,orientation_w,velocity_x,velocity_y,velocity_z,angular_x,angular_y,angular_z,linear_acceleration_x,linear_acceleration_y,linear_acceleration_z,node_ids
0.0,2.0,176.0,25.36279106140137,-0.0238553211092948,-79.78278598949099,40.45897326704578,262.8492208170891,0.0118446107953786,0.0132502848282456,-0.7370522022247314,0.67560213804245,0.0026958045942222,0.003048024058451,0.0300783276113076,0.00728444987908,0.0007740359287708,0.0039737205952405,-0.0327347871568054,-0.337216966599226,-9.803861008286477,14927.0
0.11,2.0999999046325684,181.0,25.364044189453125,-0.0318070948123931,-79.78278598581191,40.45897326362803,262.8522271189093,0.0118551412597298,0.0132520869374275,-0.7370491027832031,0.6756052374839783,0.0021825630023321,0.003805371741051,0.0303133843246643,-0.0041005965322256,-0.0016509785782545,-0.0074261650443077,-0.030599146457389,-0.3373551801592112,-9.80443637430668,14927.0
0.3,2.0999999046325684,186.0,25.36153984069824,-0.055662415921688,-79.78278600435151,40.458973266172585,262.85857864946126,0.0118343830108642,0.0132469283416867,-0.7370489239692688,0.6756060123443604,0.0015225651892303,0.0037905674890021,0.0305072476951566,-0.0055476394481956,0.0001917639019666,-0.0017808497650548,-0.0287759594921954,-0.3504271789267659,-9.806167734861372,14927.0
0.4,2.0999999046325684,186.0,25.360286712646484,0.0,-79.78278600015713,40.45897326310281,262.8616176891327,0.0118492636829614,0.0132442796602845,-0.7370553612709045,0.6755987405776978,0.0024382265709004,0.0040470048914574,0.0305241439289635,0.0028512615244835,0.0031943372450768,-0.0010008867830038,-0.0296846898947842,-0.3444576102867722,-9.804516481161118,14927.0
0.6,1.8999999761581416,189.0,25.364044189453125,-0.0397588685154914,-79.78278601956865,40.45897324566426,262.8681504625082,0.0118485409766435,0.01324881054461,-0.7370562553405762,0.6755977272987366,0.004833846331725,0.0040413915125534,0.0308117503501431,0.0031855280976742,0.0016540818614885,-0.0058973198756575,-0.0306915575894527,-0.3477017917111516,-9.805391224622726,14927.0
0.71,1.600000023841858,191.0,25.36279106140137,-0.0159035474061965,-79.78278606778979,40.45897325124197,262.86979860544204,0.0118538085371255,0.0132555598393082,-0.7370412349700928,0.6756138801574707,0.0034079342530721,-0.0006858614722272,0.0269700547687842,0.0007076640613377,-0.0038703682366758,0.0052793202921748,-0.0275806652731262,-0.3507088685408235,-9.806066578030586,14927.0
0.8,1.600000023841858,192.0,25.35653114318848,-0.0159035474061965,-79.782786068548,40.4589732472998,262.8724854189157,0.0118602085858583,0.0132607473060488,-0.7370421886444092,0.6756126284599304,0.0033678907692461,5.160142162251779e-05,0.0270744827122003,-0.0037628472782671,-0.003728034440428,-0.0070257321931421,-0.0304574885219335,-0.33600736040622,-9.80310788691044,14927.0
1.0,1.600000023841858,193.0,25.36153984069824,-0.0636141896247863,-79.78278609257876,40.45897322678745,262.87712418019765,0.0118638146668672,0.0132586741819977,-0.7370438575744629,0.6756107807159424,0.0056224247455949,0.0010506923409759,0.0251882364138477,-0.0013889098772779,0.0009837477700784,-0.0073541100136935,-0.0316275049536489,-0.3373503562062979,-9.803733538985252,14927.0
1.2,1.600000023841858,193.0,25.354026794433597,-0.0238553211092948,-79.78278613355758,40.45897320562133,262.8817319023609,0.01186756324023,0.0132543528452515,-0.7370464205741882,0.6756079196929932,0.0071422222867465,-0.0010384185664584,0.0240251184876629,-0.0048082000575959,-0.0022842187900096,-0.001897698151879,-0.0273793817264959,-0.3488905306532979,-9.805675399303436,14927.0
1.3,1.5,191.0,25.36654663085937,-0.0238553211092948,-79.78278613539503,40.458973198014384,262.8841049271822,0.01186756324023,0.0132543528452515,-0.7370464205741882,0.6756079196929932,0.0080289150267473,-0.0006775872793893,0.0240568905882329,0.0020353167783468,-0.0008011463796719,0.0009274443145841,-0.0294046288216486,-0.343976238258183,-9.805059102773669,14927.0
1.4,1.5,189.0,25.36279106140137,-0.0159035474061965,-79.78278613677098,40.45897319025928,262.8864983665943,0.0118684126064181,0.0132528776302933,-0.7370492219924927,0.6756048798561096,0.0079004305363851,-0.0001851609779808,0.0243076642283303,-0.0011416425695642,-0.0012786973966285,0.0052293771877884,-0.0295799288037233,-0.3488699192181229,-9.806421504020694,14927.0
1.6,1.5,188.0,25.36529541015625,-0.0238553211092948,-79.78278615937884,40.45897319949599,262.89069130003446,0.0118647962808609,0.0132462242618203,-0.7370526790618896,0.6756013631820679,0.0027916396517752,0.0005094862173651,0.0229864112595195,0.0023508581798523,2.751573219939018e-06,0.0038494460750371,-0.0265879770764149,-0.3521257585287094,-9.806506873369218,14927.0
1.7,1.5,183.0,25.36779975891113,-0.0159035474061965,-79.78278618326497,40.458973176138784,262.8928729194402,0.0118673341348767,0.0132479798048734,-0.7370527386665344,0.6756012439727783,0.0047959016496873,0.0010515794953198,0.0222587699617213,-0.0049684648402035,-0.0023085621651262,-0.006604682188481,-0.0302180541772395,-0.3375028954446316,-9.80336633384228,14927.0
1.91,1.399999976158142,179.0,25.364044189453125,-0.0159035474061965,-79.78278618076784,40.4589731649128,262.8972940790653,0.0118786934763193,0.0132426461204886,-0.7370461821556091,0.6756082773208618,0.0052563737720922,0.0022144947592277,0.0224488285195153,-0.0060544181615114,-0.0021533900871872,-0.0030795512720942,-0.0297982355137355,-0.3401235078647733,-9.804484321475028,14927.0
2.0,1.2999999523162842,180.0,25.36529541015625,-0.0159035474061965,-79.78278621032952,40.45897316078733,262.8990481394529,0.0118744103237986,0.0132376784458756,-0.7370562553405762,0.6755974292755127,0.0040050296586293,0.0015405530530976,0.0215589406163667,0.0053513254970312,0.0027445291634649,0.0016039370093494,-0.029569367270451,-0.3458636098355055,-9.804722303152085,14927.0
2.2,1.2999999523162842,180.0,25.35653114318848,-0.0159035474061965,-79.78278625511028,40.45897312130317,262.9030003297329,0.0118751842528581,0.0132371746003627,-0.7370471358299255,0.6756073236465454,0.0086305978830372,-0.0003728015962557,0.0215512943695491,-0.0032691624946892,-0.0005910007166676,-0.0054622003808617,-0.0313485676422715,-0.3385223940387368,-9.803689100146292,14927.0
2.3,1.2999999523162842,180.0,25.36279106140137,-0.0159035474061965,-79.78278625609637,40.45897311276546,262.90512800693506,0.0118572833016514,0.013230406679213,-0.73703932762146,0.6756163835525513,0.0090468967939538,0.0001877669690477,0.0215325141568771,0.0027127843350172,0.0007102101808413,0.0051862364634871,-0.0271287234686315,-0.3521817456185818,-9.80533684551716,14927.0
2.51,1.2999999523162842,180.0,25.35527801513672,-0.0954212844371795,-79.78278626876158,40.45897310917515,262.9093014496565,0.0118480809032917,0.0132403830066323,-0.7370526790618896,0.6756017804145813,0.0037120612099927,0.0034547603323939,0.0211189000898501,0.0068886303342878,0.0010612024925649,0.0048976121470332,-0.0274652078887447,-0.3508997801318765,-9.805871281027798,14927.0
2.6,1.2999999523162842,180.0,25.350271224975582,-0.1033730581402778,-79.7827862647666,40.45897310511032,262.9114061492681,0.0118496809154748,0.013252249918878,-0.7370535731315613,0.675600528717041,0.0030766801583774,0.0042550531407726,0.0212119206181752,-0.0075062462128698,-0.0029816983733326,-0.0029881112277507,-0.0304785590548999,-0.3454626004770398,-9.803792595863342,14927.0
2.8,1.2999999523162842,181.0,25.347766876220703,-0.1033730581402778,-79.78278629244126,40.45897306972749,262.91514969348907,0.0118657108396291,0.0132495611906051,-0.7370584607124329,0.6755949854850769,0.0061343434489972,0.0036869557594351,0.021134070479449,0.0026734666898846,-0.0015142570482566,0.0026753949932754,-0.0286462632240727,-0.3509615413472056,-9.806716203689575,14927.0
3.0,1.5,182.0,25.354026794433597,-0.1113248318433761,-79.78278632578206,40.45897305463221,262.91871110081667,0.0118653224781155,0.0132808601483702,-0.7370638847351074,0.6755884885787964,0.0045096559918144,0.0028990574181438,0.0207577885238149,0.0044424780644476,-0.0002856738574337,0.0075487536378204,-0.0294965580152347,-0.3368724194169045,-9.803762775063516,14927.0
3.1,1.5,183.0,25.349018096923828,-0.1113248318433761,-79.78278632249311,40.45897304983699,262.920781468153,0.0118841538205742,0.0133067108690738,-0.7370679974555969,0.6755831837654114,0.0040464385961987,0.0037094881464521,0.0210433942882735,-0.0041480143554508,-0.0007805599598214,-0.0063553526997566,-0.0307800583960488,-0.3400700789317489,-9.804531099200249,14927.0
3.21,1.600000023841858,185.0,25.34526252746582,-0.0795177370309829,-79.78278635161735,40.45897301066187,262.92234404861927,0.0118968449532985,0.0133192976936697,-0.7370674610137941,0.6755831837654114,0.0091199562661645,0.0033326508212397,0.0209128352693749,0.008051841519773,0.0028164549730718,0.0025178135838359,-0.0279569404525682,-0.3478825437650085,-9.805580089688302,14927.0
3.4,1.600000023841858,186.0,25.34150695800781,-0.0874695107340812,-79.78278634405709,40.45897299238477,262.9264738309384,0.0119100762531161,0.0133601790294051,-0.7370894551277161,0.6755582094192505,0.0097348096738492,0.0045825842958124,0.0210262504877639,0.0029893687460571,-0.0004793375264853,1.226191034220392e-05,-0.0313828286714851,-0.3429121546447277,-9.804188452363016,14927.0
3.61,1.7000000476837158,187.0,25.35152244567871,-0.0954212844371795,-79.78278636535684,40.45897297392853,262.93048978328704,0.0118922917172312,0.0133729809895157,-0.7370849847793579,0.6755630970001221,0.007324749141525,0.004409795654116,0.0208558079605546,0.0015303574036806,-0.0002549425698816,-0.0018178430618718,-0.0297968216752633,-0.3498096398636698,-9.80564440906048,14927.0
3.71,1.7000000476837158,187.0,25.33774948120117,-0.0874695107340812,-79.78278637336385,40.45897294916886,262.93274280905723,0.0118916938081383,0.013375018723309,-0.7370849847793579,0.6755630373954773,0.0084967755061241,0.0068399092657316,0.020714663749635,0.0026797240134328,-0.0014841404045,0.0061492137610912,-0.0268559006089344,-0.3519328369572759,-9.806295204162598,14927.0
3.9,1.600000023841858,184.0,25.354026794433597,-0.0795177370309829,-79.78278635730327,40.45897293100783,262.9368549782037,0.0118935229256749,0.0133732054382562,-0.7370886206626892,0.6755591630935669,0.0095772494905303,0.0083403150129752,0.021023020510708,0.0025323429144918,0.001878974144347,0.0052169705741107,-0.0307435521273873,-0.3369490910321474,-9.803964504003526,14927.0
4.0,1.600000023841858,181.0,25.346513748168945,-0.1113248318433761,-79.78278636110569,40.458972920502326,262.93915424227714,0.0118904141709208,0.0133708529174327,-0.7370883822441101,0.6755595207214355,0.0057876445922849,0.0097152784854898,0.0209067665648775,-0.0033301971852779,-0.0011441730894148,-0.0019004207570105,-0.0294544946076348,-0.3424444504827261,-9.805128099918369,14927.0
4.1,1.600000023841858,179.0,25.347766876220703,-0.1113248318433761,-79.7827863502567,40.45897291346543,262.94121630966663,0.0118897892534732,0.0133676454424858,-0.7370924353599548,0.6755551099777222,0.0068130172555896,0.0101550165164175,0.0209432037142228,0.0025240047834813,0.0010946398833766,0.0028828214854002,-0.0310776405595243,-0.344277589134872,-9.80400309562683,14927.0
4.31,1.600000023841858,176.0,25.347766876220703,-0.0954212844371795,-79.78278639614635,40.45897289816122,262.94550155580043,0.0118942139670252,0.013359323143959,-0.7370924949645996,0.6755551695823669,0.0048785054848163,0.0043109113367132,0.0209085736498453,-0.0070005822926759,-0.0012449382338672,-0.0098506398499012,-0.0314057287434116,-0.3378937087208033,-9.804803579449654,14927.0
4.4,1.5,173.0,25.349018096923828,-0.0874695107340812,-79.7827863915103,40.458972892285615,262.94756311655044,0.0118960486724972,0.013357538729906,-0.7370955944061279,0.6755517721176147,0.0060028049748554,0.0048138251135962,0.0207688699546379,0.0061129364185035,0.001551152090542,0.0048462143167853,-0.028202847847715,-0.3479664147645235,-9.805453789830208,14927.0
4.6,1.5,174.0,25.36529541015625,-0.0238553211092948,-79.78278638541875,40.45897285882131,262.9521463114023,0.0119093237444758,0.0133605115115642,-0.7370976805686951,0.6755492091178894,0.0072876836514656,0.0077964067330603,0.0207480339900522,-0.0008386388653889,0.0005894224741496,-0.0084499241784214,-0.0319297877303324,-0.3379479051008821,-9.802441304326056,14927.0
4.7,1.2999999523162842,169.0,25.37531089782715,0.0477106422185897,-79.78278640620252,40.45897282945551,262.9545218098164,0.0119200237095356,0.0133715663105249,-0.7370991110801697,0.675547182559967,0.0091566477787164,0.0060203088854249,0.0205793974425848,0.0064638261683285,0.0019021298503503,0.0072577609680593,-0.027318625501357,-0.3498306898400187,-9.805231595635414,14927.0
4.9,1.2999999523162842,171.0,25.364044189453125,-0.0079517737030982,-79.78278639243861,40.4589728105689,262.95859091460704,0.0119446851313114,0.0133973089978098,-0.7371054887771606,0.6755393147468567,0.0096125329402966,0.0074244801764546,0.020792808222796,-0.0017600286519154,0.0036619277670979,-0.0067208013497293,-0.0308689474943094,-0.3398591406270861,-9.802906742691992,14927.0
5.0,1.2999999523162842,170.0,25.36153984069824,-0.0318070948123931,-79.78278641659037,40.4589728207914,262.96124402165407,0.01193508785218,0.0134086450561881,-0.7371024489402771,0.6755425333976746,0.0031092284199727,0.004835720674547,0.0203602594808952,0.0041844141669571,0.0008240740862675,0.0068229692988097,-0.0265474759717471,-0.3519436543062329,-9.805289483070371,14927.0
5.21,1.2999999523162842,170.0,25.35903549194336,0.0159035474061965,-79.7827864223924,40.45897280037916,262.9660980004072,0.0119398962706327,0.0134334601461887,-0.7370933890342712,0.6755519509315491,0.003525698748813,0.004799882920299,0.0203721709508962,0.0061507686041295,-0.000681699544657,0.001247257227078,-0.0285395012889057,-0.3454297464340925,-9.804353343844417,14927.0
5.4,1.2000000476837158,170.0,25.36153984069824,0.0715659633278846,-79.78278641008366,40.4589727917404,262.97014393389225,0.0119366645812988,0.0134302228689193,-0.73711097240448,0.6755328774452211,0.0040587533437862,0.0063918566966414,0.0204405250444404,-0.0038867539260536,-0.0016633941559121,-0.0043919128365814,-0.0288085554353892,-0.3493703312426806,-9.804584893584252,14927.0
5.5,1.2000000476837158,170.0,25.36279106140137,0.0397588685154914,-79.78278644465101,40.45897274842064,262.97483870863914,0.0119405156001448,0.0134227173402905,-0.7371090054512024,0.6755350828170776,0.0106792576350999,0.0021031492454154,0.0239903309166425,0.0029861920047551,-0.0016488994006067,0.007070065010339,-0.0267466764478012,-0.3506647586077452,-9.80677701473236,14927.0
5.6,1.100000023841858,170.0,25.35277557373047,0.055662415921688,-79.7827864429167,40.45897273803644,262.97720647335046,0.0119413286447525,0.0134200742468237,-0.7371116876602173,0.6755322217941284,0.0105050866928137,0.0030715584345961,0.0241047424930068,-0.0071359472349286,0.000616792065557,-0.0042868158780038,-0.0297518597845919,-0.3415456238016486,-9.803009653687475,14927.0
5.8,1.100000023841858,170.0,25.349018096923828,0.055662415921688,-79.7827864510567,40.45897270005885,262.9840760874748,0.011942084878683,0.0134193273261189,-0.7371119260787964,0.6755319833755493,0.0116227277131826,0.0035612591566507,0.0260958893030202,0.001014370471239,-0.0004268035991117,0.0024964523036032,-0.0277410297305323,-0.3496938284486533,-9.804834569692613,14927.0
5.9,1.100000023841858,169.0,25.35903549194336,0.0715659633278846,-79.78278644785844,40.45897268840426,262.9866367030144,0.0119420047849416,0.0134163470938801,-0.7371147871017456,0.675528883934021,0.0117910323342108,0.0043177778172329,0.0261031077556647,-0.0042355763725936,-0.0016322821611538,-0.004994154907763,-0.0308867632295005,-0.3383091533929109,-9.8019846367836,14927.0
6.1,1.100000023841858,168.0,25.354026794433597,0.0477106422185897,-79.78278645655799,40.45897269665209,262.99378249526023,0.0119396597146987,0.0134137915447354,-0.7371163368225098,0.6755272746086121,0.0047423502761958,0.0038276004029735,0.0273287697533888,0.0001569760497659,0.0004587133589666,0.0014273556880652,-0.0289825489302165,-0.3482782906293869,-9.804359775781633,14927.0
6.2,1.2000000476837158,166.0,25.35903549194336,0.0477106422185897,-79.78278646522995,40.45897268151792,262.9976981478929,0.0119518591091036,0.0134197631850838,-0.7371233105659485,0.6755192875862122,0.0040283383507304,0.0035411309478885,0.0281158532929982,-7.061618089210242e-05,-0.0013456685701385,-0.0048483968712389,-0.0305643029906787,-0.3379313867166638,-9.803054092526436,14927.0
6.4,1.2000000476837158,168.0,25.35653114318848,0.0715659633278846,-79.78278645632889,40.45897267084924,263.00326107919216,0.0119531685486435,0.013431366533041,-0.7371397018432617,0.6755011677742004,0.0049951796271626,0.0051045153176526,0.0279757904239626,-0.0042928080074489,-0.00075758312596,0.0019024934154003,-0.0296776663837954,-0.3477636991068721,-9.803572740554811,14928.0
6.51,1.2000000476837158,165.0,25.349018096923828,0.0318070948123931,-79.78278646226639,40.45897264487501,263.00723395228385,0.0119604477658867,0.0134338336065411,-0.7371424436569214,0.6754980683326721,0.0071028774839752,0.0046005028097786,0.0287852869414894,-0.0025239966344088,-0.0004735993570648,-0.0085922675207257,-0.0305305992742069,-0.3376352983340621,-9.802223787903786,14928.0
6.7,1.2999999523162842,166.0,25.34526252746582,0.0397588685154914,-79.78278646401442,40.458972609521815,263.0140736746788,0.0119615709409117,0.0134284188970923,-0.7371328473091125,0.6755085587501526,0.0087217182478131,0.0045728167583057,0.029522204581076,-0.0050676856189966,-0.0018814064096659,-0.0020441832020878,-0.0299439659435302,-0.3466244422271848,-9.80473516702652,14928.0
6.9,1.2999999523162842,164.0,25.3577823638916,0.0477106422185897,-79.78278645401043,40.45897258978712,263.01989955186843,0.0119411377236247,0.0134350601583719,-0.7371394038200378,0.6755015850067139,0.0104767856592436,0.0057159611995831,0.0293860204354761,0.0059962654486298,0.0028861174359917,0.0054018897935748,-0.0318206869089044,-0.3387617644295097,-9.80334762275219,14928.0
7.0,1.399999976158142,165.0,25.347766876220703,0.055662415921688,-79.78278646213147,40.45897258206114,263.02317628741264,0.0119545562192797,0.0134465368464589,-0.7371264100074768,0.6755154132843018,0.0067396088347741,0.0046881016907175,0.0298619352643611,-0.0033208238892257,-0.0008106864988803,-0.0002128419291693,-0.0290279950434342,-0.3435838900879026,-9.804539870023726,14928.0
7.11,1.399999976158142,166.0,25.35527801513672,0.0397588685154914,-79.78278645723577,40.45897257425612,263.0261279094219,0.0119486628100276,0.0134449200704693,-0.7371306419372559,0.6755108833312988,0.007745180250367,0.005236878528649,0.0298329968089095,0.0024845907464623,-0.0007623170386068,7.288536289706826e-05,-0.0308277246239595,-0.3420960295200348,-9.803259329795836,14928.0
7.31,1.399999976158142,166.0,25.35903549194336,0.0238553211092948,-79.78278642368225,40.45897257100921,263.032203053236,0.0119418632239103,0.0134440064430236,-0.7371301054954529,0.6755115985870361,0.0037812780918435,0.0101280621659372,0.0299420630670631,-0.0055128182284533,-0.0045918067917227,-0.0054988814517855,-0.0310035796347074,-0.3393378613516689,-9.803282133936884,14928.0
7.4,1.399999976158142,168.0,25.35653114318848,0.0954212844371795,-79.78278641212279,40.458972565382936,263.0351694869995,0.0119507880881428,0.0134462974965572,-0.737141489982605,0.6754989624023438,0.0048938115461931,0.0106625014783391,0.0298408070896698,0.0041870474815368,-0.0020061947870999,0.0057583041489124,-0.0306861169380135,-0.3453554137051106,-9.802935978770256,14928.0
7.61,1.5,172.0,25.354026794433597,0.0477106422185897,-79.7827864369996,40.45897249632739,263.04079580783844,0.0119478059932589,0.0134540786966681,-0.7371542453765869,0.6754849553108215,0.0137421525291539,0.0067832255199298,0.0304155879394516,-0.0047866064123809,-0.0016630485188215,-0.0087471269071102,-0.0310202510515227,-0.338614085689187,-9.8029049885273,14928.0
7.8,1.5,177.0,25.35903549194336,0.0636141896247863,-79.78278642038649,40.458972484453135,263.04477459669107,0.0119542218744754,0.013467495329678,-0.7371477484703064,0.6754916906356812,0.0107618026010893,0.0091731673920105,0.0272813862039688,0.0010672041680663,-0.0042211152613162,0.0024094225373119,-0.0282869495381601,-0.347621429041028,-9.804790130853654,14928.0
7.9,1.5,173.0,25.3577823638916,0.0715659633278846,-79.78278641051496,40.45897247296049,263.04745993494987,0.011951089836657,0.0134642180055379,-0.737151563167572,0.6754876375198364,0.0112070812092514,0.0099549364528061,0.0273822367181221,-0.002768398495391,-0.0018889686325564,-0.0055156359449028,-0.0310052287322469,-0.3382688441500068,-9.803390307426453,14928.0
8.0,1.5,175.0,25.360286712646484,0.0715659633278846,-79.78278640262127,40.458972496607046,263.04815170645713,0.011942733079195,0.0134781394153833,-0.7371460199356079,0.6754935383796692,0.0042930428055007,0.0103030934799432,0.0245656193383022,0.0047798911109566,0.0005897409282624,-0.000166047422681,-0.0266878753853961,-0.3506261304393411,-9.805703465938567,14928.0
8.21,1.5,178.0,25.35903549194336,0.0636141896247863,-79.78278638592417,40.45897247539153,263.0534122633934,0.0119250481948256,0.0135155459865927,-0.7371476292610168,0.6754913330078125,0.0063583559304661,0.0117259810729806,0.0260258074605618,0.0012386082671582,0.0018908141646534,-0.0039487066678702,-0.0309371200902387,-0.3419101611524821,-9.803422467112542,14928.0
8.3,1.5,183.0,25.34526252746582,-0.055662415921688,-79.78278637224933,40.45897246771011,263.0559813427925,0.0119310840964317,0.0135289588943123,-0.7371368408203125,0.6755027770996094,0.0070490051991438,0.0126024963577706,0.0259335560155641,0.0014542798744514,-0.0011763529619202,0.0071545881219208,-0.026931934969034,-0.3498086896911264,-9.80561926603317,14928.0
8.5,1.5,183.0,25.346513748168945,-0.0954212844371795,-79.78278639919232,40.45897247881129,263.05967161536216,0.011923162266612,0.0135421575978398,-0.7371517419815063,0.6754863858222961,0.0020428013474983,0.0049190334668797,0.0233768514669557,0.0054637617431581,-0.0012243154924362,0.0019683381542563,-0.0271744276816025,-0.3496201535314321,-9.804602435231208,14928.0
8.7,1.5,188.0,25.34401130676269,-0.0874695107340812,-79.78278638644754,40.458972459413815,263.06479204177856,0.0119440061971545,0.0135566564276814,-0.7371764183044434,0.6754587292671204,0.0051576802627329,0.0081921590288169,0.0253911752602246,0.002937872428447,0.0005639755981974,-0.0025414037518203,-0.0293377444404177,-0.345402264520526,-9.803850483298303,14928.0
8.8,1.5,193.0,25.350271224975582,-0.0954212844371795,-79.78278637678909,40.45897245310665,263.0673064041137,0.0119485761970281,0.0135550238192081,-0.7371733784675598,0.675462007522583,0.0057126827027887,0.0090487003575904,0.0253497844994707,0.0007846401422284,-0.0035216317046433,0.0038851874414831,-0.0281100804009474,-0.3500294220820069,-9.804904151558878,14928.0
8.9,1.5,195.0,25.35277557373047,-0.0715659633278846,-79.7827863664573,40.458972446250506,263.0698104250431,0.0119562381878495,0.013562043197453,-0.7371760606765747,0.6754587888717651,0.0063325880418034,0.0099024528504058,0.0253397106389539,-0.0034234554041177,0.0029248814098536,-0.0053724413737654,-0.0322109497245401,-0.3373557283356786,-9.801598720550537,14928.0
9.1,1.5,196.0,25.34401130676269,-0.1192766055464744,-79.78278634314495,40.45897246167495,263.0753719556332,0.0119615206494927,0.0135890189558267,-0.7371830940246582,0.6754505634307861,0.0014542657617078,0.0115200852795614,0.0269907294212958,-0.0060310531407594,-0.0018016905523836,-0.0079873083159327,-0.0307120159920305,-0.3369888155534864,-9.803721844553948,14928.0
9.3,1.5,196.0,25.347766876220703,-0.0954212844371795,-79.78278637107192,40.4589724442348,263.0760536539554,0.0119580430909991,0.013597528450191,-0.7371809482574463,0.6754527091979979,0.0056126044243628,0.0064401019841772,0.0250009261451076,0.0076537132263183,0.0021411380730569,0.0062348484061658,-0.0279972359910607,-0.3503244506567717,-9.804648628234863,14928.0
9.4,1.399999976158142,196.0,25.33900260925293,-0.0715659633278846,-79.7827863547587,40.458972430749824,263.0810206580162,0.0119698774069547,0.0136096021160483,-0.7371887564659119,0.6754437088966371,0.0072330670370852,0.0084270893061873,0.0251085384244058,0.0047585908323526,0.0001969869772437,0.0052410843782126,-0.0280796406185254,-0.3477207951620221,-9.805050916671751,14928.0
9.6,1.399999976158142,200.0,25.350271224975582,-0.0795177370309829,-79.78278635891056,40.45897242482163,263.083793913126,0.0119599634781479,0.0135977324098348,-0.7371785640716553,0.6754553318023682,0.0065441658793037,0.0076438148255999,0.0236050933468542,0.0041802707128226,-0.0036213535349816,-0.0002731476270128,-0.0301797686191275,-0.3458997529372573,-9.804213010668756,14928.0
9.71,1.399999976158142,203.0,25.350271224975582,-0.0795177370309829,-79.7827863779284,40.45897240737504,263.08384594798093,0.0119638163596391,0.0135891716927289,-0.7371786832809448,0.6754553318023682,0.0082387526372842,0.006105671658899,0.0224334405543826,0.0014655406121164,-0.003316796850413,0.0039988015778362,-0.0295740016456693,-0.3491144424676895,-9.805688847899438,14928.0
9.8,1.2999999523162842,203.0,25.350271224975582,-0.0795177370309829,-79.78278637110812,40.4589723982548,263.08605185627937,0.011976626701653,0.013601180166006,-0.7371756434440613,0.6754581928253174,0.009077781321329,0.0070361405981982,0.0224631322368021,-0.0016097018960863,-3.932945401174948e-05,-0.0052989376708865,-0.0315485150087624,-0.3377118968591094,-9.80352479338646,14928.0
10.01,1.2999999523162842,202.0,25.33774948120117,-0.1033730581402778,-79.78278638113528,40.45897237337223,263.0882021832466,0.0119767785072326,0.0135928718373179,-0.7371670007705688,0.6754676699638367,0.010467008341231,0.0067967363641385,0.0218441988294985,-0.0047182231210172,0.0011551753850653,-0.0061705238185822,-0.0321285633696243,-0.3377672626823187,-9.803999002575877,14928.0
10.2,1.2000000476837158,205.0,25.350271224975582,-0.0954212844371795,-79.78278641143237,40.45897236188068,263.09031895279884,0.011963085271418,0.013596624135971,-0.7371698617935181,0.6754647493362427,0.008286491669471,0.0027822511560359,0.0212043577271555,-0.0075095752254128,-0.0015769316814839,-0.0029443202074617,-0.0266681364644318,-0.3504237436875701,-9.804711778163911,14928.0
10.3,1.2999999523162842,203.0,25.354026794433597,-0.1033730581402778,-79.78278640867364,40.458972352744354,263.0924003469944,0.0119597604498267,0.0136075690388679,-0.7371726036071777,0.6754615902900696,0.009903520922318,0.0035000940620235,0.0211395249612925,0.0036559381987899,-0.0001838205207604,-0.0004957766504958,-0.0287402594997547,-0.3465020161494613,-9.804696575403216,14928.0
10.4,1.2000000476837158,202.0,25.35277557373047,-0.0636141896247863,-79.78278640522221,40.45897234296133,263.0944852876663,0.0119564076885581,0.0136113343760371,-0.7371645569801331,0.6754703521728516,0.0102375181990819,0.0045691456983136,0.0212958476173756,0.0003395159146748,-0.0020521848928183,0.0010064443340525,-0.0289942456455901,-0.3472771376743913,-9.8055262953043,14928.0
10.61,1.2000000476837158,201.0,25.34150695800781,-0.1113248318433761,-79.78278641764778,40.45897232900885,263.09619403362274,0.0119574600830674,0.0136005040258169,-0.7371759414672852,0.6754581332206726,0.0093029952135233,0.005001301999795,0.0207598577625914,-0.0005072273197583,0.0010068734409287,0.0019802278839051,-0.0272353529278188,-0.3512061742320657,-9.804921108484267,14928.0
10.7,1.100000023841858,198.0,25.350271224975582,-0.0954212844371795,-79.78278642349463,40.45897231977105,263.09608501672744,0.0119420923292636,0.0136066358536481,-0.7371795773506165,0.6754543781280518,0.0066317168222927,0.0073556669501105,0.0205712504269771,-0.0037497736047953,-0.0007354452973231,-0.0077318563126027,-0.0308380783069878,-0.337101228274405,-9.80318507015705,14928.0
10.9,1.100000023841858,195.0,25.364044189453125,-0.0079517737030982,-79.78278640599451,40.45897230344792,263.10011336684227,0.0119345122948288,0.0136252418160438,-0.7371679544448853,0.675466775894165,0.0081458101793316,0.0092792192980161,0.0205294115109434,-0.0072528850287199,1.973926191567444e-05,-0.0026308421511203,-0.0296280335728079,-0.3419463042542338,-9.803449949026108,14928.0
11.1,1.100000023841858,194.0,25.36153984069824,-0.0238553211092948,-79.78278642589301,40.45897226604104,263.10164461016655,0.011941316537559,0.0136202052235603,-0.7371722459793091,0.6754620671272278,0.0104997816746348,0.0084136421630175,0.0202560756775515,-0.0030908801127225,0.0014016908826306,0.0029885100666433,-0.0302827778295613,-0.3464099590480328,-9.803797858357427,14928.0
11.2,1.100000023841858,193.0,25.36153984069824,-0.0159035474061965,-79.7827864166501,40.45897225477562,263.1036314415932,0.011941316537559,0.0136202052235603,-0.7371722459793091,0.6754620671272278,0.011311358761022,0.0093148556313623,0.0203661731744512,-0.0005875243223272,0.0008528812322765,-0.0071144462563097,-0.0315416125534102,-0.3395405404642224,-9.802785705327988,14928.0
11.3,1.0,194.0,25.36153984069824,-0.0159035474061965,-79.78278648072187,40.45897220558105,263.103151654005,0.0119502954185009,0.0136177102103829,-0.7371731400489807,0.6754609942436218,0.0163605299615039,0.0038325812172912,0.0202885519853671,0.0028164354152977,0.0014280881732702,0.0046171927824616,-0.0279122343775816,-0.3512594204396009,-9.805305270552635,14928.0
11.5,1.0,194.0,25.36153984069824,-0.0238553211092948,-79.78278652082494,40.45897216333521,263.10459679841995,0.0119519587606191,0.0136086056008934,-0.7371768951416016,0.6754571199417114,0.0165145143889174,0.0015691322426762,0.0201366926029396,0.0049662073142826,0.0009635761962272,0.0048732683062553,-0.0271588845946826,-0.3498684043809772,-9.804617637991903,14928.0
11.7,1.0,197.0,25.36153984069824,-0.0159035474061965,-79.78278652664885,40.45897212822947,263.1062568771839,0.0119481682777404,0.0136035308241844,-0.7371802330017091,0.6754536628723145,0.0132834097284307,0.0051870399675826,0.0197992594547258,0.0029728719964623,-0.0009125339565798,-0.0005666731158271,-0.0295251499861478,-0.3444189090281725,-9.803557537794113,14928.0
11.81,1.0,195.0,25.3577823638916,-0.0079517737030982,-79.78278652122584,40.458972115016365,263.108184401989,0.0119481682777404,0.0136035308241844,-0.7371802330017091,0.6754536628723145,0.0139548277558102,0.0063122650521059,0.0197686797487079,0.0024432160425931,-0.0040018307045102,0.0011716040316969,-0.0287221194268204,-0.3492548852786422,-9.804537531137466,14928.0
11.91,0.8999999761581421,194.0,25.374059677124023,0.0397588685154914,-79.7827865149774,40.458972101159695,263.1101038503647,0.0119667565450072,0.0136062381789088,-0.7371921539306641,0.6754401326179504,0.0145943796736872,0.0072125081897506,0.0197821889260496,-0.0019212500192224,0.0003188569680787,-0.0069774682633578,-0.0306530253519304,-0.3366934215277433,-9.802947673201562,14928.0
12.1,0.8999999761581421,195.0,25.36153984069824,-0.0238553211092948,-79.78278653857865,40.45897207813339,263.11152738809585,0.0119681879878044,0.0135990278795361,-0.7371887564659119,0.6754440665245056,0.0105072508581504,0.0062272459870158,0.0197655386837609,-0.0056165666319429,-0.0010912250727415,-0.0055769737809896,-0.0283601151080802,-0.3518465174362064,-9.804682542085647,14928.0
12.21,0.8999999761581421,197.0,25.35277557373047,-0.0238553211092948,-79.78278654522045,40.45897203227376,263.1112961816788,0.0119482204318046,0.0136081613600254,-0.7371936440467834,0.6754388213157654,0.0119598233190036,0.0080931550307031,0.0196639266179169,0.0035826673265546,0.0017174476524814,0.0016143566463142,-0.0284631928405724,-0.3478785238042474,-9.805111142992974,14928.0
12.3,0.8999999761581421,202.0,25.364044189453125,-0.0159035474061965,-79.78278653620565,40.45897202014843,263.11322507739067,0.0119402324780821,0.0136139979586005,-0.7371774911880493,0.6754564642906189,0.0122666621239869,0.0093015006650083,0.019846332573981,-0.0041055944748222,0.0008439518278464,-0.0028467322699725,-0.0300042744912207,-0.3467043298110366,-9.80470826983452,14928.0
12.51,0.8000000119209291,205.0,25.34025382995605,-0.0954212844371795,-79.78278655096163,40.45897197647346,263.1151238727569,0.0119208553805947,0.013596961274743,-0.7371838092803955,0.675450325012207,0.0107687945882727,0.0081894015395601,0.0196385252247261,0.0013895579613745,-0.0011137453839182,0.0041770073585212,-0.0274125875160098,-0.3511406854167581,-9.804750369787218,14928.0
12.6,0.8000000119209291,208.0,25.342758178710927,-0.1113248318433761,-79.78278654210318,40.45897196548015,263.11704743385314,0.0119232358410954,0.0136105678975582,-0.7371964454650879,0.67543625831604,0.011049754307917,0.0092977916165615,0.0197639464971285,-0.0022484241053462,-0.0016506622778251,-0.0071690399199724,-0.0301715985056944,-0.3369956494867802,-9.803018424510958,14928.0
12.8,0.8000000119209291,210.0,25.34526252746582,-0.0715659633278846,-79.78278659328127,40.458971924092346,263.118972902298,0.0118839405477046,0.0136033203452825,-0.7371890544891357,0.6754451394081116,0.0086603001017745,0.0036199145164549,0.019709259370227,-0.0055332398042082,-0.0006119973841123,-0.0051871296018362,-0.0310132640856318,-0.3408189976215363,-9.80292077600956,14928.0
13.0,0.8000000119209291,209.0,25.34401130676269,-0.1113248318433761,-79.78278659734082,40.45897184344985,263.122584079504,0.0118929557502269,0.0136078298091888,-0.7371987104415894,0.6754343509674072,0.0133797204758821,0.0076271836092434,0.0226451641317206,-0.003159936517477,-0.0002802672970574,0.0032636800315231,-0.028460826545488,-0.3463066095113754,-9.80377446949482,14928.0
13.1,0.8000000119209291,208.0,25.346513748168945,-0.0954212844371795,-79.78278658942833,40.45897182975151,263.12478721618646,0.0118926679715514,0.0136035745963454,-0.7372013330459595,0.6754315495491028,0.0144275760127257,0.0086200649490088,0.0225830465273316,-0.0026051683817058,-0.000567412818782,-0.0038420429918915,-0.0310557820228859,-0.3393239742144942,-9.802309157252314,14928.0
13.2,0.8000000119209291,205.0,25.3577823638916,-0.0079517737030982,-79.78278659969871,40.45897177294314,263.1264697957039,0.01189202722162,0.0136034395545721,-0.7372013926506042,0.6754315495491028,0.0139070828199323,0.01008028249088,0.0246871448575831,0.002328363712877,-0.0029572923667728,0.0074978675693273,-0.0271008121501654,-0.350999255888164,-9.80487783908844,14928.0
13.4,0.8000000119209291,206.0,25.35653114318848,-0.0238553211092948,-79.7827865767315,40.45897174371824,263.131294374466,0.011893699876964,0.0136004658415913,-0.7372040748596191,0.6754285097122192,0.0155753921921229,0.0120521782563854,0.024619344261713,0.0068101175129413,0.0008802078664302,0.0051982062868773,-0.027500649781432,-0.3509013150259853,-9.804781360030177,14928.0
13.6,0.699999988079071,207.0,25.35277557373047,-0.0715659633278846,-79.78278659111635,40.45897168661707,263.1336678612232,0.0118935862556099,0.0135911582037806,-0.7372076511383057,0.6754248142242432,0.0137400719580404,0.0109934990563889,0.0232263477767865,0.0051289405673742,0.0021745902486145,0.0030567508656531,-0.0310279186698608,-0.3389335263893008,-9.803028949499131,14928.0
13.7,0.699999988079071,207.0,25.360286712646484,-0.0397588685154914,-79.78278661832522,40.45897161623946,263.13557771325105,0.0118987746536731,0.0135907921940088,-0.7372083067893982,0.6754239797592163,0.0159354880493737,0.0094050706532621,0.0255066697783001,-0.0035578741226345,-0.0012369736796244,-0.0040430352091789,-0.0281781479297205,-0.3431666912510991,-9.80415804684162,14928.0
13.8,0.699999988079071,202.0,25.3577823638916,-0.0477106422185897,-79.78278660852705,40.458971599703226,263.13805407762527,0.0118987746536731,0.0135907921940088,-0.7372083067893982,0.6754239797592163,0.0172299332000789,0.0102187081336295,0.0253594982066521,0.0019539259374141,0.0033037315588444,-0.0001250111090485,-0.0296540148532949,-0.3449846271425485,-9.80258982360363,14928.0
14.01,0.699999988079071,203.0,25.3577823638916,-0.0318070948123931,-79.78278662988066,40.45897154671344,263.1402562010288,0.0119044706225395,0.0136155877262353,-0.7372035384178162,0.6754286885261536,0.0123221638765065,0.008133127203852,0.0231390157564147,0.0004766123893205,0.0012049067299813,-0.0006449828506447,-0.0308521344652399,-0.3393608847633004,-9.801176551580433,14928.0
14.1,0.699999988079071,203.0,25.346513748168945,-0.0477106422185897,-79.78278662128184,40.45897153407522,263.1425152170658,0.0118986926972866,0.0136057008057832,-0.7372000217437744,0.6754328608512878,0.013091280130985,0.009067570198996,0.0230085497914737,0.001213583163917,0.0029956048820167,0.0074098464101552,-0.0283205961529165,-0.353132027797401,-9.804129395484924,14928.0
14.3,0.699999988079071,202.0,25.354026794433597,-0.0318070948123931,-79.78278661683868,40.45897147378939,263.14457551121706,0.0118868211284279,0.0136093497276306,-0.7371852993965149,0.675449013710022,0.011132323515973,0.0112498274547138,0.0219927490636002,0.0018279271898791,-0.0009275747579522,0.0053127706050872,-0.0271309116063639,-0.3522818060964346,-9.804053381681443,14928.0
14.4,0.699999988079071,200.0,25.35653114318848,-0.0238553211092948,-79.78278660428718,40.458971462409096,263.1467320370674,0.0118924360722303,0.0136138191446661,-0.7371881008148193,0.6754457950592041,0.0110117584725839,0.0124787865739113,0.0220487235250819,-0.009350094012916,-0.0024911514483392,-0.0052081760950386,-0.0313776643923483,-0.3404973642155528,-9.801906868815422,14928.0
14.61,0.699999988079071,199.0,25.35653114318848,0.0,-79.78278661742273,40.45897136707926,263.149196331501,0.011883869767189,0.0136262085288763,-0.7371949553489685,0.6754381656646729,0.0152515227280448,0.01187656233677,0.0215142386685156,-0.0082828644663095,-0.003613798180595,0.0003156347665935,-0.0302499694679863,-0.3457966957613826,-9.803323064446449,14928.0
14.7,0.699999988079071,201.0,25.35903549194336,0.0397588685154914,-79.78278662662264,40.458971313119534,263.1515629339218,0.0118880597874522,0.0136148203164339,-0.7372041940689087,0.6754283308982849,0.0121406672103254,0.0121020642854799,0.0238939437310129,0.0035087498836219,0.0012808316387236,-0.0004729713255073,-0.0308177409600466,-0.3423436956480146,-9.803693193197253,14928.0
14.9,0.699999988079071,200.0,25.3289852142334,0.2942156493663788,-79.78278659820981,40.458971287114686,263.15623504400247,0.0119021898135542,0.0136165907606482,-0.7371935844421387,0.6754395961761475,0.0124668477154902,0.014507413330517,0.0239045412066721,-0.0040751155465841,-0.0008529160986654,-0.0068113878369331,-0.0315961652481928,-0.3405093510076404,-9.802901480197908,14928.0
15.0,0.8000000119209291,199.0,25.34025382995605,0.2942156493663788,-79.78278665887989,40.4589712311488,263.1564249742031,0.0119049064815044,0.013594483025372,-0.7372241616249084,0.6754066348075867,0.0098221352383382,0.0063898493556923,0.0221930569392603,-0.002710259752348,0.0016180648235604,-0.002394076436758,-0.0272423102008178,-0.3445171422511339,-9.803828848600386,14928.0
15.2,0.8999999761581421,199.0,25.34150695800781,0.3101191818714142,-79.78278667785503,40.45897114133935,263.1595287966728,0.0119295939803123,0.0136053571477532,-0.7372196912765503,0.6754108667373657,0.0129582392778796,0.006364584007407,0.0212471401421697,0.0058640269562602,0.0003372622595634,0.0049130199477076,-0.027181085741613,-0.3447535524889827,-9.802388679385183,14928.0
15.3,0.8999999761581421,199.0,25.34025382995605,0.2942156493663788,-79.78278667144663,40.45897112886109,263.1616134095192,0.011919037438929,0.0136173460632562,-0.7372319102287292,0.6753974556922913,0.0126533723145196,0.0075738667012294,0.0213102690804886,-0.0018198464531451,-0.0018480870639905,-0.0033572958782315,-0.0252514840196818,-0.3455595546215773,-9.802454752922056,14928.0
15.5,0.8999999761581421,199.0,25.33524703979492,0.3339745104312897,-79.78278668502281,40.45897104666169,263.1668196666241,0.011917470023036,0.0136421797797083,-0.7372440695762634,0.6753836870193481,0.012067779916975,0.0072318958581095,0.0235503982918487,-0.0026260332670062,0.0010072872973978,0.0100646130740642,-0.0250925653777085,-0.3494228830933571,-9.803454042077067,14928.0
15.7,0.8999999761581421,199.0,25.323978424072266,0.3975887000560761,-79.78278674574031,40.45897095188151,263.17079633951187,0.0119246765971183,0.0136335771530866,-0.7372514605522156,0.6753756403923035,0.0143131105168775,-0.001630531276855,0.0220815189082394,0.0017760433256626,-0.0033386661671102,0.0028563882224261,-0.0344009329844266,-0.3336162877455353,-9.803151156306267,14928.0
15.8,0.8999999761581421,202.0,25.333993911743164,0.4452993273735046,-79.78278674844702,40.458970938541725,263.1729598391056,0.011931681074202,0.0136369988322258,-0.7372521758079529,0.6753747463226318,0.014642730671235,-0.0005248954821354,0.0221672040622769,-0.0046335165388882,0.0023697183933109,-0.0048919203691184,-0.0309971773903816,-0.3397700436785817,-9.803730030655863,14928.0
15.9,0.8999999761581421,202.0,23.877859115600582,27.632413864135746,-79.78278675024549,40.45897092451275,263.1751111197472,0.0119395283982157,0.0136324185878038,-0.7372679710388184,0.6753573417663574,0.016751789165174,0.0007229433715948,0.0223837719665886,0.0058624665252864,0.0059732715599238,0.0134101258590817,-0.029551083301194,-0.3606662017107009,-9.807703798413277,14928.0
16.11,0.8999999761581421,201.0,25.3189697265625,0.3657816052436829,-79.78278674372673,40.458970824154726,263.179574494362,0.0124439932405948,0.013932860456407,-0.737244725227356,0.6753674745559692,0.0193997334417043,0.0055021625769692,0.0214202995187468,0.0364814028143882,0.0562870576977729,-0.0106028411537408,-0.0441519096912816,-0.3569900937750935,-9.780099678039551,14928.0
16.3,0.8999999761581421,199.0,24.11950492858887,15.1481294631958,-79.78278673690136,40.45897072888288,263.1855342435837,0.0123486276715993,0.01386693213135,-0.7372142672538757,0.675403892993927,0.0147132562022023,0.0088659326914247,0.0244008006725375,-0.00836334656924,0.0050045507960021,0.0112683027982711,-0.019349398186896,-0.3702992336824537,-9.796677119135856,14928.0
16.41,0.8999999761581421,201.0,25.245098114013672,1.2722837924957275,-79.78278672727235,40.458970712292704,263.1880336153506,0.0125185661017894,0.0139845982193946,-0.7372771501541138,0.6753297448158264,0.0156786516769215,0.010089653089872,0.0256792669204612,-0.0320007912814617,-0.0183767024427652,0.0116720106452703,-0.0178688112355303,-0.3040902424044907,-9.794801332354544,14928.0
16.5,0.8999999761581421,201.0,25.32272529602051,0.4612028896808624,-79.78278673484282,40.458970652710576,263.1925460445881,0.0126192700117826,0.0140249449759721,-0.7372609972953796,0.6753446459770203,0.0113884305103107,0.0090496963919572,0.0262249906554656,-0.011783710680902,0.0100773442536592,-0.0131868431344628,-0.0261449043103493,-0.3525631668046117,-9.801547265052797,14928.0
16.7,0.8999999761581421,202.0,25.3289852142334,0.4532511234283447,-79.78278673665284,40.458970562079074,263.1993238973617,0.0123399561271071,0.0138715570792555,-0.7372706532478333,0.6753423810005188,0.0129850053517919,0.0081822884092757,0.0262645739754058,-0.0056723952293396,-0.0034485002979636,0.004804263357073,-0.0257798005104996,-0.3584826321154833,-9.809205948114396,14928.0
16.8,1.0,200.0,25.23132514953613,2.298062562942505,-79.78278672682191,40.45897054772938,263.2019209015369,0.0121714007109403,0.0137222614139318,-0.7373045086860657,0.6753115653991699,0.0146778027707058,0.0098013761351017,0.026831813352157,-0.003468673909083,0.004222588147968,-0.001264743739739,-0.0287355543184094,-0.3346822717040777,-9.80644138455391,14928.0
17.0,1.0,199.0,25.02348518371582,4.890340805053711,-79.78278670813954,40.458970453565136,263.2093910324573,0.0121502159163355,0.0137058990076184,-0.7373028397560121,0.6753140091896057,0.0160588560680421,0.0128364364327752,0.0288977379330719,0.0023022126406431,-0.0033812138717621,-0.0055018756538629,-0.0228746251179836,-0.3555124658346176,-9.798589158654211,14928.0
17.21,1.100000023841858,195.0,24.88200378417969,7.236114501953125,-79.78278669435798,40.45897036021169,263.2167601931095,0.012488723732531,0.0140149230137467,-0.7373935580253601,0.6752025485038757,0.0129623636798156,0.0152304530129584,0.0321271779296455,-0.0371560081839561,-0.0186569355428218,0.0103226779028773,-0.0069767229852732,-0.3560963103175163,-9.810279496908189,14928.0
17.3,1.100000023841858,194.0,24.805627822875977,8.500446319580076,-79.78278668029759,40.45897034114888,263.2198499190808,0.0129027599468827,0.0143347159028053,-0.7373698949813843,0.6752138733863831,0.0144279954320205,0.0132591223707539,0.031928361551953,-0.0163055751472711,0.0001545172563055,0.0366284810006618,-0.0011905456404201,-0.2560793211311102,-9.836742825508118,14928.0
17.4,1.2000000476837158,191.0,24.72174072265625,10.14646339416504,-79.78278666486507,40.45897032035688,263.2229600000381,0.01325598731637,0.0148155763745307,-0.7373859882354736,0.6751790046691895,0.0192441571968783,0.0162801873018438,0.0321056235111743,0.0313535965979099,0.0747785717248916,-0.0682147219777107,-0.099577644020319,-0.2708275704458356,-9.811080565452576,14928.0
17.6,1.2000000476837158,189.0,24.52266502380371,13.231751441955565,-79.78278666101573,40.45897021466151,263.2318911004066,0.014829252846539,0.0160066876560449,-0.7373594641685486,0.6751481294631958,0.033569329290098,0.0126379566842153,0.0343724790250454,0.062930904328823,0.0095984730869531,0.0767894759774208,-0.0090277914761099,-0.5050180955976248,-9.86039013504982,14928.0
17.8,1.2999999523162842,189.0,24.29479217529297,16.99294090270996,-79.78278660859345,40.45897013455578,263.23934668779367,0.0169173516333103,0.0178485829383134,-0.7373075485229492,0.6751094460487366,0.023586292069411,0.014564399224774,0.0357776790616489,0.0505847074091434,-0.0120889153331518,-0.0804080665111541,-0.0645076022716239,-0.4369542030617594,-9.79421894967556,14928.0
17.9,1.2999999523162842,193.0,24.2071475982666,18.662813186645508,-79.78278659374251,40.45897011291246,263.2427794086933,0.0179294515401124,0.0186134595423936,-0.7374298572540283,0.6749290823936462,0.0324738704859455,0.0116714997578743,0.0362656172602034,0.1136186271905899,0.0859114825725555,-0.0149330096319317,0.0108075731433928,-0.7245016673952341,-9.881641255617144,14928.0
18.0,1.399999976158142,191.0,24.07568359375,20.58714294433593,-79.78278661199096,40.45897010174365,263.24606374382967,0.0183200817555189,0.0190506856888532,-0.737391471862793,0.6749484539031982,0.0109045026788109,0.0181264024343323,0.0408274545799497,0.0616170354187488,-0.0896279290318489,0.0342772901058197,-0.0354544093832373,-0.6488549959659576,-9.89536467075348,14928.0
18.21,1.399999976158142,190.0,23.84029769897461,24.165441513061523,-79.7827866810655,40.45897000083196,263.24807078123087,0.0097020557150244,0.0165010709315538,-0.7353320717811584,0.6774365901947021,-0.0055858690824,0.0345048527556075,0.0638160088136913,-0.1501069664955139,-0.1029392182826995,-0.0002665415522642,0.0146432643849402,-0.5601155316084624,-9.92453642964363,14928.0
18.3,1.5,188.0,23.70883178710937,26.51916694641113,-79.78278662715759,40.45897000421468,263.25560570240015,0.003126147435978,0.012259786017239,-0.7321169376373291,0.6810615062713623,0.0070189377238613,0.0557817258320297,0.1020061938915207,0.0209481604397296,-0.0113447057083249,-0.1252487301826477,0.1209568734280765,-0.4419721738994122,-10.248679168224337,14928.0
18.5,1.5,187.0,24.06942367553711,20.45991516113281,-79.78278646180172,40.45896981324529,263.2900389480591,-0.0082587450742721,0.0094794947654008,-0.7275156974792479,0.6859759092330933,-0.0139695228313016,0.1120235822424169,0.3097802642512062,-0.0832686722278595,-0.0872005373239517,0.0471353083848953,0.0278089556470513,-0.3866328824311495,-10.857809350490571,14928.0
18.6,1.5,187.0,24.05189323425293,20.14979553222656,-79.78278630330487,40.45896982392645,263.32330298900604,-0.0107921175658702,0.0046311155892908,-0.7272021174430847,0.6863230466842651,-0.0157524902866272,0.134998175952484,0.3459158957252179,0.0706863328814506,0.1458094418048858,0.0611995905637741,0.0266505811130628,-0.2751992595009506,-10.327968581914902,14928.0
18.8,1.600000023841858,187.0,23.955486297607425,21.81966781616211,-79.78278579829427,40.458969938190535,263.37860101938253,0.0005987182375974,-0.0056951898150146,-0.7286603450775146,0.6848512887954712,-0.0502898671898254,0.1664201381627457,0.2614763446623857,0.007731344550848,0.095323771238327,0.0787495151162147,0.085269945859909,-0.1161125192139297,-9.528253667950633,14928.0
18.9,1.5,180.0,23.917924880981445,22.408098220825195,-79.78278559998495,40.45896997774877,263.4022113728523,0.007420243229717,-0.0074041578918695,-0.7295953035354614,0.6837989091873169,-0.0566102443725896,0.1684967803649464,0.2126759920013646,0.0836319029331207,0.0303338076919317,0.0874167382717132,0.0324299165303818,0.0347648216597735,-9.402801071405412,14928.0
19.1,1.5,181.0,23.808996200561523,23.48158836364746,-79.78278544379094,40.458970124975,263.4226958203316,0.0133352549746632,-0.0069377953186631,-0.7308272123336792,0.6823970079421997,-0.0508350447461707,0.1127766219116987,0.1404197972845232,0.1755523830652237,0.1106801033020019,-0.0243864972144365,0.2084994858317077,-0.0831599598191678,-9.705730696320538,14928.0
19.2,1.5,178.0,23.835289001464844,23.50544357299805,-79.78278528813749,40.45897020423585,263.4271744537353,0.0133864460512995,-0.0041977567598223,-0.7306239604949951,0.682636022567749,-0.0816165748681591,0.1192882601600763,0.1363980247586927,-0.0662071481347084,-0.0220538657158613,-0.0689922496676445,0.1334355077147483,0.1420409828983247,-9.718621467947964,14928.0
19.4,1.600000023841858,177.0,23.775190353393555,24.332427978515625,-79.7827850291702,40.45897032736574,263.45835966348653,0.0076499353162944,-0.0004723306046798,-0.7299937009811401,0.6834110021591187,-0.0809932762984959,0.1122860035377691,0.1765944513132489,-0.0607324428856372,-0.0089387986809015,-0.1045438349246978,0.1608590587601065,-0.0214276516623795,-9.937049471139908,14928.0
19.6,1.600000023841858,176.0,23.78896331787109,23.82351493835449,-79.78278497700626,40.45897044518054,263.48362046957016,0.0027492225635796,-0.0009656253969296,-0.7289170622825623,0.6845958232879639,-0.0735794519235583,0.090385309408413,0.1893735792591574,0.1355772465467453,-0.0572799071669578,0.1418371796607971,0.1239739270694554,-0.091678622122854,-9.894257208108902,14928.0
19.71,1.600000023841858,174.0,23.690052032470703,26.01820373535156,-79.78278467845628,40.45897042634078,263.5044665384293,0.0036468154285103,-0.0018087594071403,-0.7287791967391968,0.6847367286682129,-0.1086859888762473,0.1218167161016182,0.2044092288446281,0.0222900006920099,0.116828091442585,-0.1229309737682342,0.1999511671811342,0.1577174411527812,-9.962599464654923,14928.0
19.81,1.5,174.0,23.78645896911621,23.71219062805176,-79.78278452806835,40.45897051507855,263.5263119983673,0.0061986814253032,-0.0019091743743047,-0.7286622524261475,0.6848425269126892,-0.1193993012605067,0.1320877270262856,0.2337791363488544,-0.0898118317127227,-0.043626844882965,0.0282715391367673,0.0953635282907635,0.012390048969537,-10.065885851383207,14928.0
20.0,1.600000023841858,174.0,23.646228790283203,25.80350685119629,-79.78278445422994,40.45897082300525,263.5686997818947,0.0105583248659968,-0.0006825812743045,-0.7287877798080444,0.6846579313278198,-0.1317537776303235,0.0926792493600788,0.249275317267445,0.1254582703113556,0.1358646303415298,0.0376762002706527,0.1920487648621201,0.0816410176455974,-10.023666615486146,14928.0
20.1,1.600000023841858,176.0,23.88036346435547,21.74015045166016,-79.78278433272116,40.458970936333735,263.59589159965515,0.012978590093553,-5.745762609876692e-05,-0.728897750377655,0.6844995617866516,-0.1416314482611664,0.1029772229845435,0.2853916781254859,-0.0822668224573135,0.0021067997440695,-0.056650336831808,0.0563727685622871,-0.0369770608842372,-10.044375114440918,14928.0
20.31,1.600000023841858,176.0,23.522275924682607,28.690000534057607,-79.78278431586209,40.45897101081118,263.62702286720275,0.0186730623245239,-0.0009044319158419,-0.7292588353157043,0.6839824914932251,-0.1272126713555795,0.0651370351997309,0.0605460373743309,-0.0219723787158727,0.0739635825157165,-0.0427955202758312,0.1327748271636664,-0.0835757242608815,-8.757066149711608,14928.0
20.5,1.600000023841858,178.0,23.380794525146484,29.6760196685791,-79.78278415276715,40.45897125684202,263.6533289003372,0.0165023934096097,-0.0036578692961484,-0.7294020652770996,0.6838763952255249,-0.0912643777285888,0.0615156229144305,0.1222588478677967,0.1217637658119201,-0.047709584236145,0.114897683262825,0.105952114071697,-0.0238934042304754,-9.513554352521895,14928.0
20.6,1.600000023841858,180.0,23.21427154541016,32.538658142089844,-79.78278407481254,40.458971337788064,263.67059433937067,0.0157793071120977,-0.0033206706866621,-0.7293679714202881,0.6839315295219421,-0.0987721934329909,0.0631119231986746,0.2210191616486282,-0.0722251385450363,-0.0613328553736209,-0.119324080646038,0.1947183842584491,-0.0458284663036465,-10.628895535469056,14928.0
20.71,1.600000023841858,183.0,23.2180290222168,33.620101928710945,-79.78278381979352,40.45897136447997,263.71026856184,0.0142332902178168,-0.0032206701580435,-0.7293557524681091,0.6839789152145386,-0.073487548438508,0.0781817741259682,0.3689487393807416,-0.0078819124028086,0.006307209841907,-0.0527736395597457,0.196340200882405,-0.0906927724275738,-11.06873479127884,14928.0
20.9,1.7000000476837158,183.0,22.88122749328613,37.72321701049805,-79.78278365976175,40.45897145746171,263.8175569820404,0.0131418444216251,-0.0034748225007206,-0.7301636338233948,0.6831371188163757,-0.0579236338160771,0.0769809853630254,0.7244801886641176,0.0038868598639965,-0.0141736315563321,0.0944589748978614,0.2709155527688563,-0.1399003081116825,-11.712858220338822,14928.0
21.01,1.7000000476837158,186.0,22.83865737915039,40.01332473754883,-79.78278345764171,40.458971436386015,263.8901329088211,0.0117489770054817,-0.0034243324771523,-0.7303563952445984,0.6829566955566406,-0.0567676229740504,0.0929558395072627,0.9293696750455072,-0.0231939982622861,-0.0264943670481443,-0.027547039091587,0.2276262946799397,-0.0190963896224275,-12.032155956029891,14928.0
21.22,1.7999999523162842,189.0,22.841161727905277,37.07117080688477,-79.78278329763559,40.458971466975925,264.1240950870514,0.0129803316667675,-0.004684429615736,-0.7307724356651306,0.6824817657470703,-0.0497593659158459,0.0933344707466864,1.426608287075789,-0.0290521271526813,-0.0368202105164527,0.0585816986858844,0.3377983260154724,-0.2394952836446464,-12.30534488797188,14929.0
21.4,1.8999999761581416,195.0,22.72597312927246,38.66947555541992,-79.78278317634852,40.45897150849846,264.4562053728104,0.0132417017593979,-0.0037826420739293,-0.7308499813079834,0.6823992729187012,-0.0444019066988654,0.1049585703076956,1.8747212432970664,0.0706066861748695,-0.1206357255578041,-0.0553338602185249,0.32391162738204,-0.0858733967877924,-12.086281292438509,14929.0
21.5,2.0,197.0,22.71720886230469,39.82248306274414,-79.78278313932512,40.4589715095253,264.6481505680084,0.0114812115207314,-0.0013227105373516,-0.7304831147193909,0.6828330159187317,-0.0442181653044911,0.0998156233071058,2.082713428773465,-0.0253254733979702,-0.124970830976963,-0.0014516102382913,0.3184516070410609,-0.1217674619704485,-12.072219908237455,14929.0
21.6,2.299999952316284,201.0,22.66837882995605,40.554046630859375,-79.78278308614541,40.45897151853389,264.8685761737824,0.0070766829885542,-0.0004463286313693,-0.7302407622337341,0.6831530928611755,-0.0475794619978281,0.0916518881797926,2.3184836538942726,-0.105377584695816,-0.0924091339111328,0.0700764805078506,0.2060717036202549,-0.1871185022592544,-12.10999876856804,14929.0
21.81,2.400000095367432,203.0,22.98264312744141,35.32973098754883,-79.78278299736006,40.45897153741016,265.36218989372253,0.0003239892248529,-0.0010009008692577,-0.7297773361206055,0.6836840510368347,-0.0189758111407692,0.0682945281124094,2.732040345354444,0.0522296652197837,0.0628395453095436,-0.0481433756649494,-0.0048313635739032,0.214953112564981,-11.953957632780076,14930.0
22.0,2.5999999046325684,207.0,22.988903045654297,35.266117095947266,-79.78278278485867,40.45897155810742,265.924083595276,0.00384186883457,0.0023185932077467,-0.7293521761894226,0.6841238141059875,-0.019082738718422,0.0944061814520202,2.970426323350542,0.113789789378643,0.0938728526234626,-0.0541669875383377,0.0381474678916856,0.0492585663450881,-11.52794353365898,14930.0
22.1,2.700000047683716,209.0,23.184223175048828,31.99793815612793,-79.78278265596742,40.45897157372068,266.22544467926025,0.0047621722333133,0.0030911494977772,-0.7293862104415894,0.6840786337852478,-0.0347868240963603,0.1135910508077168,3.061036832562428,0.0987437143921852,0.1241180971264839,-0.0073096151463687,0.0768321304488927,0.0513792463950812,-10.814668593406678,14931.0
22.2,2.900000095367432,213.0,23.16669464111328,31.576494216918945,-79.78278178285841,40.45897121287235,266.66652381896967,0.0056274472735822,0.0018771740142256,-0.7294932007789612,0.683962345123291,-0.0207624090213868,0.1668347497491631,3.183212376142688,0.1680211126804351,0.1430487930774688,-0.0209591295570135,0.1019968381337821,0.0474243450444191,-10.52108340382576,14931.0
22.4,3.0,214.0,23.447153091430664,27.234825134277344,-79.78278133376975,40.45897119734122,267.30681980133056,0.0078842565417289,-0.0034886316861957,-0.7296352386474609,0.6837822198867798,-0.027107118363922,0.2222395703547297,3.188502819807359,0.0665664002299308,0.1224052309989929,0.0164152644574642,0.1833368520811199,-0.0346170332841575,-9.725767934918403,14932.0
22.5,3.0999999046325684,217.0,23.14165306091309,32.23649215698242,-79.78278066821879,40.45897094564211,267.7084239768982,0.0103465523570776,-0.0074534881860017,-0.7295914888381958,0.6837643980979919,-0.0114041954310435,0.2673072792015151,3.1742597275896194,0.1123262047767639,0.1050686314702034,0.0192130729556083,0.2568991190381348,-0.2817228700965643,-9.448308781385425,14932.0
22.7,3.2000000476837163,220.0,23.162939071655277,31.22661590576172,-79.78277972984145,40.45897072007289,268.4157995033264,0.014304663054645,-0.0087113380432128,-0.7290933728218079,0.6842092871665955,-0.0186743633555976,0.3396983372091076,3.18682264726048,0.0721853747963905,-0.0622322484850883,0.0213919468224048,0.3911813583970069,-0.2406955342926085,-9.83366719007492,14933.0
22.9,3.400000095367432,223.0,23.25934600830078,30.049753189086918,-79.78277918788706,40.45897068993307,269.05503547668457,0.015882208943367,-0.0067942510358989,-0.7284599542617798,0.6848706603050232,-0.0402327442639713,0.3244796790970937,3.1532482877410444,0.0207272041589021,-0.0668606534600257,0.111197754740715,0.3353629972413182,-0.2696929730661213,-9.796500533223153,14934.0
23.0,3.400000095367432,224.0,23.20050048828125,30.145174026489247,-79.78277864274935,40.45897058178654,269.4173277664184,0.0149193946272134,-0.0081329327076673,-0.7285273671150208,0.6848059296607971,-0.0475878654211795,0.3288035591837373,3.132392603561523,-0.0543304830789566,-0.0370162427425384,0.0489748269319534,0.3355827794596553,-0.2045073724351824,-9.522970708608629,14934.0
23.1,3.400000095367432,228.0,23.17170333862305,30.892641067504893,-79.78277837655946,40.45897057172052,269.73161113739013,0.0140021396800875,-0.0093860626220703,-0.7288747429847717,0.6844395399093628,-0.0358840483102517,0.3233295936028982,3.1206328261490324,-0.0054000141099095,-0.0144076934084296,0.0524591691792011,0.3216003326699138,-0.1361106088757515,-9.629405820965768,14934.0
23.31,3.400000095367432,231.0,23.26310157775879,29.07963752746582,-79.78277776639935,40.45897060218831,270.3613866615296,0.0168598927557468,-0.0113159529864788,-0.7285900712013245,0.6846489906311035,-0.0306119628568161,0.3056225336571017,3.0713534445718182,0.0700785294175148,0.0973246172070503,0.0580564551055431,0.275871305577457,-0.096602854784578,-9.57157334983349,14935.0
23.4,3.400000095367432,232.0,23.43713760375977,26.61458778381348,-79.7827775402472,40.45897060365208,270.6677287864685,0.0195573568344116,-0.0118199558928608,-0.7283892035484314,0.6847825050354004,-0.0387895494334575,0.3081607881518321,3.035343502894398,0.0365424454212188,0.0980579182505607,0.0606200881302356,0.2233906447514892,-0.0750892216432839,-9.44451920092106,14935.0
23.6,3.400000095367432,234.0,23.080303192138672,32.27624893188477,-79.78277724869038,40.458970824922574,271.18011177062994,0.0230394676327705,-0.0114235198125243,-0.7283118367195129,0.6847631335258484,-0.0669573416486527,0.2688814821927354,2.8816577371453063,0.0287952311336994,0.0081038996577262,0.0006238620262593,0.3264948541671038,0.0091691833175718,-9.486668270230291,14936.0
23.8,3.400000095367432,238.0,23.211767196655277,29.795297622680664,-79.78277696107794,40.45897105822261,271.7426451492309,0.0218748096376657,-0.0110829388722777,-0.7283730506896973,0.6847418546676636,-0.0863672869172405,0.2413378707670226,2.8913498362752383,-0.0294637642800807,-0.0010649918112903,-0.0950100570917129,0.3546921380236745,-0.0700104488991201,-9.789421309232711,14936.0
23.9,3.400000095367432,239.0,23.1641902923584,30.336017608642567,-79.78277684638559,40.45897107976473,272.03363788604736,0.020507413893938,-0.0106235481798648,-0.7282813191413879,0.6848890781402588,-0.0794540081068143,0.2243874257760297,2.912417294537373,-0.080662228167057,0.0065077450126409,0.0031871206592768,0.2484630486555397,-0.1552670740708709,-9.997458225488662,14937.0
24.0,3.400000095367432,244.0,23.230548858642567,29.35795021057129,-79.782776596858,40.45897098696175,272.36487186431884,0.0212100017815828,-0.0110692372545599,-0.728082001209259,0.6850724220275879,-0.0686508068299319,0.1987621118675516,2.918373620321355,-0.0501485951244831,0.0450520478188991,0.0150429364293813,0.2792520377598703,-0.1311872350238263,-9.884431546926498,14937.0
24.2,3.5,245.0,23.00392723083496,32.53070831298828,-79.7827762879207,40.45897097490163,273.0248535919189,0.023617373779416,-0.0126012749969959,-0.7274518013000488,0.6856364011764526,-0.0711606492869529,0.1859052930779797,2.947825618321786,-0.0948814302682876,-0.0363798961043357,-0.0474695488810539,0.4077312444895506,-0.0642918445821851,-10.01414500951767,14938.0
24.4,3.5999999046325684,247.0,23.19799613952637,29.89071846008301,-79.78277623135209,40.4589709844996,273.6240795898437,0.0213567055761814,-0.0130822034552693,-0.727676272392273,0.6854634284973145,-0.0469492560465625,0.1621435946737208,3.018498638601637,-0.033677440136671,-0.0006736572831869,0.0128188431262969,0.3611056930571795,-0.0752288193488493,-10.181205807924274,14938.0
24.5,3.5,248.0,23.139148712158203,29.80324935913086,-79.78277607800287,40.45897090630878,273.955740814209,0.0209427587687969,-0.0134535348042845,-0.7277541160583496,0.6853863000869751,-0.037412741118268,0.1394720789011517,3.007166218508178,0.0028966981917619,0.036811176687479,0.0058965240605175,0.3673295059427619,-0.0739199475338682,-9.886920121908188,14938.0
24.6,3.5999999046325684,249.0,23.205507278442383,29.453371047973643,-79.78277609228223,40.458970900852,274.25637901306146,0.0216884929686784,-0.0127719417214393,-0.727927029132843,0.6851925253868103,-0.0326459533206542,0.1278390980592411,2.997110774483471,-0.051087774336338,0.0311494078487157,0.0137205496430397,0.2793170149438083,-0.0192459001857787,-9.696196811199188,14939.0
24.81,3.5999999046325684,249.0,23.22554016113281,27.94253349304199,-79.7827759547127,40.45897069030504,274.9018067169189,0.0236232057213783,-0.0123972566798329,-0.7283333539962769,0.6847034692764282,-0.0115729923569073,0.097987770730282,2.946808714499761,0.058901097625494,0.067753680050373,-0.0146914813667535,0.2847392293810845,-0.0573365724273026,-9.535948603749276,14939.0
24.9,3.5999999046325684,249.0,23.260597229003903,28.66614532470703,-79.78277601075919,40.45897066547359,275.1957205581665,0.0243089608848094,-0.0130893252789974,-0.7284976840019226,0.684491753578186,-0.0173560097220122,0.0884598442327663,2.921899824417417,-0.003363718977198,-0.0110309058800339,0.0306538436561822,0.4119845822453499,-0.103843133021146,-9.52389807701111,14940.0
25.1,3.5999999046325684,251.0,23.052757263183597,31.0914363861084,-79.78277582578386,40.458970459528096,275.8503550338745,0.0227439701557159,-0.0137253990396857,-0.7285981178283691,0.6844261288642883,-0.0029643840431948,0.0838198235208615,2.8913799630905963,0.0190948359668254,-0.00713258003816,0.070006288588047,0.3848739303275943,-0.2488813621178269,-9.569927943348883,14940.0
25.31,3.700000047683716,251.0,23.03147315979004,32.04565048217773,-79.782775807714,40.45897024231744,276.5052098083496,0.020606217905879,-0.0127980802208185,-0.7286612391471863,0.6844446063041687,0.0063121446522892,0.0612546630434232,2.940021700151516,-0.0377264060080051,-0.0449990332126617,0.0312942154705524,0.4296472665667534,-0.1545579529926181,-9.747543550729752,14941.0
25.4,3.700000047683716,251.0,23.159181594848643,30.176982879638672,-79.78277592151741,40.45897020530671,276.7993210601806,0.0199346784502267,-0.0108066275715827,-0.7286248207092285,0.6845375895500183,0.0063118046277115,0.0429947016690069,2.9480802740779075,-0.0314989574253559,-0.0220315866172313,0.0274653900414705,0.3175872423872352,-0.1691042540967464,-9.83193524479866,14941.0
25.5,3.700000047683716,249.0,23.265605926513672,28.348073959350582,-79.78277572307508,40.458970142323615,277.1403178024292,0.0203354191035032,-0.0094009172171354,-0.7284688949584961,0.6847125291824341,-0.0068802764153177,0.0407208991329893,2.9622384373191086,-0.0455556325614452,0.0033654284197837,-0.0341336205601692,0.2661825606040656,-0.0208806674787774,-9.721177285909652,14942.0
25.7,3.700000047683716,247.0,23.249330520629893,28.332170486450195,-79.78277585584219,40.45896992139558,277.77301681518554,0.0221735276281833,-0.0083653386682271,-0.7283157706260681,0.6848317384719849,0.0036733398361232,0.0093563670820258,2.9634706065055414,0.0421088077127933,0.0100407535210251,-0.1036228388547897,0.3489212285354733,-0.0356642330624163,-9.724021371603012,14942.0
25.8,3.700000047683716,247.0,23.22679328918457,28.92060089111328,-79.7827759934862,40.45896987123938,278.0679663467406,0.0223921947181224,-0.0086075477302074,-0.7284093499183655,0.6847221255302429,0.0056525558098335,0.0053218630442834,2.9376964817792794,0.0306306816637516,-0.0515354685485363,-0.0056729856878519,0.3626874014362693,-0.2040533909574151,-9.60617366373539,14943.0
26.0,3.700000047683716,246.0,23.195491790771484,29.055782318115234,-79.78277615384509,40.45896967546055,278.69376552581787,0.0199532508850097,-0.009117410518229,-0.728061318397522,0.6851609349250793,0.0172295698955329,-0.0042199154582377,2.9232908286390256,-0.0331964194774627,0.050867460668087,-0.0166514012962579,0.2810097656026483,-0.1263126762863248,-9.603496808409693,14943.0
26.2,3.5999999046325684,247.0,23.204256057739247,28.690000534057607,-79.78277639173628,40.45896954547239,279.3129643249512,0.0185013059526681,-0.0098811388015747,-0.7272658944129944,0.6860353350639343,0.0330228578127197,-0.0112036943337275,2.9300266061268085,-0.0160468239337205,-0.0730433538556099,-0.1018513143062591,0.3580234429612756,-0.1101884035393595,-9.654588609337807,14944.0
26.3,3.5999999046325684,246.0,23.204256057739247,28.76156616210937,-79.78277655247956,40.45896948308322,279.60506141662603,0.0175951309502124,-0.0094426879659295,-0.7271967530250549,0.6861386299133301,0.0403276014501019,-0.0152410270737338,2.9177148345312136,0.0295340958982706,-0.0886113941669464,-0.0016145447734743,0.3856692612916232,-0.2854731645807624,-9.69874912083149,14944.0
26.4,3.5999999046325684,246.0,23.05776596069336,31.0914363861084,-79.78277671182441,40.45896942589053,279.89618194580083,0.0152121353894472,-0.0087941549718379,-0.7272357940673828,0.6861627697944641,0.0318866887594851,-0.0159977082506708,2.913435601338457,-0.0460383258759975,-0.0479703694581985,-0.0135437799617648,0.4036156086623669,-0.1553126823529601,-9.74355458021164,14944.0
26.61,3.5,246.0,23.162939071655277,29.723730087280277,-79.78277696194087,40.458969225004346,280.50888526916503,0.013667095452547,-0.0060455030761659,-0.7278189659118652,0.6856065392494202,0.0340708464346214,-0.0372106812638436,2.965334938630708,-0.038525566458702,0.0242475811392068,-0.06876040995121,0.2620703782886267,-0.0700870748329907,-9.904530766010287,14945.0
26.8,3.5,244.0,23.24306869506836,28.149280548095703,-79.7827771605877,40.45896904752933,281.11623085021967,0.014869637787342,-0.0071470323018729,-0.7278584837913513,0.6855289936065674,0.0311708847561375,-0.0178212314671804,3.007599123046872,0.0362244360148906,-0.0209747534245252,-0.1086906641721725,0.3590395794063806,-0.0367121454700827,-9.917320965528493,14946.0
26.9,3.5,244.0,23.22303581237793,28.419639587402344,-79.78277728313087,40.458968992642056,281.4171990203857,0.0153282154351472,-0.0068291826173663,-0.7274024486541748,0.6860059499740601,0.0327049710150745,-0.0062242725976001,3.01228900421232,0.0507219694554805,-0.0518949516117572,0.023461053147912,0.4150663938000799,-0.2676504492759705,-9.939566112756731,14946.0
27.0,3.5,244.0,23.109100341796875,30.002042770385746,-79.78277746017595,40.45896888516327,281.7164276885986,0.0149580147117376,-0.0069218100979924,-0.7269278764724731,0.6865159869194031,0.0263945100405236,-0.0074285048984798,2.994633201746496,-0.0476745888590812,-0.0231507867574691,-0.1288738697767257,0.3963159080967307,-0.0229957744013518,-9.803227754831315,14946.0
27.21,3.5,244.0,23.246826171875,28.419639587402344,-79.78277772194502,40.45896880383478,282.31759918212884,0.0137909669429063,-0.0067891678772866,-0.7266764044761658,0.6868079304695129,0.0319669401408886,-0.0166502700946414,2.9811344594911384,0.0770653635263443,0.0257774759083986,-0.0519026592373848,0.3823505644127727,-0.1585467042401433,-9.7566231071949,14947.0
27.3,3.400000095367432,245.0,23.1003360748291,29.85891151428223,-79.78277783844969,40.45896875568288,282.6144379425049,0.014641486108303,-0.0058798505924642,-0.726453959941864,0.687034010887146,0.0253142986787656,-0.0045571695681228,2.9616670808399337,-0.0390214547514915,-0.0780780985951423,-0.127068817615509,0.3627078301459551,-0.0349139622040092,-9.6480993694067,14947.0
27.51,3.400000095367432,244.0,23.155426025390625,29.190961837768555,-79.78277790395133,40.45896871339839,283.222098236084,0.015781931579113,-0.0056027579121291,-0.7263393402099609,0.6871322393417358,0.0052104820108304,0.0198647143214065,2.9685877385901187,0.0119389658793807,0.0120383305475115,-0.0945450365543365,0.3593237175419926,-0.0904433795437216,-9.760761181712152,14948.0
27.6,3.400000095367432,243.0,23.072790145874023,29.85891151428223,-79.7827779796797,40.4589686683254,283.51881683349615,0.0145400501787662,-0.0050837728194892,-0.7267211675643921,0.6867598295211792,0.0084281914857977,0.0308109513321259,2.9699576162278785,-0.0227044336497783,-0.1302672922611236,0.0236547887325286,0.3880903009325266,-0.1894828969985246,-9.875687620639802,14948.0
27.8,3.299999952316284,243.0,22.95635032653809,31.902517318725582,-79.78277772209259,40.45896874416973,284.13284385681146,0.0123750688508152,-0.0030922177247703,-0.7276395559310913,0.6858411431312561,-0.0255337205613303,0.0631150191880686,2.9985050322141813,-0.0204787012189626,0.0338269844651222,-0.0193120148032903,0.2635647987015545,-0.1310730315931141,-9.934131710529329,14949.0
27.91,3.299999952316284,244.0,23.205507278442383,28.880842208862305,-79.7827777284972,40.458968727838005,284.4341744232177,0.0114795919507741,-0.0041020093485713,-0.727651059627533,0.6858392357826233,-0.0263797585926157,0.0670731736630276,3.0249660608917943,-0.056800477206707,0.0346599966287612,0.0033773377072066,0.2739618973061442,-0.1252146514132619,-9.999329334497451,14949.0
28.11,3.299999952316284,245.0,23.15667724609375,29.008071899414062,-79.78277769885138,40.45896846524115,285.04294860839843,0.0137895429506897,-0.0038434951566159,-0.7274585962295532,0.6860023140907288,0.0190116661452514,0.0855629605411999,3.039342005753152,0.0215671900659799,-0.0376456566154956,-0.1161735728383064,0.3923145487904549,0.0410246680118143,-9.957569689750672,14950.0
28.2,3.2000000476837163,245.0,23.11160469055176,29.326141357421875,-79.78277785459406,40.45896824685738,285.3500527191161,0.0146965337917208,-0.0033592085819691,-0.7270183563232422,0.6864525675773621,0.0389817736115943,0.0575235883099026,3.0384799988391413,0.1208261102437973,-0.0130475750192999,-0.0184569396078586,0.3427030070498585,-0.2203518833220005,-9.931774113178252,14950.0
28.4,3.2000000476837163,245.0,22.857437133789062,33.071426391601555,-79.78277788510285,40.45896810844408,285.9600895690918,0.014125089161098,-0.0056124627590179,-0.7267952561378479,0.6866859793663025,0.0315693283054012,0.0811784435103229,3.072127222696193,-0.0524432659149169,0.0121972523629665,0.0176577568054199,0.3950675275549293,-0.1464148463867604,-10.090999642610551,14950.0
28.6,3.0999999046325684,245.0,23.03022003173828,31.03577423095703,-79.78277784268289,40.45896797137271,286.5876587677002,0.0127739775925874,-0.0062688225880265,-0.7273207902908325,0.6861501336097717,0.0569897335250797,0.0881210140417739,3.1515746754866183,0.0316409431397914,0.0137819601222872,-0.0131578696891665,0.4079788740724325,-0.2205982703715563,-10.246163696050646,14951.0
28.7,3.0999999046325684,244.0,23.22804450988769,26.63049125671387,-79.78277779889754,40.45896802774844,286.89239776611333,0.014401476830244,-0.0059498217888176,-0.7274249792098999,0.6860103011131287,0.0303830543065031,0.0855021089386771,3.1378406359452127,0.000444836798124,0.0323801897466182,-0.0413963794708252,0.3445869068428874,-0.0584145614504814,-10.013919306993484,14951.0
28.8,3.0999999046325684,245.0,23.142906188964844,28.57072448730469,-79.78277779771908,40.45896797035017,287.2058228302002,0.0145979216322302,-0.0057029840536415,-0.7274601459503174,0.6859709620475769,0.0192833825691345,0.0999946416286096,3.124138938093357,-0.0398222804069519,0.0114183127880096,0.0366903021931648,0.298404610902071,-0.1950514197349548,-9.705182227492331,14952.0
29.0,3.0999999046325684,245.0,23.07028579711914,29.58059883117676,-79.78277774220737,40.45896790049832,287.83137214660644,0.012793768197298,-0.0057796989567577,-0.727502167224884,0.6859617829322815,0.0146058584728883,0.0949974042697948,3.098196946789148,-0.0531108155846595,-0.0478647537529468,-0.1040227487683296,0.3395515405386686,0.0482465001102536,-9.791973618865011,14952.0
29.2,3.0999999046325684,244.0,23.05025291442871,29.93842887878418,-79.78277758579848,40.45896778625625,288.4636162567138,0.0122482599690556,-0.0065792151726782,-0.7273757457733154,0.6860985159873962,0.0297416115304527,0.108581980010189,3.089115826824988,-0.0097260316833853,0.0099190520122647,-0.0572642236948013,0.2813747597672045,-0.1127016373258084,-9.824173650741578,14953.0
29.31,3.0999999046325684,243.0,23.05025291442871,29.668067932128903,-79.78277755128137,40.458967733951376,288.77211463928217,0.012610537931323,-0.0066007166169583,-0.7273970246315002,0.6860693097114563,0.0256109321200685,0.1180102872466757,3.0799733707815022,-0.0426822640001773,0.0585252195596695,0.0726778432726859,0.2924317166581749,-0.1087140737939626,-9.694568361639975,14953.0
29.5,3.2000000476837163,242.0,23.02896881103516,30.57457160949707,-79.78277749704087,40.458967666308325,289.4077023315429,0.0129951350390911,-0.0054769492708146,-0.7271935343742371,0.6862876415252686,0.0164679023698945,0.1170722390340522,3.1065227383493013,0.0201137419790029,0.0196734648197889,-0.0761738866567611,0.3113050304353237,0.0151311962585896,-9.769558902382853,14954.0
29.6,3.2000000476837163,241.0,23.13664436340332,27.43362045288086,-79.78277745306298,40.45896762192079,289.7191590118408,0.0131787024438381,-0.0060686999931931,-0.7268826961517334,0.6866083741188049,0.0160228393865843,0.1218902896589401,3.1190732552185008,0.0536755882203578,-0.0062695196829736,-0.0692901983857154,0.3274205414950848,-0.0662321974150836,-9.906087294816974,14954.0
29.7,3.0999999046325684,240.0,23.18797874450684,28.10951995849609,-79.78277740953976,40.45896764699057,290.0399006652832,0.0134500851854681,-0.0059643066488206,-0.7266264557838441,0.6868752241134644,0.0023906534756727,0.1264959485394932,3.110676830542714,0.0556002482771873,-0.0643930360674858,0.0261908508837223,0.3454992552101612,-0.2559072302654385,-9.692424187660215,14955.0
29.91,3.0999999046325684,241.0,23.08531188964844,29.501081466674805,-79.78277730141578,40.45896758414087,290.65870178222656,0.016340285539627,-0.0041653122752904,-0.7265706062316895,0.6868849396705627,-0.0067657220274118,0.1407677576737618,3.0935222791777885,0.0328476168215274,0.0532972104847431,0.056581862270832,0.3483312444761396,-0.1315054514631629,-9.78050839841366,14955.0
30.0,3.0999999046325684,241.0,22.98514747619629,30.74155807495117,-79.7827773476199,40.458967768659896,290.9889878082276,0.0169036500155925,-0.0036766454577445,-0.7266717553138733,0.6867669820785522,-0.047321262008167,0.114420589518329,3.1093584291915963,-0.0077120843343436,0.0345869436860084,-0.0898950472474098,0.3087158102542162,-0.0451657392270863,-9.821467559337616,14955.0
30.2,3.0999999046325684,242.0,23.102840423583984,28.65819358825684,-79.78277723485583,40.45896773854128,291.6239060211182,0.0157258436083793,-0.0064257499761879,-0.7269216775894165,0.6865103244781494,-0.030250601815581,0.125792669127003,3.1498086228151045,-0.0447014644742012,-0.0425593554973602,-0.1107141003012657,0.3461007509753108,-0.0084978864155709,-9.916764310598374,14956.0
30.4,3.0999999046325684,242.0,23.14916610717773,27.47337913513184,-79.78277716265653,40.45896768427827,292.2512863922118,0.0125264292582869,-0.0077415183186531,-0.7265098094940186,0.6869983077049255,-0.0084440623753058,0.1251291336045872,3.104737578655846,-0.0560098439455032,0.0058447276242077,-0.0636656880378723,0.2933127824217081,-0.1307117833010852,-9.738835292458536,14957.0
30.5,3.0999999046325684,240.0,23.125375747680664,28.451446533203125,-79.78277701374293,40.4589676807984,292.5763768005371,0.0117546608671545,-0.0096877170726656,-0.7261433601379395,0.6873746514320374,-0.0044395578811297,0.1254949187805389,3.0783585864624103,-0.0731077119708061,0.1020432040095329,-0.0702526643872261,0.2246982100792229,0.0974216294288635,-9.4387930226326,14957.0
30.6,3.0999999046325684,240.0,23.11410903930664,28.14132881164551,-79.7827769701438,40.45896765989448,292.88268173217773,0.0128089124336838,-0.01102383621037,-0.7258525490760803,0.6876427531242371,0.0154696559587949,0.127692821481938,3.0439239474002613,0.090531900525093,-0.0527858063578605,0.1151041015982628,0.3067696741595864,-0.2086457210406661,-9.536025786995886,14957.0
30.8,3.0999999046325684,239.0,23.174205780029297,27.02012825012207,-79.78277671310407,40.458967502210655,293.5175064849853,0.0156242456287145,-0.009780216962099,-0.725681483745575,0.6877838969230652,-0.0065344374818903,0.1545233308574565,3.045460286985933,0.0060268999077379,0.0606397651135921,0.0254965014755725,0.2536273643374443,-0.0455686809075996,-9.681115087866782,14958.0
30.9,3.0999999046325684,241.0,23.14916610717773,27.680124282836918,-79.78277665830423,40.458967488619145,293.82172286987304,0.0168081019073724,-0.0087943123653531,-0.7258483171463013,0.6875932812690735,-0.0084096766057271,0.1509647575441135,3.0231505766546336,0.1100588664412498,-0.0155955292284488,0.0569373145699501,0.3489679697155952,-0.2063357602246106,-9.592369557023051,14958.0
31.1,3.0999999046325684,242.0,23.195491790771484,26.9724178314209,-79.7827765145992,40.45896739518813,294.45189369201665,0.0161629822105169,-0.009498338215053,-0.7265399098396301,0.6868685483932495,-0.0315422886084726,0.1509110718058334,3.010373609734617,-0.094487115740776,0.0511059239506721,-0.0029087762814015,0.2376178340613842,-0.0793190700374543,-9.590110777616502,14959.0
31.3,3.0999999046325684,243.0,22.96135711669922,30.72565460205078,-79.78277646563406,40.45896746871093,295.0761097717285,0.0178378913551569,-0.0089792003855109,-0.7267181277275085,0.6866454482078552,-0.0226122542757564,0.1354236488089968,2.978497856934958,-0.0616191700100898,-0.0965070202946662,-0.018916081637144,0.3294789806753397,-0.1169206866435706,-9.504362529516223,14960.0
31.4,3.0999999046325684,243.0,22.863698959350582,32.54661178588867,-79.7827764400057,40.45896745319993,295.37412155151367,0.0158147253096103,-0.008835052140057,-0.7267369031906128,0.686677098274231,-0.0182391803770713,0.1305425673662581,2.9783604020508734,0.0226776339113712,-0.0456932261586189,0.0248253811150789,0.3261377720162272,-0.1704366883635521,-9.755743101239204,14960.0
31.5,3.0999999046325684,243.0,22.946332931518555,30.980112075805664,-79.78277630554643,40.45896748884888,295.6978443908692,0.0128897093236446,-0.0078617371618747,-0.7268147468566895,0.6866676211357117,-0.0144255478222846,0.1220441652345451,3.0341057955664064,0.0664227753877639,-0.0631732791662216,0.0587173253297805,0.3144547062367201,-0.2305020467005669,-10.046192429065703,14960.0
31.7,3.0999999046325684,241.0,22.96010589599609,30.48710060119629,-79.78277624405031,40.45896748902333,296.3165692138672,0.0130659854039549,-0.0081637864932417,-0.726603627204895,0.6868842244148254,0.0059203381463059,0.0872676624110241,3.0993807771623207,0.1094505116343498,0.0586955025792121,0.0206648465245962,0.2495227651298046,-0.1847728917002678,-10.129524607658386,14961.0
31.9,3.0999999046325684,238.0,22.85243034362793,32.029747009277344,-79.7827762297302,40.45896746650696,296.9399937438965,0.014249425381422,-0.0104314535856246,-0.7266251444816589,0.6868072152137756,-0.0122473582694785,0.1146197122528436,3.1287736431992634,0.0261920075863599,-0.0517668537795543,0.0475491844117641,0.2910441723838449,-0.2101749872043729,-10.008991273641588,14961.0
32.01,3.0999999046325684,238.0,22.927553176879893,31.02782249450684,-79.7827761856237,40.45896745401635,297.247790222168,0.012551786378026,-0.008288349956274,-0.7264547348022461,0.6870496869087219,-0.0045618587232705,0.1095876208311759,3.1354120350906545,0.0737723857164383,-0.0590176545083522,0.1126577854156494,0.2946740873157978,-0.2733123812824488,-10.138842730522155,14962.0
32.1,3.2000000476837163,239.0,23.006431579589844,29.73168182373047,-79.78277618310092,40.45896744650267,297.56323516845697,0.0124100688844919,-0.0050157215446233,-0.7263520956039429,0.6871924996376038,-0.0074197192574548,0.0928623662975338,3.16099284485746,0.1256929785013198,-0.0853789374232292,0.1532833278179168,0.3140849063917995,-0.2567713756486773,-10.062365827560424,14962.0
32.31,3.2000000476837163,236.0,22.932559967041016,30.868785858154297,-79.78277627824208,40.458967568082365,298.1731327819824,0.0120737291872501,0.0002035973157035,-0.7260713577270508,0.6875134110450745,-0.0462313886583966,0.0656748509383314,3.0847421121953955,-0.0227758921682834,0.0443978309631347,0.0100533086806535,0.2464801481924951,-0.1672928415052592,-9.561986255049709,14963.0
32.4,3.2000000476837163,235.0,23.05025291442871,28.96831321716309,-79.78277626756349,40.45896756038135,298.4807499694824,0.011976296082139,-0.0031151913572102,-0.7253462672233582,0.6882729530334473,-0.0490006405289163,0.066864498734024,3.0681869065557312,-0.0774127393960952,0.1103089302778244,0.0308502297848463,0.2771922464109957,-0.188789673037827,-9.607329658269885,14963.0
32.6,3.2000000476837163,233.0,22.99766731262207,29.58059883117676,-79.78277627542063,40.458967500967496,299.0974949645996,0.0151565633714199,-0.0102883512154221,-0.7238076329231262,0.6897585988044739,-0.0144673203055061,0.0925618588271608,3.0255555637746583,0.0175110939890146,0.0001420751796104,-0.027152307331562,0.3155725842341781,-0.0902563325967639,-9.624391833543775,14964.0
32.8,3.2000000476837163,230.0,22.769794464111328,33.755279541015625,-79.78277628367483,40.45896756181988,299.71356857299804,0.0180996190756559,-0.0085197314620018,-0.7240114808082581,0.6894978284835815,-0.0335695068649593,0.116262363144442,3.016481115161875,0.0373516790568828,-0.0042094164527952,0.0741408392786979,0.3147041630744934,-0.0344931454025208,-9.651993615031245,14964.0
32.9,3.2000000476837163,231.0,22.90501594543457,30.638185501098643,-79.78277629087425,40.458967563249296,300.01599395751947,0.0171842649579048,-0.0043314602226018,-0.7248330116271973,0.6886966824531555,-0.0451735451437594,0.1054007969548928,3.0353263799506807,0.0118087762966752,-0.0508602038025856,0.0437192469835281,0.2470392333716154,-0.1124427975341677,-9.954685842990877,14965.0
33.0,3.2000000476837163,228.0,23.018951416015625,28.538917541503903,-79.78277631055053,40.45896759172111,300.3317478942871,0.0158226564526557,-0.0010672911303117,-0.7256329655647278,0.6878992319107056,-0.0594488113292779,0.0728796004239028,3.0653639168687032,-0.0341518260538578,-0.0301679708063602,0.0258840546011924,0.225094030033797,-0.1233301212172955,-9.9633771443367,14965.0
33.2,3.2000000476837163,226.0,22.94883728027344,29.898670196533203,-79.78277634969861,40.45896761520474,300.9494961547852,0.012314916588366,0.0001398892782162,-0.7266682386398315,0.6868782043457031,-0.0563008877480657,0.0397973698625092,3.0217016919325945,-0.0147997085005044,-0.0211359541863203,-0.0575627014040947,0.2812594234384597,-0.1632076660171151,-9.554047490358354,14965.0
33.3,3.2000000476837163,222.0,23.15041732788086,26.61458778381348,-79.78277636293372,40.45896760884994,301.2511585998535,0.011421425268054,-0.0013307654298841,-0.7268480062484741,0.6867020726203918,-0.0485068019549541,0.0431756140384386,3.0079469303970767,-0.0326712131500244,-0.0649185627698898,-0.0378524623811244,0.2423317314125597,-0.1477964338101446,-9.641622408628464,14966.0
33.51,3.2000000476837163,221.0,23.01644897460937,29.087589263916016,-79.78277639152195,40.458967628102215,301.8608387756348,0.011500597000122,-0.0037223582621663,-0.7265245318412781,0.6870341897010803,-0.0423095232854985,0.0561934387781039,2.9610087301447807,-0.0679927691817283,0.0630986914038658,0.0973199903964996,0.2431662204489112,-0.1599212384596467,-9.514122701883316,14966.0
33.7,3.2000000476837163,219.0,22.887487411499023,31.02782249450684,-79.7827763405667,40.45896758094924,302.46615493774414,0.0135559616610407,-0.0051323780789971,-0.7258015275001526,0.6877514123916626,-0.0234148597305898,0.0789258358435514,2.954906039855656,0.0738354250788688,-0.040630042552948,0.1050845682621002,0.2650531526282429,-0.0450208744592964,-9.607626112103464,14967.0
33.8,3.2000000476837163,218.0,22.90251159667969,30.78131675720215,-79.78277632495849,40.45896757614624,302.762266998291,0.0141999423503875,-0.0043555088341236,-0.7256819605827332,0.6878700256347656,-0.0232699196361646,0.090923439775659,2.9643100413313883,0.105105884373188,-0.0096743050962686,0.0917004570364952,0.2586369480751455,-0.2808962199836969,-9.863694981336597,14967.0
33.9,3.0999999046325684,218.0,23.0715389251709,27.958436965942383,-79.78277630791672,40.45896757162021,303.0598515319824,0.0146801033988595,-0.0031153170857578,-0.725948691368103,0.6875851154327393,-0.0298623051560851,0.0923385502615528,2.9818857443740323,0.0979369133710861,0.0264897625893354,0.0877302438020706,0.2345086319558322,-0.3002935904636979,-9.913306267261506,14968.0
34.1,3.0999999046325684,216.0,22.98264312744141,29.23072052001953,-79.7827762170088,40.45896765470393,303.65947998046875,0.0141273951157927,-0.0027460793498903,-0.7264245748519897,0.6870954632759094,-0.0679027480413038,0.0883646406010079,2.9687572006252303,-0.0560348555445671,0.0461378954350948,-0.0105210673063993,0.2286780991405249,-0.0851537050399929,-9.707388966679574,14968.0
34.2,3.0999999046325684,217.0,22.76854133605957,33.01576614379883,-79.78277617051512,40.458967677197215,303.9632061767578,0.0144943343475461,-0.0024939903523772,-0.7265244722366333,0.6869832277297974,-0.0547881862832791,0.0905757561677535,2.9697857063863413,0.0321660079061985,0.0037575548049062,-0.0867862999439239,0.3019651997834444,-0.0736158512067049,-9.778170096874238,14968.0
34.4,3.0,218.0,22.990154266357425,28.80927658081055,-79.78277610636202,40.45896767420796,304.56186950683593,0.0162699930369853,-0.0001142958935815,-0.7264763116836548,0.6869989633560181,-0.0543315430279412,0.1070918343601422,3.0056850758855487,0.0675436034798622,-0.022886287420988,-0.1144586130976677,0.3282554508000612,-0.1169003492966294,-9.914093302488329,14969.0
34.6,3.0,223.0,22.925048828125,30.224693298339844,-79.78277606331031,40.45896770926163,305.1613987731933,0.0161520820111036,0.0007091665174812,-0.7261769771575928,0.6873177289962769,-0.0544254629412347,0.1026123772117319,2.9855384360024466,-0.0156933963298797,-0.0574714913964271,-0.033125102519989,0.335684776827693,-0.1852314230427146,-9.832308297157288,14970.0
34.7,3.0999999046325684,223.0,22.74224853515625,32.920345306396484,-79.78277600532432,40.45896776989501,305.4623593139648,0.0156184947118163,-0.0016061994247138,-0.7259103059768677,0.6876101493835449,-0.0557481685088002,0.108810837539509,2.9847660414412105,-0.0034732806961983,0.0358938127756118,0.0170049425214529,0.2894212228618562,-0.2800507491454482,-9.861322181224825,14970.0
34.8,3.0,226.0,22.8962516784668,30.79722023010254,-79.78277594712749,40.45896775301686,305.7630108642578,0.0137670468538999,-0.0043879807926714,-0.7259297966957092,0.6876170635223389,-0.0308095063713625,0.1241192176847599,3.020302148535301,0.0360009111464023,0.0330649837851524,0.0920983627438545,0.291603495106101,-0.2812586377188563,-10.063782023191454,14970.0
35.0,3.0,228.0,22.730979919433597,32.49094772338867,-79.78277582028575,40.45896781310596,306.366083984375,0.0135289635509252,-0.0075863935053348,-0.725996196269989,0.6875238418579102,-0.0070488457138557,0.1273072920103429,3.0346406343300374,-0.0070673637092113,0.0046362853609025,0.0113272201269865,0.3501303596422076,-0.1853790104202926,-10.008802993297577,14971.0
35.2,3.0999999046325684,235.0,23.04023742675781,27.886871337890625,-79.78277566633709,40.45896787800933,306.96860015869134,0.0138262249529361,-0.0086064934730529,-0.7257961630821228,0.687717080116272,-0.0172115905796213,0.1392112269519266,3.044945467692707,-0.0005969608901068,0.0216308552771806,-0.0750711858272552,0.3289208639413119,-0.1438287599477917,-10.110197221040726,14971.0
35.3,3.0999999046325684,236.0,22.92254447937012,30.272403717041016,-79.78277561473466,40.45896786597444,307.2726620483398,0.0147245805710554,-0.0079384502023458,-0.7257766127586365,0.6877270936965942,-0.014244040061472,0.139923623444195,3.028251237340549,0.003897032700479,0.0585568994283676,0.0162359662353992,0.2315990209020674,-0.0380085188616067,-9.648196433186534,14972.0
35.4,3.0,241.0,22.856185913085927,31.29022979736328,-79.7827755650689,40.45896785036843,307.57455337524414,0.0149700865149498,-0.0070180441252887,-0.7257748246192932,0.6877336502075195,-0.0162835650248322,0.1376502488299174,3.0102218063325195,-0.0173008162528276,-0.0111386878415942,-0.0758571773767471,0.2731283584423363,-0.0403657233528792,-9.677051857709888,14972.0
35.6,3.0,242.0,22.96511459350586,29.78734588623047,-79.78277544791632,40.458967805789264,308.17672622680664,0.0117838475853204,-0.0077008991502225,-0.7256307005882263,0.6879404187202454,-0.0110154491576608,0.1267826387049525,3.025872451497411,-0.0739574059844017,-0.0488707013428211,-0.1733412146568298,0.2723899281956256,0.1320815027039498,-9.902709943056108,14973.0
35.7,3.0999999046325684,245.0,22.856185913085927,30.510955810546875,-79.78277537291035,40.45896778014246,308.4822186279297,0.0099072912707924,-0.0069068348966538,-0.7255703806877136,0.6880420446395874,0.0077617511688734,0.121055969300393,3.0229776894101867,0.0279216580092906,-0.0648921877145767,-0.0527818910777568,0.2918525134027005,0.0345592006668448,-9.874117058515552,14973.0
35.91,3.0999999046325684,246.0,22.97513008117676,29.03192710876465,-79.78277528172903,40.45896772369158,309.08927047729486,0.0104858251288533,-0.0051775467582046,-0.7255786657333374,0.6880398988723755,0.019746688629642,0.1053841603933203,3.0381423488613444,0.0781175941228866,0.0011694290442392,0.0941392555832862,0.248590828590095,-0.186885015629232,-9.86283544063568,14974.0
36.0,3.0999999046325684,246.0,22.98514747619629,28.7218074798584,-79.78277514478492,40.458967736111326,309.3988255310058,0.0120553961023688,-0.0057815467007458,-0.7256827354431152,0.6878995895385742,0.0055415398669443,0.1136347184007176,3.0258619483036497,0.0237612575292587,0.0288768988102674,0.0787724703550338,0.2985851436853409,-0.1695368749648332,-9.704862384796144,14974.0
36.2,3.0999999046325684,245.0,22.79233169555664,31.306133270263672,-79.78277508337523,40.45896775637005,310.0145672607422,0.0140651613473892,-0.007418458815664,-0.725757896900177,0.6877664923667908,0.0121575197578047,0.1140846532677124,2.9710143562546003,0.1542890071868896,0.0741351768374443,-0.0203959438949823,0.3051956402510405,-0.1412937270104885,-9.509014574289322,14975.0
36.3,3.0999999046325684,245.0,22.81236457824707,31.91046905517578,-79.78277504554056,40.45896772536953,310.31198394775384,0.0152301555499434,-0.0074379169382154,-0.7257090210914612,0.687792956829071,0.0024612987761511,0.1218657568375593,2.9757802788218606,0.0118398237973451,-0.0552678517997264,0.0120508382096886,0.3307036434486508,-0.1112267045862972,-9.800411735773087,14975.0
36.52,3.0999999046325684,246.0,23.05150604248047,26.93265914916992,-79.78277480206906,40.45896766660624,310.9286984252929,0.0149083426222205,-0.0064682373777031,-0.7261505126953125,0.6873437762260437,0.007936607771721,0.1362787504570359,3.032479665256393,0.0445423424243927,-0.0552735291421413,0.0826349332928657,0.2952497091516852,-0.1530526969581842,-9.96268717288971,14975.0
36.6,3.0999999046325684,245.0,22.90251159667969,29.93842887878418,-79.78277475395352,40.45896762533089,311.23146713256835,0.0152492215856909,-0.0055308672599494,-0.7264577746391296,0.6870197057723999,0.0118205279657553,0.1330430251870882,3.0105833173658114,0.0558983832597732,-0.00368197937496,0.0802375748753547,0.3065462008863687,-0.1824197893962264,-9.65262394487858,14976.0
36.8,3.0,244.0,22.9638614654541,28.85698699951172,-79.7827746620906,40.45896761380807,311.83773696899414,0.0148491580039262,-0.007135625462979,-0.7263408899307251,0.687137246131897,-0.000391374402956,0.1168927702762118,2.978069854611685,-0.0668697729706764,0.0359336286783218,0.032787088304758,0.2270124101266265,-0.0926734162308275,-9.619942102432251,14976.0
37.0,3.0,241.0,22.78857421875,31.71962547302246,-79.782774588892,40.45896771438616,312.4363201904297,0.0139789814129471,-0.0072367507964372,-0.7263005375862122,0.6871970295906067,-0.0067836573654669,0.1070150614440533,2.943432416706953,0.0546584613621234,-0.0356796942651271,-0.0215515438467264,0.2613138399459421,0.0421795753296464,-9.596459099650383,14977.0
37.1,3.0,240.0,22.87621879577637,30.407583236694336,-79.78277456788194,40.45896769431692,312.7315510559082,0.0127265350893139,-0.0069502457045018,-0.7265629768371582,0.6869469285011292,-0.0070500945238469,0.1042165297049423,2.9553023301949883,0.0127529669553041,-0.0638095363974571,0.0053894370794296,0.3214347102865577,-0.0895975158456713,-9.8792848277092,14977.0
37.21,3.0999999046325684,239.0,22.826135635375977,31.329988479614247,-79.78277442204838,40.45896776632336,313.0359181213379,0.0120657067745924,-0.0062195672653615,-0.7267721891403198,0.6867445111274719,-0.0058807665660718,0.1057919172296982,2.9714627733009737,0.0425635203719139,-0.0520276352763176,0.0314725041389465,0.319858702942729,-0.1263933221809566,-9.902877173423768,14978.0
37.4,3.0,238.0,22.856185913085927,31.00396728515625,-79.78277435439287,40.45896773097016,313.6313046264648,0.0114666121080517,-0.0043842014856636,-0.7264207005500793,0.6871406435966492,-0.013713802160529,0.1049836728429739,2.9672910136757387,0.0524426996707916,-0.0629137456417083,0.0414335578680038,0.2898873373121023,-0.2198707122914493,-9.729807191491126,14978.0
37.6,3.0,236.0,22.998918533325195,28.39578437805176,-79.78277436274686,40.45896788841834,313.9271572875976,0.0109906140714883,-0.0037005105987191,-0.725896418094635,0.6877062916755676,-0.0256183916212232,0.0892638820127383,2.961755266353588,0.0621618665754795,0.0242877583950758,-0.0132834315299987,0.2561578200012445,-0.1921159712970256,-9.792858302593231,14978.0
37.7,3.0,235.0,22.955097198486328,28.5468692779541,-79.7827742413934,40.45896800946289,314.5221241760254,0.0134606240317225,-0.0038846812676638,-0.7252954244613647,0.6882951855659485,-0.0388747659565437,0.0969096946225941,2.9598129142952168,-0.0110950320959091,0.0877018496394157,0.1336160600185394,0.2594190314412117,-0.1788423897698521,-9.72478443324566,14979.0
37.8,3.0,236.0,22.92880439758301,29.83505630493164,-79.78277420011818,40.45896800824978,314.81695831298833,0.0150390267372131,-0.0052615101449191,-0.7253828048706055,0.6881612539291382,-0.0439924361200635,0.1076841729313114,2.930824070676794,-0.0400977581739425,0.1000485122203826,0.0406310148537159,0.2474383241124451,-0.0430771000916138,-9.536872463822368,14979.0
38.01,3.0,236.0,22.85243034362793,30.009994506835927,-79.78277406284519,40.45896808721435,315.40824783325195,0.0165327377617359,-0.0072879972867667,-0.7259284257888794,0.6875329613685608,-0.0266451182336041,0.1352273489743847,2.911680223023044,0.0113582117483019,-0.0604756101965904,0.0805227383971214,0.3290264792740345,-0.2061445014551282,-9.750984637141226,14980.0
38.1,3.0,239.0,23.03397750854492,27.179162979125977,-79.78277401391591,40.45896807472697,315.6998509216308,0.0163427107036113,-0.0078917816281318,-0.7260137796401978,0.6874406337738037,-0.0248936169047002,0.1340645672420615,2.9073042109639573,-0.0012855073437094,-0.0211014002561569,0.048187680542469,0.2700730969011784,-0.1814755188859999,-9.740678334832191,14980.0
38.3,3.0,238.0,22.79733848571777,30.98806381225586,-79.78277387942289,40.458968124832175,316.28521240234375,0.0133730396628379,-0.0105353072285652,-0.7255626320838928,0.687945544719696,0.000984650804648,0.1309097604364482,2.8817322032542885,0.0422678403556346,0.0113700265064835,0.0703803524374961,0.2681736106239259,-0.2822388868778944,-9.716997111439705,14981.0
38.5,3.0999999046325684,239.0,22.632068634033203,34.017688751220696,-79.78277376331174,40.45896811045858,316.8775967407226,0.0077514639124274,-0.0102304704487323,-0.7253169417381287,0.6882954239845276,0.0325881987067773,0.1195643153015707,2.9378219680379,0.0601698905229568,-0.065050333738327,0.0724777206778526,0.3033744335733354,-0.1786938522197306,-9.86266704082489,14981.0
38.6,3.0,239.0,22.940073013305664,28.538917541503903,-79.78277372836105,40.458968090466094,317.17423141479486,0.0064506204798817,-0.0086701633408665,-0.7251353859901428,0.6885215640068054,0.0296359103083077,0.104391402226157,2.9905925107702074,0.1028505340218544,-0.0296142492443323,-0.0546654313802719,0.2442402808740735,0.011417419463396,-10.247851202487944,14982.0
38.7,3.0,240.0,22.93756866455078,28.97626495361328,-79.78277359857488,40.45896815677472,317.4721974182129,0.00734194368124,-0.0075824414379894,-0.7249313592910767,0.6887403130531311,0.0302507396717141,0.0984920661358152,2.9930548624403706,0.0716210305690765,0.0078672477975487,-0.084314227104187,0.2619959176518023,0.005142754074186,-9.976560276746753,14982.0
38.9,3.0,240.0,22.66837882995605,32.73745346069336,-79.78277350277106,40.45896812904097,318.0678700256348,0.0099569326266646,-0.0068695787340402,-0.7248346209526062,0.6888167262077332,-0.003546627283323,0.1117206397054039,2.9716504953282463,0.0226054061204195,-0.0109383622184395,0.0454571731388568,0.2963959461450577,-0.1316502340044826,-9.850424140691755,14983.0
39.1,3.0999999046325684,240.0,22.94758605957031,28.729759216308597,-79.7827733957602,40.45896817039471,318.66485107421875,0.0111724035814404,-0.0068435706198215,-0.7247629761695862,0.6888737678527832,-0.0051661110096391,0.1131489449448164,2.997178547233243,0.0368619412183761,-0.0188185814768076,0.0583322308957576,0.3191183723509312,-0.1402926014643162,-10.061960030794143,14983.0
39.2,3.0,239.0,22.69967842102051,32.642032623291016,-79.78277334718369,40.458968288511706,318.9595555114746,0.0111956615000963,-0.0073542012833058,-0.7249097228050232,0.6887136101722717,-0.014334170785748,0.1110610814643534,2.965295096502349,0.031423632055521,-0.0030819391831755,0.0677386745810508,0.3012246499210596,-0.176503466963768,-9.676439654231071,14983.0
39.3,3.0999999046325684,237.0,22.76478576660156,31.17095375061035,-79.78277330435263,40.45896828795507,319.25641525268554,0.0107662333175539,-0.0080135967582464,-0.7253473997116089,0.6882522106170654,-0.0156249800538601,0.1151298322655204,2.9751728454934026,0.0508745461702346,0.0529459081590175,0.0596581809222698,0.3314348012208938,-0.1949853644706309,-9.876306256055832,14984.0
39.5,3.0999999046325684,238.0,22.773550033569336,31.29022979736328,-79.78277319995448,40.45896843387508,319.85727966308593,0.0109205711632967,-0.0077994707971811,-0.7257232069969177,0.6878558993339539,-0.0231597547762865,0.1146127988374602,3.0174521856124987,0.1025478541851043,0.0259136538952589,-0.0226359516382217,0.2553825340233743,-0.2253536829538643,-10.008252185583116,14984.0
39.6,3.0999999046325684,237.0,22.87246322631836,30.24854850769043,-79.78277315794844,40.458968450752685,320.16012847900384,0.0121704526245594,-0.0070248446427285,-0.7256885170936584,0.6878799200057983,-0.0347631964765847,0.1141302437489407,3.0340042228511765,0.065555565059185,0.0117297265678644,-0.0300820264965295,0.2895602038688958,-0.1811323421448469,-9.989143484830857,14985.0
39.81,3.0,239.0,22.75226593017578,32.363719940185554,-79.78277303184174,40.45896855713379,320.7685040283203,0.0144109288230538,-0.0081748329102993,-0.7251819968223572,0.6883578896522522,-0.0409549103115668,0.1183914809151944,3.0553884035703085,0.0452012978494167,0.017400324344635,-0.0534499548375606,0.3089247385784984,-0.1109117589332163,-9.989253412485125,14985.0
39.9,2.799999952316284,236.0,22.73348426818848,31.775287628173828,-79.78277300137722,40.45896856469149,321.0749844360352,0.0155811235308647,-0.0077504948712885,-0.724683940410614,0.688861608505249,-0.0334640627210064,0.1176428080032604,3.0725084298244765,0.0572457648813724,0.0022322402801364,-0.0151079017668962,0.2510762789659202,-0.0570755033846944,-10.029966405630113,14986.0
40.1,2.799999952316284,234.0,23.07404327392578,25.81941032409668,-79.78277299586928,40.45896873009512,321.6870945739746,0.0118232583627104,-0.0063224895857274,-0.7236840128898621,0.6900012493133545,-0.040062147352083,0.0875319563173128,3.066545462532944,-0.0123059451580047,-0.0824401155114173,-0.00701440917328,0.2223734484985471,0.0582027643360197,-9.632808900475505,14986.0
40.2,2.799999952316284,229.0,22.863698959350582,30.05770492553711,-79.78277299343925,40.45896886264046,321.9903515625,0.0079313833266496,-0.0053358445875346,-0.7232975959777832,0.6904703974723816,-0.0306222444486625,0.0585631959012598,2.986236999898645,0.0541787147521972,-0.0646802559494972,0.0485396273434162,0.1605729837343096,-0.1954381216876209,-9.218345975875854,14986.0
40.4,2.799999952316284,226.0,22.92254447937012,28.65819358825684,-79.78277302240696,40.45896889785409,322.5778645324707,0.0032563651911914,-0.0034344964660704,-0.7226641774177551,0.6911831498146057,-0.0319514578903457,0.0304857805511072,2.914423807979743,-0.0704516693949699,-0.0048201489262282,-0.0117341913282871,0.1113994806725532,-0.0824646071065217,-9.547133157849313,14987.0
40.5,2.799999952316284,220.0,22.754770278930664,31.17890548706055,-79.78277304215071,40.45896906901618,322.89343154907226,0.0040742638520896,-0.0026542153209447,-0.7224447727203369,0.691411554813385,-0.0270580350709068,0.0165910840657549,2.9398386790853777,-0.0419920235872268,0.0287029258906841,-0.0526572093367576,0.1221530675701797,-0.0064376930706202,-9.582781292796136,14987.0
40.71,2.799999952316284,218.0,22.85368156433105,29.88276672363281,-79.7827730261033,40.458969198249655,323.4944142150879,0.0082037253305315,-0.0007724341121502,-0.722757875919342,0.691052258014679,-0.0505783228764971,0.0351215815971748,2.978586170146438,-0.0839274376630783,-0.0039791110903024,0.0431789830327034,0.1318311413750052,-0.0779782212618738,-9.86743135213852,14988.0
40.9,2.799999952316284,214.0,22.670881271362305,32.538658142089844,-79.78277299620798,40.45896923332747,324.0890492248535,0.0081395450979471,0.0010567510034888,-0.7233763933181763,0.6904051303863525,-0.0603758735944314,0.0582194335540694,2.9749333228156614,-0.0817732363939285,-0.0173423010855913,-0.0191196780651807,0.1993182609044015,-0.0328675692016258,-9.736542014479635,14989.0
41.0,2.799999952316284,212.0,22.740997314453125,31.40155601501465,-79.78277292762631,40.458969363951184,324.3957852172852,0.0070565091446042,0.0018475988181307,-0.7237419486045837,0.6900322437286377,-0.0589616597760789,0.0648260709726365,3.012523270584432,-0.0568394996225833,-0.0148840164765715,-0.0216155610978603,0.1533451491035521,-0.1435893438756466,-9.919028352499009,14989.0
41.1,2.900000095367432,210.0,22.658361434936523,33.127090454101555,-79.78277288117202,40.458969374053176,324.69789398193365,0.00737956026569,0.0022967378608882,-0.7239730358123779,0.6897850632667542,-0.0569594074174378,0.0656921440570255,3.0293869535846376,-0.0602547824382782,0.0463955104351043,-0.0146924182772636,0.1619356773421168,-0.0555574565660208,-9.95706916809082,14989.0
41.31,2.900000095367432,207.0,22.90501594543457,28.554821014404297,-79.78277277886941,40.458969540413335,325.3078945922852,0.0149873448535799,0.0021272990852594,-0.7245437502861023,0.6890625953674316,-0.0649126332522111,0.0889811471764066,3.066106744711253,0.0372915528714656,0.07122503221035,-0.0034293157514184,0.2136006881296634,-0.0993106272630393,-9.963387669324876,14990.0
41.4,3.0999999046325684,202.0,22.79358291625977,30.69384765625,-79.78277271518851,40.458969542760094,325.61383712768554,0.0172259509563446,0.0015753097832202,-0.7247068881988525,0.6888402104377747,-0.0777053167578078,0.1120188925364337,3.0481092995051737,-0.0306899975985288,0.052780631929636,0.005556053481996,0.3044899361394346,-0.1662361582741141,-9.696123721003534,14990.0
41.6,3.2000000476837163,201.0,22.86870574951172,29.02397537231445,-79.78277253212741,40.45896970749651,326.209891204834,0.0148578574880957,-0.0012468458153307,-0.7243766784667969,0.6892431974411011,-0.0821160257377715,0.1273783960094,2.987042729095798,-0.1216987743973732,0.0402458645403385,-0.0706774070858955,0.2046543750911951,-0.0547601293260231,-9.493469166755675,14991.0
41.8,3.2000000476837163,205.0,22.723468780517567,31.68781852722168,-79.78277236776019,40.45896984654803,326.80652893066406,0.0128802368417382,-0.0017363071674481,-0.7241191864013672,0.689552366733551,-0.0483570856372018,0.1319159775995144,2.957892632260498,0.0075448844581842,-0.0759722590446472,-0.0950557440519332,0.2636332111246884,-0.0416232584416866,-9.527016397118569,14991.0
41.91,3.2000000476837163,207.0,22.85493278503418,29.143251419067383,-79.78277228691877,40.45896983898979,327.10251129150384,0.0122427633032202,-0.0006501993048004,-0.7240661382675171,0.68962162733078,-0.0409464942068403,0.1317205920489627,2.9558679388095563,0.0521377399563789,-0.0700770169496536,-0.0472880415618419,0.2790341193415224,-0.1401004564762115,-9.733909597992897,14992.0
42.0,3.2000000476837163,211.0,22.85493278503418,28.97626495361328,-79.7827720867632,40.458969932784186,327.40484893798833,0.0123850991949439,0.0003349789476487,-0.7239512205123901,0.689740002155304,-0.0390018420360648,0.1360756247614137,2.958516321168853,0.1037905886769294,-0.0497644320130348,-0.0076785869896411,0.2174026208370924,-0.2526364074647427,-9.657757215499876,14992.0
42.2,3.2000000476837163,213.0,22.82238006591797,30.21674156188965,-79.7827719030092,40.45897004011752,328.0012997436524,0.0155111104249954,-0.0006500756717287,-0.7237005233764648,0.6899395585060121,-0.0594174764229521,0.1402500880332161,2.9541946909416548,-0.0250595677644014,0.063035100698471,-0.0836695805191993,0.2816959729045629,-0.0330509936157614,-9.72274726331234,14993.0
42.31,3.299999952316284,213.0,22.71220016479492,31.20276069641113,-79.78277180153722,40.45897003006653,328.2964199829101,0.0164703298360109,-0.002588550094515,-0.7236288785934448,0.6899879574775696,-0.0576228299300586,0.1557939691912437,2.946224272190627,-0.0619052127003669,0.0812829881906509,-0.0062983608804643,0.2432236876152456,-0.0240429741796106,-9.715779721140862,14993.0
42.5,3.2000000476837163,215.0,22.68966293334961,31.66396331787109,-79.7827715382798,40.45897011468353,328.89011657714843,0.0161231886595487,-0.0054481541737914,-0.7236593961715698,0.6899474263191223,-0.0360351209643626,0.1878369570462155,2.999452978625341,-0.0398058556020259,0.0360468551516532,0.0987023338675499,0.2719658588804305,-0.0661408849200233,-10.050639821290972,14993.0
42.7,3.2000000476837163,217.0,22.84491729736328,29.278430938720703,-79.78277129446677,40.45897018302571,329.48504913330083,0.0167987570166587,-0.0052787060849368,-0.7237811088562012,0.6898050308227539,-0.032482192047044,0.1841088237630884,3.0328117424816314,-0.0320121757686138,0.0504188947379589,-0.0069867940619587,0.2500360410287976,-0.094210612680763,-10.0850495159626,14994.0
42.8,3.2000000476837163,218.0,22.667125701904297,33.01576614379883,-79.78277119467991,40.458970151999424,329.78821075439447,0.0201365146785974,-0.0040529570542275,-0.7241539359092712,0.6893324851989746,-0.0238702568924556,0.1795269872623698,3.0199888504536654,0.0118209850043058,-0.0001561168464832,-0.0724029168486595,0.2418956935778261,-0.0277808022173121,-9.696274579167367,14994.0
42.9,3.2000000476837163,220.0,22.50060272216797,34.33575820922852,-79.78277109685645,40.45897011391515,330.0898693847656,0.0214094016700983,-0.0021478766575455,-0.7246438264846802,0.6887876391410828,-0.0398461948786533,0.1887715791825775,3.0132957807979683,-0.0789488554000854,-0.0611842013895511,-0.0499976426362991,0.3064921689592302,-0.1515636304020881,-9.796777106523514,14995.0
43.1,3.2000000476837163,221.0,22.68715858459473,31.878662109375,-79.78277090556224,40.45897019436468,330.6859387207031,0.0161023121327161,-0.0037334624212235,-0.7255532145500183,0.6879675984382629,-0.0222403198239636,0.1562267865207397,3.053886929904265,-0.027855422347784,0.0137059809640049,0.0386286675930023,0.245966671295464,-0.2600841887667775,-9.955558247566223,14995.0
43.3,3.0999999046325684,221.0,22.73974418640137,31.24251937866211,-79.78277077765797,40.45897025821036,331.27893341064447,0.0116478074342012,-0.0074242451228201,-0.7248756885528564,0.6887412071228027,0.0192034294789656,0.1290442818210789,3.035238139721899,0.066680759191513,-0.0217405166476964,-0.0203325506299734,0.2103960119560361,-0.2307000297680497,-9.863907819986345,14996.0
43.4,3.0999999046325684,220.0,22.79733848571777,29.84300804138184,-79.78277072765914,40.45897021583086,331.5825680541992,0.0107872430235147,-0.0078217331320047,-0.7241191267967224,0.6895462870597839,0.0293185836483118,0.1197502932163106,3.032063704659143,0.0649552568793296,-0.0052654193714261,-0.0358549430966377,0.2198834848031401,-0.0658100649900734,-9.81054379105568,14996.0
43.51,3.2000000476837163,215.0,22.77480316162109,29.23072052001953,-79.78277059753849,40.45897032154851,331.8776501464844,0.0114408675581216,-0.0072399750351905,-0.7233718037605286,0.6903259754180908,0.0298781885789417,0.1221635132689812,3.0117798879619517,0.1210758984088897,0.0038979949895292,0.0336388163268566,0.2348324032500386,-0.1276125854160636,-9.718216255903243,14996.0
43.7,3.2000000476837163,213.0,22.767290115356445,29.96228408813477,-79.78277044983847,40.458970328266176,332.4766110229492,0.0132317636162042,-0.0048512290231883,-0.72285395860672,0.6908571124076843,0.0107347841941947,0.1157069964062752,2.9602072787742126,0.0908329784870147,-0.020786065608263,0.0953305587172508,0.20675336105749,-0.2654962253943085,-9.475783093571664,14997.0
43.8,3.0999999046325684,212.0,22.69967842102051,31.16300201416016,-79.78277040809381,40.45897029844063,332.77145660400384,0.0133329713717103,-0.0036454338114708,-0.7230284214019775,0.6906800270080566,-0.0015343716167365,0.1113230127406263,2.9327834073583685,0.0290826149284839,0.000455693952972,0.0885931700468063,0.2225315060466528,-0.2797417055256665,-9.536700555682184,14997.0
44.01,3.0999999046325684,211.0,22.714704513549805,31.13119506835937,-79.78277032471699,40.4589703855434,333.3629864501953,0.0119634084403514,-0.002862210618332,-0.72380131483078,0.6898988485336304,-0.0086972291367009,0.095972182522943,2.9302736184855127,-0.0168363284319639,0.0019334766548126,0.0848278999328613,0.2332698445022106,-0.1471843582391739,-9.662188235521317,14998.0
44.2,3.0999999046325684,207.0,22.82363319396973,29.310237884521484,-79.78277029358209,40.45897035436466,333.65565002441406,0.0118807191029191,-0.0027257141191512,-0.7240848541259766,0.6896032094955444,-0.0089534097652241,0.0909021009474091,2.9203260813956926,-0.0456611104309558,0.0134276961907744,0.0582751780748367,0.2186785198375583,-0.1199334462359547,-9.702833985686302,14998.0
44.31,3.0,207.0,22.509366989135746,34.184677124023445,-79.78277021539134,40.45897038581877,334.2410382080078,0.0111671695485711,-0.0029069094453006,-0.724063515663147,0.689636766910553,0.0089531927312652,0.0885106512149269,2.904101727334338,-0.010662006214261,0.0529159754514694,0.106586754322052,0.1632786000519991,-0.1608382280543446,-9.63610965371132,14999.0
44.4,3.0,206.0,22.602020263671875,33.087329864501946,-79.78277018377015,40.45897034093069,334.53267944335937,0.0118689071387052,-0.0030371895991265,-0.7239555716514587,0.689737856388092,0.0124008338516899,0.0881100267108609,2.93413355908114,-0.0234482772648334,0.0340147577226162,0.0747058168053627,0.1685187102667987,-0.1414400535821914,-10.00406908750534,14999.0
44.6,3.0999999046325684,205.0,22.758525848388672,30.45529365539551,-79.78277010499195,40.45897034832387,335.1326473999024,0.0114614246413111,-0.0011722273193299,-0.7239676117897034,0.6897377967834473,0.0153967475773739,0.0951410583739938,3.044381051007238,0.028961319476366,-0.0195818021893501,-0.030237466096878,0.2157232639566064,-0.0630591692961752,-10.311206953525543,15000.0
44.7,3.0,205.0,22.69467163085937,31.24251937866211,-79.78277012521495,40.45897045977555,335.42269409179687,0.0092103127390146,-0.0019566507544368,-0.723987340927124,0.6897490620613098,0.0013836979562693,0.0824460948993352,3.056481558153944,-0.0335211418569088,0.0050603267736732,-0.0613160468637943,0.156812182534486,0.0051842510327696,-10.098693408966064,15000.0
44.9,3.0,206.0,22.813615798950195,29.397708892822266,-79.78277004107214,40.458970365716254,336.0354336547852,0.0096324514597654,-3.227813431294635e-05,-0.7237483859062195,0.6899967789649963,0.0244773146281354,0.0852142763933462,3.052144749379792,0.0555834881961345,-0.0218352396041154,-0.0464177206158638,0.2159919983334839,0.0353435315564274,-9.68761192917824,15001.0
45.1,3.0999999046325684,209.0,22.826135635375977,28.483253479003903,-79.78276996774848,40.45897036320551,336.6243771362305,0.0119798341765999,0.0016658590175211,-0.7233324646949768,0.6903940439224243,0.0141302706017868,0.0937164462299628,3.014744105502944,0.0518762879073619,-0.0228311885148286,0.1000176444649696,0.2520058766193688,-0.1826390051655471,-9.672485767006872,15001.0
45.2,3.0999999046325684,210.0,22.78231430053711,29.548791885375977,-79.78276993985172,40.458970499146986,336.9144161987305,0.0107530001550912,0.0001032266300171,-0.7234333753585815,0.6903104782104492,0.0047467176312731,0.0893244588417898,3.0017605038703485,0.0377847403287887,-0.0336393676698207,0.0772853717207908,0.2576069244928658,-0.1906928138248622,-9.772427546381952,15001.0
45.3,3.0999999046325684,210.0,22.65335273742676,31.727577209472656,-79.78276988301819,40.4589704447471,337.2140225219726,0.0094753969460725,-0.0025126098189502,-0.7234000563621521,0.6903595924377441,0.0138832681810171,0.098460379542594,2.987423532752152,-0.0328820720314979,-0.0405543558299541,0.0908809006214141,0.2781868577934802,-0.2638227522745729,-9.730456232428551,15002.0
45.5,3.0999999046325684,210.0,22.78481864929199,28.90469741821289,-79.78276978255812,40.45897051147817,337.81317413330083,0.0090687796473503,-0.0085904821753501,-0.723136305809021,0.6905924081802368,0.0274693405364424,0.1114880218822288,3.0335052724033416,0.0337061211466789,0.0052305236458778,-0.0293320585042238,0.2871209830418229,-0.0600316637568175,-10.082099010944368,15002.0
45.6,3.0999999046325684,210.0,22.78481864929199,29.636260986328125,-79.78276972521581,40.45897047232278,338.11764801025384,0.0096065970137715,-0.0091114230453968,-0.7230046987533569,0.6907162666320801,0.0329551140962592,0.1221830462383726,3.0399855052432927,0.0318573601543903,-0.0299012903124094,-0.0695565789937973,0.2530216658860445,0.0009172728192061,-9.883664392232896,15003.0
45.8,3.0999999046325684,212.0,22.697175979614247,30.956254959106445,-79.7827695781904,40.45897048942423,338.71205413818365,0.0104864994063973,-0.0069083664566278,-0.7228979468345642,0.6908407211303711,0.0276691190400554,0.123158284523344,2.974944752338533,0.0546797588467598,-0.0056287245824933,-0.038918949663639,0.1964968148991465,-0.1336446370370686,-9.509513926506042,15003.0
46.0,3.0999999046325684,214.0,22.791078567504893,29.175058364868164,-79.78276944794045,40.45897049774119,339.30832946777343,0.0102188643068075,-0.0062375981360673,-0.723047137260437,0.6906949877738953,0.0131544897099403,0.1163973645622266,2.97386024298656,-0.0489422306418418,0.0090435110032558,-0.013739769347012,0.2072498993016779,-0.1739103912748396,-9.674610060453416,15004.0
46.1,3.0999999046325684,214.0,22.82238006591797,28.39578437805176,-79.78276939371261,40.45897046589015,339.60528076171875,0.0102124791592359,-0.0054893139749765,-0.7231801748275757,0.6905621886253357,0.0042309543038049,0.1174828173946364,2.9632366481302865,-0.07660374045372,0.0037043220363557,-0.0573617368936538,0.1545586838945746,-0.0135715200053527,-9.686405648589137,15004.0
46.2,3.0999999046325684,216.0,22.678394317626957,31.17890548706055,-79.78276934337225,40.4589705913472,339.9017208862305,0.0116143226623535,-0.0046105715446174,-0.7232300043106079,0.690494179725647,-0.0015186552865615,0.1089191939632576,2.9589156534028302,-0.0332534871995449,0.0436194352805614,-0.0150452693924307,0.1476891739480197,-0.0948711653240025,-9.651151031255724,15004.0
46.4,3.0,215.0,22.58448982238769,32.562515258789055,-79.78276924741525,40.45897054355788,340.4929150390625,0.0131423566490411,-0.0046894205734133,-0.7230554223060608,0.690649151802063,-0.0178178559736409,0.1169981269230034,2.9617897847413053,-0.0706351324915885,0.0038022641092538,-0.0691995471715927,0.1753903398290276,-0.1312970987241715,-9.82792405486107,15005.0
46.5,3.0999999046325684,213.0,22.67588996887207,31.329988479614247,-79.78276918496272,40.45897061996904,340.7942684936524,0.0125927813351154,-0.0050857816822826,-0.7228855490684509,0.6908343434333801,-0.0141894866846725,0.1118512337617185,3.0056128710532053,-0.0882281735539436,0.0026335644070059,-0.0368173643946647,0.1654975270293653,-0.0641318775527179,-9.99358853816986,15005.0
46.7,3.0,211.0,22.55694580078125,33.11118698120117,-79.78276909241673,40.45897066015153,341.3908261108398,0.0118140950798988,-0.0066981832496821,-0.7223510146141052,0.691393256187439,4.477926537376463e-05,0.1033516148156929,3.0319272133850763,-0.0295274350792169,0.0480179227888584,0.0294571425765752,0.2219148988835513,-0.171725962869823,-9.978774032592774,15006.0
46.9,3.0,211.0,22.674638748168945,30.980112075805664,-79.78276904032097,40.458970616562425,342.00152099609375,0.0088189942762255,-0.0066779507324099,-0.7217280268669128,0.6920884251594543,0.0122195180095708,0.0964622172992926,3.0704567018310214,0.0553529150784015,-0.0096102487295866,0.0143478782847523,0.2389692169614137,-0.2153980308584869,-10.02064126610756,15007.0
47.01,3.0,211.0,22.46805000305176,34.327808380126946,-79.78276899005931,40.45897073078304,342.29964721679687,0.0093646552413702,-0.0059550562873482,-0.7210524082183838,0.6927917003631592,0.0080057679141011,0.0878277893157204,3.0710466300995902,0.0799294635653495,0.0303312577307224,-0.0174661837518215,0.2095799964666366,-0.2434672241471708,-9.945720891952517,15007.0
47.1,3.0,211.0,22.65085029602051,31.28227806091309,-79.7827689654232,40.45897072358174,342.60812652587884,0.0093978699296712,-0.0065825944766402,-0.7205638885498047,0.6932936906814575,-0.0110652057597365,0.0878102218805034,3.097099553302518,0.0334013663232326,0.000270275020739,0.0080614453181624,0.2293792533874512,-0.2466621975973249,-10.06761428833008,15007.0
47.3,3.0,210.0,22.678394317626957,31.12324333190918,-79.78276893486031,40.45897087820492,343.2201184082031,0.0090107256546616,-0.0084518063813447,-0.721217930316925,0.6925981640815735,-0.0237894981525593,0.0905263564281819,3.120238690185936,0.0957482382655143,-0.0115165598690509,0.1402775943279266,0.2785278235562146,-0.2519131251610815,-9.964441337585448,15008.0
