time,wind_speed,wind_angle,battery_voltage,battery_current,position_x,position_y,position_z,orientation_x,orientation_y,orientation_z,orientation_w,velocity_x,velocity_y,velocity_z,angular_x,angular_y,angular_z,linear_acceleration_x,linear_acceleration_y,linear_acceleration_z,node_ids
0.0,1.100000023841858,201.0,25.66203117370605,-0.0079517737030982,-79.78275048390188,40.45897396538911,267.7436379671097,0.0138095058500766,0.0081878406926989,-0.774760365486145,0.6320511698722839,0.0087005516504604,-0.0006389531011849,0.0074359848614985,-0.000331295072101,0.0002101767458952,0.0034790609497576,0.0456343615846708,-0.3189345505088568,-9.803186824321749,14932.0
0.11,1.100000023841858,199.0,25.66203117370605,-0.0159035474061965,-79.78275049725505,40.458973933897965,267.7411076307297,0.0138186318799853,0.0081892320886254,-0.7747671008110046,0.632042646408081,0.0091061455480608,-0.0005676189227629,0.0047917198191504,0.0068820249289274,0.0054159434512257,0.0035322527401149,0.0446241043321788,-0.3149464936181903,-9.802002178430556,14932.0
0.3,1.100000023841858,199.0,25.645753860473643,-0.0318070948123931,-79.78275050002097,40.45897392631021,267.74157469272615,0.0138052459806203,0.008185101673007,-0.7747784852981567,0.6320290565490723,0.0081147711388323,-0.0007144065718993,0.005084764967471,-0.0056869415566325,0.000855260354001,0.0008644132176414,0.0438274029269814,-0.3140056400746107,-9.802569943070411,14932.0
0.41,1.100000023841858,199.0,25.66328430175781,0.0,-79.78275051161944,40.45897389606222,267.74049882888795,0.013814054429531,0.008200722746551,-0.7747871875762941,0.632017970085144,0.0087191939866476,-0.000512545394316,0.0070461312488081,0.0066346358507871,0.0013838537270203,0.0067147528752684,0.046047997274436,-0.317969942651689,-9.80322950899601,14932.0
0.6,1.100000023841858,200.0,25.65201568603516,-0.0397588685154914,-79.78275051430312,40.45897388874928,267.74119119644166,0.013831271789968,0.0081996927037835,-0.7747905254364014,0.6320135593414307,0.0076608384732587,-0.0006143140129962,0.0073213828219486,-0.0091918837279081,0.0016553091118112,-0.0009520144667476,0.0431757901282981,-0.3080732377991081,-9.80009890973568,14932.0
0.7,1.100000023841858,199.0,25.65952682495117,-0.0238553211092948,-79.78275052477935,40.45897387209443,267.74025456905366,0.0138172889128327,0.0081974519416689,-0.774785041809082,0.6320207118988037,0.0045388922898463,-0.001221712397039,0.0082573389923067,0.0032212643418461,0.0011246589710935,0.0052534462884068,0.0470335134956985,-0.3181897979602218,-9.802547138929366,14932.0
0.9,1.100000023841858,198.0,25.65201568603516,-0.055662415921688,-79.78275052750942,40.45897386836711,267.74107508659364,0.0138340145349502,0.0082024279981851,-0.7747929692268372,0.6320105791091919,0.0036723727329724,-0.0014676079978136,0.0084758849712935,-0.0043953205458819,-0.0011002966202795,-0.0050688022747635,0.0418255858076736,-0.3043811596557498,-9.799063367843626,14932.0
1.0,1.100000023841858,198.0,25.6407470703125,-0.055662415921688,-79.78275054348586,40.45897383829948,267.74045794010163,0.0138256028294563,0.0082059307023882,-0.7747918367385864,0.6320119500160217,0.0049144678280865,-0.0011370610475342,0.0090552933584276,-0.0026738562155514,-0.0041414606384933,0.0013113075401633,0.0441225913865491,-0.3160398864001036,-9.801763027310372,14932.0
1.2,1.100000023841858,198.0,25.65827560424805,-0.0397588685154914,-79.78275055655371,40.45897379221468,267.7377176761628,0.0138449175283312,0.0082144234329462,-0.7748081088066101,0.6319915056228638,0.0100511021748051,0.0002179400565304,0.0060946226033148,0.0013417286099866,-0.0005143172456882,-0.0064142025075852,0.039745941334404,-0.3041859722882509,-9.799551610350608,14932.0
1.31,1.100000023841858,197.0,25.655771255493164,-0.0397588685154914,-79.7827505617356,40.458973774278014,267.7388837814331,0.0138313211500644,0.0081891324371099,-0.774814248085022,0.6319846510887146,0.0092525375277054,-0.0003536510929436,0.0063884489254131,-0.0071313427761197,-0.0036266034003347,-0.0016765872715041,0.0426059378497302,-0.3084777554869652,-9.799959161281588,14932.0
1.5,1.0,196.0,25.65326690673828,-0.0238553211092948,-79.78275059443196,40.45897374356197,267.73650043010707,0.0138510465621948,0.0081648621708154,-0.7748311161994934,0.6319639086723328,0.0106274415296007,-0.0043152346326385,0.0035863936613689,0.0042601558379828,0.0013084252132102,-0.0054536429233849,0.0429581777751445,-0.3081672317907214,-9.799511264562607,14932.0
1.63,1.0,195.0,25.65702247619629,-0.0079517737030982,-79.78275060946883,40.45897370647341,267.7356702566147,0.0138295777142047,0.0081713506951928,-0.7748307585716248,0.6319645643234253,0.0094732075711652,-0.0025500040599539,0.0027222081988272,-0.0037229103036224,-0.0030487813055515,-0.0046660401858389,0.0422111365897581,-0.3040987756848336,-9.799367423057555,14932.0
1.81,1.0,193.0,25.65201568603516,-0.0477106422185897,-79.78275061512717,40.45897369830164,267.73590688705445,0.0138351032510399,0.0081583950668573,-0.7748441696166992,0.6319482922554016,0.0099167945990251,-0.0032608299114013,0.0026470091387025,0.0076654688455164,-0.0020471073221415,0.0015684410464018,0.0449231848446652,-0.313938470184803,-9.801785831451417,14932.0
1.91,1.0,192.0,25.655771255493164,-0.0238553211092948,-79.78275063337973,40.45897367357808,267.7353247880936,0.0138311265036463,0.0081538511440157,-0.7748535275459291,0.6319369673728943,0.005215638540026,-0.0025848256764585,0.0017305084309692,-0.0027375719510018,-0.0003569916589185,-0.0047595086507499,0.0416774776624515,-0.303236914370209,-9.79870902657509,14932.0
2.1,0.8999999761581421,190.0,25.66077995300293,-0.0238553211092948,-79.78275063795306,40.45897366933761,267.7354728460312,0.0138299064710736,0.0081643788143992,-0.7748481631278992,0.63194340467453,0.005654053872144,-0.0031783592022903,0.0015416003829223,0.0042231371626257,0.0022411898244172,0.0013081644428893,0.0471494299778714,-0.3164277029782534,-9.80145838737488,14932.0
2.21,0.8999999761581421,190.0,25.65827560424805,-0.0159035474061965,-79.78275065536867,40.4589736341256,267.7374034404755,0.0138661013916134,0.008168077096343,-0.7748430967330933,0.6319488286972046,0.0061283696105731,-0.00244076561593,0.0044014278880792,0.0016388103831559,3.4203614632133394e-05,-0.0021928714122623,0.0421868889173492,-0.3052402618154884,-9.79838041305542,14932.0
2.41,0.8999999761581421,189.0,25.65451812744141,-0.0079517737030982,-79.78275065993287,40.45897362922382,267.7378229379654,0.0138702141121029,0.0081720408052206,-0.7748382091522217,0.6319546103477478,0.0061909547937639,-0.0030642497941934,0.004379222962867,0.00222655874677,0.0027608515229076,0.0023744681384414,0.0451990683563053,-0.3184896139428019,-9.802476972341536,14932.0
2.5,0.8999999761581421,190.0,25.655771255493164,-0.0079517737030982,-79.78275068281005,40.45897360250992,267.73884360790254,0.013865103945136,0.0081859892234206,-0.7748616933822632,0.6319257616996765,0.0041012894198051,-0.0033299703968393,0.0034742605528875,0.0048715500161051,0.0007671236526221,0.0003342330164741,0.0427851595776155,-0.3109495562687516,-9.801022185087202,14932.0
2.7,0.8999999761581421,188.0,25.64825820922852,-0.0079517737030982,-79.78275070373721,40.45897353665056,267.7392664432526,0.0138716641813516,0.0082162283360958,-0.7748703360557556,0.6319145560264587,0.0142711042614914,-0.0001675282403458,0.0027047668280287,-0.0002598603023216,-0.0008459675591439,0.009719330817461,0.0457491543050855,-0.3170811293274164,-9.802916098237038,14932.0
2.8,0.8000000119209291,187.0,25.65201568603516,-0.0238553211092948,-79.78275071144184,40.45897351186903,267.73976092338563,0.0138711454346776,0.008212111890316,-0.7748785018920898,0.6319047212600708,0.0142896567228015,-0.0009793162957384,0.0030410536400175,0.0083712022751569,0.0041069770231843,0.0042515899986028,0.0451603305526077,-0.3155026003718376,-9.802279921174051,14932.0
3.0,0.8000000119209291,186.0,25.649511337280277,-0.0159035474061965,-79.78275070830558,40.45897350450026,267.7407597780228,0.0138702969998121,0.0082000698894262,-0.7748658061027527,0.6319204568862915,0.0062971986065896,0.0035705995079205,0.0018925663559092,-0.0032490692101418,-0.0049419729039072,-0.0019328654743731,0.0442526553897187,-0.3135442947596312,-9.801235023736952,14932.0
3.1,0.8000000119209291,187.0,25.645753860473643,-0.0159035474061965,-79.78275073408432,40.458973471791744,267.7419897794724,0.013873984105885,0.0081954570487141,-0.7748835682868958,0.6318985819816589,0.007776234211476,0.0021198272088899,0.0016511058160371,0.0045355032198131,-0.0031692322809249,0.0073797130025923,0.046435178881511,-0.3176274419948459,-9.802757053971291,14932.0
3.3,0.8000000119209291,187.0,25.6507625579834,-0.0397588685154914,-79.78275073343289,40.45897346487172,267.7421533346176,0.0138608906418085,0.0081904185935854,-0.7748863101005554,0.6318956613540649,0.0067575992158647,0.0020318532071623,0.0020794584333742,-0.0082098580896854,-0.0006285848794505,-0.0045879837125539,0.0430328302737325,-0.3082818372175097,-9.80068947851658,14932.0
3.4,0.8000000119209291,188.0,25.64825820922852,-0.0159035474061965,-79.78275078546329,40.45897342792056,267.7430048465729,0.0138798076659441,0.0081756822764873,-0.774897575378418,0.6318815350532532,0.0089565993147284,-0.0030278113431535,0.0015631084823775,0.0008398477802984,0.0005976801039651,0.0026887969579547,0.0463840934028849,-0.3183456628024578,-9.803217814564707,14932.0
3.6,0.8000000119209291,188.0,25.65702247619629,0.0,-79.78275079133806,40.45897342072357,267.743141579628,0.0138806756585836,0.0081819323822855,-0.7748934626579285,0.6318864822387695,0.0083129149860447,-0.0033736831310399,0.0017781487550568,-0.0053664073348045,0.0001102762689697,-0.008658142760396,0.0406823409441858,-0.3038639551587403,-9.79897332072258,14932.0
3.71,0.8000000119209291,189.0,25.65702247619629,-0.0159035474061965,-79.78275082914251,40.458973384629104,267.74569194316865,0.0138809811323881,0.0081855654716491,-0.7749057412147522,0.6318715214729309,0.0085895814897954,-0.0025278394717912,0.0051681081156545,-0.0050943442620337,-0.0009486598428338,0.0012677171034738,0.0445018107304349,-0.3152521202713251,-9.801176551580433,14932.0
3.91,0.8000000119209291,190.0,25.655771255493164,-0.0079517737030982,-79.78275083445862,40.45897337735911,267.74617676734925,0.0138809811323881,0.0081855654716491,-0.7749057412147522,0.6318715214729309,0.0083776149744934,-0.0029213950997453,0.0052726768275993,-0.002278579166159,-0.0012516974238678,-0.0050115562044084,0.0411363269900903,-0.3043094399012625,-9.799778482317924,14932.0
4.0,0.8000000119209291,190.0,25.655771255493164,-0.0159035474061965,-79.78275090113098,40.45897334359207,267.7461418390274,0.0138847511261701,0.0081844637170434,-0.774917721748352,0.6318566799163818,0.0092777102802092,-0.0061991682066364,0.0034778892251877,-0.0055378451943397,-0.0002076035161735,-0.0010762917809188,0.0424918120773509,-0.3083275551348925,-9.800288944244388,14932.0
4.2,0.8000000119209291,192.0,25.66077995300293,0.0,-79.78275095535669,40.45897333917984,267.7459849596024,0.0138825308531522,0.0081785796210169,-0.7749175429344177,0.6318569779396057,0.0051854592883154,-0.0085986650313639,0.002535800184441,0.0044296365231275,0.0032206897158175,-0.0038074473850429,0.0422380429180339,-0.3086403811722994,-9.79975567817688,14932.0
4.3,0.8000000119209291,191.0,25.65451812744141,-0.0238553211092948,-79.78275097838987,40.45897333379712,267.74649183750154,0.0138833280652761,0.0081798695027828,-0.7749279737472534,0.631844162940979,0.0040818696236463,-0.0092921541951425,0.0030116442345685,-0.0038751033134758,-0.0029303850606083,-0.0061289514414966,0.0417242782283574,-0.3049991189874709,-9.79952705204487,14932.0
4.51,0.8000000119209291,193.0,25.66203117370605,-0.0079517737030982,-79.78275102032775,40.45897332202471,267.7461166858673,0.0138790626078844,0.0081818383187055,-0.7749399542808533,0.6318295001983643,0.0030573376720534,-0.0071094740956856,0.0020227903065669,0.0049770949408411,0.0007675794768147,0.0046005523763597,0.0445960011519491,-0.3136146075278521,-9.802375230789185,14932.0
4.6,0.8000000119209291,194.0,25.64700698852539,-0.0159035474061965,-79.78275105277534,40.45897327722385,267.7457806348801,0.0138779450207948,0.0082030724734067,-0.7749405503273009,0.6318285465240479,0.007947758425556,-5.048044594645239e-05,0.0018046480828929,-0.0023914512712508,-8.802721822576132e-06,-0.0003243141109123,0.0411845528148114,-0.3034589441120625,-9.798795565366746,14932.0
4.8,0.8000000119209291,195.0,25.64700698852539,-0.0318070948123931,-79.78275105505216,40.45897326999036,267.7459323883057,0.0138792926445603,0.008227857761085,-0.7749431729316711,0.6318250298500061,0.0084647341591563,-0.0006347209254805,0.0017497637329261,0.0069897486828267,0.0012933731777593,0.002768607577309,0.0456145313009619,-0.3159856900200248,-9.80207468390465,14932.0
4.91,0.8000000119209291,196.0,25.649511337280277,-0.0318070948123931,-79.7827511368373,40.45897325527646,267.74496059417726,0.0138806849718093,0.0082278670743107,-0.7749634981155396,0.6318000555038452,0.0048178893591639,-0.0061297730912685,0.0012917624841451,-0.0008469359017908,-0.0012284734984859,-0.0047679236158728,0.0418852228391915,-0.3056205866485834,-9.799858589172365,14932.0
5.1,0.8000000119209291,197.0,25.64825820922852,-0.0079517737030982,-79.78275114530794,40.45897325215461,267.74507694244386,0.0138754826039075,0.0082300389185547,-0.7749642729759216,0.6317991018295288,0.0050923569257317,-0.0066722595287902,0.001299063242799,0.0056952810846269,0.0033257929608225,0.0023528062738478,0.0457572307717055,-0.3176370168104768,-9.801946045160292,14932.0
5.2,0.8000000119209291,197.0,25.65702247619629,-0.0238553211092948,-79.78275121966391,40.45897322360067,267.7439307451248,0.0138849401846528,0.0082517340779304,-0.7749767899513245,0.6317833662033081,0.0068029374495242,-0.0079566097970895,0.0014431547067975,0.0010768533684313,-0.0001733868411974,-0.0037466138601303,0.0423206394072622,-0.3078987349569798,-9.800349170565603,14932.0
5.4,0.8000000119209291,200.0,25.66328430175781,0.0318070948123931,-79.78275123056947,40.45897321922708,267.7440631866455,0.0138922547921538,0.0082532688975334,-0.7749678492546082,0.6317940950393677,0.0066647294330689,-0.0083264979885148,0.0015886415149539,0.0034563720691949,0.0014453376643359,0.008601015433669,0.0463458215491846,-0.318789027929306,-9.802992696762086,14932.0
5.5,0.8000000119209291,197.0,25.64450263977051,-0.0159035474061965,-79.78275128896303,40.45897318431136,267.7407026767731,0.01391236577183,0.0082476334646344,-0.7749859094619751,0.6317715048789978,0.008290887801117,-0.0058278560502898,-0.0022886459069719,0.0069905458949506,0.0035086215939372,-0.0005822691018693,0.0447205788223072,-0.3126618037372827,-9.801220990419386,14932.0
5.7,0.8000000119209291,196.0,25.65952682495117,-0.0318070948123931,-79.78275133713618,40.45897317085564,267.73927109241487,0.0138980932533741,0.0082409679889678,-0.7749843001365662,0.6317739486694336,0.0047933539540055,-0.0041943130323871,-0.0012612044716798,-0.0054455399513244,-0.000994443311356,0.0016466646920889,0.0456368466513231,-0.3162618247792125,-9.803012577295304,14932.0
5.82,0.8000000119209291,195.0,25.65326690673828,-0.0318070948123931,-79.78275134999322,40.45897316427916,267.7389992952347,0.013899927958846,0.0082374457269907,-0.7749890685081482,0.6317681670188904,0.0049607604141535,-0.0051396945159096,-0.0011701036051004,0.0041374135762453,-0.0003415420651435,0.0059394594281911,0.0467316875327378,-0.3169968563318253,-9.802453583478927,14932.0
6.01,0.8000000119209291,195.0,25.65326690673828,-0.055662415921688,-79.78275140151976,40.4589731359893,267.7371250867844,0.013887858018279,0.0082344338297843,-0.7749903202056885,0.6317668557167053,0.0064588401027924,-0.0031771457686671,-0.0004058078396072,-0.0044032479636371,-0.0014620629372075,-0.0022222541738301,0.0431596828764304,-0.3111162750050426,-9.801538494229318,14932.0
6.11,0.8000000119209291,195.0,25.645753860473643,-0.0159035474061965,-79.78275146875148,40.45897310841872,267.7338948726654,0.0138753298670053,0.0082361502572894,-0.7749982476234436,0.6317573189735413,0.0087461826551759,-0.0057373533205028,-0.0034681632852206,0.0038403864018619,-0.0004739482537843,0.0092241317033767,0.047627969761379,-0.3186418973654509,-9.80234014749527,14932.0
6.31,0.8000000119209291,194.0,25.65702247619629,-0.0238553211092948,-79.7827514774477,40.4589731020784,267.7335378408432,0.0138845853507518,0.0082299085333943,-0.77500319480896,0.6317512392997742,0.0079890329048861,-0.0059332925655334,-0.0030513587485038,-0.003786884015426,-0.0005926226149313,-0.005915364716202,0.0418303092615678,-0.3045800746232271,-9.800113527774812,14932.0
6.4,0.8000000119209291,194.0,25.65326690673828,-0.0159035474061965,-79.78275156883909,40.45897309524212,267.73192303180696,0.0138934459537267,0.0082104941830039,-0.7750174999237059,0.631733775138855,0.0063755466627,-0.0126078265444003,-0.0016517602235715,-3.553429633029737e-05,-0.001366636599414,0.0053173569031059,0.0449873443320393,-0.3171450101584196,-9.803160511851312,14932.0
6.6,0.8999999761581421,193.0,25.64700698852539,-0.0079517737030982,-79.7827515850952,40.458973092023655,267.7317352771759,0.0138898557052016,0.0082196583971381,-0.7750195264816284,0.6317312717437744,0.005981098700217,-0.0128681406902453,-0.001481764894478,-0.0086859017610549,-0.0002887988521251,-0.005030698608607,0.0414506513765081,-0.3037703997083008,-9.799328246712683,14932.0
6.7,0.8999999761581421,192.0,25.655771255493164,-0.0238553211092948,-79.78275161336228,40.45897307051428,267.7299603700638,0.0138784227892756,0.0082306722179055,-0.7750229835510254,0.6317270994186401,0.0062540414038908,-0.003943960452065,-0.0007615158275418,-0.0028316429816186,-0.0011212230892851,-0.0016804144252091,0.044438555734232,-0.3120820157602429,-9.800745611786844,14932.0
6.9,0.8999999761581421,192.0,25.65702247619629,-0.0318070948123931,-79.78275161989271,40.45897306556957,267.729864525795,0.0138856507837772,0.0082355393096804,-0.7750214338302612,0.6317287683486938,0.006467959473412,-0.0045552591118842,-0.0006133099534725,-0.0015017838450148,0.0011906662257388,-0.0044359974563121,0.0420526496367529,-0.3065935633331537,-9.80062282025814,14932.0
7.0,0.8999999761581421,191.0,25.643251419067383,-0.0318070948123931,-79.7827516931503,40.45897304273757,267.7283620119095,0.013882054015994,0.0082084098830819,-0.7750257849693298,0.6317238807678223,0.0084150215498493,-0.0071746795422819,0.0002075161250162,-0.0044173779897391,-0.0035978723317384,-0.0043543055653572,0.0422849988006055,-0.306103383935988,-9.799987812638284,14932.0
7.21,0.8999999761581421,191.0,25.649511337280277,-0.055662415921688,-79.78275173679648,40.45897304009237,267.72666518688203,0.0138836186379194,0.0082098701968789,-0.775035560131073,0.6317118406295776,0.0068752603477395,-0.0064860531739217,2.597445915957583e-05,0.0036495774984359,-0.0005151772056706,0.0037170078139752,0.0422681469423696,-0.3104673071578145,-9.800898808836935,14932.0
7.3,0.8999999761581421,194.0,25.649511337280277,-0.0636141896247863,-79.78275175540884,40.45897303118416,267.72667615413667,0.013883851468563,0.0081879077479243,-0.7750401496887207,0.6317064762115479,0.0058500929575429,-0.0070574323166813,0.0005908627371749,-0.0073519679717719,-0.0014903857372701,-0.005578942131251,0.0418993155425414,-0.3038401460275054,-9.80129583477974,14932.0
7.5,1.0,193.0,25.6407470703125,-0.0318070948123931,-79.78275182586114,40.4589730347934,267.7233024120331,0.0138770695775747,0.0081737488508224,-0.7750612497329712,0.631680965423584,0.0055700267046255,-0.0130617281300805,-0.0035315225376529,0.0062362793833017,0.0035811425186693,0.0035896610934287,0.0457794090779498,-0.3153220310434699,-9.802481065392495,14932.0
7.6,1.0,193.0,25.64700698852539,-0.0318070948123931,-79.78275187303642,40.45897302091471,267.7218993186951,0.0138694662600755,0.0081823589280247,-0.7750641703605652,0.6316772699356079,0.0063002670143122,-0.0084532441532784,-0.0018526156451318,-0.0013069788692519,-0.0004571187600959,-0.0039805052801966,0.0415165970055386,-0.3049283859506249,-9.80043103158474,14932.0
7.8,1.0,193.0,25.6507625579834,-0.055662415921688,-79.7827518845091,40.45897301691685,267.7216953516006,0.0138595104217529,0.0081637138500809,-0.7750617861747742,0.6316807270050049,0.0065154848402539,-0.0090172695906301,-0.0018592566143834,0.0055151395499706,0.0011709380196407,0.0065816836431622,0.0459997120639309,-0.3182291935756802,-9.801992822885516,14932.0
7.91,1.0,194.0,25.639493942260746,-0.0477106422185897,-79.78275192084557,40.45897300002581,267.72051029205323,0.0138770611956715,0.0081808594986796,-0.7750750184059143,0.631663978099823,0.0073837441754461,-0.0054785981513581,-0.0007358571162562,0.0037898600567132,-0.0002567945339251,-0.0010550851002335,0.042830333886668,-0.3093679940700531,-9.80088360607624,14932.0
8.1,1.0,196.0,25.6507625579834,-0.055662415921688,-79.78275192896271,40.45897299488143,267.7204286336899,0.0138702737167477,0.0081847151741385,-0.7750764489173889,0.6316622495651245,0.0070083600154211,-0.0058093199745141,-0.0004924454933563,0.0031982781365513,0.0014481929829344,0.0068024708889424,0.0466139300912618,-0.3179426434636116,-9.803555783629417,14932.0
8.2,1.0,198.0,25.6507625579834,-0.0238553211092948,-79.78275196501738,40.45897296454756,267.7194984436035,0.0138916242867708,0.0082016121596097,-0.7750825285911559,0.6316540837287903,0.010363680086011,-0.0043033613766475,-0.0001834385045387,0.0076685575768351,0.002585023175925,0.0018095539417117,0.0453143635718152,-0.3151446045935154,-9.801610999703408,14932.0
8.4,1.0,199.0,25.649511337280277,-0.0079517737030982,-79.78275197239178,40.45897295667209,267.7194680452347,0.0138923898339271,0.0081993760541081,-0.7750729322433472,0.6316658854484558,0.0094359183838716,-0.004446824952778,0.0002239100439425,-0.0036593822296708,-0.001960078952834,-0.0005182158784009,0.0448123435629531,-0.3139336096867919,-9.802678116559983,14932.0
8.5,1.0,198.0,25.655771255493164,-0.0079517737030982,-79.78275198308583,40.45897293768122,267.7189579486847,0.0138948922976851,0.0082065034657716,-0.7750729322433472,0.6316657066345215,0.0089101237115177,-2.0115174887683565e-05,0.0003714342557715,0.0021008590701967,0.0014010736485943,0.0044993069022893,0.0465349332941696,-0.3182044890895486,-9.802679286003112,14932.0
8.7,1.0,200.0,25.65326690673828,-0.0159035474061965,-79.78275203515348,40.45897292633393,267.7184354543686,0.0139007866382598,0.0082105277106165,-0.7750646471977234,0.6316757798194885,0.0094572060284351,-0.0039572517057651,0.0007324583995759,-0.0063193389214575,-0.0022103884257376,-0.0048732906579971,0.042897608843632,-0.3060739468596876,-9.801006982326507,14932.0
8.81,1.0,200.0,25.65451812744141,-0.0238553211092948,-79.78275205011728,40.458972910793406,267.718536901474,0.0138923218473792,0.008199862204492,-0.7750791311264038,0.6316583752632141,0.0095076845885795,-0.0049370276310244,0.0010693629354344,-0.0002828893484547,0.0012903196038678,0.0038993072230368,0.0457685825927183,-0.3162464392930269,-9.802973985671995,14932.0
9.01,0.8999999761581421,202.0,25.655771255493164,-0.0238553211092948,-79.78275207639284,40.45897290104355,267.7182163476944,0.0138912163674831,0.0082028433680534,-0.7750883102416992,0.631646990776062,0.0093179231113218,-0.0030796024705774,0.0010203649209392,-0.0042071626521646,-0.0016351671656593,-0.0074250404722988,0.0414786814665421,-0.3037273313105106,-9.799318306446075,14932.0
9.1,0.8999999761581421,202.0,25.66077995300293,-0.0159035474061965,-79.78275210967175,40.45897287580468,267.7178955554961,0.0138930492103099,0.0082067912444472,-0.7750883698463441,0.6316468119621277,0.0116478190780004,-0.0019729020404896,0.0011312896404184,-0.0066114393994212,0.0014615727122873,-0.0021533956751227,0.0438773600757122,-0.3115191116183996,-9.801218066811565,14932.0
9.3,0.8999999761581421,204.0,25.65451812744141,-0.0318070948123931,-79.782752114997,40.45897286566834,267.7179712533951,0.0138920415192842,0.0082071479409933,-0.7751002907752991,0.6316322088241577,0.0119272557222905,-0.0024592268731921,0.001250449305306,0.0018405566224828,0.0020517308730632,-0.0027066301554441,0.0415840135747566,-0.3066553976386785,-9.80023047208786,14932.0
9.4,0.8999999761581421,204.0,25.65201568603516,-0.0159035474061965,-79.78275215053165,40.45897286818472,267.71780054569246,0.0138884158805012,0.0082048047333955,-0.77511066198349,0.6316196322441101,0.0070389991093269,-0.0024894144507339,0.0011596667446935,-0.0054556191898882,0.0006816581590101,-0.0060062990523874,0.0417028445284813,-0.3042601222917437,-9.800197727680208,14932.0
9.6,0.8000000119209291,204.0,25.65451812744141,-0.0079517737030982,-79.78275215552308,40.45897286219008,267.717887210846,0.0138884158805012,0.0082048047333955,-0.77511066198349,0.6316196322441101,0.0075888364138429,-0.0031204037146994,0.0010886586046519,0.0093024373054504,0.0043410966172814,0.0026452045422047,0.0447952815704047,-0.312451303973794,-9.801915054917336,14932.0
9.7,0.8000000119209291,206.0,25.65451812744141,-0.0238553211092948,-79.78275221193849,40.45897285181113,267.7173240661621,0.0139059713110327,0.0081987455487251,-0.7751344442367554,0.6315900087356567,0.0087331513138609,-0.0062957178680227,0.0010546108815875,-0.00524827465415,-0.0016762012382969,-0.0063770022243261,0.0413570319721475,-0.3045948205702007,-9.799629378318787,14932.0
9.91,0.8000000119209291,206.0,25.65451812744141,-0.0318070948123931,-79.78275222163678,40.45897284516808,267.71740500926967,0.0138936536386609,0.008192827925086,-0.7751246094703674,0.6316025853157043,0.0091439128743197,-0.0069086744028241,0.0011207635245387,0.0068590305745601,0.0024600501637905,0.0025829472579061,0.0468670871201902,-0.3173760848119855,-9.80305233836174,14932.0
10.0,0.8000000119209291,206.0,25.64450263977051,-0.0397588685154914,-79.78275224946888,40.45897284245203,267.7169327020645,0.0138877294957637,0.0082178711891174,-0.7751230597496033,0.6316042542457581,0.0087951244521532,-0.0044233398976442,0.0010638498359445,-0.0003750895557459,0.0016863835044205,-0.0043169823475182,0.0418913852563127,-0.3053240597248077,-9.79931655228138,14932.0
10.2,0.8000000119209291,207.0,25.65326690673828,-0.0318070948123931,-79.78275227841691,40.45897284791848,267.71656148433686,0.0138761857524514,0.0082160085439682,-0.7751227617263794,0.6316049695014954,0.0092280450620934,-0.0033578034305173,0.0008324771416274,0.0025096563622355,-0.0010710097849369,0.0059656961821019,0.0463621206628158,-0.3183588555827737,-9.802326114177704,14932.0
10.3,0.8000000119209291,206.0,25.65326690673828,-0.0397588685154914,-79.78275229072794,40.45897283379932,267.71670763492585,0.013900052756071,0.0082341395318508,-0.7751389741897583,0.6315842270851135,0.0086943412860722,-0.0039601002737635,0.0011746595880841,0.0053030890412628,0.0034714054781943,-0.0003779085818678,0.0430900827376172,-0.3095541182532906,-9.800366712212565,14932.0
10.5,0.699999988079071,203.0,25.65952682495117,-0.0159035474061965,-79.78275231580112,40.45897283904892,267.71628241539,0.0139001961797475,0.0082346890121698,-0.7751357555389404,0.6315881609916687,0.0088684444113055,-0.0024325888626866,0.0010249527535098,0.0038116730283945,0.0002906665031332,0.0068284040316939,0.0457773808250203,-0.3184953880682588,-9.802904403805734,14932.0
10.61,0.699999988079071,203.0,25.655771255493164,0.0238553211092948,-79.78275236267774,40.45897285308219,267.71603696346284,0.0139166126027703,0.0082564949989318,-0.7751317620277405,0.631592333316803,0.0056775451361044,-0.0067821594504698,0.0008318925524376,0.0073299366049468,0.0010289937490597,0.0035505970008671,0.0455565387988463,-0.3136089064925909,-9.802772841453551,14932.0
10.8,0.699999988079071,202.0,25.64700698852539,0.0079517737030982,-79.78275237178785,40.45897284960178,267.7161220788956,0.013927923515439,0.0082547310739755,-0.7751244306564331,0.6316011548042297,0.0051585734660006,-0.0069351097450464,0.0011974573637432,-8.794726454652846e-05,0.0021881454158574,0.0027456523384898,0.0454918357031419,-0.3152320570126176,-9.803600807189945,14932.0
10.9,0.6000000238418579,202.0,25.645753860473643,0.0159035474061965,-79.78275238205815,40.45897284824483,267.7161412715912,0.0139183336868882,0.0082741221413016,-0.7751224040985107,0.6316036581993103,0.0063092465657433,-0.0010363253288624,0.0010723021210941,0.0051188836805522,0.0023587697651237,0.0036618195008486,0.0465143264271318,-0.3158317255228758,-9.802385171055798,14932.0
11.1,0.6000000238418579,201.0,25.6507625579834,0.0795177370309829,-79.78275238466878,40.4589728432443,267.71624581813813,0.0139077631756663,0.0082843238487839,-0.7751244306564331,0.6316012144088745,0.0054627629452478,-0.0010574169035345,0.0013521975465949,-0.0057842270471155,-0.0058500743471086,-0.0022626516874879,0.0439001413760706,-0.3119722708314657,-9.800564932823182,14932.0
11.2,0.6000000238418579,199.0,25.63698959350586,0.055662415921688,-79.78275242511548,40.45897286039085,267.71821134090425,0.0139224473387002,0.0082674585282802,-0.7751301527023315,0.631594181060791,0.004531215205937,-0.0046581175297647,0.0042268525649018,0.0047215442173182,0.0023256931453943,0.0069796196185052,0.0458804517053067,-0.318289566077292,-9.80269331932068,14932.0
11.4,0.6000000238418579,197.0,25.643251419067383,0.055662415921688,-79.78275243161076,40.45897285743861,267.7186317920685,0.0139346746727824,0.0082668075338006,-0.7751228213310242,0.6316028833389282,0.0037810472911546,-0.0047675623637626,0.004504411372251,-0.0044321636669337,-0.0005860297242179,-3.192526492057368e-05,0.0424516170378774,-0.3079710577055812,-9.800325196981431,14932.0
11.5,0.6000000238418579,197.0,25.645753860473643,0.055662415921688,-79.78275244716906,40.45897283936668,267.7172775745392,0.0139200715348124,0.0082430113106966,-0.7751244306564331,0.6316015720367432,0.009909007381056,-0.0026986783677788,-0.0002779129002983,0.0019377196440473,0.0001809583045542,0.0037437439896166,0.0462153601180762,-0.3186582695692778,-9.803636475205424,14932.0
11.7,0.6000000238418579,197.0,25.649511337280277,0.055662415921688,-79.78275245899944,40.45897287578321,267.7180499315262,0.0139167113229632,0.0082475254312157,-0.7751227617263794,0.6316036581993103,0.0016265728736221,-0.002794795448257,-5.766330270270719e-06,-0.0051109786145389,-0.0027813992928713,-0.0013357393909245,0.0422382484842091,-0.3053326112776995,-9.79999190568924,14932.0
11.8,0.5,197.0,25.64450263977051,0.055662415921688,-79.78275246756283,40.458972873696254,267.7180669784546,0.0139213213697075,0.0082343267276883,-0.7751227021217346,0.6316036581993103,0.0017625217564587,-0.0037737357725991,0.0004054497411598,-0.0028012343682348,0.0013943776721134,0.0026313418056815,0.0453695055563002,-0.3177508182451129,-9.804075601100925,14932.0
12.0,0.5,198.0,25.64700698852539,0.055662415921688,-79.78275247000761,40.45897287914124,267.721257853508,0.0139206508174538,0.0082354024052619,-0.7751331329345703,0.6315909624099731,0.0041199423161542,-0.0020201203967755,0.0047077633368143,-0.0023880361113697,-0.0025713690556585,-0.0072379442863166,0.0407704557431861,-0.3037928383983672,-9.800224040150646,14932.0
12.1,0.5,201.0,25.64450263977051,0.055662415921688,-79.7827524942024,40.45897288730012,267.7227801561356,0.0139270043000578,0.0082389516755938,-0.7751339077949524,0.6315897107124329,0.0066238278057141,-0.0049258082415711,0.0034697282952513,-0.0035414129961282,-0.0014944786671549,0.0034698115196079,0.0434466669615358,-0.3148594066500664,-9.802677531838418,14932.0
12.3,0.5,202.0,25.63198280334473,0.0397588685154914,-79.7827525017335,40.45897288219437,267.72311012744905,0.0139202186837792,0.0082521373406052,-0.7751495838165283,0.6315704584121704,0.0065562560072409,-0.0053060702837857,0.0036498432251379,0.0016625231364741,0.0012836394598707,-0.0065914853475987,0.0409588320180773,-0.3046466232463717,-9.799675571322444,14932.0
12.4,0.6000000238418579,202.0,25.64700698852539,0.055662415921688,-79.78275252420731,40.45897291553415,267.7251354932785,0.0139169506728649,0.008245475590229,-0.775161862373352,0.6315555572509766,0.000625748809857,-0.0084524204573539,0.0027349139506871,-0.0074987062253057,-0.0017563664587214,-0.0041664526797831,0.0438492843043059,-0.3119534866511821,-9.801881141066552,14932.0
12.6,0.5,203.0,25.6407470703125,0.0795177370309829,-79.78275253458514,40.45897291627489,267.72540645599366,0.0139169506728649,0.008245475590229,-0.775161862373352,0.6315555572509766,0.0008396435473512,-0.0089322947255639,0.0028909429644768,0.0006331788608804,0.0038930736482143,-0.0026761491317301,0.0425299286143854,-0.3054308445006609,-9.800681877136231,14932.0
12.7,0.5,203.0,25.65451812744141,0.1192766055464744,-79.78275252997034,40.45897292305964,267.7278919696808,0.0139150815084576,0.0082521783187985,-0.7751742601394653,0.6315403580665588,0.0032796874335135,-0.00541097135025,0.0024969679747827,-0.0046067032963037,7.677610847167671e-05,-0.0046730190515518,0.0428768695006147,-0.3084821043536067,-9.80015562772751,14932.0
12.9,0.5,204.0,25.638242721557607,0.0715659633278846,-79.78275253745998,40.4589729208868,267.7281260967255,0.0139150815084576,0.0082521783187985,-0.7751742601394653,0.6315403580665588,0.0036363616622019,-0.0059105127209771,0.0025653089202143,0.0023382201325148,0.0009448864147998,-0.0020483445841819,0.0436253222404047,-0.3081391286104917,-9.800663166046142,14932.0
13.01,0.5,203.0,25.64450263977051,0.0636141896247863,-79.78275252744476,40.45897292399577,267.7312020540237,0.013913701288402,0.0082575976848602,-0.7751824855804443,0.631530225276947,0.0051721643750687,-0.0032308778194416,0.0024522117348228,-0.0058266930282115,-0.001935503212735,-0.0065557658672332,0.0419876404758542,-0.3062829482741654,-9.800397117733956,14932.0
13.2,0.4000000059604645,204.0,25.63698959350586,0.0874695107340812,-79.78275249938851,40.45897294509936,267.73298649787904,0.0139072192832827,0.0082593029364943,-0.7751818299293518,0.6315311193466187,0.0033809239823116,6.248771157961724e-05,-0.001031003302584,0.0083359200507402,0.0032041310332715,-0.0018245290266349,0.0431786908954382,-0.3124362839385867,-9.801565976142884,14932.0
13.3,0.4000000059604645,206.0,25.643251419067383,0.055662415921688,-79.78275250114812,40.4589729400108,267.7328104257584,0.0139077231287956,0.0082602826878428,-0.7751922011375427,0.6315183639526367,0.0024804781044398,-0.0004525193810959,-0.000524135430172,-0.0022354717366397,-0.0001255303650395,-0.0025264157447963,0.0417579362634569,-0.3043357889167965,-9.800157381892204,14932.0
13.5,0.3000000119209289,208.0,25.64825820922852,0.0636141896247863,-79.78275250092115,40.458972968450944,267.73651020526887,0.0139077315106987,0.0082555990666151,-0.775203287601471,0.6315047740936279,0.0025077196161792,-0.0047499674202767,5.438801483208585e-05,0.0067816120572388,0.0008958457619883,0.0040944181382656,0.045522245792672,-0.3148459215089679,-9.802431948781011,14932.0
13.6,0.3000000119209289,210.0,25.6507625579834,0.0318070948123931,-79.78275247958011,40.45897298016109,267.74086062908174,0.0139071913436055,0.0082607101649045,-0.7752033472061157,0.6315046548843384,0.0044419921716968,-0.0023279225525221,0.0009166585803895,-0.0023353896103799,0.0021771369501948,-0.0025718016549944,0.0413741670548915,-0.3065134930238128,-9.800525171756744,14932.0
13.8,0.3000000119209289,218.0,25.639493942260746,-0.0238553211092948,-79.78275248355473,40.458972976618405,267.7409418106079,0.0139081636443734,0.008261757902801,-0.7752139568328857,0.6314916014671326,0.0047374529550302,-0.0028571187138636,0.0009096618381552,0.007138630375266,0.0019404451595619,0.0042403205297887,0.0450098926573991,-0.3185878837108612,-9.802313835024837,14932.0
13.9,0.2000000029802322,219.0,25.65326690673828,-0.0159035474061965,-79.78275243063749,40.458973002759045,267.7457005262375,0.0138976275920867,0.0082650315016508,-0.7752254009246826,0.6314777135848999,0.0010574874409652,0.0024267159285452,0.0012377452907817,0.0034714271314442,0.0041835815645754,0.0008476378861814,0.0420621056808158,-0.3098942069336772,-9.801542002558708,14932.0
14.1,0.2000000029802322,226.0,25.638242721557607,-0.0318070948123931,-79.78275242808519,40.45897300159318,267.7458405971526,0.0138976275920867,0.0082650315016508,-0.7752254009246826,0.6314777135848999,0.0009395471889532,0.0022419282507694,0.0014963747826186,-0.0008082129061222,-0.0002074294607155,0.0036505979951471,0.0466719956835731,-0.3173523304983973,-9.804171495437624,14932.0
14.21,0.2000000029802322,232.0,25.6407470703125,-0.0397588685154914,-79.7827524211465,40.45897300977997,267.7507393836975,0.0139029743149876,0.0082648620009422,-0.7752378582954407,0.6314622759819031,0.0044914100328896,-0.00183970693739,0.001625945038075,0.0051871691830456,0.002362674800679,0.001964007737115,0.0440767090162262,-0.3114431709051132,-9.801477098464966,14932.0
14.4,0.2000000029802322,246.0,25.63573837280273,-0.055662415921688,-79.78275242431016,40.45897300644987,267.75090544223787,0.013895166106522,0.0082762856036424,-0.7752348780632019,0.6314660310745239,0.0040362337067323,-0.0020122677617889,0.0018995402006352,-0.0002353908494114,-0.0016832102555781,0.0045856153592467,0.0463369365222752,-0.3174141648039222,-9.803108471632004,14932.0
14.51,0.2000000029802322,252.0,25.64700698852539,-0.0636141896247863,-79.78275242278174,40.45897302778964,267.75633494853975,0.0139126908034086,0.0082940086722373,-0.7752506732940674,0.631446123123169,0.0032193209729911,-0.0058461535082273,0.0019181949482715,0.0015891169896349,0.0043763443827629,0.0025895135477185,0.0441375703085213,-0.3121329596266151,-9.802389848828318,14932.0
14.7,0.3000000119209289,265.0,25.645753860473643,-0.0318070948123931,-79.78275238907065,40.45897303887928,267.7631562232972,0.0139115676283836,0.0083021027967333,-0.7752523422241211,0.6314437985420227,0.0050108647029586,-0.0030034917289046,0.0056089533141057,-0.00031066237716,-0.0023877287749201,0.0059056519530713,0.0464190122438594,-0.3179126033931971,-9.803842297196388,14932.0
14.8,0.3000000119209289,268.0,25.638242721557607,-0.0318070948123931,-79.78275239900366,40.45897303110257,267.7642777442932,0.0139204869046807,0.0083030276000499,-0.7752649188041687,0.6314283609390259,0.0050292421404818,-0.0036684007283422,0.005893619237452,0.0039613852277398,-0.0043458128347992,-0.0013325422769412,0.0425976009992882,-0.3098031000047922,-9.800514062047004,14932.0
15.0,0.3000000119209289,276.0,25.63698959350586,-0.0318070948123931,-79.78275236395879,40.458973056191134,267.77169542312623,0.0139139778912067,0.0083271358162164,-0.7752727270126343,0.6314185261726379,0.0026312898302654,-0.0021727028089867,0.0082360162254511,0.0035300457384437,0.0036042428109794,0.0028441906906664,0.046533302469179,-0.3183060844615102,-9.803552275300026,14932.0
15.1,0.3000000119209289,277.0,25.63698959350586,-0.0238553211092948,-79.78275233739512,40.45897305679661,267.77946560382844,0.0139333633705973,0.0083205522969365,-0.7752669453620911,0.6314253211021423,0.0062597979863702,-0.0008177306493454,0.0096567008673257,0.0016923756338655,0.0028210047166794,-0.0044263377785682,0.0415774857066571,-0.3060374383069575,-9.79975567817688,14932.0
15.3,0.4000000059604645,278.0,25.6507625579834,-0.0397588685154914,-79.7827523401245,40.458973051164826,267.7804188013077,0.013928092084825,0.0083246119320392,-0.7752714753150941,0.6314197182655334,0.0066150485368236,-0.0012542550617024,0.0097315757401107,0.0077311731874942,0.0008243712363764,0.0053963703103363,0.0454732068395242,-0.3176233123987913,-9.802520241737367,14932.0
15.41,0.4000000059604645,278.0,25.65451812744141,-0.0318070948123931,-79.78275230977175,40.45897305033821,267.78675775527955,0.0139291305094957,0.0083217183127999,-0.7752666473388672,0.6314257383346558,0.0070675588397277,-9.412657666045977e-05,0.0072307796522892,-0.0015268580755218,-0.0013982917880639,-0.0095310509204864,0.0409638341283425,-0.3037404144555331,-9.798845851421357,14932.0
15.6,0.4000000059604645,279.0,25.649511337280277,-0.0079517737030982,-79.78275231191365,40.45897304380896,267.78745703697206,0.0139394095167517,0.0083326864987611,-0.7752528190612793,0.6314423084259033,0.0076694186402072,-0.0006474676280152,0.0072495465619795,0.0086358981207013,-0.0009128905949182,0.0051896311342716,0.0449035372864455,-0.3153410710394382,-9.802310911417008,14932.0
15.7,0.4000000059604645,276.0,25.6407470703125,-0.0238553211092948,-79.78275229853587,40.45897305763182,267.79574208259584,0.0139515502378344,0.0083280783146619,-0.775265097618103,0.6314270496368408,0.0046754300147953,-0.0042928787547569,0.0094263374239368,-0.0041033369489014,0.0001059720234479,-0.0036703338846564,0.0407176023954525,-0.3040774516202509,-9.799834615588187,14932.0
15.9,0.4000000059604645,267.0,25.6507625579834,-0.0238553211092948,-79.78275230506772,40.4589730538358,267.7966621398926,0.0139570515602827,0.0083187697455286,-0.7752705216407776,0.6314203143119812,0.005353703813828,-0.0048029907138545,0.0093554059308862,0.0064419573172926,0.0012454736279323,0.0021485420875251,0.0457289814110845,-0.3141256907209754,-9.80227758228779,14932.0
16.0,0.4000000059604645,262.0,25.641998291015625,-0.0159035474061965,-79.78275229570531,40.45897304612565,267.8025010108948,0.0139567498117685,0.0083395922556519,-0.7752634286880493,0.6314287185668945,0.0077136276049776,-0.0062544601035502,0.006430563137524,-0.0046464474871754,-0.0053848838433623,-0.0072959307581186,0.0419464724231511,-0.3045765845663846,-9.800465530157089,14932.0
16.2,0.4000000059604645,255.0,25.64825820922852,0.0,-79.78275225734642,40.458973041644704,267.810164141655,0.0139375831931829,0.0083399843424558,-0.7752621173858643,0.6314309239387512,0.0111357201425463,-0.0037768331390877,0.0080218618240251,0.0058565121144056,0.000768621568568,0.0005461483960971,0.0441205814061686,-0.3138817887380719,-9.802333130836487,14932.0
16.3,0.4000000059604645,253.0,25.63698959350586,-0.0318070948123931,-79.78275227162156,40.45897302350623,267.8117567777634,0.0139307072386145,0.0083357151597738,-0.7752684950828552,0.63142329454422,0.010484981201657,-0.0039061656164512,0.0086386840318995,-0.0048745218664407,-0.001050671795383,-0.0054402654059231,0.0428041310515254,-0.3049911338835955,-9.800527510643006,14932.0
16.51,0.4000000059604645,246.0,25.65702247619629,-0.0159035474061965,-79.78275222868933,40.45897302990665,267.82010810375215,0.0139292208477854,0.0083314403891563,-0.7752839922904968,0.6314043402671814,0.0102807184739003,-0.0017837905217643,0.0098651362428542,0.0075060813687741,0.0012604048242792,0.0020881087984889,0.0435827060882002,-0.3113615657016635,-9.800932722687724,14932.0
16.6,0.4000000059604645,243.0,25.65326690673828,-0.0159035474061965,-79.78275218743521,40.458973041419256,267.82996170520784,0.0139140188694,0.0083301905542612,-0.775279700756073,0.6314098834991455,0.0052278370850674,-0.0008262793279034,0.0109627699542048,-0.004865045659244,-0.0006778701790608,-0.0025521754287183,0.0419378706207498,-0.3061689275689423,-9.798762820959093,14932.0
16.8,0.4000000059604645,238.0,25.65201568603516,-0.0238553211092948,-79.78275219015053,40.45897303631137,267.8310350656509,0.0139142265543341,0.0083303535357117,-0.7752923965454102,0.6313943266868591,0.005924816792,-0.0012534018142069,0.0109469616561867,0.0048519661650061,0.0015937087591737,-0.0031139669008553,0.0432000332325697,-0.3101253181323409,-9.800223455429078,14932.0
16.91,0.4000000059604645,236.0,25.63698959350586,-0.0159035474061965,-79.78275214154101,40.45897303478266,267.84138374328614,0.0139134116470813,0.0083338525146245,-0.7753050923347473,0.631378710269928,0.0065139905805061,0.0003789310843916,0.0118341386185933,-0.0082276929169893,-0.0001371186954202,-0.0070044016465544,0.0420159081090241,-0.3054071998223662,-9.799925832152368,14932.0
17.1,0.5,232.0,25.641998291015625,-0.0079517737030982,-79.78275214321347,40.45897302834143,267.8425468683243,0.0139134116470813,0.0083338525146245,-0.7753050923347473,0.631378710269928,0.0072327808202174,-9.839001834600642e-05,0.0118657383199527,0.0057448339648544,-5.024308484280482e-05,-0.0003239534562453,0.0438402028474956,-0.3113755990192294,-9.801314545869827,14932.0
17.2,0.5,230.0,25.645753860473643,-0.0318070948123931,-79.78275210207741,40.45897304039941,267.85120384693147,0.0139083890244364,0.0083320485427975,-0.7753171324729919,0.6313640475273132,0.0043038493145359,-0.0001199809331814,0.0093618766938821,-0.0036946898326277,0.0012264804681763,-0.0071654277853667,0.0403845029650256,-0.3036454337462783,-9.799052258133887,14932.0
17.4,0.6000000238418579,228.0,25.63323402404785,0.0159035474061965,-79.78275210359179,40.4589730361439,267.8521240234375,0.0139120267704129,0.008343574590981,-0.7753236889839172,0.6313557624816895,0.0050670591996421,-0.0004589785245125,0.0093382116959164,0.006469152867794,0.0015374344075098,0.0069994311779737,0.0470057849027216,-0.316095434948802,-9.80239803493023,14932.0
17.5,0.6000000238418579,225.0,25.65326690673828,-0.0159035474061965,-79.78275208029437,40.458973049346255,267.860515165329,0.0139245176687836,0.0083433492109179,-0.7753340005874634,0.6313427686691284,0.0036222601243762,-0.0039737123896331,0.0070217003087785,0.0010850504040718,-0.0020863043610006,-0.0037557187024503,0.0415706791821867,-0.3052292251959443,-9.80027491092682,14932.0
17.7,0.8000000119209291,221.0,25.65451812744141,-0.0159035474061965,-79.78275205024096,40.45897306540422,267.8682001113892,0.0139053631573915,0.0083520608022809,-0.7753266692161559,0.6313521265983582,0.0029491382175838,-0.006581180680461,0.0045215188676965,0.003977517131716,0.0009656155598349,0.0090729231014847,0.0474746493715792,-0.3188774670660496,-9.802962291240693,14932.0
17.8,0.8000000119209291,219.0,25.63573837280273,-0.0318070948123931,-79.78275206718926,40.45897306296301,267.8691246986389,0.0138946650549769,0.0083547374233603,-0.7753316164016724,0.6313462257385254,0.0029435739071184,-0.0071177587584544,0.004882650262075,0.0047933692112565,0.0037356442771852,-0.0015118938172236,0.0435461883991956,-0.3121848536655307,-9.801789339780806,14932.0
18.0,0.8000000119209291,218.0,25.65326690673828,-0.0159035474061965,-79.78275198931127,40.45897306180788,267.8771391391754,0.0138880629092454,0.0083611775189638,-0.7753432989120483,0.6313320398330688,0.0043060092240093,0.0008114812970458,0.0039775580406103,0.0003762504202313,-0.0021752344910055,0.0020245094783604,0.0457372862845659,-0.3183181077986956,-9.803438254594806,14932.0
18.1,0.8999999761581421,219.0,25.64450263977051,-0.0079517737030982,-79.78275195943073,40.45897306108432,267.8852645635605,0.0138810975477099,0.0083619179204106,-0.7753559947013855,0.6313164830207825,0.0070856043657695,-0.002260728184627,0.0033391188871184,0.0064983498305082,0.0022481982596218,0.0078217349946498,0.0473488611448556,-0.3169050915911794,-9.802815526127816,14932.0
18.3,1.0,218.0,25.65451812744141,-0.0238553211092948,-79.78275196352972,40.45897305547831,267.88559465408326,0.0138770202174782,0.0083651775494217,-0.7753674387931824,0.6313024163246155,0.0064622953850028,-0.0021296079865957,0.0036724920684033,-0.0014211804373189,-0.0017209453508257,0.0002282447239849,0.0429622205765917,-0.3119707724824548,-9.801466573476793,14932.0
18.41,1.0,218.0,25.6507625579834,-0.0159035474061965,-79.78275193901308,40.45897306734948,267.893563079834,0.0138778621330857,0.0083818826824426,-0.7753702402114868,0.631298840045929,0.0048199880888246,-0.0055475767681277,0.0026603805992408,0.0027135219424963,-0.0014588519698008,0.0091652777045965,0.0465500903734937,-0.3189355372264981,-9.802329622507097,14932.0
18.6,1.100000023841858,214.0,25.641998291015625,0.0238553211092948,-79.78275194650693,40.458973064315664,267.8938292741776,0.0138519145548343,0.0083902766928076,-0.7753713130950928,0.6312979459762573,0.004077174705887,-0.0055119599812224,0.0030077290197403,-0.006232205312699,0.0010962919332087,-0.0036814038176089,0.04181449893862,-0.3062039560452104,-9.799916476607324,14932.0
18.7,1.2000000476837158,211.0,25.65201568603516,-0.0159035474061965,-79.78275190038855,40.45897305633499,267.90164201259614,0.0138190761208534,0.0084123369306325,-0.7753912210464478,0.6312739849090576,0.0060656864772618,-0.0024781801317775,0.0027612560632497,-0.0013158632209524,-0.0001003736833808,0.0063691544346511,0.0449160539824515,-0.3177292200922966,-9.80200451731682,14932.0
18.9,1.2000000476837158,210.0,25.65201568603516,-0.0397588685154914,-79.78275190480306,40.4589730513409,267.90190296173097,0.013832937926054,0.0084171155467629,-0.7753965258598328,0.6312671303749084,0.0057721594681752,-0.0024584758983285,0.0029367401726254,-0.0047001307830214,2.6355717636761256e-05,-0.0074594947509467,0.0405859304079786,-0.3029434389621019,-9.799362160563469,14932.0
19.0,1.100000023841858,209.0,25.65451812744141,-0.0238553211092948,-79.78275185443461,40.45897306699521,267.9091139316559,0.0138363139703869,0.0084264911711215,-0.7754132151603699,0.6312462687492371,0.0028750396211147,-0.000890803160209,0.0026969376084555,-0.0023110557813197,-0.003842964535579,-0.0026749991811811,0.0434660632722079,-0.3127350766584277,-9.802527843117712,14932.0
19.2,1.100000023841858,213.0,25.641998291015625,-0.0238553211092948,-79.78275180087296,40.45897307059586,267.9156187057495,0.0138549599796533,0.0084497258067131,-0.7754226922988892,0.6312339901924133,0.0041012516393084,0.0028228043285775,0.0025902425481988,0.0005625056219287,0.0005512951756827,-0.0011028124717995,0.0425657656509429,-0.3057372203283012,-9.799957991838458,14932.0
19.3,1.100000023841858,212.0,25.64825820922852,-0.0397588685154914,-79.78275179656737,40.45897306195389,267.9161334514618,0.0138460779562592,0.0084597766399383,-0.7754476070404053,0.6312035322189331,0.0038172008421656,0.0029377731348949,0.0030096952485598,-0.0067771431058645,-0.0011204390320926,-0.0028081466443836,0.0426824587164446,-0.308324887342751,-9.801007567048073,14932.0
19.5,1.100000023841858,208.0,25.65451812744141,-0.0159035474061965,-79.7827517761427,40.45897306365436,267.9220341920853,0.0138497548177838,0.0084582306444644,-0.7754642367362976,0.6311829686164856,0.0071562947566672,-0.0012198758241915,0.0026186731515743,0.0028740628622472,0.0015454632230103,-0.001766471308656,0.0427371484553441,-0.3086240455135703,-9.800884775519371,14932.0
19.61,1.100000023841858,207.0,25.643251419067383,0.0,-79.78275175536807,40.45897306049388,267.927671122551,0.0138512132689356,0.0084599424153566,-0.7754663825035095,0.6311803460121155,0.0084644814089239,-0.0034025258089292,0.0024333631605272,-0.0081999683752655,-0.0030222521163523,-0.0050151515752077,0.0420984040992334,-0.3043168768286705,-9.79938554942608,14932.0
19.81,1.100000023841858,207.0,25.65326690673828,-0.0238553211092948,-79.78275176161037,40.45897305320455,267.92788379192353,0.013867630623281,0.0084659680724143,-0.775482714176178,0.6311597228050232,0.0093831846061665,-0.0036116608192614,0.0024257052408607,0.0070052803494036,0.0021500131115317,0.003063223324716,0.0444658046728,-0.311724823974073,-9.80167590379715,14932.0
19.91,1.100000023841858,208.0,25.6407470703125,-0.0238553211092948,-79.78275174375555,40.45897305537096,267.9330703496933,0.0138878617435693,0.0084664048627018,-0.7755017280578613,0.6311358809471129,0.0097995511637474,-0.0047949524207515,0.0024275954664638,-0.0037854157853871,-0.0015945895574986,-0.0064884712919592,0.0421780312992632,-0.3038629867136478,-9.80000184595585,14932.0
20.1,1.100000023841858,206.0,25.60068130493164,0.3021674156188965,-79.78275175192545,40.458973047046754,267.9332842111588,0.0138693545013666,0.0084710828959941,-0.7756457328796387,0.6309593319892883,0.0112329551782755,-0.0048840353051211,0.0024635794400717,0.0119880689308047,0.0062655163928866,0.0123841259628534,0.0504074026085436,-0.3304012327641249,-9.803223077058794,14932.0
20.2,1.100000023841858,207.0,25.623218536376957,0.278312087059021,-79.78275172043566,40.45897305038329,267.9380624771118,0.0138845238834619,0.0084981955587863,-0.7755177021026611,0.6311160326004028,0.0117008900801277,-0.0035504526482885,0.0027856402368335,0.0033455975353717,0.0009320901590399,0.0130233839154243,0.0351970679406076,-0.2972088735736907,-9.802642448544503,14932.0
20.4,1.100000023841858,208.0,25.608192443847656,0.278312087059021,-79.78275172618183,40.45897304143,267.93830780982967,0.0138725573197007,0.0084905484691262,-0.775608241558075,0.6310051083564758,0.0097037998844336,-0.0021752314596294,0.0028727966230416,0.0007893089787103,0.0016743371961638,-0.0018102974863722,0.0556006665760651,-0.3292543745040894,-9.80596776008606,14932.0
20.51,1.100000023841858,209.0,25.61946105957031,0.278312087059021,-79.78275168870766,40.4589730702008,267.943802523613,0.0138800954446196,0.0085074640810489,-0.7755301594734192,0.6311006546020508,0.0060851755630764,-0.0015718285938988,0.0059515536823206,-0.0087330117821693,0.0001157129372586,0.0002247575321234,0.0382182877231389,-0.3011075046099723,-9.795961419939996,14932.0
20.6,1.100000023841858,209.0,25.621965408325195,0.2942156493663788,-79.78275167300248,40.45897306496194,267.9490399837494,0.0138793475925922,0.0084854159504175,-0.7755536437034607,0.6310721039772034,0.0124807123719334,-0.0025671333607046,0.0084626755616521,-0.0045669735409319,0.000343807041645,0.0050987862050533,0.0438784244516864,-0.3182352600619197,-9.803066956400873,14932.0
20.81,1.2000000476837158,208.0,25.61069679260254,0.3339745104312897,-79.78275168548356,40.45897304299736,267.9506873369217,0.0138524193316698,0.0085024191066622,-0.7755823731422424,0.6310371160507202,0.0139350587198593,-0.002620770192531,0.0087992079944293,0.008271362632513,-0.0012182340724393,0.0053448732942342,0.0460509391548112,-0.3166162391379476,-9.80473633646965,14932.0
20.92,1.2000000476837158,210.0,25.615705490112305,0.3975887000560761,-79.78275164422102,40.45897305981325,267.9549105644226,0.0138650871813297,0.0085024675354361,-0.7756385207176208,0.6309678554534912,0.0117142968730699,-5.360544318632962e-05,0.0100065130389805,-0.0095305871218442,0.0023985931184142,-0.002020567189902,0.0409443555912002,-0.3101511555165052,-9.798064078688622,14932.0
21.11,1.2000000476837158,210.0,25.51554107666016,13.883797645568848,-79.78275164718859,40.45897304927325,267.95586829185487,0.013863667845726,0.0085218148306012,-0.7756111025810242,0.6310014128684998,0.0123275675953014,-0.0001956808312951,0.0099884163780582,0.007090242113918,0.0047557135112583,-0.0045717116445302,0.0374256610963493,-0.3066506102308631,-9.80011995971203,14932.0
21.3,1.2000000476837158,210.0,25.533069610595703,0.5407206416130066,-79.78275160227751,40.4589730574622,267.95886116027833,0.0141805307939648,0.0086989142000675,-0.775648832321167,0.6309454441070557,0.0154759473798448,0.0029984708637002,0.0107536894425504,0.0146367270499467,0.0153041603043675,-0.0011162279406562,0.0387278634309768,-0.2603651292063296,-9.811526123285292,14932.0
21.41,1.2000000476837158,210.0,25.60944557189941,0.2226496636867523,-79.78275160042655,40.458973045694094,267.9597374677658,0.0143473595380783,0.0087999058887362,-0.7756660580635071,0.6309190988540649,0.0079361884858895,0.003607629398739,0.0072147251116457,-0.0102944383397698,-0.0260213259607553,0.0055872439406812,0.0417194588435813,-0.3265316550806165,-9.78536217212677,14932.0
21.5,1.2000000476837158,212.0,25.603185653686523,5.534434795379639,-79.78275154064019,40.45897306119382,267.9629444360733,0.0142431566491723,0.0087452931329607,-0.7757059931755066,0.6308731436729431,0.0076321914098444,0.0071353810485879,0.0090964008062005,0.0060074366629123,0.0067407814785838,-0.0035766276996582,0.0454234552569687,-0.2989252689108253,-9.815633207559586,14932.0
21.7,1.2000000476837158,214.0,25.56562423706055,0.5407206416130066,-79.78275150875547,40.45897311561571,267.9630566120148,0.0144621692597866,0.0088963620364665,-0.775680661201477,0.6308972239494324,0.0040210713634121,0.002527619530371,0.0064561514810031,0.0309346430003643,0.0204627308994531,-0.0041784206405282,0.0636443248344585,-0.3160852023214102,-9.82221249461174,14932.0
21.81,1.2000000476837158,215.0,25.595672607421875,0.2306014448404312,-79.78275150384766,40.45897311521636,267.96361832618715,0.0144805563613772,0.0088876793161034,-0.7757412195205688,0.6308225393295288,-0.0012427750776605,0.0028600114395085,0.0048023317589153,0.0023352832067757,0.0044615580700337,-0.0073386058211326,0.0587678703200072,-0.3345469817519188,-9.8037545889616,14932.0
21.9,1.2000000476837158,215.0,25.611949920654297,0.1908425688743592,-79.78275147121454,40.4589731359893,267.96088128089906,0.0142658771947026,0.0087660383433103,-0.7757519483566284,0.630815863609314,0.0038143162251428,0.0026307970194008,-0.0017907858563584,0.0009571237605996,0.0060575068928301,-0.0006615114980377,0.0105518145603127,-0.3336370819061994,-9.795863186717034,14932.0
22.1,1.2000000476837158,216.0,25.33524703979492,4.0554046630859375,-79.78275145566467,40.4589731591455,267.96169703006746,0.014031789265573,0.0085543347522616,-0.7758122086524963,0.6307498216629028,0.0079779798831173,0.0001923434929572,0.0041603432417749,0.0035534149501472,-6.000670055072988e-06,-0.0012396399397403,0.0489818377280607,-0.3242505100741982,-9.811107462644577,14932.0
22.2,1.2000000476837158,217.0,25.210041046142567,4.985762119293213,-79.78275145664354,40.45897315363181,267.96203260421754,0.0140979448333382,0.0085634086281061,-0.7758464813232422,0.6307061314582825,0.0072179061305382,5.096622531813953e-05,0.0037384382777789,0.0091731110587716,0.0173042081296443,-0.0084704225882887,0.047615914447233,-0.310934828594327,-9.807508501410483,14932.0
22.41,1.2000000476837158,218.0,25.01346969604492,7.498522758483888,-79.78275143017545,40.45897314204621,267.9590304374695,0.0146270040422678,0.0090151838958263,-0.7759250998497009,0.6305909752845764,0.0143036233248922,0.0012125544089074,0.0001145740413457,-0.0128465974703431,-0.0052820048294961,0.0310655664652586,-0.0047096067282836,-0.3511782172322273,-9.774671123027804,14932.0
22.61,1.2000000476837158,219.0,24.786848068237305,9.82839298248291,-79.78275143180576,40.458973125857256,267.9590963602066,0.0150627624243497,0.0092564485967159,-0.7759180068969727,0.6305860877037048,0.0232217339437602,0.0039718999933149,0.0013227656186476,0.0363787524402141,-0.0340197086334228,0.0127734988927841,0.0307154238224029,-0.3309829210862517,-9.794944004416466,14932.0
22.7,1.2000000476837158,220.0,24.64912223815918,11.514168739318848,-79.7827514154857,40.4589731821192,267.95418446064,0.0160697009414434,0.0100384010002017,-0.7760583758354187,0.630376398563385,0.0208442730638209,-0.0054034553128082,-0.0040196850645143,0.094846025109291,0.0397215969860553,-0.0270565021783113,-0.004924872200936,-0.2993388497829437,-9.742566400766371,14932.0
22.8,1.2000000476837158,220.0,24.50764083862305,12.865970611572266,-79.78275142093743,40.45897317385725,267.9539986133576,0.0166713148355484,0.0105288606137037,-0.7760565280914307,0.6303550601005554,0.0093681887429916,-0.0035185316426332,0.0002491447756941,0.0097724497318267,-0.0668198242783546,0.0638797283172607,0.0166133443708531,-0.5192732419073582,-9.798507297635078,14932.0
23.0,1.2000000476837158,220.0,24.209651947021484,16.444269180297848,-79.78275134623294,40.45897317095012,267.949946808815,0.018453449010849,0.0120904352515935,-0.7761623859405518,0.6301469802856445,0.0209616699868398,0.0043736535889568,-0.0008384400156676,0.082007423043251,-0.0141024533659219,-0.0376444198191165,-0.0136913810740225,-0.4396442877128721,-9.831925889253618,14932.0
23.2,1.2000000476837158,221.0,23.91416931152344,19.815820693969727,-79.78275134220705,40.45897315734409,267.94989769458766,0.0198851730674505,0.0126020899042487,-0.7762778997421265,0.6299511790275574,0.0156739020870386,0.0061780231201042,-0.0013695461642133,0.0504553169012069,-0.0453826822340488,0.0175638031214475,0.0665540592279285,-0.4562643769383431,-9.794025406837465,14932.0
23.3,1.2999999523162842,221.0,23.748897552490234,21.6129207611084,-79.7827513057483,40.45897322203975,267.947065281868,0.0206725113093853,0.0130763752385973,-0.7762263417243958,0.6299796104431152,0.0095866256885917,0.0033596074243641,0.0034545168335994,0.0561311729252338,-0.0423856303095817,-0.0026060238014906,0.0777985655609518,-0.5130681766569615,-9.807883307933809,14932.0
23.5,1.2999999523162842,222.0,23.43212890625,25.40591812133789,-79.78275128104052,40.45897320653787,267.93353192806245,0.0114468401297926,0.013506393879652,-0.7764729261398315,0.6299018859863281,-0.0180338312935432,0.0234917329256784,0.0319137429166114,-0.1518580168485641,-0.0187853146344423,-0.0229153744876384,-0.0275862658093683,-0.4080507948249579,-9.882875018119812,14932.0
23.6,1.2999999523162842,222.0,23.28689193725586,27.139404296875,-79.78275122714861,40.45897320635108,267.9374958753586,0.0036672418937087,0.0142690809443593,-0.775593638420105,0.6310605406761169,-0.0046513724944349,0.0495203001518977,0.0610276025210512,-0.0591596812009811,-0.1373524069786071,0.0672062709927558,0.0573209037166088,-0.4507162829115987,-10.215242450237277,14932.0
23.7,1.2999999523162842,221.0,23.15041732788086,28.841083526611328,-79.78275126507884,40.45897307312512,267.9472821235657,-0.0078712375834584,0.0149967521429061,-0.7756503820419312,0.6309356093406677,-0.0268870997535201,0.0981573320357893,0.2368898164781098,-0.3502821624279022,-0.0782936960458755,-0.0979375019669532,-0.1454566704668104,-0.0032441380270756,-10.83902458548546,14932.0
23.91,1.399999976158142,219.0,23.772686004638672,20.793888092041016,-79.78275065886966,40.45897289945685,267.99442653656007,-0.0083347260951995,0.003435157937929,-0.7767254114151001,0.6297748684883118,-0.0224254898294834,0.1526851379032253,0.3299927296135727,-0.2418576925992965,0.2415270954370499,-0.0995490252971649,-0.1217100861668586,0.2922697305120528,-10.044833536148072,14932.0
24.1,1.399999976158142,220.0,23.65749740600586,20.6507568359375,-79.78275045784346,40.45897287876336,268.02469568252565,-0.0026231468655169,-0.0035032860469073,-0.776986300945282,0.6295022368431091,-0.0164639065334316,0.180608839972634,0.2842772539584943,-0.0656087175011634,0.1359525173902511,-0.0535305999219417,-0.0439534058561548,0.1455441777035594,-9.50527177155018,14933.0
24.2,1.399999976158142,220.0,23.62619781494141,22.54327964782715,-79.7827498856686,40.4589729530693,268.04763333797456,0.002666113898158,-0.0066940151154994,-0.7769665718078613,0.6295006275177002,-0.0394643935222146,0.1527440082981732,0.1811347128509438,-0.0027482907753437,0.1493146121501922,-0.0075150085613131,-0.0450777934491634,-0.0498641049116849,-9.350149818062784,14933.0
24.4,1.399999976158142,223.0,23.46468162536621,24.507368087768555,-79.78274949920754,40.458972978278105,268.0720980644226,0.0115681653842329,-0.0089277997612953,-0.7766779065132141,0.6297286152839661,-0.0525736119676134,0.1469487603558733,0.0729092286728633,0.086380697786808,0.0649864748120307,0.0061763804405927,0.0043825018359348,-0.22464744893834,-9.358794341683389,14933.0
24.51,1.2999999523162842,227.0,23.39581871032715,24.411945343017567,-79.78274908637047,40.45897313446703,268.0895019054413,0.0115969041362404,-0.0053046876564621,-0.7767990827560425,0.6296194195747375,-0.0590390914594395,0.1361649840527506,0.0515915525809604,0.2820782363414764,0.0130187384784221,0.1043536216020584,0.254315471984446,-0.1806636512652039,-9.690775272846222,14933.0
24.7,1.2999999523162842,225.0,23.374534606933597,23.55315399169922,-79.78274849252854,40.45897309953627,268.1121900558472,0.01163942925632,-0.0035684732720255,-0.7768009901046753,0.629628598690033,-0.0926262750014042,0.1448960297572283,0.0905603121358878,-0.0757437571883201,0.1258517503738403,-0.1247970089316368,0.1755272560380399,0.2505783154629171,-9.73858737051487,14933.0
24.8,1.2999999523162842,223.0,23.517269134521484,23.767852783203125,-79.78274830491172,40.458973147426775,268.122158575058,0.0114308102056384,-0.0038981547113507,-0.7765176296234131,0.6299797892570496,-0.1024598190859337,0.1506720907232174,0.104484268900186,-0.2385483533143997,-0.0796088427305221,-0.1015957295894622,0.1435331101063639,-0.0800989972427487,-9.900429528951646,14933.0
25.0,1.2999999523162842,219.0,23.30817604064941,24.36423492431641,-79.78274782947702,40.45897353673215,268.15530853271486,0.0056634126231074,-0.0074442336335778,-0.7761425971984863,0.6304880380630493,-0.100657682664832,0.1594953164346362,0.14188084523038,0.0306650940328836,0.0565593987703323,-0.0301575511693954,0.2982072673738003,0.053384201824665,-9.892313593626024,14933.0
25.1,1.2999999523162842,215.0,23.34573745727539,25.80350685119629,-79.78274763158463,40.45897359552978,268.1706448078156,0.0072973305359482,-0.0072688502259552,-0.7760820388793945,0.6305479407310486,-0.1211710814818364,0.1568169091862341,0.1565529441987378,-0.2071218937635421,0.0155177870765328,-0.0522167012095451,0.1383408648334443,0.2075693582743406,-9.871468269824982,14933.0
25.2,1.2999999523162842,209.0,23.19048309326172,26.41579246520996,-79.78274706466405,40.45897376671602,268.1944039344788,0.0099988617002964,-0.0065712705254554,-0.776423454284668,0.6300981044769287,-0.1054743905270221,0.1593309426824911,0.1583177250170592,0.1607594788074493,0.0794539302587509,0.032972615212202,0.1646126057580113,-0.1337329848110676,-9.889681177139284,14933.0
25.41,1.2999999523162842,209.0,23.47219467163086,23.31460189819336,-79.78274658702418,40.458973980004245,268.23127751350404,0.015883307904005,-0.0073304860852658,-0.7759872674942017,0.6305060982704163,-0.0897123332210138,0.1445045448499199,0.20149922170107,0.2367110997438431,0.0319368205964565,0.0734527111053466,0.1605184219032526,-0.3762445729225874,-10.047574710845948,14933.0
25.5,1.2999999523162842,205.0,23.288143157958984,26.21699905395508,-79.782746402986,40.458974047695065,268.25163011550904,0.0184628311544656,-0.009442713111639,-0.7758786678314209,0.6305413246154785,-0.1103950398334999,0.1269221059304677,0.1950480802469688,-0.0003675328625831,0.1854966580867768,0.0149081777781248,0.2385230561345816,0.0552947064489126,-9.811264168024064,14933.0
25.7,1.2999999523162842,205.0,23.19674301147461,25.501338958740234,-79.78274629088693,40.45897420298007,268.26450686454774,0.0194896943867206,-0.01129418797791,-0.7756175994873047,0.6308010220527649,-0.107054127564091,0.1114328395701934,0.1881611971045717,-0.1862236708402633,0.0184491090476512,-0.0801446214318275,0.0327703912183642,-0.0257480679452419,-9.767393093705175,14933.0
25.9,1.399999976158142,203.0,23.14666175842285,27.409765243530277,-79.78274606374963,40.45897432033915,268.3074715614319,0.0207378957420587,-0.011454053223133,-0.7761163115501404,0.6301447153091431,-0.092160337230037,0.0707508217359358,0.2392379544256951,-0.0463930405676364,0.084788903594017,-0.0499007552862167,0.2294955581612885,0.0451084913313388,-10.017608900070194,14933.0
26.0,1.5,202.0,23.20676040649414,26.59073257446289,-79.78274581568238,40.45897445117757,268.33722977638246,0.0209034178406,-0.0092404223978519,-0.7764464020729065,0.6297688484191895,-0.0806081748624476,0.0809940651773657,0.2553756705019437,-0.0137822888791561,-0.1373880207538604,0.0642426088452339,0.2814122915826738,-0.3220302126556635,-10.12410540819168,14933.0
26.1,1.600000023841858,203.0,23.22804450988769,21.326658248901367,-79.78274576642424,40.4589746346236,268.39102988243104,0.0203796681016683,-0.0067839832045137,-0.7774051427841187,0.6286334991455078,-0.0560133693560402,0.0262150592258784,0.2995387361302803,-0.1843638718128204,-0.0676280409097671,-0.0843653455376625,0.124906704146415,-0.1365327595733106,-10.077900710105895,14933.0
26.3,1.600000023841858,203.0,23.09783172607422,27.22687339782715,-79.78274573675345,40.4589746794674,268.4297779083252,0.0155977765098214,-0.0023317032027989,-0.7786047458648682,0.6273165345191956,-0.0473933092587963,0.021112970613573,0.0788814993551999,-0.3206638395786285,-0.2641687393188477,0.0023497005458921,0.2651005333475769,-0.0790266270283609,-8.840334008932114,14933.0
26.4,1.600000023841858,205.0,23.02145576477051,29.24662399291992,-79.78274550106663,40.45897491320436,268.4574025154114,0.0071612237952649,0.0007330090738832,-0.7792755961418152,0.6266402006149292,-0.0396925508162404,0.0127258504793967,0.0975934353231592,-0.0880133062601089,-0.14810611307621,0.0066336863674223,0.0390287620620802,-0.3558328932523728,-9.572677304148677,14933.0
26.6,1.600000023841858,205.0,22.436748504638672,36.40322113037109,-79.78274551319195,40.458975020487216,268.50196652412416,0.0051672216504812,-0.0045738760381937,-0.7806923389434814,0.6248774528503418,-0.0320948601526036,0.0170038208254285,0.3185823222881103,-0.0616270080208778,0.022360922768712,-0.0395718440413475,0.2188504827953875,0.008764172270894,-10.936115262508393,14933.0
26.8,1.600000023841858,205.0,22.223899841308597,37.73912048339844,-79.78274548474215,40.45897504447219,268.54306988716127,0.0058990246616303,-0.0065039284527301,-0.7812657356262207,0.6241368055343628,-0.0417063240069616,0.0271433631857281,0.5133779970740459,-0.069280557334423,0.0324394889175891,-0.0373757556080818,0.1080197077989578,-0.1084709666669368,-11.550960513353347,14933.0
26.91,1.7000000476837158,206.0,22.280242919921875,37.49261474609375,-79.78274527448325,40.45897513335893,268.6823344707489,0.0098470961675047,-0.0061976015567779,-0.7812463045120239,0.624114453792572,-0.0510705438782901,0.0243292174747378,0.9416144257733589,0.0308930911123752,0.0703518167138099,0.0636091902852058,0.0342802976164966,-0.076844053287059,-12.053162662982944,14933.0
27.0,1.7000000476837158,205.0,22.171314239501957,39.3374252319336,-79.78274524650587,40.458975177786186,268.7872925281525,0.0124490829184651,-0.0059857042506337,-0.7806962728500366,0.6247580051422119,-0.0504621728831117,0.0235979186169629,1.1630057383735828,0.1463217437267303,0.1474348902702331,-0.0330142527818679,0.0532012022472918,-0.2533408873155713,-12.04808611035347,14933.0
27.21,1.7999999523162842,206.0,22.218891143798828,37.55622863769531,-79.78274513662036,40.45897532624994,269.0560486793518,0.0141162257641553,-0.0051610763184726,-0.7792331576347351,0.6265538930892944,-0.0667618603593758,0.0250259339147348,1.610574507858415,0.1338255852460861,0.0901700183749198,0.0346626341342926,0.1716223940625786,-0.323146080672741,-12.109707577228544,14934.0
27.4,1.8999999761581416,207.0,21.8570499420166,40.72898483276367,-79.78274512498147,40.4589753715983,269.22778420448304,0.0138832395896315,-0.0040675988420844,-0.7788466215133667,0.627047598361969,-0.0808966889802364,0.0366993937357227,1.8329126264394644,-0.0609243772923946,0.0323622450232505,0.0790113508701324,0.2244345006532968,-0.2276591669954359,-12.039863755702973,14934.0
27.5,1.8999999761581416,207.0,21.99978256225586,41.31741714477539,-79.78274507865582,40.45897545771101,269.4099433898926,0.0128456111997365,-0.0023802751675248,-0.7789497375488281,0.6269503831863403,-0.0848129073765105,0.0358271293321497,2.0480552237015126,-0.0220654644072055,-0.0198798924684524,-0.0003732039185706,0.2579119846969843,-0.21007492672652,-12.204158821105954,14934.0
27.71,2.0,207.0,21.80696678161621,41.43669509887695,-79.78274499124466,40.45897552073839,269.8473704338074,0.0135644013062119,-0.0008280042093247,-0.7791051268577576,0.6267461180686951,-0.0754005226558797,0.0391232254181741,2.5017260793011435,-0.0503880903124809,0.0590846464037895,-0.0614615827798843,0.2147517490759492,-0.2832013751193881,-12.218799079656598,14934.0
27.8,2.0999999046325684,206.0,22.114971160888672,36.37936401367188,-79.78274499251405,40.4589755320191,270.10939865112306,0.014186774380505,-0.0017506433650851,-0.7793431282043457,0.6264344453811646,-0.0712590396710397,0.0496083387318918,2.737403981296609,-0.0866674706339836,-0.008366516791284,-0.0293677039444446,0.2510419631190598,-0.3375638526678085,-12.189317418336868,14935.0
27.91,2.299999952316284,206.0,22.47055435180664,33.127090454101555,-79.78274492816216,40.45897554912485,270.6804430961609,0.0098247528076171,-0.0020133520010858,-0.7804647088050842,0.6251194477081299,-0.0550748651766343,0.0716269338551083,3.070487270999897,-0.1657532155513763,-0.1599861085414886,0.0327800586819648,0.3539996449649334,-0.2750358846411109,-11.388274601697926,14935.0
28.11,2.400000095367432,205.0,22.519384384155277,31.886613845825195,-79.7827447789993,40.45897564543832,271.3331268310547,0.006994729861617,-0.0035185413435101,-0.7823323607444763,0.622812032699585,-0.0288895901469417,0.0644535369656166,3.2380298265708647,-0.0325908027589321,-0.1524620205163955,-0.0222109071910381,0.3228794476389885,-0.0819458585791289,-10.503535909652712,14936.0
28.3,2.5,203.0,22.648345947265625,30.685895919799805,-79.78274477962033,40.45897564286397,271.6597574234009,0.0068327663466334,-0.0052434662356972,-0.7826479077339172,0.6224051117897034,-0.0251706176344601,0.0606446796789542,3.2785486154118764,-0.0787976011633873,-0.1156746074557304,-0.0525655373930931,0.185516748894006,-0.090900083631277,-10.21522958636284,14936.0
28.41,2.5999999046325684,202.0,22.508115768432614,32.49094772338867,-79.78274478468697,40.45897564285967,271.98904638290406,0.0084312725812196,-0.0067712226882576,-0.7823429703712463,0.6227540373802185,-0.0197679029233351,0.0572249931320509,3.296304192083324,-0.0487088523805141,-0.0326992906630039,-0.0851281136274337,0.1619997043535113,-0.0540530227962881,-10.00601036310196,14936.0
28.6,2.799999952316284,201.0,22.667125701904297,30.26445198059082,-79.78274458702762,40.45897565262671,272.658672618866,0.0117772202938795,-0.006187355145812,-0.7808433175086975,0.6245853304862976,-0.0308110772645979,0.0692330797162693,3.3217701719520165,0.0373699069023132,-0.0403733104467392,-0.1064846739172935,0.167395679410547,0.086911295838654,-9.92922472715378,14937.0
28.7,2.799999952316284,201.0,22.65335273742676,30.05770492553711,-79.7827439780536,40.458975503624046,273.45912008285524,0.0133853908628225,-0.0039854841306805,-0.7802420258522034,0.6253217458724976,-0.0343845708889758,0.0884893498634666,3.38012418476282,0.1058659479022026,0.0016080882633104,0.1009526178240776,0.115165224596858,-0.1879623833857477,-9.784258217811583,14938.0
28.9,2.900000095367432,197.0,22.70218276977539,29.413612365722656,-79.7827439700491,40.45897549572496,273.7967098236084,0.0136075112968683,-0.0025318278931081,-0.7802680134773254,0.6252923011779785,-0.0392587622386237,0.0772559363186096,3.3662118581436977,0.0427951104938983,0.0546895563602447,0.1096467599272728,0.0795940901711583,-0.1670609080418944,-9.672657675147056,14938.0
29.0,3.0,196.0,22.60702705383301,30.76541328430176,-79.78274314051214,40.45897501824997,274.158964920044,0.0126351993530988,-0.0032751827966421,-0.7805691361427307,0.6249332427978516,-0.0226859966782086,0.1195483615650827,3.338536222628338,-0.0996010228991508,0.128371000289917,0.071800909936428,0.0353067671880126,-0.0486347186844796,-9.585479782819748,14939.0
29.2,3.0999999046325684,192.0,22.79859161376953,27.58470344543457,-79.7827420557535,40.45897418759628,274.8612154006958,0.0089839985594153,-0.010467373766005,-0.7815557718276978,0.6236830353736877,0.0641996173370659,0.1817912994366466,3.3053635951964213,-0.0151718826964497,-0.0168510060757398,-0.0077377068810164,0.1796916978433728,-0.1254828558862209,-9.671675342917444,14939.0
29.3,3.0999999046325684,192.0,22.837404251098643,28.66614532470703,-79.78274196295914,40.45897409368109,275.19042282104493,0.0090634236112236,-0.0124383624643087,-0.7821102738380432,0.6229500770568848,0.0743078202186318,0.1863642394191256,3.268491415491516,-0.0449531078338623,-0.0233713556081056,0.020764360204339,0.1706446299701929,-0.038806878500618,-9.46656378865242,14940.0
29.4,3.0999999046325684,189.0,22.78231430053711,27.02012825012207,-79.78274230661337,40.45897425133647,275.89117126464845,0.0115667525678873,-0.0067966245114803,-0.7822532057762146,0.622816264629364,0.0360010323840627,0.1077934688728206,3.1846917372734858,0.0618509911000728,-0.1088258475065231,-0.0805648937821388,0.2264983119629323,-0.1554842981323599,-9.340590205192566,14940.0
29.61,3.0999999046325684,189.0,22.804851531982425,28.92855262756348,-79.78274263706449,40.45897440210189,276.61385040283204,0.0114199575036764,-0.0020792507566511,-0.7822403907775879,0.6228685975074768,-0.0172459900340712,0.0352092296587585,3.1500321833994818,0.0423624068498611,0.0140783693641424,0.0408615283668041,0.1582155508361757,-0.1273597572930157,-9.348407932519914,14941.0
29.7,3.0999999046325684,188.0,22.751012802124023,27.59265518188477,-79.78274268894398,40.458974383196896,276.9273889541626,0.0104382075369358,0.0003892766544595,-0.7823362350463867,0.6227688193321228,-0.0118286424362565,0.0150842834208871,3.1225872877357603,0.0317248329520225,-0.0583088733255863,-0.0192607026547193,0.172646533884108,-0.1670895593985915,-9.498642783164977,14941.0
29.9,3.0,189.0,22.624555587768555,30.55866622924805,-79.78274274305058,40.4589743585356,277.2377889633179,0.0093513755127787,0.0012275944463908,-0.782335102558136,0.6227864623069763,-0.0134146499942022,0.0024921161022949,3.0824860934314127,-0.0447568856179714,-0.1375181376934051,-0.0411756671965122,0.1345356796123087,-0.1579166119359433,-9.431300985217096,14942.0
30.1,3.0,191.0,22.908771514892567,25.85121726989746,-79.78274287003909,40.45897431087914,277.9224298477173,0.0083596222102642,-0.0002809535362757,-0.7828620672225952,0.6221392154693604,-0.0035013999159112,-0.0179440815838833,3.1086001628699296,-0.0696718618273735,0.0754625722765922,0.0699366331100463,0.073247284758836,-0.0803123840689659,-9.7317677628994,14942.0
30.2,3.0,191.0,22.724720001220703,28.44349479675293,-79.78274316807683,40.45897451235415,278.2915428161621,0.0093553634360432,-0.0028349980711936,-0.7834234833717346,0.6214113831520081,-0.0097351820057961,-0.0539469477477946,3.125494156685072,0.015628857538104,0.0243271403014659,0.0204327404499054,0.1845433702133596,-0.0925013162288814,-9.632358080148697,14943.0
30.3,3.0,191.0,22.58448982238769,30.733606338500977,-79.7827433722392,40.45897451823929,278.90887050628663,0.0101326834410429,-0.0089025748893618,-0.7836968302726746,0.6209970712661743,-0.0237745037637773,-0.0199632993692889,3.0608360659454843,-0.1219768226146698,0.0896054953336715,-0.0347116813063621,0.1677638895437121,-0.0402035499131307,-9.51726148724556,14943.0
30.51,3.0,192.0,22.44050407409668,31.250471115112305,-79.7827436932171,40.45897468602028,279.5546663284302,0.0102689703926444,-0.0071889478713274,-0.7832466363906859,0.6215848326683044,-0.0254703662932148,-0.029100855785009,3.0923167510438434,0.1478643715381622,-0.0913194492459297,0.0147956414148211,0.2622139091603458,-0.1811413870565593,-9.945982847213743,14944.0
30.61,3.0,193.0,22.85243034362793,26.344226837158203,-79.78274374463824,40.458974627703576,279.8836515426636,0.0124748535454273,-0.0019991844892501,-0.7831857800483704,0.621659517288208,-0.0350848183412757,-0.0358653284871467,3.1169893013954413,0.1505434662103653,-0.0360760912299156,0.0100025916472077,0.2555148638226092,-0.1895532463118434,-9.82112257361412,14944.0
30.8,2.900000095367432,193.0,22.61704444885254,29.23072052001953,-79.78274387446997,40.45897466330207,280.19352226257325,0.015193267725408,0.0035346176009625,-0.7833268046379089,0.6214143633842468,-0.0661529527551628,-0.0548941475567684,3.084199793547449,0.0606175623834133,0.0037105262745171,-0.0430234894156456,0.1178372011519968,-0.1338136581145227,-9.510093385577203,14945.0
31.0,2.900000095367432,192.0,22.6132869720459,29.310237884521484,-79.78274402000707,40.45897465119258,280.8181751251221,0.0145491855219006,0.0063984533771872,-0.7836270928382874,0.6210281848907471,-0.0878815658321493,-0.0686663982319748,3.0767486909112214,0.0134708322584629,-0.0418757684528827,0.0894379019737243,0.1613930009119212,-0.3048766746371985,-9.724765137434009,14945.0
31.1,2.900000095367432,192.0,22.59951591491699,29.47722625732422,-79.78274415679245,40.4589746534835,281.4279630661011,0.0104378070682287,0.0019240522524341,-0.7838066220283508,0.6209142804145813,-0.0549099908754108,-0.0595604016625089,3.0836226853958086,-0.0671366155147552,0.068596065044403,0.0002645377535372,0.0447227578237652,-0.2082616503350436,-9.7881091940403,14946.0
31.21,2.900000095367432,191.0,22.46429443359375,31.425411224365234,-79.78274425377846,40.45897464901329,281.7365558624268,0.0103120226413011,0.0009715995984151,-0.7837081551551819,0.6210429072380066,-0.0304288977383145,-0.0479497038939023,3.0931938112939443,0.0094482963904738,-0.0040774992667138,-0.0762295946478843,0.2468555942550301,-0.055363429505378,-9.923309683799744,14946.0
31.4,3.0,190.0,22.571969985961918,29.381805419921875,-79.7827444096597,40.458974686795365,282.3403480529785,0.0101025979965925,0.0011709835380315,-0.7831781506538391,0.621714174747467,-0.0407483909591365,-0.0285149369195712,3.149565808954687,0.0673598423600196,-0.0075529902242124,0.0378051213920116,0.206560329850763,-0.2423229240439833,-10.1352010846138,14947.0
31.61,3.0,189.0,22.55444145202637,30.025897979736328,-79.78274447923958,40.458974693960144,282.6564605712892,0.0082065854221582,0.0002519762783776,-0.7830014824867249,0.621965765953064,-0.0487618543915323,-0.0266400868778132,3.168257471190451,0.0010642689885571,-0.0096910186111927,0.1141365692019462,0.1591897335089743,-0.3797788858786226,-10.032930943965912,14947.0
31.7,3.0,187.0,22.513124465942383,30.12927055358887,-79.78274452384086,40.45897472028973,282.9379280090332,0.0079727591946721,-0.0004730663204099,-0.7828013300895691,0.622220516204834,-0.0468373880810971,-0.0188439369074771,3.1378316260166472,-0.0153177082538604,0.0724573284387588,0.0396929234266281,0.1452616384159773,-0.1592401109263301,-9.952670892477038,14947.0
31.9,3.0,186.0,22.59701156616211,30.26445198059082,-79.78274462441492,40.458974755767976,283.56774215698243,0.0097203245386481,0.0015340389218181,-0.7826110720634459,0.6224333047866821,-0.0596699216169428,-0.0084725132763825,3.147792565632531,0.0680310055613517,-0.0699852854013443,-0.0504706278443336,0.2126849045231938,-0.2560341879352928,-9.808524162769318,14948.0
32.0,3.0,186.0,22.57697868347168,28.8887939453125,-79.78274477816629,40.45897490240028,283.8590648651123,0.0110334744676947,0.0030003506690263,-0.782706081867218,0.6222866177558899,-0.1005062221961258,-0.0231747119740556,3.093551389183051,-0.1790259480476379,-0.0547387599945068,-0.1299520283937454,0.0919586672075092,0.0397883153753355,-9.517542153596876,14948.0
32.1,3.0999999046325684,186.0,22.515628814697266,31.34589195251465,-79.78274485572052,40.45897503675131,284.45955352783204,0.0141014717519283,0.0057469834573566,-0.7828795313835144,0.6219870448112488,-0.0975926843925696,-0.0278375453376245,3.055037053785008,0.1679818630218506,-0.0158748216927051,0.0363899506628513,0.2292266227863729,-0.30745993796736,-9.736810986399652,14949.0
32.3,3.0999999046325684,185.0,22.4567813873291,30.510955810546875,-79.78274494729284,40.458975090825376,285.07327728271486,0.01313241943717,0.0064368550665676,-0.7828413248062134,0.6220496296882629,-0.1011440657500152,-0.0145319595467443,3.080974825141063,-0.0227630343288183,0.054410807788372,-0.0158322360366582,0.1505558079667389,-0.2209641964361072,-9.925597114562988,14950.0
32.5,3.0999999046325684,184.0,22.51813125610352,29.65216445922852,-79.78274499022835,40.45897521210932,285.36645584106446,0.0128309121355414,0.0048768105916678,-0.7829453349113464,0.6219390630722046,-0.1101232875817561,-0.0219221387540931,3.0926000926412187,-0.105659618973732,0.1122914478182792,-0.01243906468153,0.1152609087992459,-0.2118699671141803,-10.00240613937378,14950.0
32.6,3.0999999046325684,183.0,22.66462135314941,29.07963752746582,-79.78274503160799,40.458975231845216,285.67701225280763,0.0125015955418348,0.0013184051495045,-0.7830018401145935,0.6218923926353455,-0.0976940712144694,-0.0167813802280066,3.1155946001087003,-0.1113722324371338,0.0515247397124767,-0.0506804175674915,0.0410779324918985,-0.2423521053045989,-10.013655012845993,14950.0
32.8,3.0999999046325684,181.0,22.571969985961918,28.41168785095215,-79.78274496007866,40.45897517885543,286.26941566467286,0.0149012943729758,-0.0030528514180332,-0.7820504307746887,0.6230295896530151,-0.0583505312820865,0.0367558434304193,3.088774954071234,-0.0655151903629303,-0.0175513960421085,-0.0477951392531394,0.1928749398887157,-0.0570007777959108,-9.823555015325548,14951.0
32.9,3.2000000476837163,182.0,22.619548797607425,28.89674568176269,-79.78274523211985,40.458975096081424,286.8787525177002,0.0130441803485155,0.0013690919149667,-0.7811293005943298,0.6242315769195557,-0.030113721109546,5.797289237636366e-05,3.0768123806257712,0.0396849066019058,-0.0743869841098785,0.0707595348358154,0.2181639648601412,-0.3152595023810863,-9.656346867084505,14951.0
33.1,3.2000000476837163,181.0,22.63958168029785,28.65024185180664,-79.78274531561651,40.45897507658383,287.18569831848146,0.008528315462172,0.0025547062978148,-0.781410813331604,0.6239535808563232,-0.0304648612765996,-0.0180384888305167,3.0644338140288903,-0.0837689861655235,-0.1261649578809738,-0.0047974805347621,0.1387037211097777,-0.1749415112100541,-9.708596416711806,14952.0
33.2,3.0999999046325684,181.0,22.39793586730957,31.91046905517578,-79.78274549814225,40.458975052925226,287.4908054351807,0.0060848207212984,0.0037835077382624,-0.7822998762130737,0.6228609085083008,0.0057814671149517,-0.0584741545386896,3.0677324645925363,-0.0233659334480762,0.0545275099575519,-0.0052618379704654,0.0563175397831946,-0.0446377173811197,-9.635024410486222,14952.0
33.41,3.0999999046325684,179.0,22.322813034057614,31.838903427124023,-79.78274569486881,40.458974975134566,288.1035774230957,0.0074323224835097,0.0015100612072274,-0.7847581505775452,0.6197556853294373,0.0202896814115074,-0.0550992431016841,3.077191879085102,-0.0460887551307678,0.0814662352204322,-0.0141929574310779,0.0748316426575183,-0.0239535528933629,-9.922204560041427,14953.0
33.51,3.0999999046325684,180.0,22.34159278869629,30.75746154785156,-79.78274570937462,40.45897490634231,288.4085968017578,0.0092162443324923,-0.0009162973146885,-0.7859006524085999,0.6182835698127747,0.0313753809304514,-0.0144110551400266,3.1055732424780325,-0.0400797724723815,0.081913985311985,0.0005805295659229,0.1537061050347984,-0.0581788684101775,-9.93572449207306,14953.0
33.61,3.0,182.0,22.38416290283203,31.14709854125977,-79.78274573192294,40.45897491474596,289.02154808044435,0.0091737965121865,-0.0020704669877886,-0.7872628569602966,0.6165458559989929,0.0133768740240128,0.0352915801769594,3.1467818550233244,-0.0614372827112674,0.0611769817769527,-0.0482716783881187,0.1020763145852834,-0.0729474139586091,-9.980225311517716,14954.0
33.8,3.0,183.0,22.117475509643555,34.288047790527344,-79.78274579285491,40.45897482392256,289.65572052001954,0.0073890616185963,-0.0057896892540156,-0.7869676947593689,0.6169227957725525,0.0218765548594964,0.0473475013723185,3.2116968905756766,-0.0685829222202301,-0.0188987888395786,-0.0674708485603332,0.181727789696306,-0.1210514155961573,-10.221314198970797,14954.0
33.9,2.900000095367432,188.0,22.501855850219727,28.196990966796875,-79.78274571486871,40.45897487582594,289.957304763794,0.0056926803663372,-0.0065098470076918,-0.7866158485412598,0.617382287979126,0.0253921415205681,0.0649054297273845,3.232494748265918,0.0019845091737806,-0.0196561738848686,-0.0184002760797739,0.2100624831207097,-0.1835615678876638,-10.24600932955742,14954.0
34.1,2.900000095367432,188.0,22.473058700561523,29.00012016296387,-79.78274572318455,40.45897484249475,290.2808292388916,0.0058488785289227,-0.0063356533646583,-0.7861599326133728,0.6179630160331726,0.0276935943189851,0.0603494733129069,3.233404090394381,-0.0347386486828327,0.0384324043989181,-0.052725750952959,0.0886634688265621,-0.0419180266326293,-9.855538115501403,14955.0
34.3,2.799999952316284,191.0,22.45803451538086,29.914573669433597,-79.7827455918468,40.45897491164343,290.8935916900635,0.0090403351932764,-0.0058262809179723,-0.7854094505310059,0.6188831925392151,-0.0017240754986788,0.0647669900494281,3.1667093331551976,-0.0246201995760202,-0.0307697355747222,-0.0657650902867317,0.1901420243829489,0.0302990655228495,-9.652583599090576,14955.0
34.4,2.799999952316284,192.0,22.44050407409668,30.256500244140625,-79.78274560491906,40.458974942415296,291.5119464874268,0.0095084346830844,-0.0043919361196458,-0.7851330041885376,0.6192386150360107,-0.0096140656508267,0.0689311172263238,3.1208759043238605,0.0527304969727993,0.0477886460721492,0.0044140354730188,0.1370400603488087,-0.0461065653618425,-9.604246421456338,14956.0
34.5,2.700000047683716,194.0,22.46805000305176,29.008071899414062,-79.78274560744221,40.45897492889088,291.8235233306885,0.0091323945671319,-0.0028454200364649,-0.7851834893226624,0.6191893815994263,-0.0156299072916236,0.0549906283037874,3.11182034883308,-0.0330017805099487,0.0223109293729066,0.0065028634853661,0.0669018589239567,-0.0367084863921627,-9.671018115878104,14956.0
34.7,2.700000047683716,195.0,22.55819702148437,26.82928466796875,-79.78274549027243,40.458974922574185,292.44556884765626,0.0101294955238699,-0.0037686321884393,-0.7858861684799194,0.6182767152786255,-0.0188875936973091,0.0621376415951672,3.070614860798808,-0.0408535450696945,0.0020223448518663,0.0241592023521661,0.1171998181007802,-0.0345415059872902,-9.453709854483606,14957.0
34.8,2.700000047683716,195.0,22.35787010192871,30.717702865600582,-79.78274548182341,40.45897490196013,292.750439453125,0.009980134665966,-0.0049967970699071,-0.7860945463180542,0.6180055737495422,-0.0134066220667543,0.0669965702934831,3.030702323329244,0.0035270962398499,0.1299226284027099,0.0355933234095573,0.1466355148237198,-0.1351633508037776,-9.446089763045311,14957.0
35.01,2.700000047683716,194.0,22.45052146911621,28.825180053710927,-79.78274562432321,40.45897490095959,293.067671585083,0.0090674953535199,-0.0062931808643043,-0.7862876057624817,0.6177620887756348,0.0051409951444478,0.0539145982650849,3.0581159770502304,-0.0735372081398963,-0.0317518562078475,-0.0729542523622512,0.1692857918702066,-0.0503075751056894,-9.528254252672197,14958.0
35.2,2.700000047683716,193.0,22.541921615600582,28.936504364013672,-79.7827455310487,40.45897485732889,293.68331413269044,0.0064433603547513,-0.005942337680608,-0.7863951325416565,0.6176616549491882,0.0189498969723864,0.0604796850352917,3.056577025112487,0.0643432736396789,-0.0364524275064468,0.062935896217823,0.2086633357778192,-0.2014547786861658,-9.680594100952147,14958.0
35.3,2.700000047683716,195.0,22.40043830871582,28.87289047241211,-79.78274555559469,40.45897481510668,294.29363136291505,0.0070834252983331,-0.0026594072114676,-0.7861587405204773,0.6179783940315247,0.0038369248825367,0.0409677954592243,3.048400374207738,-0.0320260450243949,-0.0121455239132046,-0.0771477371454238,0.1013470480218529,-0.0169687146123033,-9.72771330356598,14959.0
35.4,2.700000047683716,196.0,22.602020263671875,28.276508331298828,-79.78274557649422,40.458974879860286,294.59483795166017,0.0075262770988047,-0.0012388330651447,-0.7860403060913086,0.61812824010849,-0.0024651377431438,0.0365535264474622,3.041962074645433,0.0677974224090576,-0.0656336098909378,0.041291918605566,0.201895804926753,-0.1593305600434541,-9.681941884160045,14959.0
35.61,2.700000047683716,195.0,22.329072952270508,30.542762756347656,-79.78274554603044,40.45897490102401,295.19579391479493,0.0084540955722332,-0.0009016846306622,-0.7856650352478027,0.6185938119888306,-0.0149664687613674,0.0437481626445385,3.0415662406398525,0.0095277391374111,0.1102334186434745,0.0323866046965122,0.125769935902208,-0.0313508517108857,-9.752869194746015,14960.0
35.8,2.700000047683716,193.0,22.461790084838867,28.864938735961918,-79.78274553711991,40.458974880231736,295.5001667022705,0.0084943315014243,-0.0029475237242877,-0.7857189178466797,0.6185183525085449,-0.0156491144281836,0.0520520658764668,3.0458777261547567,-0.0429648347198963,0.0763065218925476,0.0164975095540285,0.1383571274019777,-0.1468306747823953,-9.81302885770798,14960.0
35.9,2.5999999046325684,195.0,22.50686264038086,29.21481704711914,-79.78274552314693,40.458974859304206,295.80443649291993,0.0067319637164473,-0.0054222284816205,-0.7857065796852112,0.6185389757156372,-0.0117815848033546,0.0630240232573737,3.0382862280198464,-0.0882418528199195,0.0097357165068388,-0.0433215722441673,0.185464069135487,-0.1151328547764569,-9.749170830845832,14960.0
36.1,2.700000047683716,196.0,22.4567813873291,29.27047920227051,-79.78274547581336,40.45897492049797,296.398201751709,0.0058217924088239,-0.0084997070953249,-0.785333514213562,0.6189872026443481,-0.008571176079857,0.077898257651067,3.015380479980716,-0.1145474463701248,-0.0128479916602373,-0.0603569038212299,0.1853902297653258,0.1417802701704204,-9.719430137872695,14961.0
36.21,2.700000047683716,196.0,22.39417839050293,29.33409309387207,-79.7827454228392,40.458974958668655,296.985941696167,0.0072920494712889,-0.0071694324724376,-0.7855476140975952,0.6187167167663574,-0.0103429007006519,0.0825951031703115,2.9981472978881043,0.1763558089733123,-0.0315025486052036,0.0219519548118114,0.3265213128179312,-0.2332918629236519,-9.783124442696572,14961.0
36.3,2.700000047683716,198.0,22.34284400939941,29.34999847412109,-79.78274539440082,40.45897497369603,297.28599243164064,0.0094527937471866,-0.0051398198120296,-0.7856793403625488,0.6185405254364014,-0.0389833232587725,0.081639008013152,2.9990075847174587,0.011010711081326,-0.0749866217374801,-0.0018769154557958,0.2075107582099736,-0.1700996146537363,-9.819284209012986,14962.0
36.5,2.700000047683716,199.0,22.514375686645508,27.314342498779297,-79.78274532893276,40.45897507453768,297.8690746307373,0.0157324708998203,-0.0037170874420553,-0.7860639691352844,0.6179338693618774,-0.0714030978208694,0.073653151664192,2.961978557639549,0.1063291877508163,-0.0166045185178518,0.0170630495995283,0.2314132073521614,-0.144390284512192,-9.621826075315475,14962.0
36.7,2.5999999046325684,202.0,22.34409713745117,30.32011413574219,-79.78274531416186,40.458975090226346,298.15517501831056,0.0173081737011671,-0.0034815818071365,-0.7862090468406677,0.6177084445953369,-0.0721454105117647,0.0829052537432031,2.9401271172010897,0.0618669390678405,-0.0018596176523715,0.0450728125870227,0.2508428471535444,-0.2098425729945302,-9.609522948861123,14963.0
36.8,2.5999999046325684,203.0,22.306535720825195,31.115291595458984,-79.78274530104217,40.4589751018549,298.44924240112306,0.0173533018678426,-0.0028265158180147,-0.7866261601448059,0.6171793341636658,-0.0823154788027961,0.0859084138494311,2.9399939556994874,-0.0294318236410617,0.0621988289058208,-0.0184253230690956,0.1846015500091016,-0.0947940734401345,-9.715805448889732,14963.0
37.0,2.700000047683716,205.0,22.13625717163086,32.634078979492195,-79.78274526056649,40.45897518868903,299.0296524047852,0.0152485575526952,-0.0024335284251719,-0.787321925163269,0.6163488030433655,-0.0746505319388379,0.0699432206318992,2.9782978104862163,-0.0009024795144796,-0.0635926723480224,-0.0718082413077354,0.2157593887858093,-0.0803965931106358,-9.985412961244585,14964.0
37.1,2.799999952316284,207.0,22.230159759521484,30.98806381225586,-79.78274528685733,40.458975221968686,299.6058090209961,0.0141361560672521,-0.0041376380249857,-0.7873751521110535,0.6162982583045961,-0.0571342501695964,0.0644694271864137,3.006005161215737,0.0045385682024061,-0.0239880550652742,0.0075978217646479,0.2415398174151778,-0.2199819921143353,-10.11788864850998,14964.0
37.3,2.799999952316284,208.0,22.483074188232425,28.23674964904785,-79.78274529551877,40.45897522332993,299.90795974731446,0.0142081500962376,-0.0052159028127789,-0.7874324917793274,0.6162151098251343,-0.0493179906542262,0.0665442192679976,3.0300005266755723,-0.0266888067126274,0.0149901658296585,0.0003256586496718,0.2705985423177481,-0.1274783461354673,-10.0257856464386,14964.0
37.4,2.799999952316284,208.0,22.276485443115234,30.407583236694336,-79.78274530954529,40.458975220804966,300.21073989868165,0.0152589082717895,-0.0051853540353477,-0.7873473167419434,0.616299033164978,-0.0488082734152833,0.0676498026514293,3.017561789636632,-0.061262484639883,0.058393333107233,0.0503107197582721,0.2023446883633733,-0.0056820820597931,-9.691733631491662,14965.0
37.6,2.799999952316284,209.0,22.180078506469727,31.369747161865234,-79.78274526533043,40.45897523823706,300.7873199462892,0.0145422564819455,-0.0048287506215274,-0.7872370481491089,0.6164602041244507,-0.0459234646290968,0.0557767675575126,2.9773033492467085,0.0246193837374448,-0.0184019841253757,-0.0094632264226675,0.159017770551145,-0.2831834680214524,-9.787512778043748,14965.0
37.7,2.799999952316284,208.0,22.04110145568848,33.01576614379883,-79.7827452343417,40.45897525029074,301.0694892883301,0.0140511849895119,-0.004684570711106,-0.7871154546737671,0.6166279911994934,-0.0425776841712833,0.0659721216461042,2.9840814126130124,-0.0398960039019584,0.0473807528614997,-0.0544016808271408,0.2088734700903296,-0.1123339845053851,-9.927507984638217,14966.0
37.8,2.799999952316284,209.0,22.33157730102539,29.44541931152344,-79.78274526717544,40.45897523511093,301.6741455078125,0.01258410140872,-0.002967806532979,-0.787205696105957,0.6165549755096436,-0.0473007960189603,0.0564640938275231,3.062745950504687,-0.1445848196744918,-0.0024758630897849,-0.0249640718102455,0.1654361860826611,-0.104234531018883,-10.116314578056336,14966.0
38.0,2.799999952316284,209.0,22.233917236328125,30.70975112915039,-79.7827453309705,40.458975128749145,302.25707321166993,0.0129053117707371,-0.0042088977061212,-0.7873734831809998,0.6163269877433777,-0.0285362064713321,0.050455312707712,3.0466098981252987,-0.027929414063692,-0.0417854003608226,0.0011980987619608,0.2079526432603597,-0.1973828690685332,-9.896405475139616,14967.0
38.1,2.799999952316284,209.0,22.371641159057614,28.403736114501957,-79.78274536916565,40.45897513129773,302.5410888671875,0.0122934812679886,-0.0059139858931303,-0.7870761156082153,0.6167051196098328,-0.0231606322996022,0.0643576979508747,3.028808121314712,-0.0092670302838087,0.0306221172213554,0.0730446130037307,0.2980499772727489,-0.1655585756152868,-9.86560585141182,14967.0
38.3,2.799999952316284,209.0,22.270225524902344,30.224693298339844,-79.78274538367744,40.45897511525049,302.84383087158204,0.0125634102150797,-0.006694789044559,-0.7869803905487059,0.6168138384819031,-0.0093039337020852,0.067488426836129,3.0258680699016467,0.1421736478805542,0.1324903517961502,0.0064129075035452,0.2930552856624127,-0.211856865696609,-9.796035094857215,14967.0
38.5,2.799999952316284,209.0,22.306535720825195,29.739633560180664,-79.78274536261505,40.45897519746197,303.4358222961426,0.0131448730826377,-0.006508263759315,-0.788031280040741,0.6154603958129883,-0.0587600844316068,0.0840690104839567,3.0491852604414595,-0.1136288419365882,-0.0784843862056732,-0.0954829305410385,0.2642865461111069,-0.0586958764772862,-9.897868448495863,14968.0
38.61,2.799999952316284,209.0,22.425479888916016,28.10951995849609,-79.78274542644488,40.45897524109912,304.0359237670898,0.0158146619796752,-0.0024735033512115,-0.789379358291626,0.6136970520019531,-0.050808579403509,0.0560262078837366,3.054996759321696,0.1475443094968795,0.0518205016851425,0.0339267253875732,0.2558116100169718,-0.2022892129048705,-9.847287694215773,14969.0
38.7,2.700000047683716,210.0,22.3891716003418,29.24662399291992,-79.78274544308222,40.45897525087045,304.3412216186524,0.016288885846734,-0.0023009032011032,-0.7897748351097107,0.613176167011261,-0.0728969138792416,0.0505251172063824,3.0454726045972684,0.0112397288903594,-0.0754129365086555,0.0023160059936344,0.1871868415921926,-0.2799410773068667,-9.773535009026528,14969.0
38.91,2.700000047683716,211.0,22.371641159057614,29.2863826751709,-79.78274539679957,40.45897528811145,304.9470069885254,0.0150167671963572,-0.0038090287707746,-0.7896377444267273,0.6133778095245361,-0.066553942622791,0.0627054249983688,3.0477209674486345,-0.0504617094993591,0.1012542694807052,0.0768640041351318,0.158056835476309,-0.1028319210279733,-9.74107594549656,14969.0
39.0,2.5999999046325684,210.0,22.29401588439941,29.381805419921875,-79.78274540589881,40.45897529031221,305.25167922973634,0.0139160919934511,-0.0045746574178338,-0.7895671129226685,0.6134893894195557,-0.0541356551835044,0.0636734646231518,3.0469762979801867,0.0286877173930406,0.0014666706556454,-0.0338712520897388,0.2680497775599361,-0.1896402601897716,-9.7984985268116,14970.0
39.2,2.5999999046325684,209.0,22.28650283813477,29.34999847412109,-79.78274545441963,40.45897532312596,305.55626373291017,0.0130669204518198,-0.005237266421318,-0.7895342707633972,0.6135450005531311,-0.047333019306745,0.0523847424896741,3.0663814482147465,0.0047590914182364,-0.0683110877871513,-0.0068736234679818,0.2351200314424932,-0.3200879137963057,-9.854450533390043,14970.0
39.4,2.5999999046325684,206.0,22.4567813873291,27.44157218933105,-79.78274551004392,40.45897533949309,306.1734817504883,0.0129978349432349,-0.0059325620532035,-0.788998007774353,0.6142296195030212,-0.0500983538316441,0.0502817050791462,3.0922052164150746,0.0025833491235971,0.0674388706684112,-0.0166322998702526,0.1874227584712207,-0.0887962554395198,-9.785052854418756,14971.0
39.5,2.5999999046325684,205.0,22.37038993835449,28.10951995849609,-79.78274555850327,40.45897541865144,306.7837875366211,0.0154445813968777,-0.0041030822321772,-0.7870020270347595,0.6167434453964233,-0.0646404263090602,0.0493428761415646,3.049824592081816,-0.0745862051844596,-0.177794262766838,-0.0160271078348159,0.2615374776721001,-0.1465852744504809,-9.597358986139296,14971.0
39.6,2.5999999046325684,204.0,22.18132972717285,32.08540725708008,-79.78274550297347,40.458975480908,307.0881774902344,0.0153890876099467,-0.0006478255963884,-0.7865573167800903,0.6173251867294312,-0.0638491422165251,0.0556572934884954,3.0487095537737856,0.0512500889599323,0.0552143901586532,-0.0082489168271422,0.1974176965467632,-0.0114318547770381,-9.632619450688363,14972.0
39.8,2.5999999046325684,203.0,22.302780151367188,28.57072448730469,-79.78274556554156,40.4589754893868,307.69774703979493,0.0147206755355,9.504164336249232e-05,-0.7871065139770508,0.6166414618492126,-0.0783329527878925,0.023884082209742,3.0420085247707207,-0.1543480902910232,-0.0679295435547828,-0.0373874567449092,0.1603119786456227,-0.1492594437114894,-9.743035932183266,14972.0
40.0,2.5999999046325684,203.0,22.39417839050293,27.497234344482425,-79.78274564695111,40.45897553397937,308.0054100036621,0.0130638163536787,-0.0029132824856787,-0.7878377437591553,0.6157374978065491,-0.072380927782168,0.0186874336169765,3.0541314653398937,-0.184383288025856,0.1025588661432266,-0.0092868162319064,0.132252204855904,0.0263621352240443,-9.644644834399225,14973.0
40.11,2.5999999046325684,202.0,22.30528259277344,28.87289047241211,-79.78274568994622,40.45897553567986,308.3098915100098,0.0107740741223096,-0.0061660720966756,-0.7885358929634094,0.6148635149002075,-0.0365168024644094,0.0213595321350855,3.0329789805064817,0.0472883656620979,0.0549138896167278,0.0787101462483406,0.2696147848293185,-0.1699296982213854,-9.648913301825525,14973.0
40.3,2.5999999046325684,202.0,22.35912132263184,28.70590400695801,-79.78274581840543,40.45897560329339,308.91710357666017,0.0103694871068,-0.0077341692522168,-0.7896410822868347,0.6134326457977295,-0.0313522204282997,0.0313698092408892,3.0268517799909245,-0.046999767422676,0.0650127977132797,0.0296413395553827,0.170203110370785,0.0142351926863193,-9.669696645140649,14973.0
40.4,2.5999999046325684,201.0,22.35912132263184,28.419639587402344,-79.78274586493983,40.45897562329125,309.2195251464844,0.0120263686403632,-0.0067601059563457,-0.7895402312278748,0.6135437488555908,-0.0260267736005848,0.0273020022312731,3.019174518399197,0.1724473088979721,0.0332113020122051,0.0056821997277438,0.3386419330537319,-0.1792252544872462,-9.75863805770874,14974.0
40.5,2.700000047683716,202.0,22.260210037231445,28.332170486450195,-79.78274598449885,40.45897567255586,309.82153396606446,0.0153219904750585,-0.0026209305506199,-0.7892107963562012,0.6139256358146667,-0.0743013244326322,0.0388857155696681,3.016820846017766,-0.0822042152285575,-0.0091129522770643,-0.0629099309444427,0.2390227007120848,0.0137811198458075,-9.684249780178073,14974.0
40.6,2.5999999046325684,203.0,22.316551208496094,28.849035263061523,-79.78274603559778,40.45897573018333,310.1169784545898,0.0154454670846462,-0.0008770794956944,-0.7888250946998596,0.6144230961799622,-0.0639907202294142,0.0299751170587136,3.005922121422841,0.0976033508777618,0.0103156231343746,0.0634928420186042,0.2800289682671428,-0.2281466237828136,-9.643289449810982,14975.0
40.8,2.5999999046325684,204.0,22.325315475463867,28.936504364013672,-79.78274611806721,40.458975748562295,310.7168357849121,0.0144567256793379,0.0001446133828721,-0.7884784936904907,0.6148923635482788,-0.0738237016217824,0.0243279912497206,2.991354539294895,-0.0926042944192886,0.0451414063572883,-0.0615785494446754,0.1106943612825125,-0.0602118036802858,-9.671150847673417,14975.0
40.9,2.5999999046325684,207.0,22.09368705749512,32.125167846679695,-79.7827461400855,40.45897583902927,311.011238861084,0.0137404957786202,-0.0004955577896907,-0.7885133028030396,0.6148639917373657,-0.0665556057378293,0.025815614671064,3.0044485298275574,0.001785943401046,0.0219564158469438,-0.0387501306831836,0.2629866735264659,-0.1199999217689037,-9.867459418773652,14976.0
41.1,2.5999999046325684,208.0,22.28274726867676,29.381805419921875,-79.78274618248435,40.458975879286925,311.60290603637696,0.013535214588046,-0.0024113527033478,-0.7890968918800354,0.6141148805618286,-0.0558837335222026,0.050176561562873,3.0323717722969823,-0.0303401257842779,0.0040398892015218,0.0614360533654689,0.2483907624520361,-0.0497132102027535,-9.976575479507447,14976.0
41.3,2.5999999046325684,209.0,22.35161018371582,27.33819961547852,-79.78274619430593,40.45897587406093,311.9065673828125,0.0142916152253747,-0.0034219592344015,-0.7895296812057495,0.613536536693573,-0.0418388079468022,0.0528886506735087,3.040642614249307,0.0677506253123283,0.1575638502836227,0.0678264796733856,0.17825927618891,-0.1746855310723185,-9.890327879190444,14976.0
41.51,2.5999999046325684,210.0,22.34785270690918,28.006147384643555,-79.78274620457131,40.45897591022411,312.504345703125,0.0159583743661642,-0.0061501180753111,-0.7899025678634644,0.6129938364028931,-0.0472234419378052,0.0726969007258118,3.027934744698398,-0.0928981974720954,-0.0634929314255714,-0.0602193586528301,0.3037007630243897,-0.071467584175989,-9.73999713420868,14977.0
41.6,2.5999999046325684,211.0,22.05362129211425,31.36179542541504,-79.78274621651533,40.45897589894553,312.8069274902344,0.0164211690425872,-0.0054516354575753,-0.7897400856018066,0.6131975054740906,-0.0420545588308918,0.0840645387381163,3.021625227290313,-0.0281034745275974,0.0382586568593978,0.0663765892386436,0.2302322159707546,-0.1059465592168271,-9.682976841330529,14977.0
41.71,2.5999999046325684,214.0,22.186338424682614,30.80517196655273,-79.78274625314204,40.45897592795036,313.09841232299806,0.0152748059481382,-0.0038471466396003,-0.789478063583374,0.6135767102241516,-0.0354356848355034,0.0802519415109784,3.016916654949008,0.0309893023222684,-0.0368847884237766,0.0354000143706798,0.3527339785918593,-0.2256495520658791,-9.82239726662636,14978.0
41.9,2.5,217.0,22.41045570373535,27.425668716430664,-79.78274627668556,40.45897589208992,313.7070587158203,0.0119545850902795,-0.0038768956437706,-0.7895976901054382,0.6134962439537048,-0.0292789051499657,0.0629481990991658,3.072027800809773,-0.0001185807050205,0.015905262902379,-0.0132834622636437,0.2783497210219503,-0.195205128416419,-10.097860765457154,14978.0
42.0,2.5,219.0,22.253950119018555,28.90469741821289,-79.78274622884886,40.45897591121607,314.0011260986328,0.0123026696965098,-0.0050161886028945,-0.7894947528839111,0.6136136054992676,-0.0215479675665804,0.0892480839995149,3.064333275521398,-0.0053504984825849,0.0756400823593139,0.0130330454558134,0.2044806396961212,-0.1643262931890785,-9.853402712345122,14979.0
42.2,2.5,220.0,22.09619140625,30.11336708068848,-79.78274622951362,40.45897590317741,314.5965431213379,0.0157725065946578,-0.0039139972068369,-0.7897440195083618,0.6132213473320007,-0.0376422629795067,0.1085512625554418,3.028048815569438,-0.1264867782592773,-0.000575327372644,-0.0059860865585505,0.2532970514707267,0.0377379937749356,-9.721083730459211,14979.0
42.3,2.5,220.0,22.277738571166992,28.8887939453125,-79.78274619995037,40.45897587637548,314.89950256347663,0.0152382170781493,-0.0034039930906146,-0.7902572154998779,0.6125763654708862,-0.0278378143223987,0.1102600424806884,3.032728187211461,0.0927537754178047,0.0520183630287647,0.1076571121811866,0.2631493723019957,-0.2857875986024737,-9.848657112121582,14979.0
42.41,2.5,221.0,22.38791847229004,27.27458381652832,-79.78274619313116,40.458975852420565,315.4988525390625,0.012995408847928,-0.0055857435800135,-0.7912163734436035,0.6113727688789368,-0.0331724035661416,0.1057573432328131,3.033952068330624,-0.1386982947587967,0.0380958020687103,-0.0507023818790912,0.1452453941199928,-0.0763101705210283,-9.7041531175375,14980.0
42.61,2.5,221.0,22.25520133972168,29.381805419921875,-79.78274611421716,40.45897586056228,316.0968635559082,0.0142068350687623,-0.0082019791007041,-0.7916061282157898,0.6108115911483765,-0.0286742540308458,0.1215745289204923,2.997599612384913,-0.0352188870310783,0.0005276180454529,-0.0715052932500839,0.2917267799936235,-0.109223759137094,-9.59525281906128,14981.0
42.8,2.5,221.0,22.26521682739257,30.375776290893555,-79.78274607743482,40.45897584420587,316.3957679748535,0.0153832212090492,-0.0074844877235591,-0.7917405366897583,0.610617995262146,-0.0289190723465969,0.1238476841838976,2.9790357307042874,0.0145635502412915,0.0497145131230354,-0.0191650539636612,0.3056767199188471,-0.1698524236120283,-9.615511667132376,14981.0
42.9,2.5,221.0,22.073654174804688,31.22661590576172,-79.78274603971626,40.458975832407695,316.6936233520508,0.0155027350410819,-0.0068853716365993,-0.7915648221969604,0.6108498573303223,-0.0428131049318312,0.1209475735557795,2.9734138140436293,0.0009392747888341,-0.0892916321754455,0.0942829027771949,0.2720495471544564,-0.3089534995704889,-9.73242089688778,14981.0
43.1,2.400000095367432,221.0,22.166305541992188,30.41553497314453,-79.78274589976192,40.45897585143077,317.2964714050293,0.0145488521084189,-0.0069645182229578,-0.7913559675216675,0.6111428141593933,-0.0415367855677994,0.1302663465604688,3.032909703605837,-0.0219492986798286,0.0554252564907074,0.0180743187665939,0.2080405890382826,-0.2005959871597588,-9.958929752111436,14982.0
43.2,2.400000095367432,220.0,22.223899841308597,29.83505630493164,-79.78274584469277,40.45897586810066,317.8985145568848,0.0151851968839764,-0.0071316338144242,-0.7912708520889282,0.6112357378005981,-0.0411601346251626,0.1217107725409088,3.0355815980486662,0.0277441851794719,-0.0420237705111503,0.0276580434292554,0.267373199891299,-0.2524130255542696,-9.803284472823144,14982.0
43.4,2.5,220.0,22.071149826049805,30.87673759460449,-79.78274580767203,40.45897585738246,318.20238571166993,0.0154348528012633,-0.0077255233190953,-0.7910409569740295,0.6115197539329529,-0.0513335136555676,0.1251819971146615,3.034524593126298,-0.0644797757267952,0.0691783055663108,0.0134498160332441,0.2187140234000981,-0.0779845527000725,-9.747102085947992,14983.0
43.5,2.5,219.0,22.10871124267578,30.91649627685547,-79.7827458028828,40.45897590459877,318.49785308837886,0.014944102615118,-0.0078467763960361,-0.7909705638885498,0.6116214394569397,-0.0443815026501046,0.1227028455880303,3.038341608475011,0.0980606600642204,0.0435599684715271,-0.0143307317048311,0.3006284897401929,-0.2338303366675973,-9.889899863004684,14983.0
43.7,2.5,216.0,22.34284400939941,27.37795829772949,-79.78274577878409,40.45897594454295,319.1027572631836,0.0150869106873869,-0.0074982745572924,-0.7912518978118896,0.611258327960968,-0.0523891709981009,0.1092441075993937,3.078112715202828,-0.0370632037520408,-0.0341735146939754,0.0020041454117745,0.2524023543857038,-0.1984577517583966,-10.083015854358674,14984.0
43.8,2.5,216.0,22.17381858825684,29.31818962097168,-79.78274576272158,40.45897594894875,319.4114120483398,0.0170055162161588,-0.0074351113289594,-0.7914863824844359,0.6109049916267395,-0.0669107465276695,0.1042453629190336,3.0850472431291784,-0.1155322641134262,0.0470106750726699,-0.0150238024070858,0.1937825739383697,0.0593950572889298,-9.841546897888184,14984.0
43.9,2.5,215.0,22.09619140625,30.43939018249512,-79.78274576977604,40.45897599007596,320.0159996032715,0.017319917678833,-0.0055298162624239,-0.7917513251304626,0.610572874546051,-0.0736721891591566,0.0931964287604734,3.053270404330996,0.006949967239052,-0.1248798966407776,0.056935179978609,0.2089640836603939,-0.3950892353430391,-9.794362206459049,14985.0
44.1,2.5,213.0,22.217639923095703,29.43746757507324,-79.7827458294742,40.45897592163796,320.6133087158203,0.0162341129034757,-0.0039879824034869,-0.7922521829605103,0.609964907169342,-0.0337103284585035,0.0709604363968376,3.050764313701266,0.0517105534672737,0.0784550607204437,0.0912261754274368,0.1183009401708841,-0.1858576598390937,-9.775385652780534,14985.0
44.2,2.5999999046325684,211.0,22.13249969482422,29.80324935913086,-79.78274585181012,40.4589759027115,320.9187324523926,0.0156795885413885,-0.003415378043428,-0.7924491763114929,0.6097268462181091,-0.0330048014748713,0.063089604675362,3.054841061676311,0.0569326840341091,-0.0256539918482303,-0.0374821685254573,0.3077820464596153,-0.2082875425368547,-9.871953588724136,14985.0
44.41,2.5999999046325684,210.0,22.171314239501957,27.099645614624023,-79.78274587511825,40.45897588377216,321.22480087280275,0.0145201459527015,-0.0032882851082831,-0.7925290465354919,0.6096525192260742,-0.0408343229275264,0.0598686375142577,3.0649936273208684,-0.0514557734131813,-0.0892786085605621,-0.0085486061871051,0.1744473483972251,-0.2929390722513199,-9.885316815376283,14986.0
44.6,2.5999999046325684,207.0,22.23641967773437,28.67409706115723,-79.78274594090395,40.45897584164011,321.8260620117188,0.0124177243560552,-0.0044838651083409,-0.7918030023574829,0.6106339693069458,-0.0248260451596446,0.0547461230247998,3.052545075639161,-0.0268890801817178,0.1083578839898109,0.0833395570516586,0.1631328033842146,-0.1837990196608007,-9.699822669625284,14986.0
44.7,2.700000047683716,206.0,22.34660148620605,26.93265914916992,-79.78274600903059,40.458975868081325,322.12580184936525,0.0129705071449279,-0.0052964459173381,-0.7914052605628967,0.6111314296722412,-0.0195299127075284,0.0522926589314062,3.04285791498696,0.1035303995013237,-0.0355496108531951,0.014943310059607,0.2485037781670689,-0.405711177662015,-9.755845427513124,14987.0
44.8,2.5999999046325684,204.0,22.206371307373047,29.23867225646973,-79.7827460376097,40.45897585234113,322.7301643371582,0.0146408258005976,-0.0046540363691747,-0.7912007570266724,0.6113635897636414,-0.0241019371967654,0.0669532310332567,2.992252358897797,0.2192488014698028,0.0405554324388504,0.0348588265478611,0.3535708613321185,-0.3158368418365717,-9.596550900936126,14987.0
45.0,2.5999999046325684,204.0,22.057376861572266,30.980112075805664,-79.78274614553212,40.45897594897451,323.3354652404785,0.0155468955636024,-0.0035878189373761,-0.7917730808258057,0.6106069684028625,-0.0641515152441335,0.0616034151102976,3.0219446941275483,-0.0582398623228073,0.0567972287535667,-0.0220672134310007,0.2018887151777744,-0.1213676220551133,-9.797269442081452,14988.0
45.2,2.5999999046325684,204.0,22.206371307373047,29.59650230407715,-79.78274616916265,40.458976020772674,323.6387222290038,0.0153939314186573,-0.0038662175647914,-0.7920937538146973,0.610193133354187,-0.06876493142157,0.0599031477757768,3.0499027368633405,-0.0204988457262516,-0.0440779738128185,0.0292336363345384,0.2828504690900445,-0.1720490215346217,-9.89880049467087,14988.0
45.3,2.5999999046325684,205.0,22.246437072753903,28.5468692779541,-79.78274618532072,40.45897602913983,323.94358520507814,0.0156737864017486,-0.004300023894757,-0.7921940684318542,0.610052764415741,-0.0616968086406253,0.0608150090741198,3.039111045844685,0.0417205691337585,-0.054783921688795,-0.002841753186658,0.2736408303491771,-0.3004262674413621,-9.745042696595194,14988.0
45.4,2.5999999046325684,205.0,22.114971160888672,29.71577835083008,-79.78274626512788,40.45897610132876,324.5487373352051,0.0139112966135144,-0.0050552617758512,-0.7922416925430298,0.6100279092788696,-0.0605729107519712,0.0523714044654948,3.0373060473289715,-0.0354069732129573,-0.0258163157850503,-0.0242880843579769,0.3042121751233935,-0.1510347314737737,-9.765529586076736,14989.0
45.61,2.5999999046325684,205.0,22.230159759521484,28.451446533203125,-79.7827463250945,40.45897614013713,325.15391235351564,0.0109630106016993,-0.0043865009211003,-0.7922686338424683,0.6100583076477051,-0.0542746231186956,0.0502058321036317,3.0386001060607173,-0.019909381866455,0.05742958933115,-0.0063169421628117,0.1496343964152038,-0.1483777292724699,-9.756864597201348,14990.0
45.7,2.5999999046325684,205.0,22.071149826049805,30.60637855529785,-79.78274634489446,40.45897615725146,325.4576194763184,0.0095286294817924,-0.0042587514035403,-0.7925653457641602,0.6096977591514587,-0.0493733069269468,0.0386924699256107,3.0374404936609807,-0.0161937233060598,-0.0027168886736035,-0.0375591516494751,0.2687258984148502,-0.2137903937324881,-9.818301876783371,14990.0
45.91,2.5999999046325684,206.0,22.1888427734375,29.055782318115234,-79.78274636003903,40.45897617823052,325.7619827270508,0.0091455150395631,-0.0044739292934536,-0.7927036881446838,0.6095220446586609,-0.0568687763908625,0.0386626402552931,3.0467053874818864,-0.058039728552103,-0.0941324606537818,0.0131093654781579,0.1890309437736869,-0.1084001057222485,-9.883408284187317,14990.0
46.1,2.5999999046325684,207.0,22.18759155273437,29.055782318115234,-79.78274639055377,40.4589762798494,326.36935501098634,0.0113491928204894,-0.0033280146308243,-0.7927982211112976,0.6093693971633911,-0.0547062494407487,0.0474672439710161,3.047647398638744,0.1287768334150314,0.0597464963793754,0.0104740783572196,0.239792249109596,-0.3106672819331289,-9.762897169589996,14991.0
46.21,2.5,208.0,22.24894142150879,27.60060691833496,-79.78274644100233,40.45897634060732,326.6712043762207,0.0125675834715366,-0.0033434424549341,-0.7930437326431274,0.6090260148048401,-0.0808589879165099,0.0481817268160773,3.0449892036692354,-0.0771006420254707,-0.0926793590188026,-0.0387672297656536,0.1932192678004503,-0.1828296426683665,-9.726277227401734,14991.0
46.41,2.5,207.0,22.1888427734375,29.532888412475582,-79.7827464335055,40.45897640732551,327.2789505004883,0.0121207861229777,-0.0059810979291796,-0.7937389016151428,0.6081085205078125,-0.0816152541050455,0.0643231386277655,3.031045376431985,0.050753753632307,0.0830379277467727,0.0248443037271499,0.3002444373071193,-0.2407905150018632,-9.776857396960258,14992.0
46.5,2.5,208.0,22.14877700805664,28.56277275085449,-79.78274649555006,40.45897647402652,327.5801780700684,0.0111761493608355,-0.0065786684863269,-0.7939205169677734,0.6078832745552063,-0.075438194383985,0.0673265272436837,3.045790045214252,-0.0404273010790348,-0.1030347868800163,-0.0164266545325517,0.2376877265609801,-0.2349933295883238,-9.84346010684967,14992.0
46.6,2.5,209.0,22.30904006958008,27.234825134277344,-79.78274654686648,40.45897658924497,328.18244247436525,0.0124647254124283,-0.0049090073443949,-0.7938715815544128,0.6079379320144653,-0.0770042430112542,0.0679164996402898,3.0514539011995745,0.068330705165863,0.0736518800258636,0.0806633457541465,0.2131856819987297,-0.1758255736716091,-9.791006489396096,14993.0
46.8,2.5,209.0,22.123735427856445,29.78734588623047,-79.78274652227483,40.45897667998463,328.7875717163086,0.0144486203789711,-0.0043469276279211,-0.7936752438545227,0.6081545948982239,-0.1139086126065015,0.0733847795904983,2.9972601689973883,-0.1517811715602874,0.05109254270792,-0.0670813620090484,0.2008049703016877,0.0671743939910084,-9.514525575041771,14993.0
47.0,2.5999999046325684,210.0,22.17632293701172,28.8887939453125,-79.78274658547504,40.45897678383647,329.0806282043457,0.0135610736906528,-0.0034844800829887,-0.7935916781425476,0.6082895994186401,-0.0993296227303711,0.0600684882235285,2.978472074046659,0.1045995205640792,-0.0331334024667739,0.0618268325924873,0.3212189845740795,-0.2111266215518117,-9.600008944272997,14994.0
47.11,2.5999999046325684,209.0,22.23516845703125,28.47530174255371,-79.78274657773945,40.45897683324924,329.3774803161621,0.012051498517394,-0.0022278369870036,-0.7936443090438843,0.6082585453987122,-0.1084510182967796,0.0610283578273159,2.9541176396718067,-0.0569246299564838,-0.1028281077742576,-0.0459649562835693,0.2085082018375396,-0.0966725736949592,-9.568404743671415,14994.0
47.3,2.5999999046325684,207.0,22.078662872314453,30.908544540405277,-79.78274653072475,40.458977004572894,329.9657104492188,0.0125885857269167,-0.0019903245847672,-0.793852686882019,0.6079766750335693,-0.1113458960644145,0.0466920371962007,2.9006762631535943,-0.0242083817720413,-0.0591447316110134,0.0712102055549621,0.1513081618957221,-0.2185274424031377,-9.44577635228634,14994.0
