time,wind_speed,wind_angle,battery_voltage,battery_current,position_x,position_y,position_z,orientation_x,orientation_y,orientation_z,orientation_w,velocity_x,velocity_y,velocity_z,angular_x,angular_y,angular_z,linear_acceleration_x,linear_acceleration_y,linear_acceleration_z,node_ids
0.0,2.900000095367432,147.0,25.01346969604492,-0.0477106422185897,-79.78284913668854,40.458926917818346,270.6448293027878,-0.0081544136628508,0.01198869664222,-0.9992481470108032,0.0359586477279663,-0.0355676886159606,-0.0299478530668497,-0.034028327424303,-0.0030725209508091,-0.0006778422975912,-0.0018286758568137,-0.2601925267092884,0.1153874736092984,-9.804242831468583,14935.0
0.2,3.0,144.0,24.99594116210937,-0.0397588685154914,-79.78284896021988,40.458927053655145,270.62132826423647,-0.008172950707376,0.0119721721857786,-0.9992464780807496,0.036005463451147,-0.0352684420448557,-0.0284308679844741,-0.034806140715973,-0.0003734180645551,-0.0015366349834948,0.0016939179040491,-0.2612421932816505,0.1288957751635462,-9.803419543504717,14935.0
0.3,3.0999999046325684,145.0,25.0072078704834,-0.0477106422185897,-79.78284892204229,40.458927082427024,270.61785939311983,-0.0081655643880367,0.0119569646194577,-0.999245285987854,0.0360469780862331,-0.0385702734088653,-0.0307540121037652,-0.0348813655293107,-0.0008630653610453,-0.0011142154689878,-0.0033159768208861,-0.2629844990931451,0.1310674584656954,-9.803400247693062,14935.0
0.5,3.0999999046325684,146.0,25.00971221923828,-0.0636141896247863,-79.78284873415365,40.458927239016376,270.59455290412905,-0.0081633292138576,0.0119489450007677,-0.999243140220642,0.0361092984676361,-0.0407009740865968,-0.0323958549868304,-0.0354769343319352,-0.0044412864372134,-0.0039479653351008,-0.0094214510172605,-0.2595517084188759,0.1269492188002914,-9.800756721496583,14935.0
0.6,3.299999952316284,154.0,25.01346969604492,-0.0318070948123931,-79.7828486889615,40.458927272761954,270.591012626648,-0.008177469484508,0.0119478087872266,-0.9992421865463256,0.0361316353082656,-0.0425222973053982,-0.0353480298451072,-0.0357826144002004,0.0037993537262082,0.0033729490824043,0.006249263882637,-0.2597776850312948,0.1087522177398204,-9.805193004012107,14935.0
0.8,3.2000000476837163,153.0,24.99594116210937,-0.0477106422185897,-79.782848475935,40.45892741104535,270.567053109169,-0.0081858234480023,0.0119633004069328,-0.9992399215698242,0.0361868776381015,-0.0452273904759976,-0.0330627315641211,-0.0360319862854728,0.0080788545310497,0.0011451062746345,0.0091352015733718,-0.2514495140500367,0.1091508242581039,-9.806706263422967,14935.0
0.9,3.2000000476837163,158.0,25.0072078704834,-0.0477106422185897,-79.78284836841615,40.45892750496267,270.54620626544954,-0.0081497663632035,0.0119821792468428,-0.9992379546165466,0.0362433977425098,-0.0361744349293865,-0.0283789336679846,-0.035718782964732,-0.0061341938562691,-0.0031456709839403,-0.0083980644121766,-0.2628774402290583,0.1234566768910736,-9.803523039221764,14935.0
1.1,3.0999999046325684,160.0,25.005956649780277,-0.0318070948123931,-79.7828483300383,40.45892753369697,270.5426326093674,-0.0081585366278886,0.0119724543765187,-0.9992367625236512,0.03627710044384,-0.0375834603068338,-0.0304920098804367,-0.0360878213714409,0.0107991937547922,0.0059627518057823,0.0055553023703396,-0.2583254193887114,0.1134152899961918,-9.805564886927606,14935.0
1.2,3.0999999046325684,160.0,24.99594116210937,-0.0477106422185897,-79.78284819784473,40.45892768161107,270.514819770813,-0.008137758821249,0.0119731109589338,-0.999233901500702,0.0363617427647113,-0.0295717758358156,-0.032400033621548,-0.0397639345867954,0.0059542916715145,0.0019493945874273,0.0038392664864659,-0.2595818581245839,0.1073816121183335,-9.806071840524671,14935.0
1.4,3.0,164.0,25.00846099853516,-0.0477106422185897,-79.78284797681846,40.4589278310131,270.48940590000154,-0.008154647424817,0.0119913751259446,-0.9992308020591736,0.0364365354180336,-0.0350733290023321,-0.0332112713964776,-0.039400904625347,0.0012564654462039,-0.0004583032859954,0.0033129698131233,-0.255971275549382,0.1075389570370316,-9.806207495927811,14935.0
1.5,2.900000095367432,165.0,25.00470542907715,-0.0477106422185897,-79.78284793907655,40.458927864019,270.48548820590975,-0.0081422608345747,0.0120090655982494,-0.9992295503616332,0.0364669114351272,-0.0381297592150474,-0.0351995288131568,-0.0395259867366953,-0.0009812430944293,-0.0008169343345798,-0.0026947127189487,-0.2609811151027679,0.1262058641016483,-9.804051042795182,14935.0
1.71,2.900000095367432,167.0,24.98842811584473,-0.1113248318433761,-79.78284776131204,40.458928030899294,270.4560871419907,-0.0081523740664124,0.0120147354900836,-0.9992277026176452,0.0365137420594692,-0.0336754552788265,-0.0383983254796657,-0.0443362312452753,0.0057976283133029,0.000649027118925,0.0008729442488402,-0.2582526032812893,0.1182549298927188,-9.80514856517315,14935.0
1.8,2.700000047683716,167.0,24.9871768951416,-0.1431319266557693,-79.7828477249208,40.458928068586886,270.4516940412521,-0.0081326430663466,0.0120371636003255,-0.999226689338684,0.0365380086004734,-0.0379236923683234,-0.0399766847488763,-0.0443050856129305,-0.0090300571173429,-0.004367075394839,-0.0056387651711702,-0.2620085988007486,0.1268314704950899,-9.803886736035349,14935.0
2.0,2.700000047683716,168.0,24.99093246459961,-0.1272283792495727,-79.78284749509149,40.45892814734801,270.4233023223877,-0.0081420196220278,0.0120701817795634,-0.99922376871109,0.0366047620773315,-0.0401936833037725,-0.0284396115772961,-0.0449899227571987,-0.0073354518972337,-0.0012837927788496,-0.0086035281419754,-0.2641465235687793,0.1354985424410552,-9.802247761487964,14935.0
2.1,2.5999999046325684,166.0,24.98842811584473,-0.1351801604032516,-79.7828474499218,40.45892817734372,270.4187927541733,-0.0081647047773003,0.0120679764077067,-0.9992215633392334,0.0366610363125801,-0.042365855766118,-0.0303564829366002,-0.0453664577233309,0.0030721481889486,0.0044312155805528,0.0055793258361518,-0.2575267628207803,0.1096847572736442,-9.805497643947602,14935.0
2.3,2.5,166.0,24.98967933654785,-0.1510837078094482,-79.78284723716658,40.45892827424226,270.3922188577652,-0.0081748347729444,0.0120969051495194,-0.9992187619209292,0.0367251485586166,-0.0415539875830655,-0.0254654288086223,-0.0431919356448811,0.0052286842837929,0.000405999016948,0.0002256188890896,-0.2569696145318449,0.1108362476248294,-9.805890576839449,14935.0
2.4,2.400000095367432,166.0,24.98967933654785,-0.1351801604032516,-79.78284703420451,40.458928383690456,270.36987951374056,-0.008174892514944,0.012084693647921,-0.999217689037323,0.0367580577731132,-0.0428335023150559,-0.026550633789369,-0.0422771011453179,-3.8288359064608806e-05,-0.0013924023369327,-0.0024015749804675,-0.2629045384190977,0.1334024709463119,-9.803369842171673,14935.0
2.61,2.299999952316284,164.0,24.99093246459961,-0.0874695107340812,-79.78284698814306,40.4589284110796,270.3656473455429,-0.0081823011860251,0.0120890205726027,-0.9992157816886902,0.0368087776005268,-0.0452992282330626,-0.0280181720394807,-0.0424619650265818,0.0001469708658987,-7.157980871852486e-05,0.0009751814650371,-0.2559937325119972,0.1085129478480667,-9.804510633945466,14935.0
2.71,2.299999952316284,162.0,24.99594116210937,-0.0636141896247863,-79.78284675937698,40.458928543464985,270.33885422325136,-0.0082060368731617,0.0120763024315238,-0.99921315908432,0.0368770807981491,-0.0444479952969839,-0.0299592822102974,-0.0417398979565736,-0.0010022243950515,-0.0030359141528606,0.0027552708052098,-0.2594219550490379,0.1107561316341161,-9.803414281010626,14935.0
2.91,2.299999952316284,163.0,24.98967933654785,-0.1431319266557693,-79.78284660811991,40.4589286500844,270.31276074028017,-0.0081854499876499,0.0120882000774145,-0.9992117285728456,0.0369186215102672,-0.0325529015067789,-0.0267633454143161,-0.0397645692270068,-0.0014545004814863,0.0004422675701789,0.00159964163322,-0.2591489997133612,0.1116380013898015,-9.804784868359569,14935.0
3.0,2.299999952316284,160.0,24.97465515136719,-0.1431319266557693,-79.78284657286567,40.45892867721162,270.30878272628786,-0.0081782108172774,0.012092406861484,-0.9992108941078186,0.0369394272565841,-0.0353025318648717,-0.0286375919790801,-0.0401175389464251,0.0030024230945855,-6.966081127757207e-05,-0.00151856651064,-0.26261225072667,0.1261718132067471,-9.803358732461929,14935.0
3.2,2.299999952316284,159.0,24.978410720825195,-0.1431319266557693,-79.78284634052974,40.45892879171189,270.2817145881653,-0.0082132890820503,0.0120870014652609,-0.9992079138755798,0.0370153449475765,-0.0362816033994656,-0.0271569620698467,-0.0392874552201149,-0.0013266063760966,-0.0008247975492849,-0.0023531669285148,-0.2583066900260746,0.1131252589635551,-9.805511677265168,14935.0
3.3,2.299999952316284,156.0,24.9871768951416,-0.0397588685154914,-79.78284630084272,40.45892881903125,270.2777887878418,-0.0082092974334955,0.012091152369976,-0.9992060661315918,0.0370630398392677,-0.0393313588477697,-0.028627054245399,-0.0393908864822866,1.3767733435088306e-05,-0.0025226206053048,0.0043150051496922,-0.2585779277421534,0.1131239890214055,-9.80544618844986,14935.0
3.5,2.299999952316284,155.0,24.98341941833496,-0.1033730581402778,-79.78284604009005,40.45892893396307,270.2530952987671,-0.0082195186987519,0.0120976399630308,-0.999203324317932,0.0371316783130168,-0.0427659413370766,-0.0279862286595303,-0.0368304849608217,-0.0033827289007604,-0.0010458979522809,0.0009336735238321,-0.2579711329378188,0.1131230845302343,-9.804746861457826,14935.0
3.6,2.200000047683716,151.0,24.98091506958008,-0.0159035474061965,-79.78284599099636,40.45892896366893,270.2494095859528,-0.0082147428765892,0.012081797234714,-0.999202847480774,0.0371524095535278,-0.04613359570127,-0.0298429512596663,-0.0369526883509699,-0.0008275806321762,0.0001449803530704,0.0011924789287149,-0.2615296204760671,0.1312626732420176,-9.803675651550291,14935.0
3.8,2.200000047683716,150.0,24.96088218688965,0.0,-79.78284571946813,40.45892909359268,270.2245823440552,-0.008224444463849,0.0121039785444736,-0.999200165271759,0.0372150167822837,-0.0488400783408679,-0.0316010759318717,-0.0351545433957387,-6.091328759794124e-05,-0.000284056935925,-0.0033113900572061,-0.2609688176773489,0.1297597743663937,-9.804086126089096,14935.0
3.9,2.0999999046325684,146.0,24.968395233154297,-0.0318070948123931,-79.78284555888592,40.45892915066192,270.20161858177187,-0.0081990780308842,0.0121345650404691,-0.9991984963417052,0.0372550450265407,-0.03914566606223,-0.0238651622321564,-0.0355675274623207,-0.002528031123802,-0.0003204213280696,-0.001104210037738,-0.2590258061885834,0.1149247669894248,-9.804780190587042,14935.0
4.1,2.0999999046325684,145.0,24.96714401245117,0.0874695107340812,-79.78284546759086,40.45892920298397,270.19445219612123,-0.0082157179713249,0.0121326697990298,-0.9991954565048218,0.0373336374759674,-0.0456981802289886,-0.0270942132540427,-0.0359489942534751,-0.0072127506136894,-0.0063686114735901,-0.0083281742408871,-0.2585139372758567,0.123213313948363,-9.80371658205986,14935.0
4.2,2.0,142.0,24.978410720825195,-0.0636141896247863,-79.78284527478034,40.45892927977732,270.1736194190979,-0.0081979949027299,0.0121218683198094,-0.9991948008537292,0.0373598299920558,-0.0402789808587731,-0.0247405989657665,-0.0335767369841237,0.0066929729655385,0.005672724917531,0.0064428402110934,-0.2581054361723363,0.1147500448767096,-9.805248552560808,14935.0
4.4,1.8999999761581416,141.0,24.96463966369629,-0.0795177370309829,-79.78284504472967,40.45892939833875,270.1480759677887,-0.0081728557124733,0.0121161025017499,-0.99919193983078,0.0374432168900966,-0.0384811214492378,-0.0272488738302976,-0.0346974708536574,0.0061971778050065,0.0029150899499654,0.0035520382225513,-0.2567786481231451,0.1107848652172833,-9.805192419290542,14935.0
4.5,1.7999999523162842,138.0,24.96714401245117,-0.0954212844371795,-79.78284500213898,40.45892942581058,270.1446126995087,-0.0081549976021051,0.0121238930150866,-0.9991904497146606,0.0374824702739715,-0.0425320830195259,-0.0285192893977992,-0.0347038511231785,-0.0035185795277357,-0.0032034271862357,-0.0042424732819199,-0.2624072510004043,0.1324092208687216,-9.801274200081826,14935.0
4.7,1.7999999523162842,138.0,24.973403930664062,-0.0397588685154914,-79.78284473435488,40.45892953611116,270.1208361682892,-0.008167608641088,0.0121344095095992,-0.9991872310638428,0.0375635139644146,-0.044868389988336,-0.0273171773067929,-0.0328742430832214,-0.0029865493997931,-0.0005146827315911,-0.004526478704065,-0.2556283728964627,0.1085371132940054,-9.806229715347287,14935.0
4.8,1.600000023841858,133.0,24.98216819763184,-0.0795177370309829,-79.78284468510377,40.45892956427111,270.11753168678285,-0.0081529757007956,0.0121424533426761,-0.9991858005523682,0.0376006662845611,-0.0472580950070452,-0.0287958342576849,-0.0331567983141508,0.0007654519868083,-0.0012221410870552,0.0034097235184162,-0.2579121126048267,0.1107716267555952,-9.80472405731678,14935.0
5.0,1.600000023841858,133.0,24.99093246459961,0.0,-79.78284453460705,40.458929646164826,270.09773245429994,-0.0080797504633665,0.012148973532021,-0.9991841912269592,0.0376578718423843,-0.0337630281559004,-0.0259473783508587,-0.0267671923857704,-0.0026041772216558,7.251888018799946e-05,0.0020710760727524,-0.2589048236422241,0.1125584079511463,-9.804361529946329,14935.0
5.1,1.5,131.0,24.994688034057607,0.0477106422185897,-79.78284449635639,40.45892967323729,270.0950600204468,-0.0080733140930533,0.0121376784518361,-0.999183475971222,0.0376820378005504,-0.0362782275024316,-0.0277907023871596,-0.0269868627607776,0.0026933038607239,0.0024400644470006,0.0012456787517294,-0.2602116946130991,0.1278544500097632,-9.80362068772316,14935.0
5.3,1.5,132.0,24.98842811584473,0.0159035474061965,-79.7828443140319,40.458929722701576,270.0753144321442,-0.0080239418894052,0.0121826026588678,-0.9991815686225892,0.0377288721501827,-0.0287172945574172,-0.0204049555425854,-0.02179209227731,0.0007585943676531,0.004754776135087,-0.0016279418487101,-0.2602156232111156,0.1275110905431211,-9.804167402386666,14935.0
5.4,1.399999976158142,134.0,24.98341941833496,0.0079517737030982,-79.78284408949763,40.458929807818045,270.054867893219,-0.0080261081457138,0.0121768657118082,-0.9991799592971802,0.0377739146351814,-0.0302737003199929,-0.0203924722921858,-0.0228995477805967,-0.0031491303816437,-0.0011510237818583,0.0010343935573473,-0.2585800839029252,0.1133277918957174,-9.803781486153603,14935.0
5.6,1.399999976158142,134.0,24.994688034057607,0.0238553211092948,-79.78284401837074,40.45892985184381,270.0502440032959,-0.0079978266730904,0.0121609987691044,-0.9991775751113892,0.0378470867872238,-0.0353954329329035,-0.0233631124581385,-0.0234249525143496,-0.0002923004794865,-0.0005671962862834,-0.0002600634470582,-0.2572385681793094,0.1120844271685928,-9.803707811236382,14935.0
5.71,1.399999976158142,138.0,24.994688034057607,0.0318070948123931,-79.78284379971544,40.45892993272733,270.03145375823976,-0.0079766847193241,0.0121610583737492,-0.9991766810417176,0.0378752797842025,-0.0348854517982947,-0.02240269781694,-0.0218480793823169,-0.0006855546962469,-0.0048135607503354,-0.0060600601136684,-0.2609580186009407,0.1314982977602631,-9.802217940688132,14935.0
5.9,1.399999976158142,141.0,24.978410720825195,0.0318070948123931,-79.78284358942116,40.458930000030605,270.01134529685976,-0.007944356650114,0.0121605936437845,-0.9991750121116638,0.0379267036914825,-0.0285955403092874,-0.0171547055661429,-0.0190799249349242,-0.005491292104125,0.0004586300055962,-0.0064275139011442,-0.2609294220618904,0.1311597896553576,-9.803001467585563,14935.0
6.0,1.399999976158142,142.0,24.998443603515625,0.0397588685154914,-79.7828435583214,40.45893001815728,270.0094248352051,-0.0079469140619039,0.012155651114881,-0.9991740584373474,0.037952147424221,-0.0300458907285569,-0.0190259910880219,-0.0194751050280163,0.0065186419524252,0.0019837948493659,0.0058624553494155,-0.2559303267672658,0.1140696299728006,-9.805601724386216,14935.0
6.1,1.2999999523162842,147.0,24.98091506958008,0.0636141896247863,-79.78284352290835,40.45893003856307,270.00748029327394,-0.0079410932958126,0.0121481847018003,-0.9991731047630308,0.0379815138876438,-0.0337980586522789,-0.0204690784019813,-0.019437975375964,-0.0073997252620756,-0.0041049448773264,-0.0082280868664383,-0.2628725614584982,0.1267521584965288,-9.803713073730467,14935.0
6.3,1.2000000476837158,149.0,24.97715950012207,0.0318070948123931,-79.78284326457305,40.45893012040954,269.98870864486696,-0.007940525189042,0.012144855223596,-0.9991702437400818,0.038057129830122,-0.0353431913610445,-0.0193411377574047,-0.0164964850650526,-0.0055718291550874,-0.0007253807852976,-0.0046070874668657,-0.2597454705275595,0.1189585783425718,-9.804548640847209,14934.0
6.4,1.100000023841858,151.0,25.00094795227051,-0.0159035474061965,-79.7828430614353,40.45893015696885,269.9728170928955,-0.0079354727640748,0.0121714267879724,-0.999168574810028,0.0380948707461357,-0.0308321360253695,-0.0121016749967178,-0.0125579246140644,0.0005663610645569,0.0026337776798754,0.0012785258004441,-0.2609863593243062,0.1253715943358838,-9.80325640618801,14934.0
6.61,1.100000023841858,151.0,25.00470542907715,-0.0238553211092948,-79.78284302681631,40.45893017008533,269.97154584503176,-0.0079150572419166,0.0121869752183556,-0.9991669058799744,0.0381356626749038,-0.0330418064337369,-0.0134119093098977,-0.0126468813766723,0.004606528673321,-0.0009702895767986,0.0054621901363134,-0.2575995789282024,0.1110770615469664,-9.805091847181323,14934.0
6.7,1.100000023841858,153.0,24.999696731567383,-0.0318070948123931,-79.7828428198754,40.458930241855576,269.9539331493378,-0.0078943017870187,0.0121968546882271,-0.9991644024848938,0.038203801959753,-0.0263871769438392,-0.0135094211605139,-0.010730323272228,0.0081586763262748,0.0033167256042361,0.0035071710590273,-0.2574333535507321,0.1131166251841932,-9.805446773171424,14934.0
6.9,1.2000000476837158,153.0,25.0072078704834,-0.0397588685154914,-79.7828425906343,40.458930286011245,269.9365400371552,-0.0078939413651824,0.0122321937233209,-0.9991623759269714,0.0382448360323905,-0.0240432690203521,-0.0067093140917731,-0.00905615894044,0.0056182160042226,0.0044260583817958,0.0040601869113743,-0.2585207346640527,0.1174104549083858,-9.805253230333328,14934.0
7.01,1.2999999523162842,151.0,25.01096534729004,-0.0477106422185897,-79.78284256228079,40.45893029399837,269.93561640357973,-0.0078937457874417,0.0122421598061919,-0.9991610050201416,0.0382766835391521,-0.0273019961405669,-0.0079670003105288,-0.0090660492225487,-0.0036634423304349,-0.0019597641658037,-0.002877302467823,-0.2608414580114186,0.1184902072325349,-9.804826968312264,14934.0
7.2,1.2999999523162842,150.0,25.00345230102539,-0.0397588685154914,-79.78284231058763,40.45893030557109,269.92274537658693,-0.0078827552497386,0.0122582595795393,-0.9991577863693236,0.038357600569725,-0.0270757605211562,0.0013373389617706,-0.0011704389679969,-0.0028935857117176,0.0001775120472302,0.005333109293133,-0.2610046136006713,0.1244961656536907,-9.803617764115334,14934.0
7.3,1.399999976158142,146.0,24.98967933654785,-0.0636141896247863,-79.78284227894117,40.45893030645676,269.9225744304657,-0.0078629935160279,0.012256353162229,-0.9991573095321656,0.0383752845227718,-0.0296474252683763,-7.402075557746577e-06,-0.0013200951993571,-0.0029561610426753,0.0012755112256854,-0.0071905814111232,-0.2615713549777865,0.1308263704553246,-9.803261083960534,14934.0
7.51,1.5,141.0,24.999696731567383,-0.0477106422185897,-79.78284205681723,40.45893031527909,269.91332188224794,-0.00784467253834,0.0122448662295937,-0.9991546869277954,0.0384512320160865,-0.0268101344670367,0.007345927472013,0.008599785673979,-0.0044583827257156,-0.00211813300848,-0.007744553964585,-0.2625823933817446,0.1308333505690098,-9.80166128575802,14934.0
7.6,1.600000023841858,135.0,25.005956649780277,-0.0397588685154914,-79.78284202376109,40.45893031127265,269.9141098556519,-0.0078540714457631,0.0122308144345879,-0.9991539120674132,0.0384742394089698,-0.0281571339154963,0.0055784991816283,0.0082858304903777,0.0075638135895133,0.004139523487538,0.0045257513411343,-0.2561149891465902,0.1124281977675855,-9.805629791021348,14934.0
7.8,1.600000023841858,134.0,25.00345230102539,-0.055662415921688,-79.78284181337405,40.45893030249004,269.91058507537844,-0.0078302733600139,0.0122298896312713,-0.999151349067688,0.038545086979866,-0.0237595206496205,0.0128772660612459,0.0231425283621207,0.0025847293436527,0.0031128989066928,0.0059196907095611,-0.2614479421824217,0.119492949899286,-9.805309363603593,14934.0
7.91,1.7999999523162842,130.0,25.00470542907715,-0.0318070948123931,-79.78284163708034,40.45893032332739,269.9019547996521,-0.0078448811545968,0.0122398221865296,-0.9991494417190552,0.0385891199111938,-0.0164160543938223,0.017862563076234,0.0316796692278658,-0.0039123203605413,-0.0040190475992858,-0.0021467248443514,-0.2584555199369788,0.1169125736318528,-9.804517650604248,14934.0
8.1,1.7999999523162842,130.0,25.01096534729004,-0.0318070948123931,-79.78284161618696,40.45893030807781,269.9050444660187,-0.0078495303168892,0.0122499661520123,-0.9991492629051208,0.0385892540216445,-0.0178655750213706,0.015985122785913,0.0314668913397203,0.0041693672537803,0.0008398700738325,0.003351311199367,-0.2589835417829454,0.1235031622555107,-9.804374393820764,14934.0
8.2,1.8999999761581416,131.0,25.002201080322266,-0.0477106422185897,-79.78284140655603,40.45893036652868,269.89840975379946,-0.0078290840610861,0.0122134778648614,-0.999147355556488,0.0386558920145034,-0.0158901512781654,0.0099353247346002,0.0357718219714937,-0.003025023266673,0.0010858583264052,-0.0068694939836859,-0.2612366384267807,0.1279807315953076,-9.804054551124572,14934.0
8.41,1.8999999761581416,134.0,25.00345230102539,-0.0636141896247863,-79.78284117313652,40.458930414118576,269.89032116508486,-0.0078126937150955,0.0122196711599826,-0.9991450309753418,0.0387168042361736,-0.0170782373790451,0.0063591291739995,0.0357909545208969,-0.0071321460418403,-0.004678342025727,-0.0058727748692035,-0.2658183521591127,0.1303035014681518,-9.80219396710396,14934.0
8.5,1.8999999761581416,141.0,25.00470542907715,-0.0477106422185897,-79.78284115275613,40.45893040872621,269.8938471374512,-0.007818198762834,0.012220892123878,-0.9991438984870912,0.038743432611227,-0.0182299608349574,0.0049753790309992,0.0355251133528046,0.0108243329450488,0.0027457834221422,0.0010785738704726,-0.2567318155802786,0.1139501640480011,-9.8045100492239,14934.0
8.71,1.7999999523162842,144.0,25.0072078704834,-0.0397588685154914,-79.78284094509422,40.45893044482175,269.88538613891603,-0.0078132189810276,0.0122063383460044,-0.9991413950920104,0.0388135351240634,-0.0138487346889471,0.0049747007193808,0.0353169929730847,0.0039351400919258,0.0023119910620152,0.0028620224911719,-0.2600195953063667,0.1217603722214698,-9.80278921365738,14934.0
8.8,1.7000000476837158,151.0,25.00846099853516,-0.0477106422185897,-79.78284092737013,40.4589304404911,269.8888866004944,-0.0078190835192799,0.0122119383886456,-0.9991395473480223,0.0388587787747383,-0.0168809283931169,0.0037433513558468,0.0354076566360329,-0.0056433915160596,-0.0018405641894787,0.0001656265376368,-0.2550787346251309,0.1169550573080778,-9.80569586455822,14934.0
9.01,1.7000000476837158,155.0,24.98842811584473,-0.0477106422185897,-79.78284069917184,40.45893043667039,269.88258519744875,-0.0078031495213508,0.0122277755290269,-0.9991375207901,0.0389083921909332,-0.0143486188202297,0.0096497080354217,0.0381992372122752,0.0032554098870605,-0.0014498630771413,0.0017129752086475,-0.2627273677848279,0.1100655023753643,-9.804793639183044,14934.0
9.1,1.600000023841858,166.0,24.999696731567383,-0.0397588685154914,-79.78284067907677,40.458930428767,269.8863550720215,-0.0077998558990657,0.0122328987345099,-0.9991366267204284,0.0389318764209747,-0.017412287667235,0.0083618329129791,0.0381182876270324,-0.0041425717063248,-0.0001691888464847,-0.004610561300069,-0.2642844264954329,0.1302147882431745,-9.80274711370468,14934.0
9.3,1.5,169.0,24.998443603515625,-0.055662415921688,-79.78284044384421,40.458930421433664,269.8797413406372,-0.0077826138585805,0.0122586358338594,-0.9991344213485718,0.0389816276729106,-0.0154920083973901,0.0141062272323126,0.0402358881714606,-0.0056592398323118,-0.0057035996578633,-0.008974771015346,-0.2584986248798669,0.1303650342766195,-9.803656940460208,14934.0
9.4,1.399999976158142,178.0,25.00345230102539,-0.0477106422185897,-79.78284022556976,40.45893048270044,269.86963096237184,-0.0077793612144887,0.0122567508369684,-0.999133825302124,0.0389997959136962,-0.0116608562770805,0.010303752923252,0.0415254254104015,0.0091139217838644,0.0028867362998425,0.0056545222178101,-0.252221602331847,0.1149799135420471,-9.80726291835308,14934.0
9.6,1.2999999523162842,182.0,24.999696731567383,-0.0318070948123931,-79.78284020919772,40.4589304733918,269.8737484512329,-0.0077674123458564,0.012262750416994,-0.999132752418518,0.0390269048511982,-0.0149825002935164,0.0091101281250575,0.0416816516442496,-0.0065178982913494,-0.0012028373312205,-0.0050793858245015,-0.2596928090415895,0.1258181662950664,-9.804729319810868,14934.0
9.7,1.2999999523162842,182.0,25.0072078704834,-0.0477106422185897,-79.78283996483819,40.45893050927048,269.8657127914429,-0.0077501405030488,0.0122820883989334,-0.999131202697754,0.0390642844140529,-0.0143849107207111,0.0083008241267593,0.0398146231532668,-0.0056063099764287,-0.0019167449790984,-0.0078732892870903,-0.262810599245131,0.1244382964912802,-9.80353356420994,14934.0
9.91,1.2999999523162842,180.0,25.0072078704834,-0.0397588685154914,-79.78283971513797,40.4589305290708,269.8556992111206,-0.0077698291279375,0.0123013602569699,-0.9991292953491212,0.0391031317412853,-0.0133608269587047,0.01104021752779,0.0357356418568331,-0.0053163496777415,-0.0070533235557377,-0.005431511439383,-0.261263334620744,0.1203513394296169,-9.804210087060929,14934.0
10.0,1.2000000476837158,171.0,25.015974044799805,0.0079517737030982,-79.78283969816859,40.45893051948519,269.8592120704651,-0.0077536171302199,0.012312090024352,-0.9991284608840942,0.0391243211925029,-0.0146238484241019,0.009579420152052,0.0354959649931311,0.0036335273180156,0.0050372267141938,0.0033729351125657,-0.2579163335636258,0.1210874673351645,-9.804459178447724,14934.0
10.2,1.2000000476837158,168.0,24.999696731567383,-0.0397588685154914,-79.78283945262989,40.458930575435794,269.84839192008974,-0.007761085871607,0.0123038496822118,-0.9991270303726196,0.0391610078513622,-0.0131749051843408,0.0061496173994258,0.0321873379640922,0.0006859995191916,1.9236942534917038e-05,0.0024211448617279,-0.2564654931798577,0.1180605739261955,-9.80613265156746,14934.0
10.4,1.2000000476837158,158.0,25.002201080322266,-0.055662415921688,-79.78283943542019,40.45893057010676,269.8515767154694,-0.0077728480100631,0.0123059852048754,-0.9991255402565002,0.0391963683068752,-0.0155323039374486,0.0049066719789813,0.0321885087989424,0.0001565746497362,0.0021783709526062,0.0024308029096573,-0.2589630034379661,0.1142299989983439,-9.80523218035698,14934.0
10.5,1.2000000476837158,154.0,25.005956649780277,-0.0477106422185897,-79.78283915689563,40.458930606738,269.8396617469788,-0.0077784559689462,0.0123248472809791,-0.9991226196289062,0.0392646118998527,-0.017586950341297,0.0051865975928476,0.0282831264980711,0.0038830277044326,-0.0007393149426206,0.0062350733205676,-0.256900142300874,0.1081538465805351,-9.806213927865029,14934.0
10.6,1.2000000476837158,146.0,24.994688034057607,-0.0397588685154914,-79.78283913358068,40.4589306033381,269.8424464759827,-0.0077683636918663,0.0123249599710106,-0.9991218447685242,0.0392845720052719,-0.0206592714088113,0.0039884920266153,0.0281821406975171,-0.0071305884048342,-0.0022561496589332,-0.0108565920963883,-0.2640181954577565,0.1317846377380192,-9.801292326450348,14934.0
10.8,1.2999999523162842,142.0,24.98842811584473,-0.055662415921688,-79.7828388775222,40.45893067851577,269.82900300598146,-0.0077508799731731,0.0123204588890075,-0.9991196393966676,0.039346843957901,-0.0191824941594858,-0.0010105744120243,0.02361719638096,-0.005840282421559,-0.0054026930592954,-0.0081982817500829,-0.2608844533190131,0.1316794335376471,-9.802554740309716,14934.0
10.9,1.2999999523162842,135.0,24.98842811584473,-0.0318070948123931,-79.78283862994981,40.458930734666055,269.8146385250092,-0.0077464492060244,0.012317506596446,-0.9991183280944824,0.0393831580877304,-0.014700100358163,-0.0006935347507694,0.0211800373947156,0.0059959306381642,0.0034713335335254,0.0079369004815816,-0.2574664999544621,0.1127686793077737,-9.80549530506134,14934.0
11.11,1.2999999523162842,131.0,25.00470542907715,-0.0318070948123931,-79.78283861123909,40.45893073585661,269.81673803901674,-0.0077354558743536,0.0123272035270929,-0.999117076396942,0.0394114255905151,-0.0179185852640067,-0.0015969519838019,0.0212649619568726,-0.0080669159069657,-0.0025044020731002,-0.0057653612457215,-0.2625826309248805,0.1240355055592954,-9.803683837652208,14934.0
11.2,1.2999999523162842,126.0,25.005956649780277,-0.0477106422185897,-79.78283834136788,40.458930755989726,269.80432429885866,-0.0077272686176002,0.012343131005764,-0.9991146922111512,0.0394704118371009,-0.0159087280175968,0.004349068952359,0.0194712099264063,-0.007045580074191,-0.0025441159959882,-0.0026511976029723,-0.2590642516314984,0.1204394770693034,-9.804408307671547,14934.0
11.4,1.2999999523162842,124.0,24.998443603515625,-0.055662415921688,-79.78283804099003,40.45893078925221,269.7928620872498,-0.0077265272848308,0.0123368743807077,-0.9991122484207152,0.0395334810018539,-0.0190673512932801,0.006395839144638,0.0187343464858079,-0.0055149965919554,-0.0027653339784592,-0.0036312229931354,-0.2619187709502876,0.1186950516421348,-9.803963334560397,14934.0
11.5,1.2000000476837158,128.0,24.99594116210937,-0.0715659633278846,-79.78283801806998,40.45893078459198,269.7946814594269,-0.0077262469567358,0.0123363202437758,-0.9991115927696228,0.0395515076816082,-0.0202784407158548,0.0049594146859546,0.0185265723503994,0.005358122754842,0.0054126009345054,0.0072906147688627,-0.2585305835679173,0.1219020392931998,-9.805543836951257,14934.0
11.7,1.2000000476837158,131.0,24.999696731567383,-0.055662415921688,-79.78283771159529,40.4589308133252,269.7855176029205,-0.0077427900396287,0.0123328678309917,-0.9991096258163452,0.03959671407938,-0.0215553456923555,0.0074003687698661,0.0216696697539602,0.0062977732159197,0.003330195788294,0.0057511078193783,-0.2588591422699392,0.1197472489625215,-9.805353802442554,14934.0
11.8,1.100000023841858,140.0,24.998443603515625,-0.0795177370309829,-79.78283768426357,40.45893080756245,269.78763595199587,-0.0077417697757482,0.0123393163084983,-0.9991083741188048,0.0396280884742736,-0.0248073962003767,0.0065892722698773,0.0217759925786161,-0.0078412676230073,-0.0027372757904231,-0.0050535011105239,-0.2618443834036589,0.1222167017217725,-9.80355052113533,14934.0
12.0,1.100000023841858,147.0,24.999696731567383,-0.0397588685154914,-79.78283742664645,40.45893081855976,269.7781027851105,-0.0077145108953118,0.0123528270050883,-0.9991055130958556,0.0397025048732757,-0.0181239686128124,0.0111638159754635,0.0235145569748942,-0.0061027705669403,-0.0047757509164512,-0.0068444139324128,-0.2621875784173608,0.1236431208439171,-9.803576248884204,14934.0
12.1,1.100000023841858,152.0,24.998443603515625,-0.0477106422185897,-79.78283740317265,40.45893081006594,269.7803856430054,-0.007728970143944,0.0123449433594942,-0.9991047382354736,0.0397192984819412,-0.0192955854093439,0.0096327628255654,0.0232482018803687,0.0049523441120982,0.0048162066377699,0.0040798783302307,-0.2578350938111544,0.11543640749529,-9.80570931315422,14934.0
12.3,1.0,152.0,24.9871768951416,-0.0477106422185897,-79.78283711587109,40.45893079536815,269.7758084831238,-0.0077121485956013,0.0123647730797529,-0.9991028308868408,0.0397648103535175,-0.0176013390918663,0.016919899313747,0.0316337300723045,0.0067278854548931,0.009605111554265,0.0015606059459969,-0.256322510484606,0.1154692249931395,-9.806199309825898,14934.0
12.4,0.8999999761581421,152.0,24.994688034057607,-0.0715659633278846,-79.78283685601089,40.45893084257909,269.7666667995453,-0.0077203405089676,0.0123636275529861,-0.999101459980011,0.0397984720766544,-0.0166675336669488,0.0161967574404766,0.0361650286856515,-0.0060859126970171,-0.0027924643363803,-0.0047995732165873,-0.2591392969898879,0.1241946685966104,-9.804978995919226,14934.0
12.61,0.8999999761581421,150.0,24.99343681335449,-0.0397588685154914,-79.78283683480691,40.45893082871865,269.7702066001892,-0.0077100996859371,0.0123755251988768,-0.9991004467010498,0.039822231978178,-0.0176211247476271,0.0146691800142307,0.0359567770860538,0.0037320323754101,0.0032105280552059,0.0044832420535385,-0.2600822336040437,0.1201981697883457,-9.805449112057689,14934.0
12.7,0.8000000119209291,151.0,24.998443603515625,-0.055662415921688,-79.7828365338753,40.45893084422804,269.76507249450685,-0.0077241640537977,0.012370710261166,-0.9990984201431274,0.039871696382761,-0.019830161403643,0.0170183011220689,0.0399593534669874,0.0036363862454891,0.0044385646469891,-0.0015123020857572,-0.2579361227340997,0.1230622639227658,-9.804340479969976,14934.0
12.9,0.699999988079071,152.0,24.93584251403809,0.2703603208065033,-79.78283628034524,40.458930892728304,269.75805154418947,-0.0077306875027716,0.0123665118589997,-0.9991000890731812,0.0398302972316741,-0.0140567789372355,0.010621348184589,0.0389578838512688,0.0052717137150466,0.005425083450973,-0.0094309672713279,-0.261802740264684,0.1176341200433671,-9.801474759578705,14934.0
13.0,0.699999988079071,155.0,24.9583797454834,0.2703603208065033,-79.78283626150099,40.458930882642434,269.76189056015016,-0.0077350083738565,0.0123899988830089,-0.9990919828414916,0.0400234088301658,-0.0159433305033533,0.0104048540676837,0.0388958383814014,0.0032561004627496,0.0036781325470656,0.0049692671746015,-0.2593174360692501,0.1133538120053708,-9.807669299840928,14934.0
13.2,0.6000000238418579,156.0,24.95712661743164,0.2624085247516632,-79.78283605731336,40.45893097929297,269.7513853607178,-0.007722224574536,0.0123809538781642,-0.9990924000740052,0.0400204099714756,-0.0064022625135151,-0.0019619160718096,0.0335325862003142,0.003860953496769,0.0019417346920818,-0.0052324919961392,-0.2622520256973803,0.1285061861481517,-9.80316694378853,14934.0
13.4,0.6000000238418579,149.0,24.945858001708984,0.2465049922466278,-79.78283604834098,40.4589309806714,269.7547565994263,-0.0077383466996252,0.0123929427936673,-0.9990946054458618,0.0399566814303398,-0.0088135927042759,-0.0020495891828937,0.0338122713246837,-0.0085485586896538,-0.0081413239240646,0.002778693800792,-0.2642904929816723,0.1303595525119453,-9.804413570165632,14934.0
13.5,0.6000000238418579,144.0,24.94836235046387,0.278312087059021,-79.78283579453543,40.45893100264456,269.7449771461487,-0.0077709699980914,0.0124116651713848,-0.9990902543067932,0.0400536619126796,-0.0089273392491012,0.0016108714144313,0.029842032486781,-0.0015345417195931,0.0032638905104249,0.0117049356922507,-0.2643162938207388,0.1179094325378537,-9.807158253192902,14934.0
13.61,0.6000000238418579,140.0,24.952117919921875,0.3339745104312897,-79.78283578159972,40.45893100135631,269.74793258285524,-0.0077664470300078,0.0124125927686691,-0.9990912079811096,0.0400304943323135,-0.011872726619587,0.0011250957271813,0.0296464490894086,-0.0001659068075241,-0.0023330703843384,-0.0115404594689607,-0.2564208716154099,0.1272313835006207,-9.799522958993911,14934.0
13.8,0.6000000238418579,138.0,24.93584251403809,0.3657816052436829,-79.78283546478094,40.45893108858015,269.73725,-0.007794929202646,0.0124225905165076,-0.9990893006324768,0.0400705225765705,-0.021337957100698,-0.0056909353937834,0.0254467565554314,-0.0082010850310325,0.0006430782959796,-0.0104607744142413,-0.2742455969005823,0.1298013809602707,-9.798873333334924,14934.0
13.9,0.699999988079071,139.0,24.82566070556641,19.02064323425293,-79.78283523827902,40.4589310990847,269.72495952224733,-0.0077829309739172,0.0124358441680669,-0.9990859627723694,0.0401506721973419,-0.0122634218784738,0.0046929942322064,0.0232174965479476,0.0061498899012804,0.0021666879765689,0.0093588065356016,-0.2631131561100483,0.1372880827914923,-9.812620722055437,14934.0
14.1,0.699999988079071,137.0,24.80312538146973,0.604334831237793,-79.78283522038906,40.458931096772304,269.72738233184816,-0.0077870627865195,0.0123640969395637,-0.999090611934662,0.0400551669299602,-0.0175574042795146,0.0017421448527483,0.0233789702816752,-0.0108229210600256,0.0064439331181347,0.0101800523698329,-0.2340640608407557,0.1450387955456972,-9.793223168849943,14934.0
14.2,0.699999988079071,138.0,24.919565200805664,0.2067461162805557,-79.78283494271201,40.45893113468641,269.717221408844,-0.007771975826472,0.0124703757464885,-0.999087929725647,0.0400926545262336,-0.0228944624196754,0.0044770087182092,0.021612935907826,-0.0168926063925027,0.0047405553050339,-0.0044096051715314,-0.2447821350395679,0.1585179797932505,-9.808550475239754,14934.0
14.4,0.699999988079071,136.0,24.435022354125977,2.639988899230957,-79.78283469676714,40.458931178384745,269.7083550987244,-0.0077487207017838,0.012477932497859,-0.9990878105163574,0.0400997176766395,-0.0173129142136291,0.0055600967078506,0.0207662101120221,-0.0092671513557434,-0.0092694666236639,-0.0167786460369825,-0.2916450651548803,0.1134606150537729,-9.78447047173977,14934.0
14.5,0.8000000119209291,129.0,24.83317375183105,0.5486723780632019,-79.78283467546899,40.45893117661126,269.7102786598206,-0.0077510168775916,0.0124868955463171,-0.9990863800048828,0.0401305668056011,-0.0137798060618036,-0.0010755789815029,0.0174536746651838,0.0568259321153163,0.0400215908885002,0.0300704911351203,-0.2158515372499824,0.0838120065908879,-9.84101363182068,14934.0
14.7,0.8000000119209291,126.0,24.93959808349609,0.1908425688743592,-79.7828344308902,40.45893120507181,269.69967928504946,-0.0077937263995409,0.0125158615410327,-0.9990833401679992,0.0401887632906436,-0.0168379889668861,0.0033369739373608,0.0186644941262641,-0.0104301339015364,-0.0223440732806921,0.0173051692545413,-0.2858799480646849,0.090021557752043,-9.804849772453313,14934.0
14.8,0.8000000119209291,119.0,24.87699508666992,1.2245731353759766,-79.78283441134606,40.45893120572559,269.70152083015444,-0.0077688670717179,0.0124933188781142,-0.999082326889038,0.0402260050177574,-0.0217699921322738,-0.001323460575959,0.0186783749289384,-0.0266465693712234,-0.0032519085798412,0.0095791071653366,-0.265003250297159,0.1511632057651877,-9.811531970500944,14934.0
15.0,0.8000000119209291,116.0,24.37116622924805,4.437089920043945,-79.78283414820132,40.45893128647706,269.69236436462404,-0.007802071981132,0.0124483136460185,-0.9990811944007874,0.0402625650167465,-0.021473971077769,-0.0053775235476978,0.0182773091627341,0.003116968087852,-0.0183935146778822,-0.0181936863809824,-0.2594849587976933,0.1474360077828169,-9.814445053339004,14934.0
15.1,0.8000000119209291,105.0,24.24846649169922,5.6298561096191415,-79.78283412230735,40.45893129424197,269.6942109165192,-0.0078879334032535,0.0123442960903048,-0.9990831613540648,0.040228895843029,-0.0190945889111011,-0.0083824627951236,0.0174061203462915,0.033646959811449,-0.0248194672167301,0.0406016781926155,-0.2624639872647822,0.0174601787980645,-9.816109170913697,14934.0
15.31,0.8999999761581421,102.0,23.950477600097656,7.88815975189209,-79.78283390504205,40.458931324383656,269.6834205684662,-0.0077147386036813,0.0125041482970118,-0.9990813732147216,0.0402583740651607,-0.0224970090839108,-0.005270018958971,0.0166627110677135,-0.0666816011071205,-0.0745445936918258,0.0687685459852218,-0.2688910822570324,0.2842576563544572,-9.818135815858842,14934.0
15.4,1.0,96.0,23.835289001464844,8.905986785888672,-79.78283368654273,40.45893136016896,269.6717895565033,-0.0072384127415716,0.0124364588409662,-0.9990845322608948,0.0402877852320671,-0.0223890276563336,-0.0021967294441025,0.0170042243286592,0.0102400640025734,0.0890078544616699,-0.0688659101724624,-0.2928294369578361,0.2552491261437536,-9.786441568136215,14934.0
15.6,1.0,89.0,23.507251739501957,11.816335678100586,-79.78283366388693,40.45893136586084,269.6734949645996,-0.0070419339463114,0.0118040991947054,-0.9990971088409424,0.0402013473212718,-0.023598930043771,-0.0042524980287786,0.0224929874064959,-0.1152562350034713,-0.0656483396887779,0.1687587648630142,-0.2901383107714355,0.2807285693474114,-9.797146065831186,14934.0
15.7,1.100000023841858,84.0,23.34573745727539,13.215847969055176,-79.78283349623953,40.45893146047919,269.66103878593447,-0.0053202952258288,0.0103099895641207,-0.9991270303726196,0.0401334688067436,-0.0130001186356833,-0.0023622501285938,0.0209628648941856,-0.0157614145427942,0.078132539987564,-0.0504519902169704,-0.182219412624836,0.1174838191922754,-9.866258400678635,14934.0
15.9,1.2000000476837158,82.0,22.97763442993164,16.41246223449707,-79.78283328172047,40.45893149823442,269.65412417030336,-0.0045661870390176,0.0074982298538088,-0.9991486668586732,0.0403101816773414,-0.0133386391673693,-0.0089269086405183,0.0201216383689166,-0.0810669735074043,0.0646683350205421,0.0535375401377677,-0.2920961595699191,0.1040957327373326,-9.801881141066552,14934.0
16.0,1.2999999523162842,83.0,22.837404251098643,17.86763572692871,-79.78283326811854,40.458931507099685,269.6562985477448,-0.0043997149914503,0.0053488514386117,-0.999151349067688,0.0406035222113132,-0.0128634450333793,-0.0122994847755901,0.0210432970870134,-0.0101757887750864,0.0753227174282074,0.0730206742882728,-0.1203739608451724,0.0499777418933808,-9.778926726579666,14934.0
16.21,1.2999999523162842,83.0,22.485578536987305,20.96087646484375,-79.78283305502741,40.45893150050817,269.6550070343018,-0.0006352104246616,0.0034940980840474,-0.9992277026176452,0.039134457707405,0.0053357948144246,0.0093155123038374,0.0572611375321211,0.0095173558220267,0.1335190534591674,-0.0486857332289218,-0.0719073998602107,0.0928055541682988,-9.960710813999176,14934.0
16.3,1.2999999523162842,81.0,22.326568603515625,22.75002479553223,-79.78283307139245,40.45893148343678,269.66372576332094,0.0024883840233087,-0.0005991599755361,-0.9992896914482116,0.0376003868877887,0.0158580723397333,0.0193534389025252,0.1280683672909443,-0.0062329322099685,0.1913474351167678,-0.0073984339833259,-0.0400130494544282,0.3047228928655386,-10.429252882003787,14934.0
16.5,1.399999976158142,81.0,22.728477478027344,17.652938842773438,-79.78283269399607,40.45893142441479,269.6768514213562,0.0095346691086888,-0.0048843896947801,-0.9993142485618592,0.0354464724659919,0.0422209297489891,0.0311440299048882,0.3103045229897738,-0.0095958029851317,-0.1150092035531997,0.0807342380285263,0.2739641265571118,-0.1998569539189338,-10.947925468683245,14934.0
16.61,1.399999976158142,95.0,22.80860710144043,17.470046997070312,-79.78283273592338,40.45893139787694,269.7108134326935,0.0015137774171307,-0.004583837930113,-0.999355971813202,0.0355573743581771,0.0417967237984534,0.0257691385882024,0.3408499063741538,-0.079030804336071,0.027699202299118,0.0893661752343177,0.2192347179539501,-0.0923224553838372,-10.145026745796203,14934.0
16.81,1.399999976158142,99.0,22.61579132080078,19.04449844360352,-79.78283295250844,40.45893148730151,269.74945107078554,-0.0073408642783761,-0.0025478217285126,-0.9993150234222412,0.0361820384860038,0.0345967910112047,0.0340980200077894,0.2766873563428966,-0.1152485907077789,-0.0538781136274337,-0.035681664943695,0.1376571151893586,0.1643815311044454,-9.693308871388435,14934.0
16.9,1.5,110.0,22.618295669555664,19.15582275390625,-79.78283307767198,40.45893160667241,269.7364341316224,-0.0091619882732629,-0.0017140035051852,-0.9992933869361876,0.036413948982954,0.0655579138166351,0.0334607553006383,0.2098155736323134,0.0183082446455955,0.0539722368121147,0.0193344485014677,0.1191751537285745,0.018190386397764,-9.666620424985886,14934.0
17.1,1.399999976158142,115.0,22.47681427001953,19.982807159423828,-79.7828331379207,40.458931572259104,269.7560595569611,-0.0099684987217187,-0.0041731903329491,-0.9992811679840088,0.0363379493355751,0.0517668202985026,0.0314259318132545,0.1767611073184481,0.0321573391556739,0.0525522865355014,0.0248243678361177,0.0681418477976694,0.0340529688354581,-9.494190128445624,14934.0
17.21,1.5,119.0,22.436748504638672,19.935096740722656,-79.78283287856505,40.45893136185547,269.7738374767304,-0.0091929258778691,-0.0086739044636487,-0.999309241771698,0.0349482037127018,0.005735519244881,0.0740975244413305,0.1353043468176734,-0.0540241971611976,0.0489907823503017,-0.0656628236174583,0.1271434011776,0.2361117557622492,-9.629250869750976,14934.0
17.4,1.399999976158142,123.0,22.466798782348643,19.89533805847168,-79.78283290335715,40.45893147298804,269.80588379478456,-0.0048355720937252,-0.0078420704230666,-0.9993425011634828,0.0350688993930816,0.0158692966504012,0.0238863991627419,0.1402458594156973,-0.1301129013299942,0.0928672105073928,-0.0752706602215766,-0.0369518950162455,0.2464656763337553,-9.564356716275215,14934.0
17.5,1.399999976158142,126.0,22.355365753173828,21.430030822753903,-79.78283292582744,40.45893145567726,269.81868997192385,-0.0069143651053309,-0.0090242642909288,-0.9992927312850952,0.0358453579246997,0.0080725390503659,0.0128010169104031,0.1218008637817396,-0.117573507130146,0.0684239938855171,-0.06422770768404,-0.0602622815966606,0.0063533195760101,-9.6145287501812,14934.0
17.71,1.399999976158142,128.0,22.466798782348643,19.76015853881836,-79.78283242149386,40.45893141712761,269.8625675735474,-0.0096215885132551,-0.0067351758480072,-0.999242901802063,0.0370906516909599,-0.0405837061966743,0.0134482476919085,0.1619222571634155,-0.1003705114126205,0.0379357375204563,-0.0620311982929706,-0.0126072273496538,0.2330969496443868,-9.795290744304657,14934.0
17.8,1.2999999523162842,133.0,22.26146125793457,21.795812606811523,-79.78283237653922,40.458931409535545,269.878199010849,-0.0073264087550342,-0.0051517430692911,-0.9992650151252748,0.0372720658779144,-0.0406063563514832,0.0093606471152288,0.1573585552540107,0.059152040630579,0.0129771828651428,-0.0137242646887898,0.0427823273325339,0.0695899061858654,-9.786005365848542,14934.0
18.0,1.399999976158142,139.0,22.2276554107666,21.795812606811523,-79.78283207287824,40.45893144486459,269.9182609615326,-0.005918092560023,-0.0036746102850884,-0.9993435144424438,0.0355530977249145,-0.0603001500144286,0.0023862031970191,0.2233034817827831,-0.0095297396183013,0.0889754965901374,0.0228023510426282,0.0265917046763934,0.0035367066599428,-10.056731450557711,14934.0
18.2,1.399999976158142,147.0,22.37790298461914,20.277023315429688,-79.78283199119645,40.45893144698376,269.9420408306122,-0.0068258033134043,-0.0053560356609523,-0.9993657469749452,0.0345380268990993,-0.0787745284999051,0.0001529651894342,0.2571311242999911,-0.0828065797686576,0.1045769080519676,-0.0042957626283168,-0.0178874412411823,0.1572728883102536,-10.106343905925751,14934.0
18.3,1.399999976158142,151.0,22.21138000488281,21.72424697875977,-79.78283178110452,40.45893152280984,269.9783379135132,-0.0041676182299852,-0.0060749864205718,-0.9994619488716124,0.0319624468684196,-0.0764785087780114,-0.0022337117677857,0.2790412683237047,-0.1132800057530403,-0.0153508940711617,-0.0896556079387664,-0.0188467443489935,0.181765376329422,-9.889075405597689,14934.0
18.4,1.399999976158142,149.0,22.190093994140625,21.70834350585937,-79.78283147877592,40.45893166355592,270.0019988117218,-0.0024294406175613,-0.0047715324908494,-0.999541163444519,0.0298141706734895,-0.062919813224218,-0.0086335060696401,0.2874444515728767,-0.0563622489571571,-0.0448569022119045,0.0552492290735244,-0.0192358822608366,0.0044569853134453,-10.058719503879548,14935.0
18.6,1.399999976158142,150.0,22.65335273742676,20.777984619140625,-79.78283140385713,40.45893168202613,270.0318249759674,-0.0026710447855293,-0.0050604315474629,-0.999583899974823,0.0282743964344263,-0.0525429112973216,-0.0241048915382537,0.2946864359081439,0.1679462790489196,0.0216711815446615,0.1292836517095565,0.1288653056882321,-0.1594912122935056,-9.882627096176147,14935.0
18.7,1.399999976158142,151.0,21.977245330810547,23.990501403808597,-79.78283121631422,40.45893177030632,270.04875937080385,-0.0004692647489719,-0.0035095233470201,-0.9996582865715028,0.0259009506553411,-0.0580697874230859,-0.0353151981011029,0.0878054355930519,-0.0172041207551956,-0.0147757679224014,0.0223211888223886,0.0095391002210089,0.180873438399285,-9.121993802189827,14935.0
18.91,1.2999999523162842,153.0,21.76064109802246,26.19314384460449,-79.78283108730821,40.45893184236428,270.07834735488893,0.003165352391079,-0.0004288345517124,-0.999782919883728,0.0205883234739303,-0.036603223833346,-0.0506682454746444,0.2355388734029275,0.1617579907178878,-0.0394946336746215,0.1751604527235031,0.0771304937638342,-0.3268249294906855,-10.554858090877532,14935.0
19.1,1.5,162.0,21.542783737182614,29.40566062927246,-79.78283103364821,40.45893188248022,270.1083497104645,0.0027374345809221,-3.0375595088116825e-06,-0.9998394250869752,0.0177132990211248,-0.0478115444506649,-0.039066840143428,0.3654860269262518,-0.026479909196496,-0.004252390936017,0.0267080869525671,0.095044873310253,0.0143227593088522,-10.975057718753815,14935.0
19.21,1.5,166.0,21.455141067504886,29.461322784423828,-79.78283093715021,40.45893197629663,270.18216505622865,-0.000348171510268,0.0023153508082032,-0.9998864531517028,0.0148936035111546,-0.0278928725009787,-0.0107796995798995,0.6568235586265281,-0.0642146319150924,0.0369410850107669,0.0393617674708366,0.0360952847753651,0.0078445148840546,-11.192991632223132,14935.0
19.3,1.600000023841858,174.0,21.322423934936523,30.542762756347656,-79.78283091290061,40.45893198250383,270.25799599266054,-0.0013739246642217,0.0016203142004087,-0.9998703002929688,0.0159663278609514,-0.0274079112405002,-0.0028972245595858,0.8651590485136845,-0.0458842329680919,0.0271761231124401,-0.0519780255854129,-0.0263836283097043,-0.0614783836808055,-11.778047658205033,14935.0
19.5,1.600000023841858,178.0,21.27359390258789,30.81312370300293,-79.7828306674392,40.458932104573606,270.459190279007,-0.0040341108106076,0.000260465836618,-0.9997754096984864,0.0208062194287776,-0.0397491048216707,0.0070627925376793,1.2905742167319316,-0.0378824062645435,0.0735236480832099,-0.0531520918011665,-0.0312828321475535,0.0497589098475873,-11.975503453016286,14935.0
19.6,1.7000000476837158,178.0,21.125850677490234,32.80902099609375,-79.78283061401815,40.45893209797134,270.5991211233139,-0.0036781919188797,-0.0020758821628987,-0.9997037649154664,0.0239721033722162,-0.0332782296411488,0.010422059050216,1.5118093350203117,0.069052442908287,0.0928839966654777,-0.0336476825177669,0.0607074054563418,-0.0856161832530051,-12.060138391256332,14935.0
19.8,1.7000000476837158,181.0,20.948060989379886,34.129013061523445,-79.78283026746855,40.45893219566752,270.93531933403017,-0.0047097275964915,-0.0085954498499631,-0.9995543360710144,0.0281993336975574,-0.0586662246421857,0.0149938796576901,1.9851190301451025,-0.0704554095864296,0.0253580212593078,-0.0888065621256828,0.0419113982655108,0.1108426156081259,-12.275910004377366,14935.0
19.9,1.8999999761581416,177.0,20.92427062988281,33.53263092041016,-79.78283000582482,40.458932284934285,271.12011125659944,-0.0063495482318103,-0.0065056192688643,-0.9995461106300354,0.0287235956639051,-0.0642932103718981,0.0320283218440011,2.203968367885865,-0.0036083632148802,-0.0955489054322242,-0.0395624227821826,0.1132073575258255,0.0612341116787865,-12.345828670263291,14936.0
20.11,1.8999999761581416,176.0,21.215999603271484,30.84493064880371,-79.7828299024373,40.45893229674964,271.35278180217745,-0.004788011778146,-0.0024559078738093,-0.9995671510696412,0.0289242379367351,-0.059477006169581,0.0107980250467291,2.453860646811226,0.0619981959462165,-0.0222371239215135,0.0561156533658504,-0.0154626066202763,-0.0036836978956125,-12.364246230125428,14936.0
20.2,2.0999999046325684,172.0,21.322423934936523,28.69795227050781,-79.78282943658205,40.458932471719024,271.84013840532305,-0.004935348406434,-0.0024425291921943,-0.9995921850204468,0.0280205756425857,-0.0800085063488993,-0.0144781465853226,2.862074314948561,-0.013787331059575,0.0968987196683883,-0.0254647303372621,-0.0307441414170898,0.099933757726103,-11.9128961455822,14936.0
20.4,2.200000047683716,169.0,21.640443801879886,25.5570011138916,-79.7828288560957,40.45893277601529,272.34986091940107,-0.0070866663008928,-0.0026594528462737,-0.9996199011802672,0.0265121422708034,-0.0974630045860028,-0.0290352916036315,3.0249443734933408,-0.0505339689552784,0.0049167266115546,-0.0303108412772417,0.0192367570591159,0.2265096957609057,-10.850355319976806,14937.0
20.5,2.400000095367432,160.0,21.629175186157227,26.32832336425781,-79.78282870668541,40.45893282660681,272.65450528240206,-0.0074792238883674,-0.00182790402323,-0.9996421337127686,0.0256190486252307,-0.0846296492280318,-0.0347257601827835,3.06565211627925,0.0255224555730819,0.0212132539600133,0.0365248769521713,0.0030447913706302,0.1217573207058012,-10.349591585397723,14937.0
20.7,2.5,155.0,21.64795684814453,25.19917106628418,-79.7828285523757,40.45893288580379,272.9624527988434,-0.0083026019856333,-0.0037066654767841,-0.9996630549430848,0.0243121925741434,-0.0851739741859993,-0.0501059049534111,3.0875154423330136,0.0238681882619857,-0.05859936773777,0.0412891395390033,0.0925952279940247,0.0630434092227369,-10.145562350749971,14937.0
20.8,2.900000095367432,149.0,21.67424964904785,25.994348526000977,-79.78282782895816,40.45893339238452,273.444213300705,-0.0108450120314955,-0.0036106624174863,-0.9996963143348694,0.0218346640467643,-0.1162133445414638,-0.0787976926498379,2.9560883643917326,-0.046339813619852,0.0081633273512125,-0.0266911014914512,-0.061963099585846,0.3739308296889067,-9.507168023586273,14938.0
21.0,3.0,143.0,21.65171241760254,25.46953201293945,-79.78282710104881,40.4589340475879,273.5753174123764,-0.0101822754368186,-0.0024560468737035,-0.9997272491455078,0.0208735279738903,-0.1388894511648573,-0.165122593507342,2.801361777185287,0.1121988669037818,-0.0742500349879264,0.0524009689688682,-0.0373621365800499,0.1351813858095556,-9.481216326355934,14938.0
21.1,3.2000000476837163,134.0,21.685518264770508,25.41386985778809,-79.78282662272727,40.45893441308222,274.1247117815018,-0.0065000960603356,0.0035950255114585,-0.9997286796569824,0.0220793150365352,-0.1817187856383106,-0.1964956791225978,2.6940075272712924,-0.0339161343872547,-0.0268406607210636,-0.0192519910633564,-0.1316088740900159,0.1532113940455019,-9.244612253308295,14939.0
21.31,3.400000095367432,132.0,21.463905334472656,27.632413864135746,-79.78282538391527,40.458935787033774,274.30879333591463,-0.0104567697271704,0.0072201234288513,-0.999650776386261,0.023170918226242,-0.2296342813273664,-0.3155389573822506,2.3758414086038546,-0.1351711750030517,0.0622522011399269,-0.0840218588709831,-0.1677766072377562,0.1696033139526844,-9.235222209692004,14939.0
21.41,3.5999999046325684,128.0,21.564069747924805,26.16133689880371,-79.78282531130141,40.458935623096046,274.7936138210297,-0.0125174140557646,0.0044202855788171,-0.9996672272682192,0.0221206843852996,-0.1823254213353008,-0.2694266246287916,2.459962855471378,-0.0106242187321186,0.0952390134334564,0.1186959818005561,-0.160119312889874,0.0657475134870037,-9.449924951791765,14939.0
21.6,3.700000047683716,133.0,21.61289978027344,25.723989486694336,-79.78282504337254,40.458935838037526,275.0386623439789,-0.0142830265685915,0.003976765088737,-0.9996750354766846,0.0207382701337337,-0.1835114653224804,-0.2524413843923865,2.4412221049198224,0.04570072889328,-0.0380438789725303,0.0010981054510921,0.056197850019671,0.0758912677690386,-9.617610817551611,14940.0
21.7,4.0,141.0,21.662981033325195,23.99845314025879,-79.78282444355004,40.4589360538228,275.69102588272096,-0.0132184205576777,0.0083721736446022,-0.9995245337486268,0.0265692993998527,-0.2220120213757633,-0.2646095808202231,2.4746675468530874,0.3690388798713684,0.0212160311639308,0.039200734347105,-0.187702602557838,-0.1198403293266892,-9.444106387495996,14940.0
21.9,4.099999904632568,147.0,21.55906105041504,26.240854263305664,-79.78282387598819,40.458936329077744,276.33399072265627,0.0107331210747361,0.011236292310059,-0.9993562698364258,0.0323363244533538,-0.3644123747123549,-0.2733736020932322,2.3808666290274285,0.0514449700713157,0.2133949697017669,-0.1595651656389236,-0.3627342522516847,-0.2089072377607226,-9.126991417407991,14941.0
22.0,4.300000190734863,162.0,21.348716735839844,28.96831321716309,-79.78282346559472,40.45893654715179,276.56972470855715,0.0171326100826263,0.0040975930169224,-0.9992678761482242,0.0339621864259243,-0.4215507293933832,-0.2564577461568222,2.3146428729777053,0.0288219265639781,-0.075500413775444,0.0029538390226662,-0.1181380312610417,-0.3844964560121298,-9.17364225804806,14941.0
22.2,4.400000095367432,172.0,21.495206832885746,26.646394729614247,-79.78282250431643,40.45893671303046,277.1401735839844,0.0198051072657108,0.0117562180384993,-0.9993809461593628,0.0265987087041139,-0.4635193918232021,-0.2237104711859712,2.312639147059088,-0.0930654406547546,0.0873597115278244,0.1419023126363754,0.1194149626605212,-0.6073640307784081,-9.530728209614754,14942.0
22.3,4.400000095367432,184.0,21.477678298950195,26.94856262207031,-79.78282210817983,40.458936912150136,277.37263599014284,0.0201230533421039,0.0054164682514965,-0.999561846256256,0.0210245307534933,-0.4369502974999303,-0.2590838625633319,2.2987772106019846,-0.0306287240236997,0.1031861677765846,0.0652648508548736,-0.178778929207474,-0.4815927609801293,-9.694017553925514,14942.0
22.5,4.400000095367432,189.0,21.38627815246582,28.1572322845459,-79.7828214655446,40.458936934511925,277.982593208313,0.0203630104660987,0.0095945298671722,-0.9995228052139282,0.0211562104523181,-0.4145406114123048,-0.173587693235428,2.3004736475969114,0.1251234710216522,-0.122325025498867,0.0120526375249028,-0.0880983354337513,-0.5131828551739455,-9.437064000964163,14942.0
22.6,4.599999904632568,200.0,21.324928283691406,28.39578437805176,-79.7828210928902,40.45893709793649,278.21347776031496,0.0246956925839185,0.0114025976508855,-0.9993584156036376,0.0232999995350837,-0.4348287251651902,-0.215700382431788,2.283518192092785,-0.1323981434106826,0.0857970118522644,-0.160062089562416,-0.4025184517353773,-0.187362385969609,-9.493767374753952,14943.0
22.8,4.599999904632568,204.0,21.02443504333496,32.17287826538086,-79.78282058101217,40.45893706471481,278.8389278945923,0.0267161671072244,0.0029582530260086,-0.9993369579315186,0.0245603490620851,-0.3964040804755515,-0.2099968472460683,2.3729832145466814,-0.0098131643608212,0.0897779017686843,0.1257166713476181,-0.2945013934560119,-0.4877811616659165,-10.098381167650222,14943.0
22.9,4.800000190734863,209.0,21.00440216064453,31.28227806091309,-79.78282070187784,40.45893685902293,279.2609783706665,0.0286097042262554,0.0019984601531177,-0.9993752241134644,0.020658491179347,-0.3195312635995576,-0.1677226745961195,2.5429905106753554,0.1242680698633194,-0.0090531753376126,0.1658195257186889,-0.3710339728742838,-0.2308010221458971,-10.387402020692823,14944.0
23.1,5.0,212.0,21.26608085632324,28.1015682220459,-79.78282050919944,40.45893700609109,279.5196148452759,0.0294226817786693,0.0076996996067464,-0.9993897080421448,0.0171861313283443,-0.3022936463097849,-0.1787250594267664,2.5961893905254803,0.0257022120058536,-0.1095716878771782,0.0723589360713958,-0.1854099458456039,-0.3157480372488499,-10.413667713403704,14944.0
23.22,5.099999904632568,214.0,21.194713592529297,29.206865310668945,-79.78282077200687,40.45893668299074,280.1774689254761,0.0263825133442878,0.0198339484632015,-0.999320149421692,0.0164296682924032,-0.2152291617608586,-0.1994046392826712,2.6144651418153324,-0.0430753752589225,-0.1681989282369613,0.0291009359061718,-0.2260421925969422,-0.4786504420638085,-9.579502174258232,14945.0
23.42,5.099999904632568,213.0,21.035703659057614,31.250471115112305,-79.78282118812896,40.45893656018668,280.8692509231568,0.0178980771452188,0.0273962561041116,-0.9991706013679504,0.0242353826761245,-0.1450784831550842,-0.1960138140197913,2.6547185231893686,-0.0602463148534297,-0.0676852092146873,-0.1239916533231735,-0.1618214373663068,-0.298128951229155,-9.559467274546623,14945.0
23.6,5.199999809265137,213.0,20.91175079345703,32.27624893188477,-79.7828211552752,40.45893661097144,281.1350418624878,0.0143973752856254,0.0268011223524808,-0.999096155166626,0.0296881385147571,-0.1396199274136545,-0.1823843997523946,2.647212274289061,-0.1008405610918998,0.0412989258766174,-0.1310288608074188,-0.2025952050089836,-0.4576919380947948,-9.672392796278,14946.0
23.7,5.300000190734863,212.0,20.89046669006348,31.838903427124023,-79.78282109582477,40.45893664157583,281.4015490112305,0.0123786376789212,0.0211305860430002,-0.9991390109062196,0.0334896855056285,-0.1551667913143772,-0.1551040254648572,2.6700847856839047,-0.038943350315094,0.1473575085401535,-0.0327944606542587,-0.2382120938971639,-0.3724414342269301,-9.797616181969644,14946.0
23.81,5.5,208.0,20.81409072875977,32.554561614990234,-79.78282104870013,40.45893680170893,282.01680436706545,0.0213392358273267,0.0166042037308216,-0.99908185005188,0.0332331098616123,-0.1877252613478317,-0.1083614746186973,2.7634537723581905,0.1788415610790252,0.1458605676889419,0.0024849870242178,-0.5284651014581323,-0.3201095484942198,-10.03546278834343,14947.0
24.0,5.599999904632568,211.0,20.76901626586914,33.190704345703125,-79.78282110843162,40.45893678101113,282.61168828582765,0.0472756139934062,0.0037541850470006,-0.9985528588294984,0.0253596436232328,-0.2283834310860021,-0.0941737030466722,2.8365654078445868,0.1193211376667022,0.1457188576459884,0.0762200802564621,-0.2225317801348865,-0.4827532871067524,-10.189563817977907,14947.0
24.1,5.699999809265138,210.0,20.970598220825195,30.701799392700195,-79.78282109916131,40.45893681179373,282.8994442520142,0.047227706760168,-0.000297555088764,-0.9986679553985596,0.0207830667495727,-0.2699810002230041,-0.063328082465636,2.898827247954061,-0.1402934193611145,0.0765919685363769,0.1312640309333801,-0.2914833713695407,-0.6689649593085051,-10.338436267375949,14947.0
24.2,5.699999809265138,210.0,20.760251998901367,32.673839569091804,-79.78282074521624,40.45893694612115,283.1819063720704,0.0398550294339656,0.0044122403487563,-0.9990187287330629,0.0188103783875703,-0.2316162378353797,-0.0528380855806123,2.914507002095521,-0.1178929582238197,-0.1737958937883377,0.0168391484767198,-0.0867344358377158,-0.5335594150051475,-10.210570524930953,14948.0
24.4,5.599999904632568,221.0,20.86542510986328,31.71962547302246,-79.78282087189764,40.45893707117536,283.76851239776613,0.0216015912592411,0.0213903710246086,-0.9993188977241516,0.0209208149462938,-0.1113800585608411,-0.1282751759339752,2.9650101474890738,-0.1303274035453796,-0.0314726270735263,-0.0719380751252174,-0.2591729550249875,-0.4017558651790023,-10.248606662750245,14948.0
24.61,5.599999904632568,212.0,20.74648094177246,32.76926040649414,-79.78282096797966,40.45893709287154,284.0683323440552,0.0182792786508798,0.0243319366127252,-0.999298930168152,0.0218088775873184,-0.0470630456514602,-0.1416803493384619,3.0299896167527263,0.0253089200705289,0.058082066476345,0.0573875531554222,-0.2654273561574519,-0.4607842746376992,-10.417584178447724,14949.0
24.7,5.5,213.0,20.67260932922364,32.70564651489258,-79.78282101756103,40.45893719703685,284.67460027313234,0.0229879673570394,0.0174414459615945,-0.9993662238121032,0.0208461936563253,-0.037595496026686,-0.1289504094274543,3.201571085669669,-0.0068246955052018,0.1073840260505676,-0.0472802147269248,-0.2313358961977065,-0.3094619880616665,-10.954785422086715,14949.0
24.9,5.5,213.0,20.87544059753418,30.79722023010254,-79.78282108613281,40.4589371310315,285.3335424957276,0.0244642775505781,0.0040837870910763,-0.9994860291481018,0.0203131232410669,-0.0560359486745703,-0.0559509080457799,3.3376375701471668,-0.0785098224878311,0.0669486746191978,-0.0680508613586425,-0.147167346496135,-0.3199598963186145,-10.510798151493074,14950.0
25.0,5.5,214.0,21.122095108032227,27.831209182739247,-79.78282123033172,40.45893711927411,285.6691576538086,0.0232915189117193,0.0050255432724952,-0.9994911551475524,0.0212083235383033,-0.0365295774821805,-0.0256789135495275,3.3657833164881086,0.0268808510154485,-0.0824709832668304,0.0497086681425571,-0.1915183493122458,-0.480164468921721,-10.151437633037569,14950.0
25.2,5.400000095367432,214.0,21.23352813720703,27.12350082397461,-79.78282138185301,40.458937116236,286.0054956970215,0.0210164859890937,0.00898062530905,-0.999469757080078,0.0231916885823011,-0.0307993588374935,-0.0381706424890377,3.3670113364633845,-0.0663968622684478,-0.0948756635189056,-0.0420181900262832,-0.1732443934120238,-0.6203163443505765,-9.952121254205702,14951.0
25.3,5.300000190734863,215.0,21.0382080078125,28.992168426513672,-79.78282152409272,40.45893724332348,286.6511599121094,0.0180355887860059,0.0150544736534357,-0.999281883239746,0.0297293663024902,-0.0232570932088105,-0.0877744225757028,3.2738494447422952,-0.1124652698636055,-0.0126331113278865,-0.0941800400614738,-0.2929548780061305,-0.5641906023770571,-9.560640810728074,14951.0
25.51,5.300000190734863,215.0,21.272340774536133,26.25675773620605,-79.78282128984118,40.458937513346,287.2669178543091,0.0129348486661911,0.0097435545176267,-0.9992725253105164,0.0345297195017337,-0.0583044866103372,-0.0798177335455839,3.2308161075172617,0.2032277137041092,-0.0223785154521465,0.0429594293236732,-0.0173427593987435,-0.64217784114182,-9.897814654111864,14952.0
25.6,5.300000190734863,211.0,21.269838333129886,26.447599411010746,-79.782821298926,40.45893752106044,287.5904289779663,0.0209768135100603,0.0081581203266978,-0.99921977519989,0.0324555672705173,-0.0792638062860603,-0.0691629258765155,3.2303784941756497,0.2703008949756622,0.0528677031397819,0.0437379851937294,-0.0516875225678086,-0.6643344030529261,-9.83247669696808,14952.0
25.81,5.400000095367432,214.0,21.823244094848643,20.36449241638184,-79.78282121672699,40.45893757644852,287.92218270874025,0.0268255751579999,0.008447241038084,-0.9991658329963684,0.0296077989041805,-0.1558543993866626,-0.0652790430397713,3.1967248818359666,0.1445386558771133,0.0172229502350091,-0.0378884971141815,0.0254661590605974,-0.5563651274889708,-9.678998980522156,14952.0
25.9,5.599999904632568,213.0,21.902122497558597,18.91727066040039,-79.78282127501652,40.45893740330415,288.59480920410164,0.0289634298533201,0.0095469392836093,-0.9991853833198548,0.0264301728457212,-0.1948963589039409,-0.0537835032939751,3.084846720593142,0.125322550535202,-0.1033150926232338,0.0118280798196792,-0.1763846953958273,-0.6974620226025582,-8.914310642480851,14953.0
26.1,5.599999904632568,213.0,21.902122497558597,19.545459747314453,-79.78282122393693,40.45893741933421,288.89649644470217,0.034234270453453,0.0127348350360989,-0.999056041240692,0.0235159080475568,-0.2130473436161613,-0.0685956414596383,2.9210379059088627,0.2171042114496231,-0.0479853488504886,0.1028502508997917,-0.1047039528004825,-0.6889884569495917,-8.393515516519546,14953.0
26.2,5.699999809265138,219.0,21.80571556091309,20.55533599853516,-79.78282116005934,40.458937368734105,289.49350610351564,0.0474072396755218,0.0171470809727907,-0.9985893964767456,0.0166686698794364,-0.2571600075102357,-0.119887984957864,2.5862093611756465,0.1134862378239631,-0.0231744963675737,0.1619548797607422,-0.4066996860131621,-1.0238939461112022,-8.102330608963968,14954.0
26.41,5.699999809265138,221.0,21.769405364990234,20.762081146240234,-79.78282112346712,40.45893735584306,290.0321241912842,0.0458503440022468,0.0154916644096374,-0.9987412095069884,0.0131801897659897,-0.2345702895135918,-0.1286744579834255,2.339083856995856,-0.041374672204256,0.0370397791266441,0.0386693999171257,-0.4281721602380276,-0.6356697439402342,-8.484093564748765,14955.0
26.5,5.9000000953674325,222.0,21.716819763183597,22.090028762817383,-79.78282109377564,40.45893739932132,290.260744720459,0.0430948361754417,0.0164112914353609,-0.9988446831703186,0.0135228866711258,-0.1919064483706068,-0.1259929530647959,2.221427879624017,0.0302267707884311,0.0181851517409086,-0.1069953888654708,-0.1882386825978756,-0.6016955937445164,-8.608046935200692,14955.0
26.7,5.9000000953674325,222.0,21.617908477783203,22.320629119873047,-79.78282111321015,40.45893745446249,290.4789873657227,0.0402117483317852,0.0186125189065933,-0.998904585838318,0.0150414891541004,-0.1586208009995798,-0.1343371269420702,2.122691793149708,0.0090622222051024,-0.0704952329397201,-0.0185804665088653,-0.3837332481890917,-0.6423224866390228,-8.734555538892746,14955.0
26.8,5.9000000953674325,221.0,21.66172981262207,21.19147682189941,-79.78282123280249,40.45893742610608,290.95278039550783,0.0333155244588851,0.0221493169665336,-0.9990277886390686,0.0185193587094545,-0.107648838343232,-0.1497274411147215,2.012142899078256,-0.0813488066196441,-0.0509416349232196,-0.0218422394245862,-0.4709270376339555,-0.5933688662946225,-8.975764878988267,14955.0
27.01,5.9000000953674325,216.0,21.664234161376957,22.38424301147461,-79.78282140841316,40.458937255289136,291.2519041595458,0.0332294143736362,0.0244921948760747,-0.9989507794380188,0.0198347959667444,-0.0820708247765719,-0.1467017424579446,2.016642450865493,0.0197390392422676,-0.0164932925254106,-0.1276869773864746,-0.4326486423611641,-0.3364317951723933,-9.033551741838458,14956.0
27.1,6.0,215.0,21.66548538208008,22.09798049926757,-79.7828215485166,40.45893737380121,291.6408239898682,0.0354041829705238,0.0295536704361438,-0.9987115859985352,0.0211739223450422,-0.0768642682321351,-0.1709434902611313,1.8615228163719075,-0.0133358091115951,-0.1427394598722458,0.1818219870328903,-0.6894687326252461,-0.8554733777046204,-8.926153008341789,14956.0
27.3,6.0,214.0,21.733097076416016,21.779909133911133,-79.78282202496891,40.45893711818769,292.14115777587887,0.0317527912557125,0.0372656323015689,-0.9985737204551696,0.0213013589382171,-0.0641348268491463,-0.1650298078518935,1.7719098901853898,-0.158957839012146,-0.058389127254486,-0.0013539786450564,-0.6931469236314297,-0.8066821637749673,-8.853553978800774,14957.0
27.41,6.0,212.0,21.50397109985352,23.50544357299805,-79.78282261686469,40.45893668920008,292.47611871337887,0.0314836166799068,0.0395793579518795,-0.9984921216964722,0.0213504713028669,-0.019307456829228,-0.1518943772047581,1.7894388221603577,0.0446951948106288,0.0703917145729065,-0.0218642521649599,-0.7171908205747605,-0.5462363612651825,-8.915701695084572,14957.0
27.6,6.0,210.0,21.690526962280277,21.294851303100582,-79.78282271892266,40.4589366974749,292.6525961456299,0.0308768935501575,0.039390280842781,-0.9985105395317078,0.0217234529554843,-0.0203465539851851,-0.1479469222328419,1.7347251729363569,0.1146554052829742,0.1095747947692871,-0.0338143147528171,-0.600088523067534,-0.5877511538565159,-9.149779770970346,14957.0
27.7,6.099999904632568,210.0,21.696786880493164,21.08015251159668,-79.78282334571006,40.4589362696231,293.1406809387207,0.0354033000767231,0.0380778275430202,-0.9983813762664796,0.0230526197701692,-0.0179743569122129,-0.0910724191900195,1.7370802422493612,0.0779116153717041,-0.086746297776699,0.0301197208464145,-0.5691688121482729,-0.7555174188315869,-9.260869851708412,14958.0
27.9,6.199999809265138,209.0,23.09783172607422,11.037062644958496,-79.78282402317227,40.45893579706276,293.6134115753174,0.0318813472986221,0.0304247513413429,-0.9987337589263916,0.0242686290293932,-0.0382495679400203,-0.0761355675988034,1.6114197287406329,-0.2815366089344025,0.1945030391216278,-0.0299517419189214,-0.7547485099732876,-0.915868829637766,-8.136768954992295,14958.0
28.0,6.199999809265138,208.0,22.02983283996582,17.19968605041504,-79.78282407609018,40.4589357894836,293.7616564331055,0.0138701973482966,0.0114888735115528,-0.99893718957901,0.0424296855926513,-0.0796303849269189,-0.0931825011521397,1.3631358187085705,-0.4790387153625488,0.3815308511257172,-0.5734743475914001,-0.7336481744796038,-1.074118531867862,-7.5735628044605265,14958.0
28.2,6.300000190734862,209.0,22.165054321289062,16.658966064453125,-79.78282407936487,40.45893581596775,293.8884493408204,0.0046541830524802,0.0014432267053052,-0.9965770840644836,0.0825255215167999,-0.048913355264946,-0.0621111011205762,1.1731020862631656,-0.0193482842296361,0.0369177833199501,-1.194499373435974,-0.3977122962847352,-0.1518534330278635,-7.747759544849397,14958.0
28.3,6.4000000953674325,210.0,21.99602699279785,19.03654670715332,-79.78282395424912,40.45893584063764,294.1136271057129,0.0289365276694297,0.0307698789983987,-0.9800923466682434,0.1939972043037414,-0.152759100963118,-0.1100160485014053,0.8816985669007302,0.1535114645957946,-0.2747207283973694,-1.3425973653793335,-0.6691625951975584,-0.8739048247039318,-8.302972551584244,14959.0
28.5,6.4000000953674325,212.0,22.101198196411133,18.55944061279297,-79.78282342065133,40.45893605134078,294.1493574676514,0.0346223153173923,0.0372990034520626,-0.9642969965934752,0.2598874866962433,-0.2505450112590944,-0.1171502071564404,0.7758749322575903,-0.0361682400107383,-0.0264430493116378,-1.5118372440338137,-0.5510656863078476,-1.097193910628557,-8.705545747876169,14959.0
28.6,6.4000000953674325,197.0,22.02357292175293,18.535585403442383,-79.78282300385182,40.4589363378743,294.2875505981445,0.0404869653284549,0.0345583818852901,-0.9153642654418944,0.3990927040576935,-0.3056966132586583,-0.0155048269573782,0.5615912576293437,0.119970254600048,-0.0542254261672496,-1.5518065690994265,-0.1916812673583627,-1.0014250697940588,-8.701727516055108,14959.0
28.8,6.4000000953674325,188.0,21.759389877319336,20.99268341064453,-79.78282233098821,40.45893657847761,294.34399476623537,0.057385679334402,0.0381666272878646,-0.8444826006889343,0.5311302542686462,-0.2812466938419165,0.1298068351969896,0.3599354489239673,0.0859070122241973,-0.0956327840685844,-1.5459500551223757,0.1669882198423147,-1.0693859416991474,-8.802517726421357,14959.0
28.9,6.300000190734862,197.0,21.659225463867188,22.52737617492676,-79.7828216765866,40.45893668197088,294.3235003051758,0.065141960978508,0.0399228930473327,-0.8018444180488586,0.5926282405853271,-0.2160798040599604,0.2051907621460184,0.2976052469597719,0.1945194900035858,-0.0329664498567581,-1.5611953735351562,0.1872079646587372,-0.7496982698142529,-9.054373676776889,14959.0
29.01,6.199999809265138,202.0,21.63919258117676,23.012434005737305,-79.78282137066563,40.45893672170249,294.35428872680666,0.0720555037260055,0.037972018122673,-0.7560961246490479,0.6493726968765259,-0.1313592155145539,0.2460313915329394,0.270201988330772,0.1070358380675316,-0.0233434066176414,-1.2870045900344849,0.2720753845386207,-1.2961923471093175,-9.346584770679476,14959.0
29.2,6.199999809265138,189.0,21.62166404724121,23.15556526184082,-79.78282047486717,40.45893664822532,294.3534552154541,0.0817132294178009,0.02363864146173,-0.6631489396095276,0.7436380982398987,0.0676370219811998,0.2739436971870372,0.2729066461844572,-0.1110329329967498,0.0224813316017389,-1.2036699056625366,0.5933673679456115,-0.5585495010763407,-9.635851791501045,14959.0
29.4,6.099999904632568,187.0,21.6279239654541,22.11388397216797,-79.78281961322386,40.458936610922045,294.36597695922853,0.0861893519759178,0.0117991035804152,-0.5927404165267944,0.8006815910339355,0.2658641288380321,0.2187066243069944,0.3052394444433792,-0.0099721299484372,-0.012811416760087,-0.7073744535446167,0.8856930307298899,-0.4523190778121353,-9.735711125135422,14959.0
29.5,6.099999904632568,200.0,21.670494079589844,21.398223876953125,-79.78281932843242,40.45893634427043,294.39461770629885,0.0847435519099235,0.006862555630505,-0.5715591311454773,0.8161444664001465,0.3377919578587426,0.1825430689713,0.3050916707623137,-0.1460760086774826,-0.1606334894895553,-0.2991923093795776,1.0075099747627974,-0.6676006577163935,-9.612387499809266,14959.0
29.71,6.099999904632568,206.0,21.66172981262207,21.71629524230957,-79.78281793753978,40.458936461088456,294.4346949157715,0.0759755223989486,0.0007672121282666,-0.5506616234779358,0.8312634229660034,0.3987588779887163,0.1641517873764521,0.3708566805354198,0.0066056065261363,-0.3007601797580719,0.0373552814126014,1.0584813230484724,-0.7117623386532068,-9.898025153875352,14959.0
29.8,6.099999904632568,210.0,21.75062561035156,20.85750389099121,-79.78281757519575,40.45893618489954,294.4672991333008,0.061636883765459,0.0151532068848609,-0.5490007400512695,0.8334084153175354,0.4378267429338764,0.1920533947010776,0.3544812340373663,-0.033927533775568,-0.5572627782821655,-0.1022215709090232,1.3298565217852594,-0.3754937173426152,-9.5673686170578,14959.0
29.91,6.0,207.0,21.905879974365234,19.47389411926269,-79.78281667197088,40.45893655813407,294.32799211120613,0.033168688416481,0.0322044752538204,-0.5504887700080872,0.8335616588592529,0.4308099914672564,0.2571071940338598,0.2915272233349995,-0.1680658906698227,-0.7011396288871765,0.1532252728939056,1.0970133047550916,-0.7850434459000827,-9.608868645429611,14959.0
30.1,6.0,214.0,21.634183883666992,22.153642654418945,-79.78281550143834,40.458935992223225,294.3787046966553,-0.0207904577255249,0.0504435040056705,-0.5552230477333069,0.8299100995063782,0.4800087964912634,0.4579418784940706,0.2999622129188234,-0.0760553777217865,-0.3967396318912506,0.1209153085947036,0.8002597282826901,-0.7165743778645992,-9.82235750555992,14959.0
30.3,6.0,217.0,21.672998428344727,21.27099609375,-79.78281485887057,40.45893586012233,294.2841764984131,-0.0371327772736549,0.0550145842134952,-0.557059645652771,0.8278158903121948,0.4783511590541474,0.6118367966935692,0.3100230006623922,-0.034838743507862,-0.1804382055997848,0.1573912650346756,0.8780651186406613,-0.7464227326959372,-10.055101246833802,14959.0
30.4,6.0,201.0,21.596622467041016,22.360387802124023,-79.78281327620181,40.45893566869562,294.245176940918,-0.0535910315811634,0.0608616508543491,-0.5601547360420227,0.8244092464447021,0.4207365278169075,0.9905032757291352,0.378846379116077,-0.0431892871856689,-0.0160762872546911,-0.1091221049427986,0.7857478161156178,-0.4453745225071907,-10.092387771606443,14959.0
30.61,6.0,201.0,21.652965545654297,21.72424697875977,-79.78281010694027,40.45893584804504,294.29073014831545,-0.0596666820347309,0.0652646347880363,-0.5626136660575867,0.8219771385192871,0.35062418779625,1.4799465956124502,0.5116756563923693,-0.017189372330904,-0.1292861402034759,0.043297566473484,0.844064290523529,-0.8009899724274874,-10.250910465717316,14959.0
30.7,5.800000190734862,201.0,21.626672744750977,22.04231643676757,-79.78280863117544,40.45893610563171,294.2675615844727,-0.0600963234901428,0.0676539093255996,-0.5634848475456238,0.8211554288864136,0.3118142108404897,1.6840255236063146,0.5530579684822916,0.0392724350094795,-0.0128745883703231,0.1819274872541428,0.8480449287593366,-1.0334675922989849,-10.339574135541916,14959.0
30.91,5.800000190734862,201.0,21.67550277709961,21.620872497558597,-79.78280440789577,40.45893701504654,294.26154962158205,-0.0592983029782772,0.0680799037218093,-0.5643026828765869,0.8206164240837097,0.2453601012143664,2.1527866427176865,0.6099463673432178,0.0043573030270636,0.0083639379590749,0.0155379632487893,0.8467926013469697,-0.8027984431385994,-10.053900228738785,14959.0
31.01,5.599999904632568,195.0,21.56532096862793,22.77388000488281,-79.78280172487969,40.45893756326119,294.28206315612795,-0.0621986873447895,0.0678997561335563,-0.5647075176239014,0.8201380968093872,0.2188792071245027,2.391797582674233,0.6301771814002682,0.011600867845118,-0.183367371559143,0.1774607896804809,0.6744755215197802,-0.8572986591607332,-9.884879443645476,14959.0
31.2,5.400000095367432,195.0,21.7456169128418,21.4379825592041,-79.78279879006926,40.458938213013134,294.30126824951174,-0.0680262073874473,0.0680903121829032,-0.5647414922714233,0.8196359872817993,0.175814346102211,2.6307165039543468,0.6815303154817959,-0.1498924195766449,-0.0888852924108505,-0.123175986111164,0.6563315382599831,-0.5618386329710484,-10.041809356212616,14959.0
31.3,5.199999809265137,190.0,21.71556663513184,20.99268341064453,-79.78279273834741,40.45894013837204,294.2683950958252,-0.0833215937018394,0.0763401761651039,-0.5637456774711609,0.8181811571121216,0.0907017266776655,3.0749841737289527,0.7546741766895659,0.0191784165799617,-0.2237071543931961,-0.0625839158892631,0.5552429006248712,-0.6183174736797811,-9.851170245409012,14959.0
31.5,5.0,187.0,21.70805549621582,20.17365074157715,-79.78278570742219,40.458942659690095,294.2253157196045,-0.1019225642085075,0.0853368192911148,-0.5607143044471741,0.8172692060470581,-0.0164964466737905,3.5350115656540053,0.9455176868712584,-0.0483667030930519,-0.1049322560429573,-0.0902764499187469,0.2543336166255176,-0.5414770566299558,-9.973127961158752,14959.0
31.6,4.800000190734863,176.0,21.55906105041504,22.71026611328125,-79.7827815388313,40.45894389986388,294.2286860046387,-0.106091096997261,0.0877313837409019,-0.5589200258255005,0.8177140355110168,-0.0361988879614814,3.7877440356607313,1.047234601772609,0.0485582314431667,0.0130674764513969,-0.0485303364694118,0.1282435913477093,-0.4902872052043677,-9.87900416135788,14959.0
31.8,4.599999904632568,172.0,21.59161376953125,23.02833747863769,-79.78277753400313,40.45894565616,294.1897398529053,-0.1066398099064827,0.0883511751890182,-0.5557132363319397,0.8197591304779053,-0.0990951895471734,4.024727340921059,1.1180312551078178,0.063377097249031,0.0578924939036369,-0.0032480650115758,0.1598940123617649,-0.7187573627382517,-10.016594992876051,14959.0
31.9,4.400000095367432,165.0,21.35247230529785,24.920860290527344,-79.78276834635696,40.458949300303495,294.15501847839363,-0.1032168716192245,0.0884663239121437,-0.5480989217758179,0.8252924680709839,-0.1518680269405028,4.563615772505622,1.220970239168064,-0.0209740102291107,0.0585282929241657,-0.1628058552742004,0.2608955082111061,-0.6192471078783274,-10.155012620687485,14959.0
32.1,4.300000190734863,162.0,21.25105667114257,26.320371627807607,-79.7827575566918,40.45895297134768,294.1482588348389,-0.0994049906730652,0.0873763039708137,-0.5446342825889587,0.8281651139259338,-0.1115959964334498,5.099941953661581,1.3898919767335614,0.0787019580602645,0.0944703444838524,-0.0094392262399196,0.0840538163669407,-0.615470537468791,-10.427408670186995,14959.0
32.2,4.199999809265137,153.0,21.24104118347168,25.85121726989746,-79.78275223466702,40.45895572981439,294.1079641876221,-0.095399871468544,0.0868661925196647,-0.5427403450012207,0.829931378364563,-0.1832045326235256,5.333797076358008,1.4432935343215438,0.1104875206947326,0.0987359881401062,-0.0270356629043817,0.0035786787047982,-0.6002497965842486,-10.494175686836243,14959.0
32.41,4.099999904632568,150.0,21.361236572265625,24.81748580932617,-79.78274027823309,40.45896092828515,294.0611082611084,-0.0826062560081482,0.0839202255010604,-0.5407767295837402,0.8328830599784851,-0.2476774937182069,5.785010421096213,1.519460245863711,0.1264205127954483,0.3379307091236114,-0.108343094587326,-0.1852785479463637,-0.4721661357209087,-10.367479387521744,14959.0
32.5,4.099999904632568,142.0,21.26107215881348,25.21507453918457,-79.78273382057304,40.45896331290757,294.0694128570557,-0.0652763321995735,0.0747847631573677,-0.5414031147956848,0.8348826766014099,-0.2165151184057823,5.986163569686744,1.4998753850790778,0.1964368373155594,0.5030479431152344,-0.0066328165121376,-0.188447976373136,-0.6125666639953852,-10.430221180915831,14959.0
32.7,4.0,139.0,21.52024841308593,21.81966781616211,-79.78272717592101,40.45896576304151,294.082335144043,-0.0451300144195556,0.0622301176190376,-0.5421013236045837,0.8367896676063538,-0.2169968925012244,6.187363392695963,1.342875622004064,0.1066728606820106,0.4700708985328674,-0.0025979010388255,-0.1055225264467299,-0.6125786142423749,-10.402823467254642,14959.0
32.8,4.0,136.0,21.45764541625977,23.17146873474121,-79.78271361148656,40.45897154636246,294.0757738647461,-0.0230018701404333,0.0425473786890506,-0.5409234762191772,0.8396799564361572,-0.2418719105813692,6.479978038972518,0.8579171904227494,0.0465675704181194,0.1498335897922516,-0.0365407690405845,-0.013379754172638,-0.3911992289498449,-10.050835118293763,14959.0
33.0,4.099999904632568,140.0,21.38627815246582,23.37821578979492,-79.78269982453041,40.45897768932696,294.0648619232178,-0.0211277026683092,0.0411915704607963,-0.5407964587211609,0.8398786783218384,-0.3053866006869277,6.613649769739539,0.7410465669324151,0.0547434911131858,-0.04176602140069,0.1447551995515823,-0.2891914455592632,-0.753503345400095,-10.161039930582046,14959.0
33.1,4.099999904632568,134.0,21.496458053588867,22.20135307312012,-79.78269280060995,40.458980425635865,294.08731523132326,-0.0176533758640289,0.0416494645178318,-0.5416446328163147,0.8393895626068115,-0.3184595230609468,6.664937791962278,0.7565161455929457,0.1337431520223617,0.0343642123043537,0.1120411455631256,-0.3506676822155714,-0.6447268617153168,-10.037226308584216,14959.0
33.3,4.099999904632568,132.0,21.481433868408203,22.12978744506836,-79.78268549219318,40.45898417803485,294.0443636474609,-0.0133109577000141,0.0399296507239341,-0.5412654876708984,0.8397976756095886,-0.4242131329978467,6.74262750437127,0.6966253069747432,-0.080921895802021,0.1422829627990722,-0.1368192136287689,-0.318072524741292,-0.3572431320324541,-10.002461103200911,14959.0
33.4,4.199999809265137,131.0,21.646705627441406,21.597017288208008,-79.78267082421263,40.458990874592416,294.01887956237795,-0.0005041238619014,0.03026351518929,-0.5425477623939514,0.8394795656204224,-0.4974055401682816,6.840404467738723,0.5500428166567456,0.01885368488729,0.2520531117916107,-0.0534211993217468,-0.2286928450874985,-0.5194986520707607,-9.989134129285812,14959.0
33.51,4.300000190734863,133.0,21.46640968322754,22.400146484375,-79.78266370210198,40.45899378285621,294.0404020843506,0.0094404891133308,0.023285599425435,-0.5440619587898254,0.8386687636375427,-0.4989917536991133,6.83661685724166,0.4133903443084366,0.0246486999094486,0.1667784452438354,0.113518625497818,-0.2934429926052689,-0.5781863515824079,-9.772101856470108,14959.0
33.7,4.300000190734863,129.0,21.54904556274414,22.57508659362793,-79.78264919327428,40.459000251201246,294.04404321289064,0.0219487845897674,0.0129262935370206,-0.5464099049568176,0.8371305465698242,-0.6059383036744295,6.81197211285665,0.055662663616318,-0.0819956138730049,0.1080277562141418,-0.0098567837849259,-0.2910934899933636,-0.4240187733247877,-9.560142043232918,14959.0
33.91,4.300000190734863,128.0,21.6091423034668,21.692440032958984,-79.78263466634444,40.45900668274543,294.0669218597412,0.0290517546236515,0.0071153477765619,-0.5483613014221191,0.8357064723968506,-0.6542770693268929,6.738944167674786,-0.1239587691482612,0.0660969838500022,0.0948981344699859,0.1539599150419235,-0.2993420657515526,-0.6033849274367095,-9.73789973795414,14959.0
34.0,4.400000095367432,133.0,21.659225463867188,20.66666030883789,-79.78262773058488,40.45900964445421,294.07842126464845,0.0341644771397113,0.0036098104901611,-0.5491697192192078,0.8350044488906859,-0.6894403126405413,6.66534562092906,-0.194224366245583,-0.1359676867723465,0.1854088157415389,-0.105311170220375,-0.2927068464271724,-0.3215691597014666,-9.67035211801529,14959.0
34.21,4.400000095367432,136.0,21.5991268157959,20.984731674194336,-79.78262088900155,40.45901258613506,294.08761659240724,0.0403120331466198,-0.0030290798749774,-0.5488988161087036,0.8349107503890991,-0.7008684882354987,6.5664439964274095,-0.302682957085593,-0.0610084012150764,0.2494195103645325,-0.0657869353890419,-0.3464414609223604,-0.4186771591007709,-9.548017841577533,14959.0
34.3,4.300000190734863,137.0,21.577842712402344,21.62882423400879,-79.78260658381755,40.45901892218596,294.1115480957032,0.05368372797966,-0.0203578304499387,-0.5454141497612001,0.8361980319023132,-0.7123592200345373,6.408840692278657,-0.5378759557900121,-0.0257066842168569,0.1913639605045318,-0.1018937602639198,-0.1551005197875201,-0.3510974525660276,-9.812694396972656,14959.0
34.5,4.199999809265137,138.0,21.616655349731445,21.0483455657959,-79.78259323085236,40.45902497040007,294.1448408660889,0.0653713196516037,-0.0174910724163055,-0.5454087257385254,0.8354340195655823,-0.6743779468000437,6.169434367921308,-0.6895963001707198,0.1695834398269653,0.0304413344711065,0.0760769322514534,-0.0914052191097289,-0.510849304497242,-9.976022332906725,14959.0
34.6,4.099999904632568,145.0,21.51899528503418,22.169546127319336,-79.7825869430603,40.45902778136704,294.1554571685791,0.0677929297089576,-0.0176002848893404,-0.5475215911865234,0.8338552713394165,-0.6980407056019865,6.032611376896773,-0.7023022223353671,-0.0004497931804507,0.0089048137888312,0.1189219579100608,-0.1422027497738599,-0.5120012059807778,-9.954916223287585,14959.0
34.81,4.099999904632568,146.0,21.375009536743164,24.10182762145996,-79.78257410050864,40.45903328134717,294.19050469970705,0.0718568265438079,-0.0234393421560525,-0.5519797801971436,0.8304249048233032,-0.739667516527251,5.777998960052752,-0.7436312064006985,-0.0205758903175592,0.0227662902325391,-0.0099840871989727,-0.0193325714534148,-0.2317455484718084,-9.808854530453685,14959.0
35.0,3.900000095367432,148.0,21.610395431518555,20.889310836791992,-79.78256787185782,40.45903602975697,294.2149378356934,0.0690425261855125,-0.0249446704983711,-0.5527486205101013,0.8301083445549011,-0.7490123336424427,5.657590543075777,-0.7427169117027486,0.0114409895613789,-0.1622996926307678,0.0892490074038505,0.0616771159227937,-0.6665283514559269,-9.996986939907076,14959.0
35.1,3.799999952316284,148.0,21.67550277709961,20.889310836791992,-79.78256209735765,40.45903863590165,294.2273737487793,0.06047123670578,-0.0254244655370712,-0.5537962317466736,0.8300641775131226,-0.7593347854991139,5.5273206742072,-0.6978209077958331,0.0351358205080032,-0.1779036819934845,0.0826629102230072,0.0996151392906904,-0.4877994707599282,-9.923730683326722,14959.0
35.2,3.5999999046325684,148.0,21.481433868408203,23.012434005737305,-79.78255047806249,40.459043623306414,294.25890412902834,0.0453399755060672,-0.0196919627487659,-0.5554897785186768,0.83005291223526,-0.7619204805061253,5.340253813267502,-0.5174111817411451,0.0744186043739318,-0.1364923268556594,0.1155857741832733,-0.0977840106189251,-0.4324950433149934,-9.74448077917099,14959.0
35.4,3.5,146.0,21.684267044067383,20.6507568359375,-79.78254503536037,40.45904609615212,294.2681967315674,0.0427200756967067,-0.017719192430377,-0.5562805533409119,0.8297066688537598,-0.7688730351234052,5.244966817692054,-0.4338077752843624,0.1016765087842941,-0.0589946135878562,0.1042417660355568,0.0090709044132381,-0.4925617720931769,-9.87402233362198,14959.0
35.5,3.299999952316284,147.0,21.516490936279297,22.0105094909668,-79.78253410082169,40.45905083648873,294.3050791320801,0.030949069187045,-0.015410965308547,-0.5553279519081116,0.8309125304222107,-0.7860425875585105,5.117120810237561,-0.3555560597450265,-0.0875776633620262,-0.1539968401193618,-0.0401911288499832,-0.0754695007950067,-0.1351245399098843,-9.66177600681782,14959.0
35.71,3.2000000476837163,147.0,21.497711181640625,22.455808639526367,-79.78252369931866,40.45905552275342,294.3381315765381,0.0157477334141731,-0.0103755425661802,-0.5492055416107178,0.8354744911193848,-0.7711383196703326,5.007136593986131,-0.1628210847518061,-0.0537847280502319,-0.0955155119299888,-0.0898642987012863,-0.1165395943634212,-0.123459664452821,-9.715310189723969,14959.0
35.8,3.0999999046325684,143.0,21.55906105041504,22.51942443847656,-79.78251862830678,40.45905791744562,294.34769692993166,0.0093432711437344,-0.0071513154543936,-0.5458921790122986,0.8377728462219238,-0.7507281470559749,4.9895054349953725,-0.0933327629355673,-0.000820686283987,-0.1330534815788269,-0.0673334375023841,-0.0761620303988456,-0.1997690264135599,-9.775795542597772,14959.0
36.0,3.0999999046325684,139.0,21.527759552001957,22.0105094909668,-79.78251354976172,40.45906001756778,294.37401643371584,0.0043726414442062,-2.67902942141518e-05,-0.5425038337707521,0.8400420546531677,-0.6923063037442277,4.956296861934057,-0.0204665378001065,0.1117885932326316,-0.1427918076515197,-0.0955327376723289,-0.0670171450031921,-0.1920659776031971,-9.670384277701382,14959.0
36.1,3.0999999046325684,142.0,21.48894691467285,23.1873722076416,-79.78250352811176,40.45906481232845,294.3903299865723,-0.0073291985318064,0.0176557432860136,-0.5361179113388062,0.843926727771759,-0.6637194760709791,4.98785719260869,0.1129668530498428,0.0586159639060497,-0.2166709899902344,-0.0257193949073553,-0.0309645882993936,-0.635091746672988,-9.704691646099093,14959.0
36.3,3.0999999046325684,142.0,21.55655670166016,22.26496696472168,-79.78249324012391,40.45906925443643,294.42014756774904,-0.0173853226006031,0.0278122629970312,-0.5335415005683899,0.8451376557350159,-0.57105331589562,5.062748442371786,0.3159069549623382,0.0924762412905693,-0.0759389251470565,0.0886289626359939,0.0876662536058575,-0.4261121861636639,-9.878683733940123,14959.0
36.5,3.0999999046325684,135.0,21.64169692993164,21.445934295654297,-79.78248828953079,40.45907140978996,294.44635835266115,-0.0176585372537374,0.0334781967103481,-0.534716010093689,0.8441838026046753,-0.5460516972554457,5.085398338554652,0.3865897972325069,0.1195348128676414,-0.0237397644668817,0.0066452710889279,0.0446725677000358,-0.2640468285419047,-9.818235218524933,14959.0
36.61,3.0,134.0,21.45764541625977,23.09990310668945,-79.78248310606064,40.45907383473011,294.45536866760256,-0.0161325503140687,0.0369211547076702,-0.5378499627113342,0.8420773148536682,-0.5772692557655688,5.1447459852485125,0.3956023195756473,-0.1160976588726043,-0.016455153003335,0.0160208828747272,-0.0754894452821463,-0.1966883843019604,-9.59076391160488,14959.0
36.7,3.0,137.0,21.51899528503418,22.59099006652832,-79.78247273460043,40.45907859462229,294.48900094604494,-0.0187708530575037,0.0314874947071075,-0.5420262217521667,0.8395617604255676,-0.6165100678802157,5.238669041078312,0.3901553605675428,-0.0614269524812698,0.026927987113595,0.0203453116118908,0.0370987377874553,-0.3393650143593549,-9.788560014367103,14959.0
36.9,3.0,139.0,21.35247230529785,24.09387588500977,-79.78246735819044,40.45908106623128,294.496002822876,-0.0200925003737211,0.0272184051573276,-0.5423192977905273,0.8394911289215088,-0.6313448475577929,5.308309688385863,0.3991183742894279,-0.0672661513090133,0.0264888927340507,-0.0223130267113447,0.0653596740681678,-0.1723283722624183,-9.77292105138302,14959.0
37.0,3.0,144.0,21.455141067504886,23.33050537109375,-79.7824564822758,40.459085945380544,294.5309969482422,-0.020330723375082,0.0267396345734596,-0.5418068766593933,0.8398315906524658,-0.6258828714411477,5.409708521030666,0.4708760272820152,0.0201158132404088,0.0456617400050163,-0.0487833321094512,0.0636432239133864,-0.0984556364268064,-10.111742055416109,14959.0
37.21,3.0,144.0,21.521499633789062,22.11388397216797,-79.78244533264744,40.45909095838703,294.5645586547852,-0.0179718788713216,0.0240846928209066,-0.5420780777931213,0.8397907018661499,-0.6245091063561278,5.496655184281959,0.4730928925935701,0.125343918800354,0.1604657024145126,-0.0431463234126567,0.0289564808551222,-0.2449457657150924,-9.984777953624723,14959.0
37.3,2.900000095367432,144.0,21.48018264770508,22.439905166625977,-79.78243968414284,40.459093533673936,294.5794855651856,-0.0148214064538478,0.022279592230916,-0.5430024266242981,0.8393046259880066,-0.63152714582776,5.549656850320512,0.4483451026859095,0.1370139867067337,0.0760548189282417,-0.0247536282986402,0.061685717725195,-0.1985476161539554,-9.8488418841362,14959.0
37.4,2.900000095367432,144.0,21.55280113220215,21.207380294799805,-79.78243393552542,40.459096064490645,294.6008135375977,-0.0157151073217391,0.0230660140514373,-0.5438230037689209,0.8387357592582703,-0.6493313460321004,5.5760759924755465,0.4092481439071779,0.118058331310749,-0.0059726163744926,0.0064322100952267,0.0569996951473876,-0.2339332842081785,-9.872399146556855,14959.0
37.6,2.799999952316284,144.0,21.500215530395508,23.44978141784668,-79.78242246752384,40.459101292599634,294.6308790740967,-0.0133763514459133,0.0286538694053888,-0.5434172153472899,0.8388670086860657,-0.6717202181121525,5.6403561443102905,0.4279836561150121,0.0898778364062309,-0.0125845074653625,0.0942049622535705,-0.0986706951912492,-0.5904813650250436,-9.773862453103067,14959.0
37.81,2.799999952316284,142.0,21.500215530395508,22.98857879638672,-79.78241671827678,40.45910392558272,294.65251222229006,-0.013682872056961,0.0284872855991125,-0.5433568358421326,0.8389068841934204,-0.6683746449568809,5.655707861979509,0.4237799659771111,0.1122509464621544,0.0413679629564285,-0.0335096903145313,-0.0237343965098261,-0.3334580109268427,-9.884014055728914,14959.0
37.9,2.900000095367432,139.0,21.43260383605957,22.424001693725582,-79.7824048429878,40.45910921161119,294.6859098968506,-0.01599589176476,0.0286318026483058,-0.5439324378967285,0.8384879231452942,-0.6612364386520245,5.72630967219877,0.455791559681086,0.0462094210088253,0.0259563233703374,0.0855315253138542,-0.1974939478933811,-0.3346987169981003,-9.879932699203492,14959.0
38.1,2.900000095367432,138.0,21.53276824951172,21.597017288208008,-79.7823989527912,40.45911187054811,294.70160737609865,-0.0157492849975824,0.0284269414842128,-0.5442100763320923,0.8383194208145142,-0.6704301395990534,5.763839004056133,0.4720228637743525,0.0268307458609342,0.0754323303699493,-0.0341562777757644,-0.2341528471559286,-0.2282032504118979,-9.827567374706268,14959.0
38.2,3.0,136.0,21.564069747924805,21.8355712890625,-79.78238698476515,40.459117285212095,294.7418295440674,-0.0122671984136104,0.0280186012387275,-0.5427601337432861,0.8393307328224182,-0.687057495718893,5.827849460729342,0.4514978728740533,-0.1783209890127182,0.0249110255390405,-0.1464197933673858,-0.2503587890602648,-0.016334873009473,-9.664155238866806,14959.0
38.3,3.0,134.0,21.38252258300781,24.04616355895996,-79.78238100097703,40.45911997798692,294.7561880645752,-0.0105078797787427,0.0255969446152448,-0.5411307811737059,0.8404832482337952,-0.6635013786429705,5.857148943567803,0.4229598519633765,-0.1701707988977432,0.0721306949853897,-0.0909061059355735,-0.2350175955332816,-0.2293654027953744,-9.790712959170342,14959.0
38.5,3.0999999046325684,130.0,21.640443801879886,20.66666030883789,-79.78236865705561,40.459125431693295,294.7983824310303,-0.0109143536537885,0.0205099042505025,-0.5369027256965637,0.8433242440223694,-0.6134239670127573,5.9388174745482365,0.3770653547035802,-0.1403623670339584,-0.0429579354822635,-0.1604956090450287,-0.1125754745118319,-0.0930394153855741,-9.784856387972832,14959.0
38.71,3.2000000476837163,129.0,21.42884826660156,23.56905746459961,-79.78236257873145,40.459128168285616,294.81338945007326,-0.0099722556769847,0.0192866269499063,-0.5355917811393738,0.8441978693008423,-0.5892110858408525,5.952137113726453,0.3700055981709357,-0.0504083484411239,0.072047047317028,0.0111576421186327,-0.235258738361299,-0.3124047089740634,-9.697355144619944,14959.0
38.8,3.299999952316284,127.0,21.497711181640625,21.80376434326172,-79.78235020436244,40.45913359354756,294.8479677734375,0.0023622817825526,0.0195080731064081,-0.5354027152061462,0.8443683385848999,-0.5457812585028268,5.965551835521178,0.2675359862937667,0.1379318386316299,0.1168127283453941,-0.0458241663873195,-0.1214685778878629,-0.2308790824748576,-9.75031279206276,14959.0
39.0,3.400000095367432,128.0,21.54153251647949,21.37436866760254,-79.78233782441663,40.459139113985,294.88659730529787,0.0029327396769076,0.0206501744687557,-0.5342016220092773,0.8450998067855835,-0.55240256675613,5.965905614899563,0.1836619374976024,-0.0270316135138273,-0.0693340972065925,-0.0734096691012382,-0.1851509507372975,-0.3124993242323399,-9.763977735042571,14959.0
39.1,3.5,128.0,21.49896240234375,22.75002479553223,-79.78233173849179,40.4591418538237,294.8988539276123,-0.0013383828336372,0.0200951378792524,-0.5331063270568848,0.8458085060119629,-0.5322838710575297,5.963896953215758,0.1949356881793053,0.0348682887852191,0.002572265220806,-0.0783318802714347,-0.1076642153598368,-0.3000723464414477,-9.658362987041476,14959.0
39.3,3.5,127.0,21.577842712402344,21.0483455657959,-79.78232539517894,40.45914459273486,294.92044511413576,-0.0054448908194899,0.0191216859966516,-0.5323429107666016,0.8462954163551331,-0.5147521522506451,5.972285147438427,0.2346373124676095,0.0378108322620391,-0.0606954805552959,0.0760420858860015,-0.2104299806244672,-0.4917822651565075,-9.721177285909652,14959.0
39.4,3.5,127.0,21.536523818969727,22.12978744506836,-79.78231297597054,40.45915010080516,294.9573065338135,-0.0030591757968068,0.0238744691014289,-0.5323411822319031,0.8461877703666687,-0.5103342545291598,5.9967319036787154,0.2826001211947256,0.0334801487624645,0.0571638382971286,-0.0170444678515195,-0.2155822912417352,-0.2201450015231967,-9.634164285063743,14959.0
39.6,3.5,127.0,21.536523818969727,21.95484733581543,-79.78230071592624,40.45915559709232,294.97348085021974,0.0064896489493548,0.02563501521945,-0.53343665599823,0.8454265594482422,-0.4989473044756727,6.009893914980568,0.1771774915114771,0.0973027944564819,0.0976713672280311,-0.0179311912506818,-0.2178603116422892,-0.3853034814074636,-9.633902329802511,14959.0
39.7,3.5999999046325684,126.0,21.619159698486328,21.223283767700195,-79.78229433303598,40.459158293508594,294.9997984466553,0.0085105719044804,0.0236739665269851,-0.5339497327804565,0.8451419472694397,-0.4958731372298312,6.011369382127684,0.1310903332901186,-0.0139995459467172,-0.0113372849300503,0.1659370213747024,-0.1728220782615244,-0.5350116806477309,-9.631161739826204,14959.0
39.9,3.5999999046325684,126.0,21.534019470214844,22.026412963867188,-79.7822881813587,40.45916101922811,295.0047174987793,0.0095399776473641,0.0217049214988946,-0.5342250466346741,0.8450098633766174,-0.4894367553716406,6.008014094155192,0.0820412500195504,-0.013983423821628,-0.0160939376801252,0.0402382425963878,-0.1745126727595925,-0.5047790906578302,-9.661472536325457,14960.0
40.0,3.5999999046325684,126.0,21.387529373168945,23.545202255249023,-79.78227574330606,40.459166452391294,295.026333480835,0.0088396277278661,0.0194741003215312,-0.5344516634941101,0.844928503036499,-0.4886670914380801,5.983740487193247,0.0456757084586612,-0.0996570512652397,-0.0038888556882739,0.0609177760779857,-0.2814924897998571,-0.3225435250997544,-9.706426514983177,14960.0
40.2,3.700000047683716,127.0,21.49145126342773,22.17749786376953,-79.78226961411595,40.459169146694826,295.0300261077881,0.0081288060173392,0.0194535311311483,-0.5346900224685669,0.8447852134704591,-0.4803652742405579,5.971206036853462,0.0581031595957108,-0.0449839644134044,0.0366235487163066,0.0077248099260032,-0.1752175911515951,-0.2967659287154675,-9.875810412168503,14960.0
40.3,3.700000047683716,127.0,21.431352615356445,22.686410903930664,-79.7822571911297,40.45917454423376,295.05526223754885,0.00617584772408,0.0185632221400737,-0.5363665819168091,0.8437584042549133,-0.4831655197454642,5.954407319496808,0.0992740853599609,-0.0669214352965354,-0.0249197203665971,-0.038486797362566,-0.2055650423839689,-0.216314965635538,-9.870963070392609,14960.0
40.5,3.700000047683716,127.0,21.388782501220703,24.18929672241211,-79.78225087183314,40.459177109867404,295.06714501953127,0.0047812703996896,0.0180989038199186,-0.5376168489456177,0.8429815173149109,-0.466507605468231,5.9404008431747055,0.1228542369043204,0.031026754528284,0.0094242356717586,0.0805504471063613,-0.2749294835887849,-0.2178865510225296,-9.893023445606232,14960.0
40.6,3.700000047683716,126.0,21.38627815246582,22.90906143188477,-79.78223866710726,40.45918240082555,295.08795419311525,0.0031413920223712,0.0178546123206615,-0.5395089983940125,0.8417847156524658,-0.5138098987093834,5.923502986835707,0.18890713267996,-0.1293262988328933,-0.0031282440759241,-0.0521673075854778,-0.2226490898989141,-0.0541149941459298,-9.985483127832412,14960.0
40.8,3.700000047683716,124.0,21.52525520324707,22.19340133666992,-79.78222626229064,40.4591874978084,295.11343064880367,-0.0016948201227933,0.0168905202299356,-0.5390206575393677,0.8421216011047363,-0.5045195781645141,5.914765347445103,0.2326143936565731,-0.1169664487242698,-0.0282974019646644,-0.0974413529038429,-0.2072864261269569,-0.2377217500470579,-9.847539124488833,14960.0
40.9,3.700000047683716,124.0,21.463905334472656,23.068096160888672,-79.78222006249085,40.45919007352473,295.1222712097168,-0.0031077009625732,0.0170901603996753,-0.5377965569496155,0.8428956866264343,-0.5067463966323384,5.910734063351213,0.2374234575755065,-0.1509712636470794,-0.0448880493640899,-0.0329418778419494,-0.2438235388509929,-0.2314206077344716,-9.748968517184258,14960.0
41.01,3.700000047683716,123.0,21.468914031982425,22.209304809570312,-79.78221397773535,40.45919270690289,295.1349245605469,-0.0037337488029152,0.0169005058705806,-0.5362174510955809,0.8439025282859802,-0.4915148413115701,5.907873802649736,0.2595974807091064,-0.0447013974189758,0.0413047894835472,-0.0733711645007133,-0.302674576677382,-0.3173857692629099,-9.862353630065918,14960.0
41.2,3.700000047683716,123.0,21.654216766357425,20.07027816772461,-79.7822017351411,40.4591978811289,295.1603781280518,-0.0031515615992248,0.0150331472977995,-0.5330074429512024,0.8459711074829102,-0.450373640250749,5.909368858183224,0.2350268794274622,0.0969511270523071,0.0268050655722618,-0.0835775658488273,-0.1022545815724879,-0.411285474523902,-9.726501175761223,14960.0
41.41,3.700000047683716,124.0,21.500215530395508,22.59099006652832,-79.78218935299151,40.45920298913912,295.18356958007814,-0.0046122195199131,0.0177878811955451,-0.5314615368843079,0.8468831777572632,-0.4260109930774012,5.927947090023428,0.2066566512384257,-0.0676435232162475,-0.0239249318838119,-0.0199557151645422,-0.1832550641521811,-0.2517652088776231,-9.640121428370476,14960.0
41.5,3.700000047683716,124.0,21.437612533569336,22.92496490478516,-79.7821832651328,40.45920564563697,295.1908690032958,-0.0045234765857458,0.0189203154295682,-0.5318784713745117,0.8465972542762756,-0.4223180484220607,5.930620041018553,0.2228240815329894,-0.0133142517879605,0.0140818813815712,-0.037761453539133,-0.2509271018765867,-0.2008932267129421,-9.757977322340013,14960.0
41.61,3.700000047683716,124.0,21.456392288208008,23.03628921508789,-79.7821771751603,40.4592083100017,295.1984278259277,-0.0042000873945653,0.018667908385396,-0.5328360199928284,0.8460021018981934,-0.4214524848355701,5.931792035771935,0.2274789025252842,0.1025950163602829,0.0643166005611419,0.0842921584844589,-0.2084634340927005,-0.3889874830842017,-9.786212942004203,14960.0
41.8,3.700000047683716,120.0,21.547792434692383,21.92304039001465,-79.78216497313288,40.45921348397006,295.22109094238283,0.0017055284697562,0.0183571968227624,-0.5351688861846924,0.8445439338684082,-0.4521546795292303,5.9200401045776285,0.1958991070311608,0.0582224763929843,0.0503797233104705,0.0235394872725009,-0.0976546409726143,-0.3793760858103633,-9.783238463401792,14960.0
42.0,3.700000047683716,121.0,21.431352615356445,22.654603958129893,-79.78215880310606,40.45921601288016,295.23704972839363,0.0031756036914885,0.0173009671270847,-0.5359854698181152,0.8440439701080322,-0.4512727143709244,5.9092535869089735,0.154079971862798,0.1236513704061508,0.0418476164340972,0.0308272968977689,-0.078412989154458,-0.5039449487999081,-9.785021279454233,14960.0
42.1,3.700000047683716,120.0,21.43886375427246,22.90110969543457,-79.78214666916978,40.45922130571056,295.2523237762452,0.0011806967668235,0.0144982729107141,-0.5364143848419191,0.8438293933868408,-0.4735580934778277,5.893498964638832,0.145451489229119,0.0437498353421688,0.0182186234742403,-0.0096664614975452,-0.208699259608984,-0.3397484089806676,-9.871996858119967,14960.0
42.3,3.700000047683716,119.0,21.496458053588867,22.31267738342285,-79.78213444739862,40.45922643155009,295.2771936950684,-0.0056043062359094,0.0155476797372102,-0.5353795886039734,0.8444499373435974,-0.4647232567282686,5.880670230580609,0.2022678325469928,0.0609525442123413,-0.0363416634500026,0.0101931160315871,-0.2777134160511196,-0.2603053048811853,-9.84594868183136,14960.0
42.41,3.700000047683716,119.0,21.5352725982666,21.811716079711918,-79.78212834865612,40.45922895784935,295.28935876464845,-0.0079495841637253,0.0173277799040079,-0.5344836115837097,0.8449638485908508,-0.4688097956648518,5.8797800510444365,0.2417560696227758,0.0231673773378133,-0.0518334917724132,-0.0950177386403083,-0.2352188493870199,-0.1216401753947138,-9.76692180812359,14960.0
42.6,3.700000047683716,118.0,21.3700008392334,23.89508056640625,-79.78212230590664,40.459231600159335,295.2987772521973,-0.0087875956669449,0.0185508485883474,-0.5335361957550049,0.8455280661582947,-0.4517185215843544,5.884919203006097,0.2675189125574252,0.1228334605693817,-0.0132658891379833,-0.0207600705325603,-0.2111131912283599,-0.3057578317634761,-9.71654395222664,14960.0
42.7,3.700000047683716,117.0,21.58159828186035,21.263044357299805,-79.78211014143278,40.45923656910784,295.3200460968018,-0.0086793638765811,0.0179523285478353,-0.5320271849632263,0.8464925289154053,-0.4032075853314861,5.881437087382152,0.2963467491986076,0.1845304518938064,0.0459612607955932,0.0350373275578022,-0.2037866117432713,-0.4705513905733824,-9.867271138429643,14960.0
42.91,3.700000047683716,115.0,21.58660697937012,21.15171813964844,-79.78210408532594,40.45923920636792,295.3294111785889,-0.0083556063473224,0.0166371092200279,-0.5323105454444885,0.846344530582428,-0.411282124361461,5.897976179865103,0.274840180744258,0.0100452173501253,-0.0019543261732906,0.0039236736483871,-0.1163755434192717,-0.3342889368161559,-9.73495741903782,14960.0
43.0,3.799999952316284,111.0,21.632932662963867,20.841598510742188,-79.78209183432148,40.45924437102654,295.3557783660889,-0.0089096808806061,0.0132719203829765,-0.5337883234024048,0.8454670906066895,-0.4280543304825647,5.911983166126372,0.2505947787569853,-0.0037969895638525,-0.0445887930691242,0.0793681293725967,-0.2091727013513446,-0.3263538266345859,-9.738399674892426,14960.0
43.2,3.799999952316284,110.0,21.629175186157227,21.34256172180176,-79.78207962721196,40.45924960380757,295.3809839782715,-0.0137029383331537,0.0149672664701938,-0.5343149900436401,0.8450419306755066,-0.466524103418051,5.917149779133274,0.2682780269107591,-0.0229308158159256,-0.0297985021024942,-0.1034760549664497,-0.2975130932405591,-0.1223324035014957,-9.714033742547038,14960.0
43.3,3.799999952316284,108.0,21.622915267944336,20.889310836791992,-79.78207355765778,40.45925227655447,295.38802209472664,-0.015250701457262,0.0169247221201658,-0.534281313419342,0.8449997901916504,-0.4939536508665029,5.919303136902466,0.2965625905422366,-0.0878556072711944,0.0175826475024223,-0.1032747402787208,-0.3773747300729156,-0.0989411380514502,-9.702261543273924,14960.0
43.5,3.799999952316284,108.0,21.799455642700195,18.893415451049805,-79.78206743701277,40.45925472140233,295.407868057251,-0.0164931025356054,0.0159550979733467,-0.5330414175987244,0.8457778692245483,-0.4861153251954484,5.9174819481302166,0.3260951091611144,-0.0452588498592376,0.0792568400502204,-0.0815919190645217,-0.3308616644516588,-0.2030457695201039,-9.74739269256592,14960.0
43.6,3.900000095367432,106.0,21.70304679870605,20.45991516113281,-79.7820552939467,40.45926011921607,295.418121963501,-0.0112562282010912,0.0168629735708236,-0.5313805341720581,0.8468906283378601,-0.4880184801950073,5.938797267074124,0.2631567803536934,0.0537512227892875,0.0135399186983704,-0.0093074096366763,-0.3019611615501344,-0.1129762097820639,-9.47450313806534,14960.0
43.8,3.900000095367432,107.0,21.74812126159668,18.734378814697266,-79.7820430325082,40.45926532496112,295.4409033355713,-0.0046715904027223,0.0250955764204263,-0.5322199463844299,0.8462213277816772,-0.4737587055698083,5.949502149768318,0.1975099566851166,0.1121886298060417,0.0278300568461418,0.0650027990341186,-0.2999596779048443,-0.3886344574391842,-9.643992285132413,14960.0
43.9,4.0,106.0,21.823244094848643,18.654861450195312,-79.78203693147199,40.45926783442732,295.455662399292,-0.0030604666098952,0.0266807358711958,-0.5327606797218323,0.84583979845047,-0.4739409410416418,5.942585123662496,0.1815741704163981,0.0674509331583976,-0.0151074603199958,6.512847903650254e-05,-0.4046090871468186,-0.4091094332188368,-9.502300216555597,14960.0
44.0,4.0,106.0,21.819488525390625,19.0683536529541,-79.78203085382245,40.4592705353095,295.45299592590334,-0.0020869004074484,0.0274879280477762,-0.5335707664489746,0.8453060984611511,-0.4841042008047605,5.941451824209051,0.1336152508964233,-0.0725413709878921,0.0391214750707149,-0.0425171703100204,-0.330118556432426,-0.3791671940311789,-9.49350191116333,14960.0
44.3,4.0,104.0,21.690526962280277,20.53148078918457,-79.78201859049504,40.45927574400892,295.45493760681154,-0.0005528219044208,0.0238920878618955,-0.5347040891647339,0.8447014093399048,-0.4761101588876037,5.943232016136055,0.0634816556269215,-0.0424605421721935,-0.0272540412843227,0.1135165616869926,-0.3188358056545258,-0.5425787086039782,-9.493584941625596,14960.0
44.41,4.099999904632568,106.0,21.763145446777344,20.412202835083008,-79.78201249755422,40.459278424931895,295.4439016876221,-0.0012079299194738,0.0244278367608785,-0.5352425575256348,0.8443443179130554,-0.4744750625129479,5.948351995992504,0.0151341464597296,0.0289797484874725,-0.0761669352650642,-0.0158830042928457,-0.2715636069886386,-0.236958487406373,-9.537291709184649,14960.0
44.5,4.0,108.0,21.56782531738281,22.14569091796875,-79.78200022316312,40.4592836791493,295.4415575561524,-0.0044589866884052,0.0254775732755661,-0.5350330471992493,0.8444352149963379,-0.5028159524617485,5.951365194040871,0.0545186574155276,-0.155606061220169,-0.0265106540173292,-0.0583183467388153,-0.4356682907044888,-0.3627593221887945,-9.699925580620766,14960.0
44.7,4.0,109.0,21.63543701171875,21.35846519470215,-79.78199412365606,40.45928636326712,295.4302221832276,-0.0037532374262809,0.0237135328352451,-0.5340623259544373,0.8451041579246521,-0.4782054607829342,5.949706846293457,0.0889045887178756,0.0731424838304519,0.0923627614974975,-0.103622168302536,-0.3706900835037232,-0.3708266890794039,-9.976241018772123,14960.0
44.8,4.099999904632568,110.0,21.63543701171875,20.793888092041016,-79.78198199453202,40.45929154407175,295.4341017303467,4.6356530219782144e-05,0.0220444127917289,-0.5323591828346252,0.8462315797805786,-0.4477427247654897,5.933784042076754,0.1191833944062341,0.0947725847363472,0.0510076284408569,-0.0586676821112632,-0.3007481749355793,-0.3515862797945738,-10.049099664688107,14960.0
45.0,4.099999904632568,110.0,21.66548538208008,21.21533203125,-79.78196983779374,40.4592967272124,295.4243170318604,-0.0029697238933295,0.0254752803593874,-0.5335513949394226,0.8453787565231323,-0.4223514166135605,5.934169406344839,0.1003008453528616,0.1297143399715423,-0.0594395361840725,-0.0072391387075185,-0.1747849885560572,-0.344877915456891,-9.7935166990757,14960.0
45.1,4.0,109.0,21.74686813354492,19.83172416687012,-79.78196374845086,40.45929939130232,295.4208246765137,-0.007100042887032,0.0273254886269569,-0.5351322293281555,0.8442963957786559,-0.4415882109501266,5.933755682632984,0.1360578116469271,0.0655778348445892,-0.1087149307131767,0.0286653600633144,-0.2435590071603656,-0.4710936101898551,-9.84928744196892,14960.0
45.31,4.0,109.0,21.55530548095703,22.090028762817383,-79.78195758265164,40.459301854666535,295.40925469970705,-0.0100894775241613,0.0279115345329046,-0.5363083481788635,0.8435001969337463,-0.4523398363203188,5.940952150150692,0.1805575779310816,0.009909464046359,-0.0563570708036422,0.1589719951152801,-0.3612293982133269,-0.4229389022290707,-9.842387727499007,14960.0
45.41,4.0,108.0,21.574085235595703,21.994606018066406,-79.78194531338762,40.45930705577391,295.39423432922365,-0.0067277057096362,0.0234263185411691,-0.5362620949745178,0.8436996340751648,-0.4703134698801626,5.950356066474612,0.2107841619407408,0.1018872559070587,0.0809272155165672,-0.0618425197899341,-0.2612981072813272,-0.4144920144975185,-10.032823355197907,14960.0
45.6,3.900000095367432,109.0,21.630428314208984,21.35846519470215,-79.78193918239853,40.459309717115566,295.39210572814943,-0.0050894329324364,0.0220312383025884,-0.5351632237434387,0.844446063041687,-0.4608078327268668,5.959774790211728,0.1892906079244453,0.135434940457344,0.0350410304963588,0.0072828182019293,-0.226819890551269,-0.4548329420015216,-10.023243277072908,14960.0
45.71,3.900000095367432,109.0,21.59537124633789,21.088104248046875,-79.78193304646227,40.4593123873547,295.3908888397217,-0.0062684472650289,0.0212415922433137,-0.5329583287239075,0.8458516597747803,-0.4603953317698102,5.9698224246768845,0.1619281850972923,0.0754270851612091,0.017947930842638,-0.0983941704034805,-0.1780366982705891,-0.2728306620754301,-9.821327226161957,14960.0
45.9,3.900000095367432,108.0,21.522750854492188,22.121835708618164,-79.78191467949014,40.45932010995189,295.36983743286135,-0.0113548394292593,0.022837795317173,-0.5258133411407471,0.8502175807952881,-0.3838842213107167,5.986530176629418,0.2421425031474428,0.0541327595710754,0.0244979280978441,0.0310998782515525,-0.4388759635761381,-0.2912522967159748,-10.013092510700227,14960.0
46.0,4.0,107.0,21.57283401489257,21.795812606811523,-79.78190854319408,40.45932281193336,295.3715349731445,-0.0065288799814879,0.0250853989273309,-0.5245024561882019,0.8510143160820007,-0.3687059887130078,5.994714845287634,0.2839711266483194,0.0239499434828758,0.1107926145195961,-0.106610894203186,-0.3561663307249546,-0.3806686859205365,-10.131482255458833,14960.0
46.21,4.0,106.0,21.659225463867188,20.32473373413086,-79.7819024020408,40.45932551686922,295.3764139709473,-0.0003358449030201,0.0264614876359701,-0.5231547355651855,0.8518267273902893,-0.3610404142101004,5.998570941021043,0.2794774615256002,-0.0808790102601051,0.1226947903633117,-0.0323359444737434,-0.3540217912942171,-0.3821174432337284,-10.065726807117464,14960.0
46.3,4.0,106.0,21.69428253173828,20.261119842529297,-79.78189017352351,40.459330850270725,295.38339295959474,0.0071403812617063,0.0284941308200359,-0.5223430991172789,0.8522294163703918,-0.2879766596101482,5.992924253874474,0.1781243873473426,0.1094499602913856,0.0315927751362323,-0.0259880516678094,-0.3441763957589865,-0.3663507916778326,-9.853541876077651,14960.0
46.51,4.0,106.0,21.55280113220215,22.026412963867188,-79.7818779980759,40.459336087139775,295.388710647583,0.0058377590030431,0.0274400115013122,-0.5244132876396179,0.8510016202926636,-0.2734232351399803,5.966027452588987,0.144011316185165,-0.0317823104560375,-0.0398721359670162,0.0147872464731335,-0.3056556699424982,-0.3918173161894084,-9.832491899728774,14960.0
46.6,4.0,107.0,21.604135513305664,20.80183982849121,-79.78187187005511,40.45933873003376,295.39468827819826,0.0037130573764443,0.0250847786664962,-0.5264289379119873,0.8498409986495972,-0.2951319901933153,5.961329404638499,0.1724816325513976,-0.2151607871055603,-0.0045823822729289,-0.0364365875720977,-0.3023321491107345,-0.2445419606566429,-9.986069018840787,14960.0
46.71,4.0,107.0,21.589111328125,22.344484329223643,-79.78186579906176,40.45934128652947,295.4013468322754,0.0004352431569714,0.0214269310235977,-0.5285617113113403,0.8486243486404419,-0.3150873717539784,5.9470979497057925,0.192605764495822,-0.1815583109855652,0.0157677624374628,-0.0640372186899185,-0.2412865416146815,-0.2430935870669782,-10.07001515507698,14960.0
46.9,4.0,107.0,21.711811065673828,20.17365074157715,-79.78185363782605,40.459346457543454,295.4251104888916,-0.0033234227448701,0.017466040328145,-0.5312079191207886,0.8470549583435059,-0.3648417439852194,5.9216240158649125,0.2371168487480556,-0.1349970549345016,0.0126487435773015,-0.1458984613418579,-0.328206663094461,-0.1410590892098844,-9.959637265205384,14960.0
47.1,4.0,107.0,21.711811065673828,20.13389205932617,-79.78184754200687,40.45934907893236,295.4356371459961,-0.0058818515390157,0.0165960770100355,-0.5315845608711243,0.8468223214149475,-0.3897950303671661,5.916031505829146,0.2348445952517716,-0.1764629930257797,-0.0796524360775947,-0.047802947461605,-0.3554881267994642,-0.1649977728165686,-9.6995414185524,14960.0
47.2,4.0,109.0,21.67800521850586,20.396299362182614,-79.78183549590541,40.45935426447773,295.46076646423336,-0.0098015153780579,0.0153975030407309,-0.5293912887573242,0.8481814861297607,-0.4012888195386699,5.902563903476821,0.2409433136730946,-0.0184335689991712,0.017744805663824,-0.0119640417397022,-0.2199360366538167,-0.3855887889862061,-9.64179665565491,14960.0
