time,wind_speed,wind_angle,battery_voltage,battery_current,position_x,position_y,position_z,orientation_x,orientation_y,orientation_z,orientation_w,velocity_x,velocity_y,velocity_z,angular_x,angular_y,angular_z,linear_acceleration_x,linear_acceleration_y,linear_acceleration_z,node_ids
0.0,0.6000000238418579,195.0,25.754682540893555,-0.0874695107340812,-79.78283973809059,40.45891723903876,269.40173503780363,0.0142989279702305,-0.0076787373982369,0.6271425485610962,0.7787354588508606,0.0007120987475816,0.00769181815611,0.0117682648197158,0.000461201852886,-0.0023737291339784,-0.0049618049524724,0.1233705309592187,0.3039812831953168,-9.804471457600592,14934.0
0.2,0.6000000238418579,191.0,25.760942459106445,-0.0954212844371795,-79.78283974673622,40.45891724089678,269.4029310646057,0.0143193705007433,-0.0076930006034672,0.6271693706512451,0.7787132859230042,0.0014101646472313,0.0075967251758661,0.0119089919386274,0.0016543859383091,0.0044153910130262,0.0060500865802168,0.1285556590743363,0.2845860506035387,-9.806256027817726,14934.0
0.3,0.6000000238418579,189.0,25.76469993591309,-0.0874695107340812,-79.7828397466301,40.45891725761122,269.41102120304106,0.0143339997157454,-0.0077038053423166,0.6271781325340271,0.7787058353424072,0.001234495017288,0.008082503780554,0.0121283154521131,0.0078052384778857,0.0041671497747302,0.0061605661176145,0.1268470021616667,0.2878005756810308,-9.805547930002213,14934.0
0.5,0.6000000238418579,186.0,25.76469993591309,-0.0795177370309829,-79.78283975575638,40.45891725956815,269.41227063560484,0.0143360793590545,-0.0076956287957727,0.6271886229515076,0.7786974906921387,0.0003572580201137,0.0084300555778567,0.0126460313119677,-0.005425582639873,-0.0045027276501059,-0.0069715771824121,0.1206170222908258,0.2977654919587076,-9.804602435231208,14934.0
0.6,0.6000000238418579,188.0,25.75593566894531,-0.0874695107340812,-79.78283975791865,40.45891727338565,269.4206003847122,0.0143423303961753,-0.007696334272623,0.6272130608558655,0.7786777019500732,-0.0001633921771747,0.0087925912312518,0.0124429453068374,-0.0045632002875208,-0.001523250946775,-0.0024026720784604,0.122227546479553,0.2899294372648001,-9.803427144885063,14934.0
0.81,0.6000000238418579,190.0,25.762195587158203,-0.0874695107340812,-79.78283976767422,40.45891727491772,269.4218624534607,0.0143418917432427,-0.0076918588019907,0.627211332321167,0.7786790728569031,0.0004706004482135,0.0084800928510129,0.0126071425166649,6.427639891626313e-05,0.0025283931754529,0.004174648784101,0.1206816066149622,0.300703224465251,-9.80337978243828,14934.0
0.91,0.6000000238418579,191.0,25.75969123840332,-0.1113248318433761,-79.78283975729762,40.45891727548912,269.4282970132828,0.0143664833158254,-0.0076926918700337,0.6272235512733461,0.7786688208580017,-0.0022141169459205,0.0053744183425198,0.0103280039437158,-0.001953518949449,-0.0005476648220792,-0.0060516539961099,0.1204883835464716,0.3069077415391803,-9.80146072626114,14934.0
1.1,0.6000000238418579,191.0,25.748422622680664,-0.1272283792495727,-79.78283976050855,40.458917288348,269.4346656503677,0.0143742570653557,-0.0076985438354313,0.6272374391555786,0.7786574959754944,-0.001990146670039,0.0064452108820406,0.0081898162426973,-0.0090036513283848,-0.0049851355142891,-0.0045823561958968,0.1275619521830231,0.2888844484649598,-9.805044484734536,14934.0
1.2,0.6000000238418579,191.0,25.75593566894531,-0.1431319266557693,-79.78283976799344,40.458917288136455,269.43549463176726,0.0143828531727194,-0.0076894308440387,0.6272268295288086,0.7786659598350525,-0.0008988761903584,0.0060709406555474,0.0083258873221423,0.0049411696381866,0.0047096493653953,0.0025143485981971,0.1228171376790851,0.2969033017382025,-9.804325861930849,14934.0
1.4,0.5,192.0,25.75969123840332,-0.0954212844371795,-79.78283978904194,40.45891730600104,269.4406280221939,0.0143786268308758,-0.0076892348006367,0.627240777015686,0.7786546945571899,-0.0023897319745441,0.0117088114562254,0.0056900646336167,-3.673434093798278e-06,0.0001200985498144,0.0031958310864865,0.1239229466579854,0.2875173511728645,-9.804975487589836,14934.0
1.5,0.5,192.0,25.75593566894531,-0.0874695107340812,-79.7828397781297,40.4589173179897,269.44820043468474,0.0143843227997422,-0.0076900911517441,0.6272556185722351,0.7786427736282349,-0.0004243855353357,0.0071067761513619,0.0081377001003739,0.0064185815863311,0.0039757527410984,0.0049640219658613,0.1275343423616141,0.2879152907431125,-9.80594554066658,14934.0
1.71,0.5,191.0,25.75969123840332,-0.1113248318433761,-79.78283978654498,40.45891731825621,269.44903776073454,0.014392445795238,-0.0076904189772903,0.6272622346878052,0.7786372303962708,-0.0014452021220433,0.0072717338002258,0.0085392455527249,-0.0052729183807969,-0.0045523312874138,-0.0043959040194749,0.1188903943262994,0.299009633269161,-9.803495557308198,14934.0
1.8,0.5,194.0,25.763446807861328,-0.1113248318433761,-79.78283977491034,40.45891733825507,269.4549624624252,0.0143854105845093,-0.0077059715986251,0.6272614002227783,0.7786378860473633,0.0020482418500507,0.0055217265777039,0.0069208489354073,-0.0031786100007593,-0.0013892641291022,0.001312676584348,0.1259289801679551,0.2866714783385396,-9.805435663461685,14934.0
2.0,0.4000000059604645,187.0,25.762195587158203,-0.1192766055464744,-79.78283978050351,40.45891734105619,269.4556764068604,0.0143788289278745,-0.0077135283499956,0.6272686719894409,0.7786320447921753,0.0021070679217737,0.0053128158206039,0.0071004079347714,-0.0009784616995602,-0.0007854915456846,-0.0042376355268061,0.120927673894912,0.3045214745588601,-9.802452414035796,14934.0
2.1,0.4000000059604645,181.0,25.75969123840332,-0.1113248318433761,-79.78283981501339,40.45891733176319,269.46316906833647,0.0143691496923565,-0.0077329920604825,0.6273009181022644,0.7786059975624084,-0.0048373806912566,0.0102702474913717,0.0093492400653109,-0.0056116515770554,-0.0008015991770662,-0.0085485912859439,0.1193962058890611,0.3064471636712551,-9.80133150279522,14934.0
2.3,0.3000000119209289,175.0,25.749675750732425,-0.0954212844371795,-79.78283982765011,40.45891732967536,269.4641090335846,0.0143659235909581,-0.0077325054444372,0.6273033618927002,0.7786042094230652,-0.0036351776163304,0.0098772462465769,0.0094671851385915,0.0060802586376667,0.0024053470697253,0.0056052915751934,0.1273762299958616,0.2879448009096086,-9.805869526863098,14934.0
2.4,0.3000000119209289,177.0,25.76595115661621,-0.0874695107340812,-79.78283983594788,40.458917339309146,269.4689116182327,0.0143508724868297,-0.0077545074746012,0.6272932887077332,0.7786123156547546,-0.0027025169037347,0.0096243225394152,0.0067454821048587,0.0075517701916396,0.0028873125556856,0.0044138827361166,0.1260765310004353,0.293157575391233,-9.804621731042864,14934.0
2.61,0.3000000119209289,170.0,25.75969123840332,-0.0795177370309829,-79.78283981752949,40.458917351887976,269.47367319488524,0.0143452323973178,-0.0077557857148349,0.6272960305213928,0.7786102294921875,-0.001160689422526,0.0053028177066931,0.0049023831757403,0.0039120619185268,0.0011296719312667,0.0037602700758725,0.1248794689122587,0.2944302949681878,-9.804611790776251,14934.0
2.7,0.3000000119209289,166.0,25.75969123840332,-0.0954212844371795,-79.78283982410733,40.45891735153862,269.47418281459807,0.0143453320488333,-0.0077736298553645,0.6273064613342285,0.7786015868186951,-0.0014842501018944,0.0055741347186988,0.0051872295793389,-0.0002505421871319,-0.0025822082534432,-4.995356357540004e-05,0.1253039310872555,0.2887472581677139,-9.804618807435038,14934.0
2.9,0.2000000029802322,162.0,25.760942459106445,-0.0795177370309829,-79.78283982225565,40.458917346348265,269.4805381002426,0.0143413599580526,-0.0077473185956478,0.6273114085197449,0.7785980105400085,-0.0046404462153809,0.0059145715957537,0.0075532640378939,-0.0010350266238674,-0.0005825037951581,0.0002466193109285,0.1208597639668733,0.3031712062843144,-9.802960537075997,14934.0
3.0,0.2000000029802322,160.0,25.75969123840332,-0.0715659633278846,-79.78283983278773,40.45891736821293,269.48593160533903,0.0143157308921217,-0.0077469814568758,0.6273350715637207,0.7785794138908386,-0.0004269824979462,0.008074459655461,0.0056831542874069,-0.0038968080189079,-0.0004586503200698,-0.0081286896020174,0.1221330956742167,0.3084114261344075,-9.802714369297028,14934.0
3.2,0.3000000119209289,152.0,25.75593566894531,-0.0954212844371795,-79.782839842034,40.45891736949689,269.486521572113,0.0143314441666007,-0.0077669247984886,0.6273537278175354,0.7785637974739075,0.0006149046641124,0.0078627624192697,0.0058591288376044,0.0046936720609664,0.0023510970640927,0.0037646731361746,0.1283319482579827,0.284539912417531,-9.805552607774734,14934.0
3.3,0.3000000119209289,148.0,25.763446807861328,-0.0874695107340812,-79.78283985424329,40.45891738353935,269.493401140213,0.0143095394596457,-0.0077577182091772,0.6273466348648071,0.7785701155662537,0.0002750694233672,0.0088048362926875,0.0084382186531466,0.005412804428488,0.0025619808584451,0.0039575961418449,0.1248784730583429,0.2920936196856201,-9.80436503827572,14934.0
3.5,0.5,143.0,25.762195587158203,-0.0954212844371795,-79.78283986454801,40.45891738488013,269.4942727985382,0.0142963659018278,-0.00776605354622,0.6273637413978577,0.7785564064979553,-0.0005333356791053,0.0091799117593635,0.0087849549630628,-0.0038706753402948,-0.0062210373580455,-0.0034249741584062,0.1212468496430665,0.2935939421318471,-9.803075142502784,14934.0
3.6,0.5,148.0,25.760942459106445,-0.0795177370309829,-79.78283985808542,40.45891739194951,269.5010631980896,0.0142909223213791,-0.0077474312856793,0.6273553967475891,0.7785634398460388,0.000294828674255,0.0062186395755324,0.0101015092640801,-0.0034513308200985,-0.0004685705935116,0.0013871946139261,0.1242141014523804,0.2856393534131348,-9.805509338378906,14934.0
3.8,0.6000000238418579,153.0,25.75969123840332,-0.1033730581402778,-79.7828398650438,40.45891739322245,269.5020917358398,0.0142945330590009,-0.0077427634969353,0.6273534893989563,0.7785649299621582,0.0002656361162437,0.0063161855327908,0.0103302490462758,-0.0011365406680852,-0.0033532495144754,-0.0039529530331492,0.1222865576762706,0.305545066203922,-9.803030118942262,14934.0
3.9,0.6000000238418579,152.0,25.754682540893555,-0.0954212844371795,-79.7828398864486,40.45891739971024,269.5085079374313,0.0142685249447822,-0.0077410852536559,0.6273817420005798,0.778542697429657,-0.0008064846966783,0.0084019727375113,0.011198235783363,-0.0044690328650176,-0.0040370388887822,-0.0048262155614793,0.120257656071335,0.3064763083867729,-9.802503284811976,14934.0
4.1,0.699999988079071,148.0,25.758440017700195,-0.1033730581402778,-79.78283990109355,40.45891740700459,269.51463267230986,0.0142666241154074,-0.0077337292023003,0.6274265646934509,0.7785066366195679,-0.0008815436617662,0.009053407598316,0.0116606517840047,-0.0060956813395023,-0.0019866083748638,-0.0063547529280185,0.1269375335052609,0.288350323587656,-9.806196970939636,14934.0
4.2,0.699999988079071,152.0,25.752178192138672,-0.0954212844371795,-79.78283991123823,40.45891740821372,269.5158111753464,0.0142574254423379,-0.0077362521551549,0.6274240612983704,0.7785089015960693,0.0003876844691084,0.0088306598168343,0.0116875611250883,0.00631740456447,0.0006017046980559,0.0039049033075571,0.1263383857626468,0.2929109142534435,-9.804783698916436,14934.0
4.4,0.8999999761581421,151.0,25.758440017700195,-0.0874695107340812,-79.78283991829814,40.45891739833928,269.51870235824583,0.0142545672133564,-0.0077453353442251,0.6274412870407104,0.7784948945045471,-0.005215870849668,0.0086405182634089,0.0077459087968508,-0.0057675428688526,-0.003473556600511,-0.0034892417024821,0.1235603827424347,0.2889934990368784,-9.804904151558878,14934.0
4.5,0.8999999761581421,146.0,25.75969123840332,-0.0795177370309829,-79.78283995485295,40.4589174038129,269.5225687923431,0.0142306135967373,-0.0077406852506101,0.6274616122245789,0.7784790396690369,-0.003804839561272,0.0134238496224903,0.0049676081471918,0.0032890930306166,-0.001059824717231,0.0068073906004428,0.1243104526028037,0.2833205852285028,-9.804937480688096,14934.0
4.7,0.8999999761581421,150.0,25.758440017700195,-0.1033730581402778,-79.78283997130302,40.458917402855846,269.5230810346603,0.0142171280458569,-0.0077343471348285,0.6274697184562683,0.7784727811813354,-0.0042682082456402,0.0137553316866488,0.0052576342059213,-0.005919468589127,-0.0048910207115113,-0.0078439274802804,0.1206825933326035,0.3064875642769039,-9.801264259815218,14934.0
4.8,1.0,150.0,25.762195587158203,-0.0874695107340812,-79.78283997383545,40.45891740872239,269.5284912290573,0.0142180742695927,-0.0077083893120288,0.6274656057357788,0.7784764170646667,-0.0022236436588645,0.0094007582895163,0.0078252179599464,-0.006507433950901,-0.0048393867909908,-0.0079690581187605,0.1216233920585364,0.298505493644625,-9.804465025663378,14934.0
5.0,0.8999999761581421,152.0,25.760942459106445,-0.0715659633278846,-79.78283998484204,40.45891740879861,269.5292865934372,0.0141919059678912,-0.0076942755840718,0.6274824738502502,0.7784633040428162,-0.0008468601004504,0.009186552578727,0.0079653422883073,0.0048371753655374,0.0020298568997532,0.0079936161637306,0.1241565977409482,0.2950745850428939,-9.805113481879236,14934.0
5.1,0.8999999761581421,152.0,25.75593566894531,-0.0954212844371795,-79.78283998839133,40.45891742761624,269.5343163909912,0.014187422581017,-0.0076684649102389,0.6275052428245544,0.7784453034400941,0.002561744893548,0.007619622116479,0.0091671290019783,-0.0011313465656712,0.0004994479822926,-0.0018198863836005,0.1209362071752548,0.3037953234650195,-9.803440593481064,14934.0
5.3,0.8000000119209291,151.0,25.762195587158203,-0.0795177370309829,-79.78283999647634,40.45891743133175,269.5352595748901,0.0141866942867636,-0.0076672700233757,0.6275072693824768,0.7784437537193298,0.0033310476206186,0.0076379788464403,0.0093125917959155,0.0010436162119731,0.0027371540199965,0.0041768066585063,0.1249215323198586,0.2839160145074129,-9.804842755794525,14934.0
5.4,0.8000000119209291,148.0,25.762195587158203,-0.0874695107340812,-79.78284001149372,40.45891741867173,269.53842028999327,0.0142179057002067,-0.0076729846186935,0.6275283694267273,0.7784261107444763,-0.001611475403826,0.0074618418647102,0.0062701816921853,0.0055104694329202,0.0024418151006102,0.0053884577937424,0.1278219614177942,0.2862271995842457,-9.805813393592835,14934.0
5.6,0.8999999761581421,147.0,25.762195587158203,-0.0874695107340812,-79.78284002552395,40.45891740787134,269.54162165546416,0.0142383445054292,-0.0076497988775372,0.6275666952133179,0.7783949971199036,-0.0047058015440116,0.0075885323407567,0.004541738378983,0.0072395806200802,0.0021351254545152,0.0079838782548904,0.1183195598982274,0.3010724395886064,-9.802343071103095,14934.0
5.7,0.8999999761581421,146.0,25.76845550537109,-0.0318070948123931,-79.78284003573049,40.458917404682325,269.54209300899504,0.014235496520996,-0.0076401624828577,0.6275815963745117,0.7783831954002379,-0.0054332231391225,0.0080628939010007,0.0050033882120235,-0.0057436898350715,-0.0045073418878018,-0.0017481736140325,0.123327992465347,0.2934780393540859,-9.804488999247551,14934.0
5.9,0.8999999761581421,148.0,25.762195587158203,-0.0715659633278846,-79.78284003975023,40.458917428891134,269.54681012058256,0.014224256388843,-0.0076250447891652,0.6275869011878967,0.7783793210983276,0.0012101382899272,0.0091735500742073,0.0071900409453048,0.0049036047421395,0.0014325258089229,0.0025420347228646,0.1243779879435896,0.2975781252421439,-9.804556242227555,14934.0
6.0,0.8999999761581421,147.0,25.749675750732425,-0.0715659633278846,-79.7828400396348,40.45891742310033,269.55061945343016,0.0142217734828591,-0.0076295067556202,0.6276028752326965,0.7783663272857666,-0.0020702106726694,0.0054158514187492,0.0056499516355659,-0.0014303866773843,-0.0001103892573155,-0.004809008911252,0.1201324617024511,0.3049489242956042,-9.802392772436145,14934.0
6.2,0.8999999761581421,151.0,25.754682540893555,-0.1431319266557693,-79.78284004636498,40.45891742231913,269.55119547271727,0.0142256086692214,-0.0076329964213073,0.6276267766952515,0.7783470153808594,-0.0010659156644701,0.0053814677386158,0.0058378131124643,0.0030786108691245,0.0008329016272909,0.0064507438801229,0.1244843615870923,0.2854516943357885,-9.804849772453313,14934.0
6.3,1.0,151.0,25.760942459106445,-0.055662415921688,-79.78284008116282,40.458917427588055,269.55467745685576,0.0142132882028818,-0.0076179392635822,0.6276462078094482,0.7783316969871521,-0.0010478947539827,0.0109564520250292,0.0041516614520406,0.0043814806267619,0.0019750515930354,0.0072466139681637,0.1267952725756913,0.2871056889183819,-9.806625571846965,14934.0
6.5,1.0,155.0,25.758440017700195,-0.0477106422185897,-79.78284009937813,40.45891741963053,269.5581085386276,0.0142031973227858,-0.0076204552315175,0.6276582479476929,0.7783221602439879,-0.0044203741061212,0.009516945930051,0.0031798442840347,0.0073904828168451,0.0005212079850025,0.0088380798697471,0.1215519463922828,0.3045409348234534,-9.803521869778631,14934.0
6.61,1.0,157.0,25.749675750732425,-0.0954212844371795,-79.78284011184691,40.45891741702143,269.5584468545913,0.0141924452036619,-0.0076240440830588,0.6276761293411255,0.7783079147338867,-0.0050596544794251,0.0099659857026105,0.0036226922962049,-0.0067868283949792,0.000412632653024,-0.0041498788632452,0.1235126731172204,0.2952339033968746,-9.804907659888269,14934.0
6.8,1.0,159.0,25.762195587158203,-0.0874695107340812,-79.78284012425611,40.45891741499143,269.55881878757475,0.0141916796565055,-0.007605493068695,0.6276742219924927,0.7783096432685852,-0.0037270175472533,0.0097227151132862,0.0038051689534315,0.002584335161373,0.0042848107405006,0.0033522660378366,0.1260542841721326,0.2943868611194193,-9.805603478550912,14934.0
6.9,1.100000023841858,160.0,25.762195587158203,-0.0874695107340812,-79.78284013936363,40.45891742131585,269.5620339813232,0.0141764758154749,-0.0076125971972942,0.6277148127555847,0.7782770991325378,-0.0021036141495324,0.0098007554935946,0.0029301911332699,0.0045333742164075,-0.0009151549311354,-0.0003043269680347,0.1230271349474787,0.2973834495060146,-9.805047408342364,14934.0
7.1,1.0,161.0,25.754682540893555,-0.1113248318433761,-79.7828401332545,40.45891741887818,269.5650119485855,0.0141887282952666,-0.0076198624446988,0.6277250051498413,0.7782686352729797,-0.0039388114321975,0.0066135508823402,0.0026060427304534,-0.0021456079557538,0.0011833779281005,0.0014038141816854,0.1231768784858286,0.2884036428853869,-9.805590614676476,14934.0
7.2,1.0,165.0,25.75593566894531,-0.1192766055464744,-79.78284014985142,40.45891741546004,269.5655535163879,0.0141815552487969,-0.0076253307051956,0.6277514100074768,0.7782474160194397,-0.0025789112088514,0.0065730092801959,0.0029430751561996,-0.0008094582590274,-0.0003938766312785,0.0008442090475,0.1248680668417364,0.2848416470177472,-9.805073136091233,14934.0
7.4,1.0,164.0,25.760942459106445,-0.1192766055464744,-79.78284016891386,40.45891742190951,269.5706988277435,0.0141881583258509,-0.0076326862908899,0.6277858018875122,0.7782194018363953,-0.0007249056105192,0.0079997716651368,0.0062885977990581,0.0024421310517936,0.0038952424656599,0.004871632438153,0.1204512994084507,0.3067323616147041,-9.800992949008943,14934.0
7.5,1.0,163.0,25.75593566894531,-0.1113248318433761,-79.78284018056729,40.45891743792053,269.57470855140684,0.0142023945227265,-0.0076259630732238,0.6277908682823181,0.7782151103019714,0.0018678831305208,0.0095956181182946,0.0080397502810848,-0.0055696098133921,-0.0020690346136689,-0.0088531291112303,0.1199684655759483,0.305791836977005,-9.80158117890358,14934.0
7.7,0.8999999761581421,161.0,25.758440017700195,-0.1192766055464744,-79.78284019081865,40.458917441753314,269.5755370559692,0.0141971064731478,-0.0076160728931427,0.6278078556060791,0.778201699256897,0.0033788121850208,0.0093924107991219,0.0081500459605663,0.0077025149948894,0.0016582766547799,0.0048206858336925,0.1265457883290946,0.2861786859668791,-9.80557541191578,14934.0
7.8,0.8999999761581421,160.0,25.74717140197754,-0.1033730581402778,-79.78284021201138,40.45891746420822,269.5804210605621,0.0142030082643032,-0.0076029505580663,0.6278113722801208,0.7781988382339478,0.0066572911179612,0.0104459652330506,0.0093719070106948,0.0081674177199602,0.0044462229125201,0.004591591656208,0.1255908101052046,0.2924805226363242,-9.8046749407053,14934.0
8.0,0.8000000119209291,156.0,25.74591827392578,-0.0954212844371795,-79.78284022251006,40.45891747152243,269.5814096632004,0.0142044275999069,-0.0076119038276374,0.6278298497200012,0.7781838178634644,0.0061870839300781,0.0108234138263688,0.0097989826597488,-0.0061266249977052,-0.0015660548815503,-0.0061133303679525,0.1247954882774502,0.2952931612730026,-9.80513628602028,14934.0
8.1,0.8000000119209291,155.0,25.754682540893555,-0.1113248318433761,-79.78284022734044,40.45891746267346,269.58606097126005,0.0142221059650182,-0.0076191644184291,0.6278323531150818,0.7781814336776733,0.0018037877190932,0.0066557285974342,0.0105145442588238,-0.0013783000176772,-0.0050110919401049,0.0027808989398181,0.123319815499708,0.2872593610547483,-9.805714575648306,14934.0
8.3,0.8000000119209291,149.0,25.749675750732425,-0.1272283792495727,-79.78284023429441,40.45891746558369,269.58713659667967,0.0142270792275667,-0.007615674752742,0.6278309226036072,0.7781825065612793,0.0023416540360066,0.006520803758447,0.0107336815376643,-0.0027536689303815,0.0003119238535873,-0.0006988763925619,0.1207657973840832,0.3012316665798425,-9.80310905635357,14934.0
8.4,0.8000000119209291,148.0,25.758440017700195,-0.1113248318433761,-79.78284028344396,40.45891747447875,269.591736287117,0.0142503185197711,-0.007618261501193,0.6278567314147949,0.7781611680984497,0.000369071280709,0.0121245633285979,0.0111601149712758,-0.0024521881714463,-0.0035654327366501,-0.0082378853112459,0.1203864318598062,0.3070098119974137,-9.80144844710827,14934.0
8.6,0.699999988079071,146.0,25.758440017700195,-0.1033730581402778,-79.78284029769695,40.45891748195661,269.59373435401915,0.0142357051372528,-0.0076279072090983,0.6278737783432007,0.7781476974487305,0.0004008071830636,0.0110101607737004,0.0067025816690395,0.0028315053787082,0.0006814277148805,0.0083460118621587,0.1261027977894991,0.2844308253005147,-9.804266220331192,14934.0
8.7,0.8000000119209291,143.0,25.75718688964844,-0.1113248318433761,-79.78284032292142,40.458917486450034,269.59515699768065,0.0142625477164983,-0.0076360837556421,0.6278949975967407,0.7781299352645874,0.0013358965758575,0.0109062302627797,0.0071401324432404,0.0043064355850219,0.0027253173757344,0.0065896580927073,0.1286198048572987,0.2870643015950918,-9.805901101827622,14934.0
8.9,0.8000000119209291,144.0,25.762195587158203,-0.0795177370309829,-79.78284033680706,40.45891749222251,269.5991894903183,0.0142522407695651,-0.007611745968461,0.6279089450836182,0.7781191468238831,-0.0003297053227489,0.0107595447762337,0.0088543376673792,-0.005321817472577,-0.0011622386518865,-0.007474829442799,0.1201718299090862,0.3037477965652943,-9.802382247447966,14934.0
9.0,0.699999988079071,143.0,25.762195587158203,-0.0954212844371795,-79.78284035890402,40.458917492014905,269.6028072538376,0.0142750339582562,-0.0076203304342925,0.6279317140579224,0.778100311756134,-0.0031820127269718,0.0097618818642182,0.0069508726590622,-0.0058314111083745,-0.0035810302942991,-0.003282353747636,0.1209707788378,0.3009570118971169,-9.80421242594719,14934.0
9.2,0.8000000119209291,144.0,25.75718688964844,-0.1192766055464744,-79.78284037048913,40.45891749153303,269.6035082044601,0.0142728984355926,-0.0076061310246586,0.6279537677764893,0.7780826687812805,-0.0016184321564882,0.0093184568956946,0.007002522813823,0.0069843474775552,0.0034164090175181,0.0055380822159349,0.1231350526213646,0.2891669968888164,-9.806315084695816,14934.0
9.3,0.699999988079071,142.0,25.75718688964844,-0.0954212844371795,-79.78284039841958,40.458917516026986,269.6084309520721,0.0142663046717643,-0.0075840223580598,0.6279548406600952,0.7780821323394775,0.0028957698641935,0.0100814035644519,0.0084243544569087,0.0052167708054184,0.0018979739397764,0.0021198515314608,0.1237530667707324,0.2941560422815382,-9.804292532801629,14934.0
9.5,0.699999988079071,140.0,25.762195587158203,-0.0795177370309829,-79.78284042629609,40.45891751267601,269.61149475002287,0.0142518170177936,-0.0075687542557716,0.6279674172401428,0.7780724167823792,-0.0030480022292049,0.0091139892709955,0.0054682466972775,-0.0009467560448683,-0.0005542507860809,-0.0033438336104154,0.1245539343170821,0.2914815623871982,-9.805036883354187,14934.0
9.6,0.699999988079071,142.0,25.75343132019043,-0.0954212844371795,-79.78284043758906,40.45891751155536,269.612054318428,0.014252527616918,-0.0075809694826602,0.6279928684234619,0.7780517339706421,-0.0022851008590454,0.0090000879854159,0.0056244963366323,0.0022025685757398,0.0016032037092372,0.0038791922852396,0.1258035756647587,0.2861792341433465,-9.804667339324954,14934.0
9.8,0.6000000238418579,141.0,25.75593566894531,-0.0159035474061965,-79.78284044857878,40.45891751106275,269.61263927841185,0.0142389377579092,-0.0075592650100588,0.6279985308647156,0.7780475616455078,-0.0025503054118021,0.0091022462901731,0.0060485825032894,-0.0060882102698087,-0.0011332674184814,-0.0061145480722188,0.1211105272918939,0.3081062380224466,-9.802271735072138,14934.0
9.9,0.6000000238418579,141.0,25.75343132019043,-0.0159035474061965,-79.78284050537273,40.458917502862406,269.61521300697325,0.0142456423491239,-0.0075577483512461,0.628018319606781,0.7780315279960632,-0.0064889005959561,0.0129448817478251,0.0041867560459926,-0.0064996066503226,-0.0032773695420473,-0.0032539735548198,0.1201015445496887,0.2977791598252952,-9.804146352410315,14934.0
10.1,0.6000000238418579,138.0,25.74591827392578,-0.0397588685154914,-79.78284051248465,40.45891750227848,269.6175423564911,0.0142505168914794,-0.0075297341682016,0.6280068755149841,0.7780409455299377,-0.0062938602217741,0.0081047207040779,0.003354713139322,0.0035317493602633,0.0016459202161058,0.0035085873678326,0.1237644505687058,0.2966925644315779,-9.80477317392826,14934.0
10.31,0.6000000238418579,137.0,25.73965835571289,-0.0079517737030982,-79.78284053436606,40.45891749419547,269.61824199581145,0.0142510375007987,-0.0075115566141903,0.6280159950256348,0.7780337333679199,-0.0058527189654398,0.008172580367248,0.0037578967086039,-0.0041091977618634,-0.000263415480731,-0.0065920348279178,0.1211537510063499,0.3068541664257646,-9.800852031111717,14934.0
10.41,0.6000000238418579,140.0,25.749675750732425,0.0,-79.78284056919044,40.458917506225056,269.62249264144896,0.0142353679984807,-0.0074901892803609,0.6280465126037598,0.7780095934867859,-0.0033421703403964,0.0088359636198355,0.0067737791212061,-0.0039002031553536,-0.0049645025283098,-0.0046839793212711,0.1223133909143507,0.2975711268559098,-9.802598009705545,14934.0
10.6,0.699999988079071,142.0,25.7434139251709,0.0795177370309829,-79.78284057703,40.45891750052417,269.6241817178726,0.0142337400466203,-0.007484555710107,0.6280324459075928,0.7780210375785828,-0.0046816757099077,0.0045418746295943,0.0047715543467086,0.0036405560094863,-0.0006154541042633,0.0023861189838498,0.1237314138002693,0.2987927198410034,-9.803520700335502,14934.0
10.7,0.699999988079071,142.0,25.75092697143555,-0.0238553211092948,-79.78284058961596,40.45891749431504,269.62517389678953,0.0142420828342437,-0.0074790301732718,0.6280606985092163,0.777998149394989,-0.0041295100153514,0.0043731385963697,0.0053223163194602,-0.0092147095128893,-0.001197408651933,-0.007009414024651,0.1198331664875149,0.3049664659425617,-9.801799280047415,14934.0
10.9,0.699999988079071,142.0,25.75343132019043,-0.0079517737030982,-79.78284062026859,40.4589175235233,269.628651350975,0.0142360217869281,-0.0074683031998574,0.6280639171600342,0.7779957056045532,0.0023467112844553,0.0070044504710126,0.0072748477614899,0.0047963741235435,0.001402475987561,0.0091434447094798,0.1246646933723241,0.2904265785031021,-9.804361529946329,14934.0
11.0,0.699999988079071,144.0,25.75718688964844,-0.0079517737030982,-79.78284064516136,40.458917544742974,269.63219437026976,0.014235408976674,-0.0074518858455121,0.6280903220176697,0.7779746055603027,0.0048831880329741,0.0057155383454035,0.0084602191010679,-0.0024841593112796,0.0004654351214412,-0.0065615181811153,0.119808197049424,0.3050361574441195,-9.802079946398736,14934.0
11.2,0.699999988079071,143.0,25.75343132019043,-0.0238553211092948,-79.7828406503197,40.458917550141045,269.63306245231627,0.0142339523881673,-0.0074630477465689,0.6281064748764038,0.7779614925384521,0.0063643634078348,0.0053286159983677,0.008387431352774,0.0072690923698246,0.0062149921432137,0.0091370465233922,0.1266993782389909,0.2884266297519207,-9.803214306235311,14934.0
11.3,0.699999988079071,143.0,25.75343132019043,-0.0238553211092948,-79.78284067048962,40.45891756149015,269.6365166606903,0.0142247751355171,-0.0074621420353651,0.6281263828277588,0.7779455780982971,0.004894620511739,0.0027214830163855,0.0094869782434925,0.0010257832473143,0.0013575867051258,-0.001568530453369,0.1220674149971455,0.3021557093784213,-9.80290966629982,14934.0
11.5,0.8000000119209291,145.0,25.752178192138672,0.0079517737030982,-79.78284067223363,40.45891756618949,269.637497633934,0.0142328422516584,-0.0074506942182779,0.6281599402427673,0.7779183387756348,0.0057524585430218,0.0024738508318882,0.0097108181211794,0.0035146989393979,7.737533451290801e-05,0.0030628417152911,0.1256697475165129,0.285707254204899,-9.805009986162188,14934.0
11.6,0.8000000119209291,147.0,25.752178192138672,-0.0238553211092948,-79.78284073839647,40.45891757630189,269.6430806818008,0.0142510682344436,-0.0074788341298699,0.628186047077179,0.7778967022895813,0.0033585050728836,0.0094522379414487,0.0144103839161752,0.0056464388035237,0.0015769329620525,0.0034970240667462,0.1245258859544992,0.2925484782457352,-9.803668050169945,14934.0
11.8,0.8999999761581421,152.0,25.748422622680664,-0.0159035474061965,-79.78284078265824,40.458917585548456,269.64628383541105,0.0142871690914034,-0.007491884753108,0.6282257437705994,0.7778638005256653,0.0017143189710741,0.0094874344587349,0.0127832570191822,-0.0019746129401028,5.2727969887200736e-05,-0.0079131117090582,0.1242684257403016,0.2885603117197752,-9.804249848127368,14934.0
11.9,0.8999999761581421,153.0,25.758440017700195,-0.0159035474061965,-79.78284079285477,40.45891758885864,269.6475873889923,0.0143070947378873,-0.0075045539997518,0.6282517313957214,0.7778424024581909,0.0031439927059591,0.009132696195481,0.0128542732250509,0.0058925310149788,0.003684451105073,0.0058750342577695,0.1282371959555894,0.2874781382828951,-9.804521743655208,14934.0
12.1,0.8999999761581421,157.0,25.752178192138672,-0.0397588685154914,-79.78284082775043,40.45891760446237,269.65054282569884,0.014315590262413,-0.0075106294825673,0.6282563209533691,0.7778384685516357,0.0041058761781601,0.0101128874565814,0.0149171490206759,-0.0094200670719146,-0.0050048036500811,-0.0039818473160266,0.1212614494096487,0.2983136318810284,-9.803884981870652,14934.0
12.2,0.8999999761581421,156.0,25.74717140197754,-0.0318070948123931,-79.78284084725769,40.458917616126215,269.65359208011625,0.014309556223452,-0.0075146285817027,0.628275454044342,0.7778231501579285,0.0057401245760627,0.0094829426233861,0.0150805245708523,-0.0020679340232163,-0.0005823962856084,0.0042086262255907,0.1251995491515845,0.2854868872649968,-9.804335802197455,14934.0
12.42,0.8999999761581421,157.0,25.75343132019043,-0.0318070948123931,-79.78284086703567,40.45891763106891,269.6563349666596,0.0143188284710049,-0.007509627379477,0.6282740831375122,0.7778241038322449,0.0072054782163653,0.0072819242339409,0.0166953721128634,-0.005245542153716,0.0005974790547043,-0.007475858554244,0.1202905923407524,0.3055423070490361,-9.800949679613112,14934.0
12.5,0.8999999761581421,157.0,25.754682540893555,-0.0238553211092948,-79.78284089605114,40.45891764152986,269.6591314973831,0.0143556082621216,-0.0075185331515967,0.6283109188079834,0.7777935862541199,0.0055145407280443,0.0045632218952169,0.0145457198482168,-0.0020994211081415,0.0011396404588595,-0.001152490847744,0.1222241112403571,0.2927479779347777,-9.803916556835173,14934.0
12.7,1.0,157.0,25.75092697143555,-0.0318070948123931,-79.7828409022799,40.4589176533889,269.6620984973908,0.0143474740907549,-0.0075201401486992,0.628337562084198,0.7777721285820007,0.0071610559307735,0.0037134599445243,0.0147397866369758,0.0023793757427483,0.0008399623911827,0.0057762418873608,0.1229193269088864,0.3039632299169898,-9.801705139875413,14934.0
12.8,1.0,158.0,25.749675750732425,-0.0238553211092948,-79.78284095261232,40.45891767586748,269.6649124326706,0.0143412929028272,-0.0075081656686961,0.6283514499664307,0.7777612209320068,0.0075873608173177,0.0076327914453987,0.0171937276447268,-0.008310261182487,-0.0061332448385655,-0.0083850193768739,0.1214165833499282,0.3029203241877258,-9.802598009705545,14934.0
13.0,1.0,156.0,25.75969123840332,0.0715659633278846,-79.78284095888591,40.45891768397021,269.6666745843887,0.0143414931371808,-0.0075172646902501,0.6283604502677917,0.7777538895606995,0.0090690165385979,0.006962430355257,0.0173876064492125,0.003734046826139,0.0052192513830959,0.0034547527320683,0.1239315164834261,0.2958701352775097,-9.804557996392251,14934.0
13.1,1.0,155.0,25.74717140197754,-0.1033730581402778,-79.78284100274692,40.458917698688815,269.6707565488815,0.0143620101734995,-0.0075020869262516,0.6283899545669556,0.7777297496795654,0.0067951569268805,0.0074630976035079,0.0186418732444281,-0.0050332136452198,-0.0028890138491988,-0.0086985500529408,0.1211159816477448,0.3063475600071251,-9.802026736736297,14934.0
13.3,1.0,154.0,25.752178192138672,-0.0954212844371795,-79.78284105567906,40.45891770666452,269.67477282905577,0.0143670635297894,-0.0074982768855988,0.6283978223800659,0.7777234315872192,0.0033958329715122,0.0084036166925479,0.0196437838017353,-0.0052461731247603,-0.0022449768148362,-0.0046579297631978,0.1265891673602164,0.2894470237009227,-9.805112312436105,14934.0
13.4,1.0,153.0,25.752178192138672,-0.1033730581402778,-79.78284106396893,40.4589177110734,269.6767632665634,0.0143737737089395,-0.0074751833453774,0.6284175515174866,0.7777075767517091,0.0041521913779765,0.0079068927722541,0.0196965565841092,-0.0004187444283161,0.0016289844643324,0.0005102262948639,0.1211613249778747,0.2993583465926349,-9.801646667718886,14934.0
13.6,0.8999999761581421,154.0,25.75593566894531,-0.1113248318433761,-79.78284110311222,40.45891773253931,269.6773768367767,0.0143809663131833,-0.0074869999662041,0.6284359693527222,0.7776924371719359,0.0064213086825102,0.0091557778374234,0.0164677347045851,0.003119563916698,-0.0013685034355148,0.0063336668536067,0.1250690191984176,0.2851413899101317,-9.804480813145636,14934.0
13.7,0.8000000119209291,154.0,25.754682540893555,-0.1113248318433761,-79.78284112007017,40.45891774640807,269.6807793083191,0.0143825113773345,-0.0074558067135512,0.6284458041191101,0.7776846885681152,0.0075140299126543,0.0083839857314102,0.0168255279631576,0.0047307722270488,0.0023452418390661,0.0036020651459693,0.124790646051988,0.2924941905029118,-9.804431111812592,14934.0
13.9,0.8000000119209291,156.0,25.758440017700195,-0.1033730581402778,-79.78284113498654,40.45891774759177,269.68308743858336,0.0144100664183497,-0.0074562863446772,0.6284465193748474,0.7776836156845093,0.0041518968404922,0.0043019706879776,0.0186781280754857,-0.0056444718502461,0.000472801446449,0.0019910726696252,0.1242438400257378,0.2885684978216886,-9.804551564455034,14934.0
14.0,0.8000000119209291,154.0,25.758440017700195,-0.0715659633278846,-79.78284117752347,40.45891776100449,269.68581542396544,0.0144494706764817,-0.0074497070163488,0.6284610033035278,0.7776712775230408,0.0039221516155782,0.0050353458043594,0.0165133734211312,0.0052526970393955,0.0049382355064153,0.0073253507725894,0.1273680073488503,0.2878905862569809,-9.805093601346016,14934.0
14.2,0.699999988079071,156.0,25.752178192138672,-0.0874695107340812,-79.78284118224683,40.45891776463225,269.68750366592405,0.0144582614302635,-0.0074355667456984,0.6284899115562439,0.7776477932929993,0.0033626166043067,0.0048565359807965,0.0168739948010823,-0.0070009031333029,-0.0016046511009335,-0.0049452865496277,0.1224151781480759,0.2969907358847559,-9.803027780056,14934.0
14.3,0.699999988079071,158.0,25.75092697143555,-0.0795177370309829,-79.78284122597222,40.458917787018976,269.68978425884245,0.0144710671156644,-0.0074296514503657,0.6284958720207214,0.7776429057121277,0.0061087943803774,0.0065842407625204,0.0144851575014243,0.0017070341855287,-0.0006387929315678,0.0031397675629705,0.1257707764394581,0.2852264486253261,-9.80428493142128,14934.0
14.51,0.699999988079071,159.0,25.749675750732425,-0.0954212844371795,-79.78284123173904,40.45891779321865,269.6912610235214,0.0144717982038855,-0.0074180639348924,0.6284999251365662,0.7776396870613098,0.0058984830040034,0.0061819965051324,0.0146804030800689,-0.0066340863704681,-0.0020888145081698,-0.0074532651342451,0.1210580302588641,0.3029839674755931,-9.801363662481313,14934.0
14.6,0.699999988079071,158.0,25.75718688964844,-0.1033730581402778,-79.78284127492019,40.45891780716652,269.69335636520384,0.0144655089825391,-0.0074290977790951,0.6285163164138794,0.7776263952255249,0.0038699528223264,0.0066900097055929,0.0133015674762239,0.0005507183377631,-0.0028441455215215,0.001022441429086,0.1247994077391922,0.2899128640629351,-9.804370300769808,14934.0
14.8,0.699999988079071,155.0,25.75092697143555,-0.1192766055464744,-79.78284129525674,40.45891779816733,269.69500598335264,0.0144799537956714,-0.0074219196103513,0.6285232305526733,0.7776206731796265,-0.0013804202173188,0.0015789127821761,0.0120929371767157,0.0071933567523956,0.0039754509925842,0.0054140919819474,0.1206729180179536,0.3040779449790716,-9.801249641776083,14934.0
14.9,0.699999988079071,155.0,25.75092697143555,-0.1272283792495727,-79.78284129733673,40.45891779655904,269.6962269248962,0.0144767826423048,-0.0074150701984763,0.6285334229469299,0.777612566947937,-0.0020782005038988,0.0013018344514932,0.012435717038845,-0.0066898260265588,-0.0023195233661681,-0.0051449388265609,0.121455284608528,0.2969260876066983,-9.802917852401734,14934.0
15.1,0.8000000119209291,148.0,25.754682540893555,-0.0954212844371795,-79.7828413258312,40.45891782273999,269.69714388275145,0.014474187977612,-0.0073900781571865,0.6285275220870972,0.7776175141334534,0.0033925748833274,0.003566443333383,0.011716726836109,0.0036955424584448,0.0027636545710265,-8.998202247312292e-05,0.1204600793682038,0.3001853804290295,-9.802379323840142,14934.0
15.2,0.8000000119209291,145.0,25.75092697143555,-0.1113248318433761,-79.78284133126292,40.45891782957171,269.69955810928343,0.0144867878407239,-0.0073864250443875,0.6285342574119568,0.7776119112968445,0.0036178427674875,0.0026204017747843,0.0121868914105267,-0.0037290034815669,-0.0029443856328725,-0.0076943095773458,0.1195984830055386,0.3047627087496221,-9.801720927357676,14934.0
15.4,0.8000000119209291,139.0,25.758440017700195,-0.1510837078094482,-79.78284136912075,40.458917828105605,269.70197436237333,0.0145097970962524,-0.0073906066827476,0.6285483837127686,0.7776001095771791,-0.0007746743988311,0.003973970887574,0.0154938952163371,0.0072849397547543,0.0032461746595799,0.0067237778566777,0.1275698002427816,0.288510464206338,-9.804923447370529,14934.0
15.5,0.8000000119209291,137.0,25.744667053222656,-0.1272283792495727,-79.78284139359329,40.45891784284318,269.7055833044052,0.0144793540239334,-0.0073545491322875,0.628577470779419,0.7775774598121643,0.0006067004522769,0.0019712503235798,0.0171909361577117,0.0034575839526951,0.0012506132479757,-9.247352136299014e-05,0.123777990527451,0.2960717911273241,-9.804007188677788,14934.0
15.7,0.8000000119209291,135.0,25.752178192138672,-0.1033730581402778,-79.7828413966929,40.458917843291815,269.709091753006,0.0144964773207902,-0.0073310350999236,0.6286122798919678,0.777549147605896,0.0010037324742259,0.0007332257252566,0.017720768743882,-0.0004747402272187,0.0007573456387035,7.455946615664288e-05,0.1251440280117094,0.2894843179732561,-9.805342692732811,14934.0
15.8,0.8000000119209291,133.0,25.75593566894531,-0.1113248318433761,-79.78284143694115,40.45891785806275,269.7112922372818,0.0145071502774953,-0.0073449742048978,0.6286271810531616,0.7775368690490723,0.0009483081509799,0.0039510010796236,0.0188496455720124,0.0044901208020746,0.0009263856336474,0.0038758765440434,0.1263030466530472,0.2859442857094109,-9.804417663216592,14934.0
16.0,0.8999999761581421,131.0,25.74717140197754,0.0159035474061965,-79.78284144088819,40.45891785904296,269.7131925525665,0.0145068485289812,-0.0073263919912278,0.6286312341690063,0.7775336503982544,0.000739394569955,0.0033346255480022,0.0190623314097203,-0.0029087399598211,-0.0006387053872458,-0.0086770858615636,0.1200146037619561,0.3083753561228514,-9.801657777428629,14934.0
16.1,0.8999999761581421,130.0,25.75718688964844,-0.0954212844371795,-79.7828414637231,40.45891788442648,269.7169264259338,0.0145223569124937,-0.0073096645064651,0.6286569237709045,0.777512788772583,0.0040040158088403,0.0019054075853172,0.0197382267978641,-0.0081431129947304,-0.0075883325189352,-0.0103967180475592,0.1197753704153001,0.3021719902195036,-9.802157714366912,14934.0
16.3,0.8000000119209291,124.0,25.75343132019043,-0.1033730581402778,-79.78284146395094,40.45891788837575,269.7189130487442,0.0145275639370083,-0.0073141413740813,0.6286658048629761,0.7775055170059204,0.0056976183688339,0.0008438035182253,0.0196798808222106,0.0055533344857394,0.0036507057957351,0.0042601497843861,0.1256422656029462,0.2896875818073749,-9.803729445934296,14934.0
16.4,0.8999999761581421,121.0,25.75343132019043,-0.1113248318433761,-79.78284150398996,40.458917907502034,269.72264835262297,0.0145403202623128,-0.0073358104564249,0.6286835074424744,0.7774907946586609,0.0044232378039152,0.0024079253516702,0.0202488073529451,0.0070237889885902,0.0018883432494476,0.0062655322253704,0.1256043774727732,0.2952098932676017,-9.804461517333984,14934.0
16.6,0.8999999761581421,120.0,25.74591827392578,-0.1033730581402778,-79.78284153876055,40.45891792276672,269.7243708076477,0.0145456781610846,-0.0073447339236736,0.6287049055099487,0.7774732708930969,0.0025594342497332,0.0048292615566929,0.0202777781740202,-0.0023754031863063,-0.0003890942898578,0.0018616456072777,0.1242293590307235,0.2893457024171949,-9.804491338133811,14934.0
16.7,0.8000000119209291,123.0,25.74591827392578,-0.1113248318433761,-79.78284154620829,40.4589179288036,269.72847947502135,0.014532258734107,-0.0073509542271494,0.6287217140197754,0.7774598598480225,0.0039931708754295,0.0031654867769389,0.0205224951543328,0.005698257125914,0.0032017393968999,0.0067914221435785,0.1259320682287216,0.284078877735883,-9.803606654405597,14934.0
16.9,0.8000000119209291,123.0,25.75718688964844,-0.0954212844371795,-79.78284155884019,40.45891794219036,269.72991821193693,0.0145322745665907,-0.0073284581303596,0.6287267208099365,0.7774559855461121,0.0025811914301737,0.0013162181360687,0.0204172467452405,-0.0056125884875655,-0.0036260965280234,-0.0072394381277263,0.1218969047069549,0.3042824330739677,-9.801240870952604,14934.0
17.0,0.8000000119209291,124.0,25.75343132019043,-0.0715659633278846,-79.78284159184791,40.45891797304184,269.7337566318512,0.0145212821662426,-0.0073209661059081,0.6287739276885986,0.7774181365966797,0.0051643294961964,0.0027872573144056,0.0204412453417501,-0.0065480377525091,0.0004197069793008,-0.0032896969933062,0.1231616939976811,0.2934645907580853,-9.80312250494957,14934.0
17.2,0.699999988079071,123.0,25.7434139251709,-0.1113248318433761,-79.78284159298747,40.45891798346693,269.7378985586166,0.0145189501345157,-0.0072970250621438,0.6288064122200012,0.7773920893669128,0.0069285008605743,0.0010899526675199,0.0206717607903986,0.0062919575721025,0.0013327175984159,0.0024859623517841,0.1222810941841453,0.3021737443841994,-9.800923951864243,14934.0
17.3,0.699999988079071,121.0,25.749675750732425,-0.0954212844371795,-79.78284162699481,40.45891802350194,269.7396862211227,0.0144971031695604,-0.0072659123688936,0.6288150548934937,0.7773858308792114,0.0106498782538987,0.0044654161483289,0.0206219934332731,-0.0058020623400807,-0.0033901538699865,-0.0078292321413755,0.1223271135985851,0.3076209922134876,-9.803165189623831,14934.0
17.51,0.699999988079071,118.0,25.75343132019043,-0.0874695107340812,-79.78284162891975,40.458918033664325,269.7417869272232,0.0144949099048972,-0.0072612036019563,0.6288480162620544,0.7773593068122864,0.0123634230572389,0.0035537483565247,0.0206238030967914,0.0075791585259139,0.0013083651429042,0.005823244806379,0.1274664324335754,0.286012424044311,-9.805812224149705,14934.0
17.6,0.699999988079071,122.0,25.754682540893555,-0.0954212844371795,-79.78284167274037,40.458918074504616,269.7458898725509,0.0145154930651187,-0.0072860089130699,0.6288778185844421,0.7773345112800598,0.0125878082763711,0.0052291225504531,0.0207571440631304,0.0059582758694887,-0.0009437766275368,0.005313669797033,0.1239465913362801,0.2947372555173934,-9.804256864786147,14934.0
17.8,0.699999988079071,122.0,25.754682540893555,-0.0954212844371795,-79.78284167528486,40.45891808582653,269.7480224075317,0.014515483751893,-0.0072920015081763,0.6288902759552002,0.7773244380950928,0.0126012922164717,0.0047649796206245,0.0210197341044598,-0.0024614785797894,-0.0015499448636546,0.0014820457436144,0.1247712954226881,0.2910525412112474,-9.804646874070167,14934.0
17.9,0.699999988079071,123.0,25.75092697143555,-0.0954212844371795,-79.78284172228065,40.45891809950274,269.75221344852446,0.0145076438784599,-0.0073085012845695,0.6289049386978149,0.7773125171661377,0.0079781300706087,0.0055341520092244,0.0208609266178147,-0.0017996029928326,0.0016284418525174,0.0023976115044206,0.1263909193407744,0.2862901667878032,-9.80467377126217,14934.0
18.1,0.699999988079071,119.0,25.754682540893555,-0.0954212844371795,-79.78284175885548,40.45891813115573,269.7532008590698,0.0145050846040248,-0.0072988783940672,0.6289108991622925,0.7773078680038452,0.0083731693431787,0.0068025700749579,0.0181504495068968,-0.0012493102112784,-0.0004776089335791,-0.0035067158751189,0.1247393001895398,0.3052357850410045,-9.803681498765943,14934.0
18.2,0.699999988079071,119.0,25.75343132019043,-0.0954212844371795,-79.78284176827998,40.458918148415655,269.7569502296448,0.0145096499472856,-0.0072893998585641,0.6289417147636414,0.7772829532623291,0.0092079051025064,0.0053802279065862,0.0187238607187657,-0.0063155773095786,-0.0003451559750828,-0.008796882815659,0.1183911243360489,0.3056167494133115,-9.802406221032143,14934.0
18.4,0.699999988079071,118.0,25.754682540893555,-0.0954212844371795,-79.78284180546471,40.45891816348848,269.7575438919067,0.0145070357248187,-0.0072760353796184,0.6289542317390442,0.7772729396820068,0.00646713012173,0.0063402879747924,0.0152129945110318,0.0052156550809741,0.00425391132012,0.0072883893735706,0.1259991193469614,0.2873568633757532,-9.80480416417122,14934.0
18.5,0.699999988079071,118.0,25.75593566894531,-0.0715659633278846,-79.78284185353293,40.458918170144095,269.7582264842987,0.0145234558731317,-0.0072763585485517,0.6289991140365601,0.7772364020347595,-0.0002164842713675,0.0059137875875194,0.0090902400174405,0.0083614401519298,0.0044441283680498,0.0075714481063187,0.1262914253119379,0.2920935648679733,-9.803747572302818,14934.0
18.7,0.699999988079071,116.0,25.758440017700195,-0.1033730581402778,-79.78284186596227,40.45891817112045,269.7601073684692,0.0145224928855896,-0.007280898746103,0.6290249824523926,0.7772154211997986,0.0008992312888971,0.004379132659089,0.0094083764022756,0.0049731745384633,0.0058638844639062,0.0025246234145015,0.1232649430353194,0.2971566506288945,-9.802486912608147,14934.0
18.8,0.699999988079071,117.0,25.75593566894531,-0.0954212844371795,-79.78284192558479,40.4589181964529,269.75986060523985,0.0145288333296775,-0.0072983726859092,0.6290460824966431,0.7771979570388794,-0.0010236775753739,0.0102437792773133,0.0058620631900066,-0.0022233203053474,-0.0034143023658543,0.0030583443585783,0.1258052293304354,0.2917745078913868,-9.803548766970636,14934.0
19.0,0.699999988079071,119.0,25.75593566894531,-0.0079517737030982,-79.78284193705656,40.45891819764724,269.760456413269,0.0145263504236936,-0.0072751231491565,0.6290345191955566,0.7772076725959778,3.426002334246828e-05,0.0092557662058725,0.0058678526938044,0.004615363664925,0.0010588030563667,-0.0003110469842795,0.1242533052060753,0.2997641250863671,-9.8023413169384,14934.0
19.1,0.699999988079071,119.0,25.75343132019043,-0.1033730581402778,-79.78284196287376,40.45891822275573,269.7629790010452,0.0145281916484236,-0.0072725750505924,0.629052996635437,0.7771927118301392,0.0011812565043157,0.0059937884150923,0.0073101530762554,-0.0005080089322291,0.0020022727549076,-0.0007046182872727,0.124080602210015,0.3033353668637574,-9.803320725560187,14934.0
19.3,0.6000000238418579,116.0,25.734649658203125,0.3419262766838074,-79.78284196889422,40.45891822500904,269.7637320461273,0.0145277371630072,-0.0072675361298024,0.6290661692619324,0.7771820425987244,0.0021115493653242,0.0052406630574359,0.0075783416647894,0.0025140193756669,0.0007354700937867,0.006882538087666,0.1270110713783651,0.284978855587542,-9.806682289838792,14934.0
19.41,0.6000000238418579,117.0,25.71461677551269,0.2306014448404312,-79.78284203019989,40.45891828014472,269.76492497348784,0.0145267434418201,-0.0072648907080292,0.6290929913520813,0.7771604657173157,0.0085840318577871,0.0104826305142243,0.0051641160973808,0.0004906445974484,-0.0085897333920001,0.0013261267449706,0.1266213635914027,0.2883854251541197,-9.805638561844829,14934.0
19.6,0.6000000238418579,116.0,25.73840713500977,0.2067461162805557,-79.78284203691925,40.45891828062527,269.7657895984649,0.0145344091579318,-0.0072525725699961,0.6291226148605347,0.7771363854408264,0.0013165969140322,0.0049687219340199,0.0034576990328165,-0.0085133221000432,-0.0053425775840878,-0.0103779481723904,0.1201214159466326,0.3077347205579281,-9.800692402124405,14934.0
19.7,0.6000000238418579,116.0,25.7333984375,0.1828908026218414,-79.78284204438765,40.45891828564197,269.7665124835968,0.0145303159952163,-0.0072497096844017,0.6291757822036743,0.7770934700965881,0.0023080770693856,0.0031419538274513,0.003747582471567,-0.0043548052199184,-0.0009961730102077,-0.0089769754558801,0.1229595356527716,0.3101528731361032,-9.800937400460244,14934.0
19.9,0.6000000238418579,113.0,25.73715400695801,0.2067461162805557,-79.78284208262076,40.45891830621117,269.7702041568756,0.0145199326798319,-0.0072250282391905,0.6292085647583008,0.7770673036575317,0.0023827257898152,0.0037378335509899,0.0065620026820101,-0.0075986329466104,-0.0066597275435924,-0.0046012341044843,0.1263566948566586,0.2900109876506031,-9.80175133287907,14934.0
20.0,0.6000000238418579,111.0,25.73715400695801,0.2385532110929489,-79.78284210772973,40.45891833178879,269.7730502786636,0.0145208137109875,-0.0072089293971657,0.6292105913162231,0.7770658731460571,0.0051800117472535,0.0047109108398038,0.0075012104781588,0.0050777313299477,0.0073461327701807,0.0079317614436149,0.1234195379354059,0.2857389936223626,-9.801931427121165,14934.0
20.2,0.5,110.0,25.73089408874512,0.2942156493663788,-79.78284211537215,40.458918342569646,269.77464267635344,0.0145182441920042,-0.0072003407403826,0.6292374730110168,0.7770442366600037,0.006946226423433,0.003764979630677,0.0077978175250535,0.0076074809767305,0.001305348589085,0.0068757631815969,0.1205608890205621,0.2982768857851625,-9.803932344317436,14934.0
20.3,0.5,110.0,25.72588539123535,0.3419262766838074,-79.78284217410669,40.45891833639121,269.7772508563995,0.0145200444385409,-0.0072112237103283,0.6292552351951599,0.7770296335220337,-0.0012479397732574,0.0089509016276277,0.0091448289439096,-0.0047909612767398,-0.007619684562087,-0.0028435825370252,0.1217252067010849,0.2971051951311529,-9.80004745423794,14934.0
20.5,0.5,110.0,24.95712661743164,8.166471481323242,-79.7828421836199,40.45891833715779,269.77818378829954,0.014516994357109,-0.0071959882043302,0.6292619109153748,0.7770244479179382,0.0001294882532683,0.0076917807406636,0.009297955840085,0.0033376601058989,-0.0009621107019484,0.0018328707665205,0.1320773182902485,0.3030158896185458,-9.808924112319945,14934.0
20.6,0.5,111.0,25.66203117370605,0.7236114144325256,-79.7828422166737,40.45891834568822,269.7823762598037,0.0149571066722273,-0.0071615111082792,0.6291369795799255,0.7771176099777222,0.0018287990350239,0.0106631642259834,0.0091280260463811,0.0202294699847698,-0.0364208258688449,-0.0013384374324232,0.1361039028503,0.3086320123448968,-9.770196833610536,14934.0
20.8,0.6000000238418579,112.0,25.735902786254893,0.1431319266557693,-79.78284225658486,40.45891837237507,269.78668198013304,0.0148435477167367,-0.0071689481846988,0.6292164325714111,0.7770553827285767,0.0041130170493703,0.0077264075222426,0.0106978284747755,-0.0037393136881291,-0.0074678189121186,-0.0021282113157212,0.1376023340877145,0.3057538118027151,-9.824140906333923,14934.0
20.9,0.6000000238418579,112.0,25.369050979614247,4.0554046630859375,-79.78284226267941,40.45891837807565,269.78785201931,0.0149021716788411,-0.007154035847634,0.6293696761131287,0.7769302725791931,0.0042567290550604,0.0045344502774173,0.0103305467460662,0.0063039404340088,-0.0046843350864946,0.0131223276257514,0.1100341649539768,0.3086555108428001,-9.804694236516951,14934.0
21.0,0.6000000238418579,111.0,25.68456840515137,0.6361418962478638,-79.78284231205058,40.45891839704781,269.78901395225523,0.0149252573028206,-0.0071614631451666,0.6294161677360535,0.7768921256065369,0.0115294801583449,0.0103005601548648,0.0082367923443405,0.0359180606901645,0.0238459091633558,0.0309385750442743,0.1378856956399977,0.2787832737900317,-9.81810657978058,14934.0
21.2,0.699999988079071,111.0,25.722129821777344,0.1431319266557693,-79.78284233072283,40.45891841304464,269.791044801712,0.0148543715476989,-0.0071833189576864,0.629519522190094,0.7768095135688782,0.0053656976407187,0.0063718370265191,0.0102891794707396,-0.0084993746131658,0.0388338081538677,0.0037080771289765,0.1214875813387334,0.2778692443482577,-9.812784444093705,14934.0
21.3,0.699999988079071,112.0,25.71211242675781,0.5963830351829529,-79.78284236236284,40.45891839010104,269.7957364025116,0.0150068681687116,-0.0072037316858768,0.6295341849327087,0.7767945528030396,-0.000272173638518,0.0090740255624478,0.0139026612627394,0.002534580649808,-0.0283051524311304,0.0064273318275809,0.1360310867428779,0.3085103171691298,-9.79493874192238,14934.0
21.5,0.8000000119209291,112.0,25.45168685913086,4.675642967224121,-79.78284237067905,40.45891839166946,269.79726085090635,0.0150000248104333,-0.007135082501918,0.6295871138572693,0.7767524123191833,0.0017666421783864,0.0067503552004707,0.0149679316023477,0.0106250131502747,-0.0035017577465623,-0.0042514149099588,0.1206698482297361,0.2905568435043097,-9.79093339920044,14934.0
21.7,0.8999999761581421,110.0,25.323978424072266,7.116837501525879,-79.78284241318295,40.45891842250757,269.803458899498,0.014757608063519,-0.0071257730014622,0.6296256184577942,0.7767258882522583,0.0061253839144694,0.0086191788570749,0.0177852486882527,-0.0116470688953995,-0.0143511090427637,-0.0084988623857498,0.1389823866169899,0.3255683993920684,-9.787074236869811,14934.0
21.8,0.8999999761581421,115.0,25.256366729736328,8.420928955078125,-79.78284241938832,40.45891843104138,269.805256814003,0.0146533222869038,-0.0070925480686128,0.6296288371086121,0.7767256498336792,0.0107203845603489,0.0054222749675525,0.0178090927185323,-0.0062421332113444,0.0134273385629057,0.0068336050026118,0.1223382141720503,0.2950526031665504,-9.809961408376694,14934.0
21.9,1.0,116.0,25.15495109558105,9.53417682647705,-79.78284245042575,40.45891840357237,269.81145772361754,0.0143595654517412,-0.0068991007283329,0.6296938061714172,0.7766800522804259,-0.0124709498942178,0.0031871319851154,0.0211324067795137,-0.0917811393737793,0.0765254124999046,-0.0111797023564577,0.2152040312066674,0.4762427413836122,-9.842519874572757,14934.0
22.1,1.100000023841858,115.0,24.96088218688965,12.730790138244627,-79.78284248065613,40.4589184395337,269.81242212677,0.0150462854653596,-0.0054575442336499,0.6298679709434509,0.7765373587608337,0.0151624065089934,-0.0001065205121968,0.0310854461012619,0.029618315398693,0.0511885657906532,-0.0002979951386805,0.1167556672543287,0.2270968475751579,-9.848461815118789,14934.0
22.2,1.2000000476837158,111.0,24.85946655273437,14.432469367980955,-79.78284247521042,40.45891844776264,269.8153814973831,0.0152933839708566,-0.0040297340601682,0.6296919584274292,0.7766839265823364,0.019990403340189,-0.0032863306059529,0.0233294462889145,0.0741434916853904,-0.0606211237609386,0.0161858163774013,0.1478665273077786,0.2835499788075685,-9.714223192334176,14934.0
22.41,1.2000000476837158,111.0,24.63409805297852,18.750282287597656,-79.78284253020234,40.45891844638757,269.81787046813963,0.0144323343411088,-0.0026378149632364,0.629351794719696,0.7769821286201477,0.0193205161708662,0.0079162878633827,0.0293504888164018,0.0712781473994255,0.0560179911553859,0.0173466317355632,0.2213505694828927,0.2350203181430697,-9.889991079568864,14934.0
22.6,1.2999999523162842,113.0,24.404972076416016,22.105932235717773,-79.7828425700551,40.458918440966784,269.82398495101927,0.0077550220303237,0.0010243732249364,0.6269577741622925,0.7790139317512512,-0.0045911335939975,0.0315837403837385,0.0538500972990833,-0.0049078990705311,-0.1496834754943847,0.0798202380537986,0.3004562161490321,0.0100057417200878,-9.995071392059328,14934.0
22.71,1.2999999523162842,112.0,24.27475929260254,24.658451080322266,-79.78284266778103,40.458918427671726,269.85214814567564,-0.0011243810877203,-0.0027860621921718,0.6230406761169434,0.7821837067604065,-0.0224193948541872,0.0437101684852607,0.2746250760864213,0.0439155213534832,-0.082834668457508,0.123172715306282,0.0359532271279022,-0.24006810978055,-11.13258521676064,14934.0
22.8,1.399999976158142,113.0,24.79060363769531,15.323068618774414,-79.78284260603293,40.45891851574274,269.86441800022124,8.33472586236894e-05,-0.0032886932604014,0.6218838095664978,0.7831026315689087,-0.034484735748968,0.0486105931371187,0.2935785677009562,0.1061119139194488,0.0345694161951541,0.0479913540184497,0.1257061098888516,-0.2402049894444644,-10.459272487163542,14934.0
23.0,1.5,109.0,24.60029220581055,18.853656768798828,-79.78284283126963,40.45891840607719,269.91171953105925,0.0016929102130234,-0.0015441727591678,0.621624767780304,0.7833119034767151,-0.0786172670175005,0.0793673603834436,0.2280248431930854,-0.0062205991707742,-0.0059632426127791,-0.0352545231580734,0.0805475243646651,0.1664773741923272,-9.644524966478349,14934.0
23.2,1.5,110.0,24.58777236938477,18.941125869750977,-79.78284294504293,40.45891835330685,269.93433675193785,0.0006529688835144,0.0022351734805852,0.6216896772384644,0.7832602858543396,-0.0918307098961832,0.0929901510606935,0.2233777664488056,-0.0269043482840061,-0.010810631327331,-0.018897708505392,0.1536497159488499,0.0435313876345753,-9.723267080783843,14934.0
23.31,1.399999976158142,110.0,24.52391815185547,19.00473976135254,-79.78284350151269,40.45891833255676,269.96221372509,0.0060406238771975,0.0031681868713349,0.6223334074020386,0.7827225923538208,-0.0639607059987103,0.1419436554135696,0.1666521927949798,0.0455269701778888,0.0521732307970523,-0.0703931972384452,0.2037127358280122,0.0110408861842006,-9.670997650623322,14934.0
23.5,1.399999976158142,111.0,24.491363525390625,20.14979553222656,-79.78284368034483,40.45891829871872,269.9785314502716,0.0063352440483868,0.004788433201611,0.6232318878173828,0.7819967865943909,-0.07121001131821,0.1430576015065982,0.1580290519509088,0.1031326428055763,0.0294021256268024,0.042207945138216,0.2148613843694328,-0.0954818064998835,-9.710593240857127,14934.0
23.6,1.399999976158142,107.0,24.4362735748291,20.2531681060791,-79.78284375648266,40.45891808071098,269.99660763168333,0.0065960483625531,0.0064740660600364,0.6242313981056213,0.7811848521232605,-0.1149695528150151,0.1130130767410115,0.1547841408685496,0.0320718549191951,0.0116510242223739,-0.0208606738597154,0.1828724369779229,-0.0016937099676579,-9.70382099568844,14934.0
23.7,1.2999999523162842,105.0,24.445037841796875,20.33268547058105,-79.78284407728117,40.45891792534133,270.0294137897491,0.0045004617422819,0.0100043648853898,0.6255761981010437,0.7800859212875366,-0.1229136884443714,0.1319058245504217,0.1674005908264224,-0.0562774017453193,-0.1107973381876945,0.0105321099981665,0.2728679563477636,-0.0165159813780337,-9.84659304499626,14935.0
23.9,1.2999999523162842,106.0,24.492616653442383,20.06232643127441,-79.78284447346856,40.45891784592256,270.0771745147705,0.0023904715199023,0.0165157299488782,0.6256369948387146,0.7799358963966371,-0.0745547259628773,0.1258568793225402,0.1905734206651599,0.119632177054882,0.0890996679663658,-0.0281129572540521,0.2526665571704507,0.0091203956119716,-9.809793008565904,14935.0
24.0,1.399999976158142,102.0,24.309816360473643,22.17749786376953,-79.78284479652334,40.458917782722345,270.07757541561125,0.0034011311363428,0.0197878181934356,0.6250605583190918,0.7803180813789368,-0.0634194616667614,0.135889803122329,0.2023065402776098,0.1303396672010421,0.1361605077981948,-0.0105413906276226,0.2205504876561463,0.0010271182470023,-9.968037375211717,14935.0
24.2,1.2999999523162842,98.0,24.41498947143555,19.990758895874023,-79.78284496283645,40.45891775504515,270.09974893951414,0.0050649750046432,0.020724719390273,0.6248083710670471,0.7804867029190063,-0.0522675983432576,0.1247768138931026,0.2270699074232092,0.0442343801259994,0.1478037536144256,-0.0285969637334346,0.2124282117560506,0.0287703475356102,-10.027864916324615,14935.0
24.4,1.2000000476837158,99.0,24.36991500854492,20.99268341064453,-79.78284524215351,40.45891768446712,270.1518470945358,0.0074553145095705,0.0204999763518571,0.6242436170578003,0.7809252142906189,-0.0297097468741341,0.0940408831362842,0.2510624288947151,-0.0312429498881101,0.0907628163695335,-0.0424584038555622,0.1842956492677331,0.0372079071309417,-9.872582749128345,14935.0
24.5,1.2000000476837158,102.0,24.36741065979004,21.310754776000977,-79.78284534106909,40.45891768892693,270.1775438489914,0.0081024328246712,0.0211714692413806,0.6244382262229919,0.780745267868042,-0.0109594974374376,0.0798889424853808,0.256407469501108,-0.0115810604766011,0.0714491605758667,-0.039438284933567,0.2377708483859897,0.0335425617266446,-9.858172870874403,14935.0
24.6,1.100000023841858,108.0,24.382434844970703,20.451963424682614,-79.78284560294702,40.45891750924096,270.2380770149231,0.0096039175987243,0.0186448637396097,0.6246759295463562,0.7806024551391602,-0.0309354555510441,0.0825121276740251,0.3167725279946294,-0.2057754546403885,-0.053996130824089,-0.1185160726308822,0.224120779260993,0.0896673992089927,-10.139995801448825,14935.0
24.8,1.100000023841858,111.0,25.32522964477539,7.3712944984436035,-79.7828456304641,40.4589176268854,270.29620918655394,0.0094781359657645,0.0197174102067947,0.6242483854293823,0.78091961145401,0.0286957345736036,0.0239123277768577,0.2205152355469176,0.0210954621434211,0.020594447851181,-0.0101430201902985,0.1829195070639252,-0.0509456022642552,-8.922897863388062,14935.0
25.0,1.100000023841858,112.0,24.332353591918945,21.72424697875977,-79.78284564389156,40.45891765087487,270.3097070159912,0.0105084013193845,0.0136096104979515,0.6243389844894409,0.7809643149375916,0.0263065580311963,0.0190489299000575,0.076851922269042,-0.1448219716548919,-0.1350244134664535,0.0554856322705745,0.2362076866440475,-0.1562583050318062,-8.70798228263855,14935.0
25.1,1.100000023841858,113.0,24.12576484680176,24.78567886352539,-79.78284598555973,40.45891746007543,270.3571911754608,0.0079124420881271,-0.0031710444018244,0.624081552028656,0.7813127040863037,0.0179488479556781,0.0119994987721538,0.1679575804936195,0.0631804764270782,-0.043863832950592,0.0810983851552009,0.0858979916386306,0.0070046902634203,-10.23415585398674,14935.0
25.2,1.2000000476837158,126.0,24.12576484680176,25.11170196533203,-79.7828460072883,40.45891746900868,270.37927636528013,0.0060382382944226,0.0002855166676454,0.6242632865905762,0.7811907529830933,0.0135841266902379,0.0256874854674676,0.2814738665543081,0.2132993638515472,0.0281195100396871,0.0560121834278106,0.3057083131559193,-0.2308865559473633,-10.798810944557191,14935.0
25.4,1.2000000476837158,129.0,23.98929214477539,27.25868034362793,-79.78284612818595,40.45891749322432,270.4823132457733,0.0074052829295396,0.0068149999715387,0.6256777048110962,0.7800168395042419,-0.0173980706375108,0.0634571832635144,0.6320420396963704,-0.0264975782483816,0.0025240695104002,-0.0113855525851249,0.3604301934689284,-0.1023343869298696,-11.496009550094604,14935.0
25.5,1.100000023841858,132.0,23.89538764953613,29.69987487792969,-79.78284631363582,40.45891748516655,270.5499354305267,0.0087687643244862,0.0070574097335338,0.6260578632354736,0.7796953916549683,-0.0092984282290699,0.072544338994973,0.8052891467731497,-0.0631868764758109,-0.072848379611969,0.0644338428974151,0.3448293104767799,-0.1423302921652794,-11.762230939865113,14935.0
25.7,1.100000023841858,132.0,23.74514198303223,31.44926643371582,-79.78284637926987,40.45891749412952,270.64262303733824,0.0090387389063835,0.0065662716515362,0.6261646747589111,0.7796108722686768,-0.0018330897777441,0.0786087018352337,1.0401231137566629,-0.0111606055870652,-0.0427926890552043,-0.0529981441795826,0.2214140665903687,0.1199114826321602,-12.07276954650879,14935.0
25.9,1.2999999523162842,124.0,23.662506103515625,31.838903427124023,-79.78284653708091,40.45891746210234,270.8879333438873,0.010868577286601,0.0052079814486205,0.625222384929657,0.7803536653518677,-0.0002267916988012,0.0740293261182579,1.5016124045928798,-0.0035899924114346,0.1020462363958358,0.0076429820619523,0.1670673034340143,0.1810483066923916,-12.272185328006744,14935.0
26.0,1.399999976158142,123.0,23.7000675201416,31.12324333190918,-79.7828466562502,40.45891745168628,271.23960360908507,0.008661133237183,0.0061616371385753,0.6254027485847473,0.7802297472953796,-0.0077972247660538,0.0843133379736011,2.0208039968008413,0.0523647293448448,0.041506327688694,0.0228598490357399,0.1899768039956689,-0.0444287251029163,-12.395733486413956,14936.0
26.1,1.5,114.0,23.696311950683597,31.43336296081543,-79.7828467060213,40.45891738429183,271.4325426521301,0.0067694475874304,0.0101814828813076,0.6259917616844177,0.7797338366508484,-0.0254203564013307,0.0838300385153201,2.2480146551566547,0.1114318072795868,-0.0021544443443417,0.0248050466179847,0.3686650465428829,-0.1754290228150785,-12.372520040273669,14936.0
26.3,1.600000023841858,112.0,23.817760467529297,28.10951995849609,-79.78284688797758,40.45891729082344,271.9064289035797,0.0015143436612561,0.0124487420544028,0.6275140643119812,0.7785042524337769,-0.0708661031961607,0.1110212731957623,2.6451845872303537,-0.0650231912732124,-0.0848632901906967,-0.0206656586378812,0.4103489333018661,-0.1671784553490579,-11.802053986787795,14936.0
26.4,1.600000023841858,105.0,23.72385597229004,29.38975715637207,-79.78284693969348,40.45891729239651,272.18076023483275,0.0011029266752302,0.0127921476960182,0.6287175416946411,0.7775278687477112,-0.0622376006561521,0.1012752318625439,2.8321979082881947,-0.1385567188262939,-0.0539744012057781,-0.0714503228664398,0.2418875622935593,-0.0552606190089136,-11.682892409563063,14937.0
26.6,1.600000023841858,99.0,24.24345779418945,22.48761749267578,-79.78284717378483,40.45891726702856,272.74396404647825,0.0030915359966456,0.0115654841065406,0.629480242729187,0.7769243121147156,-0.0184417987407731,0.0945331933824171,3.011671342862143,0.0155288446694612,-0.0181364845484495,-0.0464897602796554,0.1541399136185646,-0.0083773378422483,-10.655943585634231,14937.0
26.8,1.7999999523162842,95.0,24.14579772949219,22.81363868713379,-79.78284720851414,40.45891730818664,273.04635605239866,0.0040144668892025,0.0103930123150348,0.6296789050102234,0.7767757177352905,0.0025368087484038,0.0907739391884096,3.0315637271836544,-0.0322627238929271,0.1186081692576408,-0.1002003997564315,-0.0274098192248493,0.3941122021526097,-10.095711328983306,14938.0
26.9,2.0,93.0,24.03186225891113,24.83338928222656,-79.78284734816222,40.45891734086846,273.62755236053465,0.0019463268108665,0.00971310865134,0.6281667947769165,0.7780156135559082,0.0344544762240204,0.0710740376388879,3.0377263484197723,0.0151931270956993,0.0893904343247413,0.0644111409783363,0.0926600041799247,0.1774504052661359,-10.02227614760399,14938.0
27.01,2.200000047683716,79.0,23.99555206298828,24.92881202697754,-79.78284745131259,40.4589173859124,273.9385512771606,0.0038727030623704,0.0059150489978492,0.6261383295059204,0.7796800136566162,0.039272567795857,0.0729575388920501,3.0521249136409714,-0.0882913544774055,-0.0830434411764144,0.0904223844408989,0.2048021634668112,-0.1706500020995736,-10.113614333868028,14938.0
27.2,2.299999952316284,62.0,24.23469352722168,21.040393829345703,-79.78284747864116,40.45891754053846,274.55182108306883,0.0070273117162287,-0.0015664433594793,0.6221952438354492,0.7828290462493896,0.0900774874554441,0.0721638873792882,3.0720542003802978,-0.1646616905927658,-0.0496004037559032,0.0801988765597343,0.1437368764355778,-0.019115913840942,-9.780580319166184,14939.0
27.4,2.299999952316284,311.0,23.980527877807607,25.159412384033203,-79.78284755932896,40.45891760904389,274.8341005744934,0.0097262971103191,-0.0059866453520953,0.6211075782775879,0.7836421132087708,0.1127684370929325,0.0585673554912796,3.008669426039228,-0.1004387736320495,-0.1019993647933006,0.0776440873742103,0.0737769602704793,-0.0937921164929866,-9.628519383072852,14939.0
27.5,2.400000095367432,293.0,24.334857940673828,20.348588943481445,-79.78284757528395,40.458917679182704,275.1354349555969,0.0106104305014014,-0.0076067689806222,0.6209971308708191,0.7837041616439819,0.132073237925349,0.0576988202117719,3.0189542115358425,-0.0074669220484793,0.0509937070310115,-0.0271991286426782,0.0035769747896119,0.3699566964805127,-9.845490260124206,14940.0
27.7,2.0999999046325684,306.0,24.12576484680176,23.13966178894043,-79.78284791691065,40.45891768276872,275.6923221054077,0.0086668953299522,-0.0031669677700847,0.6219581365585327,0.7829961776733398,0.0919420536364979,0.0639640354367285,2.955640526672944,-0.0172741003334522,0.1442897915840149,-0.1068930029869079,-0.0312322811409831,0.3196964792534709,-9.680018734931949,14940.0
27.8,2.0,310.0,24.13452911376953,22.55918312072754,-79.78284846618556,40.458917819124586,276.2309440078735,0.0093612428754568,0.0029108994640409,0.6239429712295532,0.781408429145813,0.0177727405960657,0.1340290281185955,2.875394587429719,-0.1089136227965354,-0.0190965458750724,-0.0580637268722057,0.2035952067933976,-0.0348058800771832,-9.688172092437744,14941.0
27.9,1.8999999761581416,318.0,24.198383331298828,21.4379825592041,-79.78284856093802,40.45891784373858,276.51836237335203,0.0094852736219763,0.0044024442322552,0.6248180866241455,0.7807003259658813,0.0173651638514918,0.1415454382970208,2.85807572129378,0.0591251999139785,-0.047817587852478,0.044168148189783,0.3133463665097952,-0.0544130742363631,-9.650486202836037,14941.0
28.11,1.8999999761581416,306.0,24.08194351196289,24.730016708374023,-79.78284839653685,40.458917956878025,277.19378981018065,0.0090990327298641,0.0060167391784489,0.625910758972168,0.7798184752464294,0.0185374816623145,0.11392806248169,2.828784176887172,0.106697030365467,-0.080657735466957,0.0709713101387023,0.2057359089888632,-0.1750257659330964,-9.590615392327312,14942.0
28.2,1.8999999761581416,285.0,24.010576248168945,24.07001876831055,-79.78284845511345,40.45891796643123,277.4769385757446,0.0100495005026459,0.005548998247832,0.6258878111839294,0.7798286676406859,0.0009567341466218,0.1137199450632005,2.83072845190332,-0.0441111624240875,0.0358083732426166,-0.089122362434864,0.0546403756085783,0.3313008634373546,-9.684722819924357,14942.0
28.4,1.7999999523162842,276.0,24.05439758300781,24.252910614013672,-79.78284852866052,40.45891830629808,277.8707707824707,0.0096574798226356,0.0040540425106883,0.6259585022926331,0.7797859907150269,0.0314822082825477,0.1237359972379624,2.8603950617098963,0.1282396614551544,-0.0137661155313253,0.0650073513388633,0.1556839988194406,-0.016940635414794,-9.723675801157952,14942.0
28.6,1.600000023841858,274.0,23.95673751831055,25.23097801208496,-79.7828487811692,40.45891855122839,278.5225566329956,0.0103325732052326,0.0058155474252998,0.6266070008277893,0.7792453169822693,0.0614885908396632,0.1297566724519081,2.8974206736105828,0.1488692611455917,0.0238027684390544,0.0219803191721439,0.2565895637869835,0.0168397069908678,-9.830057119131087,14943.0
28.7,1.5,262.0,24.00932502746582,23.84737014770508,-79.78284885763256,40.4589185957288,278.81340727233885,0.0107132336124777,0.0071495063602924,0.6273356080055237,0.7786425352096558,0.0364958996596763,0.1462175989948174,2.917224225393678,-0.1269895732402801,-0.0605790950357914,-0.0406132824718952,0.2413146447949112,-0.0311411376670002,-9.9202398955822,14943.0
28.8,1.600000023841858,195.0,23.95924186706543,24.83338928222656,-79.78284911464185,40.458918844842906,279.48850187683104,0.011006586253643,0.0049333749338984,0.6262132525444031,0.7795585393905641,0.0661290316359529,0.1492045288924463,2.9836214812535884,-0.0699268728494644,-0.1151304543018341,0.0540510490536689,0.341270110309124,-0.0819325927086174,-9.961297874450684,14944.0
29.0,1.7000000476837158,180.0,24.103227615356445,22.82954216003418,-79.7828491215672,40.45891898067204,280.1566832962036,0.011328225955367,0.0059863179922103,0.6251704096794128,0.7803832292556763,0.0840635063187311,0.1269954564131731,2.998988928054791,0.1462572664022445,0.0143680414184927,0.0464123338460922,0.2071658821217716,0.0449619683297351,-9.644688103795051,14945.0
29.2,1.8999999761581416,194.0,24.04187774658203,23.74399757385254,-79.78284920542181,40.45891909367847,280.75215181732176,0.0164273362606763,0.0085827447474002,0.626520574092865,0.7791845202445984,0.0857310821603433,0.1216753423192848,2.945959511845552,0.1146836206316948,0.0422518588602542,0.0157668497413396,0.0692239161673933,0.3445710828155279,-9.54693552196026,14945.0
29.3,2.0999999046325684,208.0,23.95924186706543,25.22302627563477,-79.78284912846723,40.45891915494249,281.10539945983885,0.0175609569996595,0.0063005592674016,0.6274260878562927,0.7784525752067566,0.0795239517260561,0.122153481152536,2.9728004359878337,-0.1507470160722732,-0.0802490264177322,-0.0660066455602645,0.1978765385225416,0.1839850524812936,-9.645916603803633,14946.0
29.41,2.299999952316284,220.0,24.05189323425293,22.2331600189209,-79.78284910962087,40.45891921605728,281.4029525222778,0.0157733783125877,0.0035380609333515,0.6280542016029358,0.7780017852783203,0.1029457547093688,0.0975134819121193,2.9681344390016933,-0.0183779783546924,-0.0662626549601554,0.0846835076808929,0.191844295039773,0.0232772333244793,-9.711423545479777,14946.0
29.6,2.400000095367432,219.0,24.09321212768555,23.07604789733887,-79.78284918636254,40.45891939680229,282.06084856414793,0.0127721056342124,-0.0003253575705457,0.6285645365715027,0.7776525616645813,0.0976981178009471,0.0554979859797802,3.001764501544473,-0.0931915491819381,-0.1152534112334251,-0.0701108127832412,0.1090410336479544,0.212615615017712,-9.676743124723435,14947.0
29.71,2.5,229.0,24.04813766479492,23.457733154296875,-79.78284914079512,40.4589194431622,282.3608544769287,0.0086142346262931,-0.0009784400463104,0.6285267472267151,0.7777396440505981,0.1166667274503941,0.0292677371718808,2.995691690576184,0.1454782634973526,-0.0432801768183708,0.03416308760643,0.1197278617881238,0.1626256487891078,-9.750591119527815,14947.0
29.9,2.5,227.0,24.034364700317383,23.39411926269531,-79.78284909317995,40.45891966700993,282.7139905395508,0.0056299725547432,-0.0007408398087136,0.6285377144813538,0.7777584791183472,0.1108319068913953,0.0091516199872964,3.048061198202153,0.057893056422472,-0.0142343817278742,0.0573417618870735,0.0175842608255334,0.0887581023573875,-9.959277076721191,14947.0
30.1,2.400000095367432,238.0,24.090707778930664,23.02833747863769,-79.78284883568722,40.4589198513026,283.3585656585693,0.0071657397784292,0.0019006460206583,0.6283977627754211,0.7778568863868713,0.1122567195881584,-0.0102229073463717,3.0683865021196284,0.1253453940153122,0.0530989728868007,0.0302620306611061,0.2429089429602027,-0.0250791122135706,-9.898387681245804,14948.0
30.2,2.400000095367432,234.0,24.04939079284668,22.821590423583984,-79.78284877930065,40.45891991509928,283.66607412719725,0.0108404532074928,0.0026156136300414,0.6281516551971436,0.7780110836029053,0.0841099292150264,0.0135418277116909,3.0786009045327827,-0.1771124303340912,0.0278035141527652,-0.032340619713068,0.1463139088265598,0.1816666680201888,-9.823224062919616,14948.0
30.3,2.400000095367432,256.0,23.99930763244629,23.38616752624512,-79.78284849982671,40.458920027588526,284.30622991943363,0.0127629768103361,0.0023129265755414,0.626228928565979,0.7795313000679016,0.1024637529023874,0.0249256434716953,3.0634291281059687,-0.0575933642685413,-0.1476375609636306,0.0157305859029293,0.2414350243471563,0.0478339607734233,-9.729083306193353,14949.0
30.5,2.400000095367432,266.0,24.04312896728516,22.44785690307617,-79.78284839384999,40.45892013646399,284.94395956420897,0.0069900532253086,-0.0023324138019233,0.625542938709259,0.7801549434661865,0.0879014293208995,-0.0176604811941128,3.079913956209764,0.1160991340875625,-0.0048982645384967,0.0105015477165579,0.0597514496510848,0.1562002896890044,-9.909562879800797,14949.0
30.61,2.400000095367432,282.0,24.096967697143555,21.891233444213867,-79.78284831556795,40.45892016444614,285.25291952514647,0.003152220044285,-0.0035741229075938,0.6261345744132996,0.7797004580497742,0.0840221105653066,-0.0351529570697904,3.1020263360688083,0.0288617853075265,-0.0836045145988464,-0.0580506473779678,-0.0570724016195163,0.2296241786330938,-9.969476959705354,14950.0
30.81,2.299999952316284,288.0,24.05815505981445,22.09798049926757,-79.78284804448595,40.458920224399975,285.8849767150879,-0.0006277405773289,-0.0044557554647326,0.6274983286857605,0.778605043888092,0.0535092355534018,-0.0652910518783267,3.0966034018161483,-0.0713930875062942,-0.0540737882256507,-0.006080821622163,0.0603465911373496,-0.1197204979509115,-9.843020396232603,14950.0
31.01,2.200000047683716,286.0,24.078187942504893,22.77388000488281,-79.78284790585822,40.45892036646947,286.5165971221924,0.0041334400884807,-0.0044722454622387,0.6279109120368958,0.7782613635063171,0.0662841996323142,-0.019464132388522,3.095541358579319,-0.023865882307291,-0.0842081382870674,0.0128704365342855,0.0934489306155592,0.0889331716485321,-9.815034452676771,14951.0
31.1,2.200000047683716,286.0,24.16082191467285,20.396299362182614,-79.7828478772577,40.45892039987164,286.8262151184082,0.0047231498174369,-0.0051646349020302,0.6275326609611511,0.7785588502883911,0.0688383287511838,0.0026600965153152,3.089482482682224,-0.1318642050027847,-0.0709274336695671,-0.0348210781812667,0.0658305439492687,0.1314324983116239,-9.69088870882988,14951.0
31.2,2.200000047683716,289.0,24.08820343017578,22.670507431030277,-79.78284785878417,40.45892043177126,287.1339391174316,0.0067461002618074,-0.0058105834759771,0.6265444755554199,0.7793348431587219,0.0791911999385487,-0.0028199607716065,3.0637656310482866,-0.0072673289105296,0.0711167827248573,0.0338720940053463,-0.0006723475735634,0.1645847949385643,-9.594107934236527,14952.0
31.4,2.299999952316284,291.0,24.13327789306641,20.714370727539062,-79.78284780312879,40.45892056786572,287.76374945068363,0.0094776200130581,-0.0033036081586033,0.6258086562156677,0.7799120545387268,0.1007206222754052,0.0295684777146472,3.075376535471212,0.0439975000917911,0.0319353565573692,-0.0264740977436304,0.040573783731088,0.2278454921767116,-9.773404031395913,14952.0
31.6,2.5,292.0,23.96675491333008,23.799659729003903,-79.78284782591496,40.45892060716093,288.09105429077147,0.0087341200560331,-0.0042160153388977,0.6263489723205566,0.7794825434684753,0.0660502142015282,0.0397970995652226,3.06040864946923,-0.0066093327477574,0.0324324965476989,-0.0558876916766166,0.0238329951837658,0.2455084323137999,-9.532172471880914,14953.0
31.7,2.5999999046325684,289.0,24.086952209472656,22.153642654418945,-79.78284783013444,40.4589206203456,288.3963654937744,0.0093108108267188,-0.0058279768563807,0.627815306186676,0.7782849073410034,0.066700849240276,0.0287683360371709,3.0482753299629213,0.000704339123331,-0.1064464449882507,-0.014662236906588,0.0829362124577164,-0.026582849342376,-9.701266931891444,14953.0
31.9,2.700000047683716,289.0,24.117000579833984,22.455808639526367,-79.78284774432484,40.45892075798231,289.02479872131346,0.0070814248174428,-0.0043303836137056,0.6306732296943665,0.7760041356086731,0.0836422844493807,0.0127613512242648,3.048372923990416,0.0767419189214706,-0.1124384701251983,0.0303629767149686,0.1729199277609586,-0.0133257153932936,-9.772012978792189,14954.0
32.0,2.799999952316284,285.0,24.04312896728516,22.535327911376957,-79.78284772538083,40.458920771925136,289.32922872924803,0.0044123157858848,-0.0054186130873858,0.6318122744560242,0.7750899791717529,0.0512171614298026,0.0109834357895788,3.0351716251097285,-0.1428551822900772,-0.0790138021111488,-0.1127994209527969,-0.0740385043993592,0.3441197874024511,-9.618969710469246,14954.0
32.1,2.900000095367432,280.0,23.904151916503903,23.99845314025879,-79.78284762279196,40.45892068797132,289.9595254364013,0.0016289709601551,-0.0074349464848637,0.6323128938674927,0.7746757864952087,0.0438634982829328,-0.0209049371442231,3.0842449150376248,0.0100960154086351,0.0922476053237915,-0.0332026593387126,-0.1451107345707714,0.4146172910928727,-9.955682208538056,14954.0
32.3,3.0,279.0,24.07443046569824,22.28087043762207,-79.78284759345182,40.45892072820534,290.58284124755863,0.0023144534789025,-0.0073036714456975,0.6307904720306396,0.7759153842926025,0.0339016631971077,-0.0025257578349853,3.0581444471090258,-0.1005631610751152,0.0943752974271774,-0.0651352629065513,-0.0911750124022364,0.3254158601537347,-9.534411955475807,14955.0
32.5,3.0,280.0,23.988039016723643,23.147613525390625,-79.78284761525593,40.45892073505989,290.8872693481445,0.0051022688858211,-0.0063468278385698,0.6301225423812866,0.7764530777931213,0.0508893352148688,0.0109689174663032,3.0341289835063128,-0.0034063560888171,-0.0785034969449043,0.0431736223399639,0.0940008346829563,-0.0632983204163611,-9.655717706680296,14955.0
32.6,3.0,283.0,23.976770401000977,23.871225357055664,-79.78284758967433,40.45892073602821,291.1984151306152,0.0058478852733969,-0.0047479039058089,0.6293416023254395,0.7770923972129822,0.0370364267491524,0.0361297536517331,3.0427061539563107,-0.0302063431590795,0.0016757805133238,-0.0286914221942424,0.088838803069666,0.2910675064288079,-9.72001018166542,14956.0
32.8,3.0,285.0,24.03060913085937,22.36833953857422,-79.78284767066533,40.45892074066053,291.8093675079345,0.0072284522466361,-0.0038802684284746,0.6294180154800415,0.7770235538482666,0.0351664989776891,0.0535923724579655,3.0802314817992205,-0.0469433851540088,0.0131355039775371,-0.0319979339838027,-0.0096260552841704,0.2145516646653414,-10.023961315155027,14956.0
32.9,3.0,285.0,23.93545341491699,24.03026008605957,-79.78284775097615,40.45892084958617,292.4359868469238,0.0067226975224912,-0.0002650903188623,0.6275591850280762,0.7785398960113525,0.0566082283095863,0.0703832249311433,3.134249553070604,0.0616377107799053,0.0542003326117992,0.0330094657838344,0.1455472474917769,0.1010053879022598,-10.088978844881057,14957.0
33.1,3.0,284.0,24.14579772949219,20.65870857238769,-79.78284776618379,40.45892090284971,292.73924002075194,0.0086302198469638,-0.0002791140577755,0.6268474459648132,0.7790941596031189,0.0429948980072749,0.0712784331125384,3.1259963696633166,0.0177390985190868,0.023749716579914,0.0525715500116348,0.1650541436299681,0.054803732195869,-10.091952738761902,14957.0
33.2,3.0999999046325684,288.0,24.01558494567871,22.018461227416992,-79.78284781025405,40.45892091943721,293.0520318450928,0.0118325743824243,-0.0004815541324205,0.6266884803771973,0.7791799306869507,0.0490528319466065,0.0818796769158016,3.118295560448784,-0.0633980929851532,0.0282798130065202,0.0308733470737934,0.1143161997478455,0.0695808521378785,-9.763890026807788,14958.0
33.41,3.0999999046325684,286.0,24.02810478210449,22.94086837768555,-79.7828478826701,40.45892098149571,293.97287306213383,0.0114379785954952,-0.0060376389883458,0.625922441482544,0.7797780036926271,0.0854312955286294,0.0663599921262346,3.0050290710816814,-0.0045939143747091,-0.1563874185085296,0.037310142070055,0.1293703772127628,0.2332000799104572,-9.504483566880229,14958.0
33.5,3.2000000476837163,284.0,24.014331817626957,22.956771850585927,-79.78284791644053,40.45892098876087,294.2801736297607,0.0103456052020192,-0.0083902347832918,0.6266939640045166,0.7791516780853271,0.0804989966539876,0.0394808903539621,2.996471111422267,-0.0816425010561943,0.0026583846192806,-0.0785101652145385,-0.0399281232152134,0.5867167814075948,-9.532608089447024,14959.0
33.6,3.2000000476837163,281.0,24.02059364318848,21.620872497558597,-79.78284791423329,40.458921006859896,294.58001455688475,0.0094659160822629,-0.0093472339212894,0.6279025077819824,0.778178334236145,0.1052355155556781,0.0143698073264538,3.0017565540853206,0.0488236509263515,0.0291231013834476,0.0032470312435179,-0.0765463934652507,0.4304860496520996,-9.767748604416846,14959.0
33.8,3.299999952316284,280.0,24.08069038391113,21.294851303100582,-79.7828478714121,40.45892109655716,295.1838067474365,0.0096018202602863,-0.0117608327418565,0.6302839517593384,0.7762162685394287,0.1169641304208656,0.0134451277701372,2.9903141430128706,-0.0628890767693519,-0.0527391396462917,-0.0993711724877357,0.0195866192691028,0.352679051309824,-9.661664909720422,14960.0
33.9,3.400000095367432,280.0,24.04939079284668,21.23123550415039,-79.78284786089903,40.45892112989048,295.4824136199951,0.0100621590390801,-0.0133169740438461,0.6319235563278198,0.7748510241508484,0.1303226933308945,-0.0061601329193136,2.976685239823248,0.032285701483488,0.0524691753089428,0.0492076911032199,-0.0996926879882812,0.3820053228735924,-9.618366277813912,14960.0
34.1,3.400000095367432,280.0,23.97802352905273,23.33050537109375,-79.78284776819463,40.4589211554651,296.0846131744385,0.0094612399116158,-0.0125478347763419,0.633044958114624,0.7739555835723877,0.1241752229159939,-0.0118457652389499,2.9585879289842065,-0.0914734378457069,0.0270839501172304,0.0006196242757141,-0.0983348091971129,0.4353204910084605,-9.643721559047698,14961.0
34.3,3.5999999046325684,276.0,24.03060913085937,21.84352302551269,-79.78284774774887,40.45892118942484,296.38054594421385,0.0083206053823232,-0.0150890825316309,0.6324506402015686,0.7744090557098389,0.1464301751837566,-0.0191306794091646,2.95950628163475,0.0907265543937683,-0.0323959030210971,0.0447074025869369,0.0564174951938912,0.2622798913344741,-9.842372524738312,14961.0
34.4,3.700000047683716,278.0,24.083194732666016,21.81966781616211,-79.78284768453817,40.45892126050507,296.9839547576904,0.0132017452269792,-0.0121944714337587,0.6319394707679749,0.7748094201087952,0.1386253244915758,-0.0214963888011911,2.9785164690241115,-0.1107233539223671,0.0701455846428871,0.013369414024055,-0.0044330300018191,0.2847607909888029,-9.642395410537722,14961.0
34.5,3.799999952316284,276.0,23.89538764953613,23.50544357299805,-79.78284763036906,40.458921278752,297.27949461364744,0.0157868936657905,-0.0142538417130708,0.6315813064575195,0.7750178575515747,0.1350506793378789,0.0038472791926484,2.964193139424012,-0.1153644025325775,-0.037643726915121,0.0783717706799507,0.0163538307789713,0.3171131428331137,-9.678565117120744,14962.0
34.71,3.799999952316284,275.0,23.891632080078125,23.410022735595703,-79.78284759910383,40.458921340458105,297.8715070190429,0.0115765957161784,-0.0184380002319812,0.63153475522995,0.7750419378280641,0.1616631894457378,-0.0070372331613358,2.9607687573344754,0.0039086365140974,-0.0103634493425488,0.0572446472942829,-0.0517414357233792,0.243228694293648,-9.891221333742145,14962.0
34.91,3.799999952316284,276.0,23.87159919738769,23.8076114654541,-79.78284761758688,40.4589214387831,298.46608290100096,0.0119016403332352,-0.0124161886051297,0.6317726969718933,0.7749630212783813,0.1475579778831373,0.0087618409370233,2.9854095316219653,0.046461671590805,0.0792888924479484,0.0044432375580072,-0.0317376861395314,0.5479140370711685,-9.792216278314587,14963.0
35.0,3.799999952316284,274.0,23.83278465270996,25.07194328308105,-79.78284767386134,40.45892158623558,298.7588685455322,0.0104219494387507,-0.0087742004543542,0.6317945122718811,0.775016188621521,0.1489865167225713,0.0431498431774123,2.995972200722392,0.0336578711867332,-0.0390362367033958,-0.0310527123510837,0.111513437423855,0.2448778101056814,-9.988471055030825,14963.0
35.2,3.799999952316284,273.0,23.756410598754893,26.79747772216797,-79.7828477048532,40.45892163948169,299.0605672302246,0.0083464328199625,-0.0069136749953031,0.6320320963859558,0.77486652135849,0.1344951325459214,0.0561417774969089,3.03715289615437,0.0105711044743657,-0.0300857853144407,-0.0360263064503669,0.1553985450603068,0.1971451980248093,-10.214227373600009,14964.0
35.3,3.799999952316284,272.0,23.91542053222656,23.250986099243164,-79.78284782951819,40.4589217495638,299.6635220947265,0.0130704138427972,-0.0073152408003807,0.6323232650756836,0.7745598554611206,0.1121987456009483,0.0616999552629239,3.1070066272444588,-0.039563275873661,0.0671354979276657,-0.0775061622262001,0.1027312758285552,0.3179396467655897,-10.235242266654971,14964.0
35.4,3.799999952316284,268.0,23.91416931152344,23.42592620849609,-79.78284787033871,40.458921798032925,299.97521910095213,0.0161912739276886,-0.0064412727952003,0.6326724886894226,0.7742235064506531,0.1383332518602714,0.0753685268880848,3.1165706774828044,0.0562060140073299,-0.0085438145324587,-0.0121801178902387,0.1079511126503348,0.2732696966081858,-9.989199618101118,14964.0
35.6,3.799999952316284,269.0,23.79397201538086,25.286640167236328,-79.78284792582788,40.45892178062928,300.5751393737793,0.0140429101884365,-0.0068584471009671,0.6332111954689026,0.7738212943077087,0.1175688471286844,0.0861365837466897,3.068504595094056,0.0203661117702722,-0.0082320654764771,-0.0565741509199142,0.0482645396841689,0.4573541883006692,-9.75701428592205,14965.0
35.8,3.799999952316284,268.0,23.994298934936523,21.70039176940918,-79.78284794416895,40.45892180949805,300.88303503417967,0.0110146543011069,-0.0066373450681567,0.6330204606056213,0.7740283012390137,0.1204295153296914,0.0586533704803959,3.086946211668124,0.0194586366415023,0.0012497907737269,0.0803471282124519,-0.0166854592692107,0.2434499565884471,-9.941733090877532,14965.0
35.9,3.799999952316284,268.0,23.84029769897461,24.507368087768555,-79.78284797387767,40.45892179176509,301.48281225585936,0.0100120827555656,-0.0106492657214403,0.6323122382164001,0.7745758295059204,0.1017994634094407,0.0307651033790256,3.0268893268540324,0.0287977401167154,-0.0673649162054061,0.1017266362905502,0.0575633027823641,0.1250181575585156,-9.623220051527024,14966.0
36.1,3.799999952316284,268.0,23.85281753540039,24.403993606567383,-79.78284802638095,40.45892171747819,301.7843869628906,0.0111133595928549,-0.0127385044470429,0.6318650841712952,0.774894118309021,0.0840344024677313,0.0243251539362345,3.019903431839108,-0.0881259441375732,0.0087259411811828,-0.0312604792416095,0.0197243874357082,0.2793316695280373,-9.6660935908556,14966.0
36.2,3.799999952316284,270.0,23.89914321899414,22.88520622253418,-79.7828480663888,40.45892171204073,302.38976034545897,0.0119294933974742,-0.0099927838891744,0.6316463947296143,0.7751004695892334,0.0900693955881757,0.0287246046901624,3.041778322629116,-0.0064437966793775,-0.0153954438865184,0.0173544883728027,0.0406913081975653,0.2954407303780317,-9.922563579082489,14967.0
36.4,3.799999952316284,270.0,23.8365421295166,24.68230628967285,-79.78284806435407,40.458921672307774,302.69329580688475,0.011313734576106,-0.0075814793817698,0.6313654780387878,0.7753658890724182,0.0769154042511473,0.0372797679929558,3.0505829039328285,0.0329758450388908,-0.0275703780353069,0.0142732933163642,0.0379696805588901,0.1952729926630854,-9.849548227787018,14967.0
36.5,3.799999952316284,270.0,23.855321884155277,24.2052001953125,-79.78284808604188,40.458921658465854,302.9989217224121,0.0113952280953526,-0.0069918339140713,0.6316743493080139,0.7751185297966003,0.0630249765274766,0.038064256449336,3.061884265189972,0.0171520840376615,-0.0255848076194524,-0.0336749739944934,0.0780720873456448,0.2435288939997553,-9.924504854679109,14967.0
36.7,3.799999952316284,266.0,24.05189323425293,20.20545768737793,-79.78284817210198,40.45892167056945,303.6144307556152,0.0137877874076366,-0.0092301126569509,0.6307895183563232,0.7757766842842102,0.0934166337018457,0.0496859650957741,3.1045630273898417,0.0736460387706756,-0.0228483360260725,0.0518574155867099,0.1187701792269945,0.3230274187400937,-9.96795317530632,14968.0
36.8,3.799999952316284,269.0,23.865339279174805,23.21122741699219,-79.78284819735859,40.45892167226268,303.9249585571289,0.0126585159450769,-0.0090305963531136,0.6300351023674011,0.7764109969139099,0.0977830489199687,0.0528088455962297,3.0967011708357584,0.0296560898423194,-0.0500249937176704,0.0374278165400028,0.0553773623239249,0.2836872787401081,-9.767281996607784,14968.0
36.9,3.799999952316284,270.0,24.018089294433597,20.937021255493164,-79.7828482203763,40.458921598505576,304.5295575561523,0.0121241323649883,-0.0093013159930706,0.6302365064620972,0.7762528657913208,0.0823622094984467,0.0384420645698146,3.040779360529378,-0.0107849640771746,-0.0181020870804786,-0.010270114056766,0.1226472486555576,0.2500653501972556,-9.627878528237344,14969.0
37.1,3.799999952316284,269.0,23.95298194885254,22.272918701171875,-79.78284828302834,40.45892148126243,305.1409543457031,0.0157551206648349,-0.0139475120231509,0.6327636241912842,0.7740591764450073,0.0834480131450575,0.0293032856578072,2.9743681029172024,-0.0665827468037605,0.0068055111914873,-0.0428321734070777,-0.0382782582286745,0.5463087205588818,-9.257088457345963,14970.0
37.2,3.799999952316284,271.0,23.79021644592285,25.07194328308105,-79.78284829434115,40.45892146848736,305.4358342590332,0.0158039163798093,-0.0130648938938975,0.6339484453201294,0.7731035351753235,0.1121616601522128,0.0231335853641111,2.924427262073188,0.0939432457089424,-0.0572896972298622,0.0444812513887882,0.1710365395992994,0.2812995134107769,-9.420924516320229,14970.0
37.4,3.799999952316284,271.0,23.911664962768555,22.19340133666992,-79.78284832469951,40.4589214367356,305.7435277404785,0.0151109611615538,-0.0102640204131603,0.6342995166778564,0.7728716135025024,0.105180860503992,0.0327383540450926,2.9542699443335514,-0.0105865010991692,-0.0106380945071578,0.0211508478969335,0.0471129488339647,0.3706313920766116,-9.658631374239922,14970.0
37.6,3.799999952316284,270.0,23.92293357849121,22.90906143188477,-79.78284835714848,40.45892150523935,306.3470548095703,0.0143493609502911,-0.0070012742653489,0.6332270503044128,0.7738013863563538,0.1020352436314114,0.0385284025905876,2.9641836031233737,-0.0400128476321697,-0.0099838450551033,0.1093484088778495,-0.004046346321702,0.3408665062487125,-9.634565988779068,14971.0
37.7,3.799999952316284,270.0,23.802736282348643,24.793630599975582,-79.78284833971743,40.45892154917171,306.9401601257324,0.0128792179748415,-0.0101141994819045,0.6320361495018005,0.7747658491134644,0.1240757797453783,0.025958961840917,2.9650089883075323,0.0104238707572221,-0.0369934998452663,-0.019359964877367,0.0581918784650042,0.4124473893642426,-9.850673232078552,14971.0
37.8,3.799999952316284,269.0,23.78771209716797,24.54712677001953,-79.78284837294045,40.45892150972352,307.24543127441405,0.012921754270792,-0.0109560564160346,0.6311145424842834,0.7755046486854553,0.1423381826193544,0.0125038929507309,3.0198390769430064,0.0659078285098075,0.0096072787418961,-0.0498767830431461,0.078208903055638,0.5061183223128319,-10.045615893602374,14972.0
38.0,3.799999952316284,266.0,23.81275177001953,23.9825496673584,-79.78284832711337,40.45892155201524,307.84448751831053,0.0131769096478819,-0.0121972216293215,0.6307209730148315,0.775801956653595,0.1372761231537491,0.0176080063206569,3.0648853415898314,-0.100637748837471,-0.0933253914117813,-0.0025276187807321,0.0733628677669912,0.3014253555983305,-10.049057564735412,14972.0
38.2,3.900000095367432,266.0,23.74514198303223,25.5649528503418,-79.78284831279186,40.45892159257858,308.15205511474613,0.0126918917521834,-0.0153574375435709,0.6315928101539612,0.775044322013855,0.1588202924954025,0.0183825522902418,3.072738670969111,-0.0116916624829173,-0.0523696206510067,0.0004009794211015,0.0671200788393616,0.397273608930409,-9.853561756610867,14973.0
38.3,3.900000095367432,266.0,23.97426605224609,21.86737823486328,-79.7828483704015,40.45892158918701,308.7520192565918,0.0143172135576605,-0.0166540797799825,0.6334661841392517,0.77345871925354,0.177109623007778,0.011702638530288,3.0655088198933966,0.0319269001483917,0.0316123701632022,-0.0156596545130014,0.0922753852978348,0.4398620234057308,-9.83909574508667,14973.0
38.5,3.900000095367432,268.0,23.97051048278809,21.445934295654297,-79.78284838232919,40.45892162945592,309.0584004821777,0.0154611533507704,-0.014483175240457,0.6344247460365295,0.7726944088935852,0.1757849736220406,0.0251163081031547,3.0516687895865404,-0.0028389652725309,0.085391454398632,-0.0111225293949246,0.0511679152306169,0.5630001092702149,-9.718081185221672,14974.0
38.6,3.799999952316284,264.0,23.84154891967773,23.56905746459961,-79.78284836822762,40.45892166312742,309.3539594116212,0.016363414004445,-0.010609152726829,0.6348318457603455,0.7724042534828186,0.1798040098908508,0.0302627778358482,3.031943097036048,0.1034903973340988,0.0865668877959251,-0.0010904966620728,0.0931540025398135,0.4695019249990583,-9.7148722332716,14974.0
38.7,3.700000047683716,262.0,23.887874603271484,22.60689353942871,-79.7828483926378,40.458921755722415,309.96000799560545,0.0189410336315631,-0.008991440758109,0.6360896229743958,0.7713304162025452,0.1477951387720365,0.0732458494114684,3.031875087308636,-0.1166039109230041,-0.0193465817719697,0.0148599250242114,0.2102510558255017,0.3746981305629015,-9.867854690551756,14974.0
38.9,3.700000047683716,260.0,23.96550178527832,21.310754776000977,-79.78284844853842,40.45892181505253,310.55969747924803,0.0170751679688692,-0.0101267052814364,0.6376265287399292,0.7700898051261902,0.177296235046531,0.06710293569154,3.0172952445703936,0.1020005866885185,-0.0734809041023254,0.0839030370116233,0.2439975117892027,0.2589396876655519,-9.747334220409394,14975.0
39.1,3.5999999046325684,258.0,23.89413642883301,22.54327964782715,-79.78284850914694,40.45892181868725,310.85264334106444,0.0183716062456369,-0.0100338030606508,0.6383731365203857,0.7694424390792847,0.149884232664043,0.061624567107893,2.99699435253732,-0.0752552226185798,0.0835797563195228,-0.0493526645004749,-0.0281249611079692,0.5499703200906515,-9.55938424408436,14975.0
39.2,3.5,259.0,23.83403778076172,23.88712882995605,-79.7828485236522,40.45892186059599,311.15164694213865,0.0211633760482072,-0.0105583332479,0.6398668885231018,0.7681217789649963,0.170618717284179,0.0662730297096215,2.9788224430064667,-0.0115251252427697,-0.0275279432535171,0.0199751425534486,0.0777896942384541,0.173185720257461,-9.68534730255604,14976.0
39.41,3.400000095367432,258.0,23.957990646362305,22.93291664123535,-79.78284861926446,40.45892193258285,311.74636206054686,0.0209576021879911,-0.0104975486174225,0.6402639150619507,0.7677974104881287,0.1526893113103619,0.0845857754379746,2.9786253155607616,-0.1088817715644836,-0.1402389705181121,-0.044689442962408,0.0510652326419949,0.3552441517263651,-9.71853902220726,14976.0
39.5,3.400000095367432,259.0,23.73637771606445,24.507368087768555,-79.78284866075327,40.45892197700768,312.3395627441406,0.0161056779325008,-0.0111338263377547,0.6375589370727539,0.7701528668403625,0.1369108799483296,0.0644968409661605,3.0114887028481547,-0.0257798340171575,-0.1418113559484481,0.0102713806554675,0.0803658952284604,0.2741698754578829,-10.108434870243071,14977.0
39.7,3.299999952316284,258.0,23.99054336547852,21.45388603210449,-79.78284867324629,40.458921995753,312.6432240905761,0.0145959500223398,-0.0092683164402842,0.6358658671379089,0.7716059684753418,0.1286357232612281,0.0483611137442698,3.0516332562108737,0.0122600262984633,0.0299886688590049,0.0370942018926143,0.0503871566243469,0.3642677576467395,-10.101557375192645,14977.0
39.8,3.299999952316284,259.0,23.783954620361328,24.38809013366699,-79.78284868355173,40.45892201229969,312.9491628112793,0.0147558460012078,-0.0071831382811069,0.6347522139549255,0.7725414037704468,0.1252256224646776,0.0433069195942612,3.0570906338335706,0.0788490995764732,0.0451775938272476,0.0389891676604747,0.0905736445449292,0.2950445997901261,-9.875888764858246,14977.0
40.0,3.2000000476837163,259.0,23.861581802368164,23.39411926269531,-79.78284871193756,40.45892202127445,313.5423329772949,0.0156912319362163,-0.0054302155040204,0.6344361901283264,0.7727968692779541,0.1089448304448038,0.0561193459943838,3.0603261318441937,-0.0342384874820709,-0.0143139408901333,-0.0102605931460857,0.0445353454258292,0.3730639799684286,-9.925446256399155,14978.0
40.1,3.2000000476837163,259.0,23.86408615112305,23.537250518798828,-79.78284876644152,40.458922006375104,313.8380330505371,0.0161794628947973,-0.0072487383149564,0.6345583200454712,0.7726715803146362,0.1084643800558,0.0704276789025453,3.0537785941786586,-0.0564969293773174,0.0395488776266574,-0.0146246999502182,0.0529402793850749,0.4173982268571853,-9.886326044797896,14978.0
40.21,3.299999952316284,257.0,23.9003963470459,22.50352096557617,-79.78284878571301,40.4589220590737,314.4505284729004,0.0178795866668224,-0.009770312346518,0.6361415386199951,0.7713034152984619,0.1339692856304889,0.0584908592689754,3.0718180295555406,-0.1072709262371063,0.0171462632715702,-0.0789819508790969,0.0527029007021337,0.4933500863984228,-9.91127962231636,14979.0
40.4,3.299999952316284,256.0,23.955486297607425,21.024490356445312,-79.7828488215948,40.45892207127096,315.0533536376953,0.0203498639166355,-0.0112703125923872,0.6372634768486023,0.7702948451042175,0.1464060040572423,0.0604132616351104,3.047060490678656,-0.0535259470343589,-0.1236824542284011,0.0190124530345201,0.0743820740003138,0.2478408500924707,-9.711345777511598,14980.0
40.6,3.299999952316284,257.0,23.84530639648437,22.821590423583984,-79.7828488986583,40.45892211480263,315.3555539550781,0.0193364880979061,-0.0120591325685381,0.6373814940452576,0.7702113389968872,0.1527854021948562,0.0711071567885723,3.0408053622853752,0.0438034906983375,0.0421609953045845,0.0476027205586433,0.1772144883871078,0.5044107160717249,-9.694681797623636,14980.0
40.7,3.400000095367432,256.0,23.885372161865234,21.62882423400879,-79.78284893252044,40.45892215612066,315.9654210510254,0.0186213888227939,-0.0122255943715572,0.6373853087425232,0.7702232599258423,0.1492021667127548,0.0519689590448396,3.0454597991270016,0.0229114815592765,0.0734220370650291,0.0331063717603683,0.0069383426383137,0.5109733385592701,-9.794316598176955,14980.0
40.91,3.400000095367432,255.0,23.94046211242676,22.241111755371094,-79.7828489587981,40.45892217491453,316.5728848876953,0.0194490682333707,-0.0121599314734339,0.6364139914512634,0.7710066437721252,0.1355768919647584,0.0614415130167844,3.051344361843864,-0.0839579552412033,0.0526460371911525,0.0131197087466716,0.1238593581877648,0.5831336442008614,-9.763248587250713,14981.0
41.0,3.400000095367432,254.0,23.937957763671875,22.24906349182129,-79.78284897968166,40.458922158653934,316.8742307128906,0.019010629504919,-0.012607604265213,0.6358312964439392,0.7714909911155701,0.1512144922009992,0.0611008070322746,3.030815521777785,0.142529159784317,-0.0149192754179239,0.0109025258570909,0.2603970330767333,0.3007780140079558,-9.67937378704548,14981.0
41.2,3.400000095367432,254.0,23.88036346435547,22.535327911376957,-79.78284900705975,40.458922166852815,317.17761740112303,0.0184553917497396,-0.0121098551899194,0.6360149979591371,0.7713610529899597,0.1246695988963574,0.0699643239896518,3.029132063580206,-0.0703485682606697,0.0241177752614021,-0.0837465897202491,0.1846094985678792,0.5646285953745246,-9.700892710089684,14982.0
41.4,3.400000095367432,252.0,23.83403778076172,23.13966178894043,-79.7828490618427,40.45892217184771,317.7836202087402,0.0204777773469686,-0.0104132127016782,0.6361819505691528,0.7711969614028931,0.1236567716020722,0.0864558016846782,3.0332539180961646,-0.1102083250880241,-0.0232674665749073,-0.0599170513451099,0.1586810074746608,0.3599693597853184,-9.714404456019404,14982.0
41.51,3.400000095367432,251.0,23.865339279174805,22.137739181518555,-79.78284913855623,40.45892220349504,318.3859723510742,0.0247031655162572,-0.0100909285247325,0.6373143792152405,0.7701418995857239,0.1351314076647519,0.0968687170074269,3.017075745070987,-0.1231965348124504,0.0137396454811096,-0.0286305155605077,0.0939768062811344,0.4495916806161404,-9.681355993151666,14983.0
41.6,3.400000095367432,249.0,23.92543792724609,21.25509262084961,-79.78284917324831,40.458922211442975,318.6876538696289,0.0260936040431261,-0.0088075939565896,0.6376087069511414,0.769868016242981,0.1499266245962215,0.1002800510262481,3.0089583251641536,0.0732307955622673,0.1091102436184883,0.0577729754149913,0.1006956773344427,0.4331383466720581,-9.66765070438385,14983.0
41.8,3.400000095367432,249.0,23.796476364135746,23.457733154296875,-79.7828492653248,40.45892222845399,319.29089483642576,0.0255606975406408,-0.0095505099743604,0.6373046040534973,0.7701287865638733,0.1365909058569256,0.1130811910135033,3.0094421966104434,-0.0777680873870849,-0.0137481708079576,-0.0278420615941286,0.1677244939282536,0.5003018776327371,-9.720494331121444,14984.0
41.9,3.400000095367432,248.0,23.891632080078125,22.153642654418945,-79.7828492843152,40.45892223684368,319.5919545593261,0.0246491879224777,-0.0112422946840524,0.6378212571144104,0.7697078585624695,0.1521108010320415,0.0922108916786566,2.9991095187516645,0.0276231821626424,-0.071526899933815,0.0890050306916236,0.2780550396256149,0.2794757851213217,-9.760488701462746,14984.0
42.1,3.400000095367432,247.0,23.86033058166504,22.31267738342285,-79.78284936923798,40.45892228760293,319.8948491516113,0.025266408920288,-0.0117061324417591,0.6382259130477905,0.7693454027175903,0.1293220288371262,0.0891686556317672,2.99810528011928,-0.1787709146738052,0.0542720332741737,-0.1345260888338089,0.1049634960852563,0.7984782278537751,-9.590095574855804,14984.0
42.3,3.5,247.0,23.82402038574219,23.950742721557607,-79.78284939188185,40.45892229253664,320.4906476440429,0.0261193737387657,-0.0094151198863983,0.6388413906097412,0.7688374519348145,0.1519408625296626,0.0770478424064032,2.955879519006083,0.0572947077453136,0.0996381938457489,0.0283210128545761,0.0719759356230497,0.5213836116716266,-9.626132549643517,14985.0
42.4,3.5,243.0,23.81650924682617,23.75194931030273,-79.78284942578264,40.45892240621645,320.79452642822264,0.0250056888908147,-0.0080952234566211,0.6389643549919128,0.7687872648239136,0.1654716504516841,0.0877703396835983,2.972280613536745,0.0816737413406372,-0.0303296335041522,0.1137503013014793,0.1950015539489686,0.2676449857838452,-9.80383469581604,14985.0
42.5,3.5,242.0,23.96049499511719,20.984731674194336,-79.78284949124206,40.45892241402375,321.39094671630863,0.0230496283620596,-0.0115690371021628,0.6389672160148621,0.7688015699386597,0.1537915206310601,0.0746105430271456,2.9886973193000395,0.0245450586080551,-0.0168102420866489,0.0189022272825241,0.1919333188980818,0.3961728705838322,-9.769496337175369,14986.0
42.7,3.5,242.0,23.86408615112305,22.535327911376957,-79.78284948009967,40.45892244466759,321.9886601867676,0.0240697376430034,-0.0143143152818083,0.6392419338226318,0.7684956192970276,0.1734348574405212,0.0469327128531038,2.982564657656795,0.0878499895334243,0.0711240917444229,0.0380298234522342,0.1214585462585091,0.4588511851429939,-9.753045780658724,14986.0
42.9,3.5,245.0,23.798980712890625,23.00448226928711,-79.78284955014578,40.45892241716332,322.2860196533203,0.0256005153059959,-0.0131859891116619,0.6392396092414856,0.7684682607650757,0.159893521734694,0.0573215202655757,2.982493291805024,-0.0865522399544715,0.0149969793856143,0.0106264753267169,0.0361201468622312,0.4061096654087305,-9.70259308040142,14987.0
43.0,3.5,245.0,23.696311950683597,25.024232864379893,-79.78284955293982,40.45892241832488,322.5837605895996,0.0265623368322849,-0.0117336977273225,0.6388421058654785,0.7687897682189941,0.1518749734346143,0.0665730885141834,2.968084276935305,0.0416223183274269,0.091934397816658,0.0110904406756162,0.0947551711834967,0.5306164017319679,-9.600802411437035,14987.0
43.11,3.5999999046325684,244.0,23.79021644592285,23.266889572143555,-79.78284957114245,40.45892246560828,323.1741803588867,0.0218829307705164,-0.0061867972835898,0.6381270885467529,0.7695952653884888,0.144508386511411,0.0736940716232782,2.9785304570732523,-0.0018245043465867,-0.050801683217287,0.091658130288124,0.1151636714302003,0.292666372731328,-9.910580295324326,14988.0
43.3,3.5999999046325684,244.0,23.81650924682617,22.583038330078125,-79.78284965041674,40.458922492595136,323.7682736816406,0.025631234049797,-0.0125789223238825,0.6375749111175537,0.7698591947555542,0.1275950154517598,0.0722598066640869,2.9969387473880222,-0.1741382032632827,-0.0184096116572618,-0.0750148892402648,0.1040240495279431,0.5756935739144683,-9.872354707717896,14988.0
43.41,3.5999999046325684,241.0,23.83278465270996,21.92304039001465,-79.78284963814157,40.45892250763861,324.0680821838379,0.0270615369081497,-0.0164170563220977,0.6382119655609131,0.7692098021507263,0.1776250313547012,0.0561180259785919,2.9878673137829264,0.0248074438422918,-0.0376652181148529,-0.0433157794177532,0.21547166923061,0.4612688626348973,-9.839583402872083,14989.0
43.6,3.5999999046325684,244.0,23.825273513793945,23.083999633789062,-79.78284971569134,40.45892255327494,324.6589864196777,0.0257164295762777,-0.0175256431102752,0.6392654776573181,0.768356204032898,0.2017847535841408,0.0495608084424663,2.9725171856507813,0.1493593156337738,0.0382002852857112,0.0874531641602516,0.2165422944165766,0.3807373907044529,-9.794508386850357,14989.0
43.8,3.5999999046325684,244.0,23.84154891967773,22.94086837768555,-79.78284971904614,40.458922552451,324.9576161804199,0.0248559340834617,-0.0167368855327367,0.6395630240440369,0.7681544423103333,0.1632943417209703,0.0563030327035446,2.986138636521925,-0.060602456331253,-0.0399433113634586,0.0031490095425397,0.1443981325719505,0.5043254198133946,-9.866348447799684,14989.0
43.9,3.5999999046325684,244.0,23.77644348144531,23.839418411254893,-79.78284980242782,40.45892253557768,325.25013479614256,0.0235862620174884,-0.0154115986078977,0.6398817896842957,0.7679566740989685,0.1593222470224263,0.0570960420143939,2.9828646907342096,0.1163612604141235,0.0851105824112892,0.0794756859540939,0.1729522336274385,0.4111877894774079,-9.797535490393637,14990.0
44.1,3.5999999046325684,244.0,23.79021644592285,23.577009201049805,-79.78284987912099,40.45892243519551,325.83796820068363,0.0204043630510568,-0.0092935925349593,0.640453577041626,0.7676694989204407,0.1147201783846171,0.0637647318229856,2.9801572943223764,0.1107985600829124,0.0795904099941253,0.0434456579387188,0.1444129607453942,0.3812607530504465,-9.825382854938509,14990.0
44.2,3.5999999046325684,241.0,23.8465576171875,23.05219268798828,-79.78284989455842,40.45892240625832,326.13696417236326,0.02093256264925,-0.0085168313235044,0.6407186985015869,0.7674431204795837,0.0945611871303141,0.0655060340359822,2.9937231715229533,0.0195472240447998,-0.0371914058923721,0.0530880987644195,0.1539931302331388,0.3368916421383619,-9.906971393823625,14991.0
44.31,3.5999999046325684,241.0,23.78520774841309,23.17942047119141,-79.78285002397064,40.458922379996366,326.7275708618164,0.0222201086580753,-0.0103191584348678,0.6401603817939758,0.7678505778312683,0.1052921348509092,0.0786233339115285,2.98522238280204,0.0875707566738128,-0.0622227489948272,0.0685742124915123,0.2607301964610815,0.2351966847851873,-9.862476421594618,14991.0
44.5,3.5,241.0,23.75390625,24.483510971069336,-79.78285010256046,40.45892233974625,327.31909689331053,0.0217348989099264,-0.0092501007020473,0.640694260597229,0.7674326300621033,0.1146121375403525,0.0766377333410508,3.0007637963087457,0.1326292902231216,-0.0831537470221519,0.0831240490078926,0.2845200684294105,0.2373534302785993,-10.004829225540162,14992.0
44.7,3.5,242.0,23.84029769897461,22.19340133666992,-79.78285012198656,40.45892231652349,327.6208814086914,0.0217675380408763,-0.0077687595039606,0.6409534215927124,0.767231822013855,0.0877601280365157,0.0812899503628217,3.0252956848294934,-0.0836480036377906,0.0170264020562171,-0.1079883500933647,0.1709182613901794,0.5745517223328352,-9.91772676229477,14992.0
44.8,3.400000095367432,240.0,23.70758056640625,24.300621032714844,-79.78285023896125,40.45892228609837,328.21441015625,0.022422207519412,-0.005513044539839,0.6409748792648315,0.7672145962715149,0.0835976070417073,0.0953150061090135,3.0090173656836168,-0.0954752415418624,-0.003408572403714,-0.081619031727314,0.233192240986973,0.6690512788295746,-9.830059458017349,14993.0
45.0,3.400000095367432,239.0,23.7251091003418,24.276765823364247,-79.78285025183584,40.45892226625861,328.51568350219725,0.0214187186211347,-0.005304058548063,0.6412109136581421,0.7670474648475647,0.1025758177832072,0.0835587427507883,3.0060391661365085,0.1119261980056762,-0.0394653268158435,0.0496123097836971,0.3382611331343651,0.2404915761016309,-9.862960571050644,14993.0
45.1,3.400000095367432,239.0,23.68128776550293,25.11170196533203,-79.78285039255418,40.45892229725968,329.1152623596191,0.0192189943045377,-0.0060510984621942,0.6411561965942383,0.7671459913253784,0.1120063725333764,0.0902053115823345,3.0153963671386066,0.1634178608655929,-0.057992048561573,0.0443245321512222,0.3352187537401915,0.2927160740643739,-9.9594115626812,14994.0
45.3,3.299999952316284,240.0,23.80524063110352,22.73412132263184,-79.78285041439412,40.45892229450202,329.4184735717773,0.0178815536201,-0.0068471631966531,0.6406955718994141,0.7675562500953674,0.0864432350968294,0.0891276272904739,3.0355794042902544,-0.1473592519760131,-0.0209328848868608,-0.0858222246170044,0.1726800091937184,0.6731441836059093,-9.867839487791064,14994.0
45.4,3.299999952316284,237.0,23.80023193359375,22.55918312072754,-79.78285051961085,40.45892222500739,330.01657232666014,0.0184784233570098,-0.0062497430481016,0.6391137838363647,0.7688648104667664,0.0861296321459721,0.0834456098804878,3.0405870437607394,-0.131681814789772,-0.0389764718711376,-0.0470382869243621,0.2177770253643392,0.4430900153517723,-9.858654681444168,14995.0
45.6,3.2000000476837163,235.0,23.70883178710937,24.45965576171875,-79.78285051137844,40.45892213835979,330.3140653076172,0.0189970377832651,-0.0063385893590748,0.6385866403579712,0.7692893743515015,0.0850090741307702,0.0644176871461167,3.0273051975486216,0.0415885783731937,0.0293236393481493,0.0437019951641559,0.1501784432865679,0.3281095993146301,-9.788642460107804,14995.0
45.7,3.2000000476837163,234.0,23.69380760192871,24.316524505615234,-79.78285051891446,40.45892212707209,330.6173642578125,0.020288560539484,-0.0062354248948395,0.6390084028244019,0.7689069509506226,0.0888119732547341,0.0667748930778201,3.0377941385058147,-0.0419304817914962,-0.0566771738231182,0.0202194098383188,0.2823187379166484,0.2110602556541562,-9.93871241927147,14995.0
45.8,3.2000000476837163,232.0,23.72636032104492,23.34640884399414,-79.78285049435286,40.45892202590328,331.2190106811523,0.0219420529901981,-0.0054403776302933,0.6405404210090637,0.7675917148590088,0.0918079442497339,0.0687067321980885,3.055653306728656,0.1252680420875549,0.0918427780270576,-0.007275067269802,0.2927158913388849,0.2073534863814712,-9.99148003220558,14996.0
46.0,3.0999999046325684,231.0,23.64497756958008,25.44567680358887,-79.78285059106803,40.45892202273125,331.82181295776365,0.0199351906776428,-0.0020585320889949,0.6420682072639465,0.7663856148719788,0.0992624848173581,0.0846314272577872,3.038626994591892,0.1997377425432204,0.0369799621403217,0.0193481221795082,0.3178475165739655,0.1306497936788946,-9.855176757574082,14996.0
46.1,3.0999999046325684,230.0,23.81275177001953,22.17749786376953,-79.7828505966104,40.45892200845051,332.1270078125,0.0182609688490629,-0.0006829951889812,0.6420552134513855,0.7664405703544617,0.0653684147092063,0.0881134041932463,3.0559538737653047,-0.0893941670656204,-0.0657452419400215,-0.0379560068249702,0.147088774535805,0.3447220140695572,-9.857936643362043,14997.0
46.3,3.0999999046325684,230.0,23.72636032104492,23.131710052490234,-79.78285059602574,40.45892199815368,332.4325269165039,0.017730489373207,-0.0009025510516948,0.6412397623062134,0.7671352028846741,0.0726668816764107,0.0732021979232734,3.0520601036943447,0.0968297272920608,0.0467582419514656,0.0727954357862472,0.1858510269038379,0.2510845381580293,-9.808185608983038,14997.0
46.5,3.0999999046325684,227.0,23.8465576171875,20.96087646484375,-79.78285066954679,40.45892200713704,333.0475705566406,0.0179291777312755,-0.0016670785844326,0.6399281620979309,0.7682238221168518,0.0779374418711167,0.0853983951379769,3.1102013558161152,-0.0551362670958042,0.017404431477189,-0.0245740301907062,0.2090769531950354,0.4723793032765389,-10.094606205224991,14998.0
46.6,3.0999999046325684,230.0,23.80524063110352,22.209304809570312,-79.78285071792372,40.458922070893614,333.3545087280273,0.0183974765241146,-0.0027030003257095,0.6394898295402527,0.7685747146606445,0.1054595425125732,0.0854275672016916,3.1246689455998182,-0.0046822801232337,-0.0130659164860844,0.0321660041809082,0.2262027169391513,0.2488148683123291,-10.020132558345797,14998.0
46.7,3.0999999046325684,229.0,23.825273513793945,22.225208282470703,-79.78285071595961,40.45892212509544,333.97521337890623,0.0203054547309875,-0.0052886866033077,0.6402397751808167,0.7678885459899902,0.130918818794982,0.076923569278845,3.072046001050692,0.0234103854745626,0.0538049191236496,-0.0148872258141636,0.2416086683794856,0.4926685568690301,-9.530858602523804,14998.0
46.9,3.0999999046325684,229.0,23.78771209716797,22.74207305908203,-79.78285071112417,40.45892211698942,334.59552893066405,0.0194631908088922,-0.0067793992348015,0.6422684788703918,0.7662026882171631,0.1425955912202202,0.067555671173251,3.0773829058127142,0.0656141117215156,0.0052936365827918,-0.0745874196290969,0.1626376903988421,0.5149111459404231,-9.764696942567824,14999.0
47.1,3.2000000476837163,230.0,23.81150054931641,22.241111755371094,-79.78285056761251,40.45892211219635,335.214783996582,0.0183321461081504,-0.007177357096225,0.6445037722587585,0.7643476724624634,0.1408628541220621,0.0284149933687307,3.0627648001077024,0.1360964775085449,0.0795845836400985,-0.027758989483118,0.1328191563673317,0.3115994377434254,-9.817435319423677,15000.0
47.2,3.2000000476837163,232.0,23.69380760192871,24.777727127075195,-79.78285052827403,40.45892213761207,335.5205930175781,0.0179412178695201,-0.0074248732998967,0.6447481513023376,0.7641485333442688,0.1423527134593813,0.0353115175828649,3.0547578949290384,-0.1159229129552841,-0.0190030764788389,-0.1510139107704162,0.1820608251728116,0.4999907692149282,-9.699646668434143,15000.0
47.3,3.299999952316284,234.0,23.74514198303223,23.95869445800781,-79.78285053211161,40.458922254974645,335.83669409179686,0.0174042787402868,-0.0087351789698004,0.6443895101547241,0.7644495368003845,0.1662558363884056,0.0402440985947325,3.0818393717105383,0.1116922199726104,0.004644023720175,0.0820389539003372,0.2255842459760606,0.3526880414038896,-9.847467788457871,15000.0
47.5,3.299999952316284,235.0,23.97551918029785,19.33871459960937,-79.78285048004679,40.45892235573631,336.4582608642578,0.0199398584663868,-0.0099835814908146,0.6422540545463562,0.7661674618721008,0.1834242353699881,0.0363222466826576,3.082196539057287,0.0456639267504215,0.0342791527509689,0.056995440274477,0.180214292742312,0.4847329716011882,-9.602874079942705,15001.0
47.6,3.299999952316284,237.0,23.78520774841309,22.85339736938477,-79.78285045605722,40.45892241082755,336.76452764892576,0.0209163688123226,-0.0105477217584848,0.6417896747589111,0.7665228247642517,0.1759516127066954,0.0547614185362506,3.0344512032775266,-0.2173238545656204,-0.0561600625514984,-0.115307793021202,0.2748906909674406,0.5989288009330631,-9.43126590192318,15001.0
