time,wind_speed,wind_angle,battery_voltage,battery_current,position_x,position_y,position_z,orientation_x,orientation_y,orientation_z,orientation_w,velocity_x,velocity_y,velocity_z,angular_x,angular_y,angular_z,linear_acceleration_x,linear_acceleration_y,linear_acceleration_z,node_ids
0.0,1.2000000476837158,179.0,23.74138641357422,-0.055662415921688,-79.7828167993583,40.458939111385824,268.866645613432,0.0090523259714245,0.0119934435933828,0.8194007277488708,0.5730241537094116,-0.0033790889005472,0.0078744846460705,-0.012984383909552,0.0037671406753361,0.0014880432281643,0.0005212678224779,0.2877241233363748,0.0095890419522766,-9.806530262231828,14933.0
0.1,1.2999999523162842,182.0,23.742637634277344,-0.0715659633278846,-79.78281693794254,40.45893907449479,268.8470173568726,0.0090478472411632,0.0119905322790145,0.8193992972373962,0.5730263590812683,-0.0018895313245386,0.009225867052964,-0.0105185882598624,-0.0014997276011854,-5.5098344091675244e-06,0.0049552358686923,0.2889057908020914,0.0029134928283747,-9.80642910540104,14933.0
0.3,1.2999999523162842,184.0,23.74388885498047,-0.0636141896247863,-79.78281695623023,40.45893906509061,268.84496782135966,0.0090402718633413,0.0119941411539912,0.8193924427032471,0.5730363130569458,-0.0027030765155123,0.008328969641371,-0.0104447006394902,-0.0020942161791026,-0.0008097251993604,0.005950704216957,0.2850999477691948,0.0113261686381883,-9.805248552560808,14933.0
0.4,1.399999976158142,183.0,23.73637771606445,-0.0477106422185897,-79.78281707068572,40.458939029397634,268.8256340117455,0.0090253129601478,0.0120045430958271,0.8193839788436891,0.5730483531951904,-0.0025118814401801,0.0066328503799646,-0.0089821344929187,-0.0001961660891538,-0.000133424255182,-0.0033426736481487,0.2859682227484882,0.0131622685852926,-9.805819240808487,14933.0
0.61,1.399999976158142,183.0,23.74764633178711,-0.055662415921688,-79.78281719895469,40.45893899050124,268.8036397190094,0.0090138763189315,0.0120222652330994,0.8193765878677368,0.5730587244033813,-0.0026852515623618,0.0052993608162002,-0.010445656428014,-0.0015940536977723,2.528026743675582e-05,-0.0071919704787433,0.2899863927997649,0.0019416124967392,-9.80906386077404,14933.0
0.71,1.399999976158142,184.0,23.74013328552246,-0.0477106422185897,-79.78281720369175,40.45893898658069,268.80261100244525,0.0090213185176253,0.0120148304849863,0.8193826675415039,0.5730501413345337,-0.00269691134774,0.0046169375141757,-0.0104499062402146,0.0019734762609004,-0.0016989315627142,0.0040290486067533,0.2902207930572331,0.0010543346375925,-9.809202439785004,14933.0
0.9,1.399999976158142,182.0,23.74138641357422,-0.0715659633278846,-79.7828173325032,40.458938998164136,268.7823134453297,0.0090008685365319,0.0120421154424548,0.8193793296813965,0.5730545520782471,0.0053086525720641,0.0009811380661264,-0.0090221837917677,0.0013622967526316,0.0041486262343823,0.005184113048017,0.2861768769845366,0.0148148904426489,-9.806365370750427,14933.0
1.0,1.399999976158142,185.0,23.742637634277344,-0.0318070948123931,-79.78281733563807,40.45893900197736,268.78142195355895,0.0089857187122106,0.0120611395686864,0.8193789720535278,0.5730549097061157,0.0044021040005593,0.0005803512034979,-0.0088074441377352,-0.0027518076822161,-0.0012697457568719,-0.0076982015743851,0.2862306530959904,0.0145174133463297,-9.806156625151637,14933.0
1.2,1.399999976158142,185.0,23.74764633178711,-0.0477106422185897,-79.78281752509953,40.45893896810296,268.76161296081546,0.0089752655476331,0.0120492912828922,0.819379985332489,0.5730538964271545,0.0044832546360039,0.0070427593237736,-0.007959220926644,-0.0045377472415566,-0.0011839255457744,-0.0075091011822223,0.2902559494413436,0.0002287543253623,-9.807840623259542,14933.0
1.31,1.399999976158142,186.0,23.74764633178711,-0.0318070948123931,-79.78281753467343,40.45893896993656,268.7608373553753,0.0089752655476331,0.0120492912828922,0.819379985332489,0.5730538964271545,0.004927746105538,0.0063116798180206,-0.0079936549847911,0.0031669137533754,-0.0011166824260726,0.0042456719093024,0.2904956670105457,0.00023861065245,-9.80882295548916,14933.0
1.5,1.399999976158142,185.0,23.748897552490234,-0.0238553211092948,-79.7828176871154,40.458938927834566,268.7396916986704,0.0089725609868764,0.0120432097464799,0.8193774819374084,0.5730576515197754,0.0022847499872707,0.0075978818129065,-0.0096652013891455,0.0053840442560613,0.0028807090129703,0.0024397503584623,0.2862428043410182,0.0150012030615471,-9.8066097843647,14933.0
1.6,1.399999976158142,186.0,23.74639320373535,-0.0318070948123931,-79.78281778831119,40.45893887969073,268.7198689223528,0.0089774616062641,0.0120416665449738,0.8193745017051697,0.573062002658844,-0.0038623246878084,0.0036764875685283,-0.0108681250608955,-0.0024774139747023,-0.0017792308935895,-0.0067761288955807,0.2873955646343529,0.0141868572263047,-9.805725685358048,14933.0
1.8,1.2999999523162842,186.0,23.74639320373535,-0.0238553211092948,-79.78281779272922,40.4589388713064,268.7177006543875,0.0089774616062641,0.0120416665449738,0.8193745017051697,0.573062002658844,-0.0043735302429786,0.0025610470674211,-0.0108425883236858,-0.0038469738792628,-0.0004258270782884,-0.0097469072788953,0.2898986480198801,0.0007740273133094,-9.8080786049366,14933.0
1.91,1.2999999523162842,186.0,23.748897552490234,-0.0318070948123931,-79.78281795643234,40.45893884590007,268.69809711885455,0.0089690070599317,0.0120374672114849,0.8193720579147339,0.5730655193328857,-0.0011555316729063,0.0053758713399952,-0.012103544538813,0.0080287205055356,0.0016669476171955,0.0073606669902801,0.2897953898459673,0.0006125639333913,-9.8074745875597,14933.0
2.1,1.2000000476837158,186.0,23.742637634277344,-0.0238553211092948,-79.78281812439677,40.45893884110136,268.68009802114966,0.0089592477306723,0.0120376423001289,0.8193705081939697,0.5730680823326111,0.0039620916935696,0.0060942179088663,-0.0088412518886927,0.0061550918035209,-0.0002909813483711,0.0066480664536356,0.2871595015749335,0.0137416819750797,-9.805954896211622,14933.0
2.2,1.2000000476837158,184.0,23.74764633178711,-0.0318070948123931,-79.78281813272265,40.458938842082574,268.6792423517704,0.0089569082483649,0.0120437713339924,0.8193578720092773,0.5730859637260437,0.0029385579061996,0.0058512948462132,-0.0086158044501137,-0.0037130755372345,-0.0023504812270402,-0.0056971097365021,0.2873721757717431,0.0139752839505672,-9.80576720058918,14933.0
2.4,1.2000000476837158,183.0,23.748897552490234,-0.0318070948123931,-79.7828182897288,40.458938820150216,268.66118427526953,0.0089608561247587,0.0120578147470951,0.8193588256835938,0.5730842351913452,0.0027050173029807,0.0066892249745321,-0.0076835497355892,-0.0051997154951095,-0.0024198852479457,-0.0054941922426223,0.289797144010663,0.0018373736008652,-9.807902019023896,14933.0
2.51,1.2000000476837158,183.0,23.75015068054199,-0.0318070948123931,-79.78281829814392,40.45893882066551,268.6604284064174,0.0089628240093588,0.0120559120550751,0.8193595409393309,0.573083221912384,0.0032877823211223,0.0058523970812696,-0.0078505826631254,0.0037554642185568,0.0005814548349007,0.0047592362388968,0.2889937365800142,0.0017839450961037,-9.80784120798111,14933.0
2.7,1.100000023841858,181.0,23.75015068054199,-0.0318070948123931,-79.7828184434413,40.45893881092852,268.64259813886883,0.0089829126372933,0.0120698232203722,0.819361686706543,0.5730794668197632,0.0043928208509689,0.0037483768865547,-0.0069346814561706,0.0065880501642823,-0.0009671399020589,0.004817587789148,0.2858522468805313,0.0140427370648831,-9.807028445005418,14933.0
2.8,1.100000023841858,178.0,23.75015068054199,-0.0397588685154914,-79.78281844919238,40.458938813032645,268.641928778708,0.0089938277378678,0.0120841739699244,0.8193612694740295,0.5730796456336975,0.0033279453383645,0.0033959679570056,-0.0067027375927148,-0.0054627927020192,-0.0005702970083802,-0.0073929792270064,0.2868981127627194,0.0139009797724429,-9.806035587787626,14933.0
3.0,1.100000023841858,175.0,23.74388885498047,-0.0238553211092948,-79.7828185907133,40.45893877321087,268.6224012614489,0.009009338915348,0.0120724840089678,0.8193472027778625,0.5730998516082764,-0.0008008751980337,0.0033706284511151,-0.0090508883457252,-0.0060663348995149,-0.0018495776457712,-0.0055096880532801,0.290244583915919,0.0008692756868549,-9.808183854818344,14933.0
3.1,1.0,174.0,23.74514198303223,-0.0238553211092948,-79.78281876213092,40.45893875398596,268.60671445515754,0.0090052252635359,0.0120660169050097,0.8193508386611938,0.5730947852134705,0.001297381219141,0.0062380376925763,-0.0071615592515782,0.0030752366874367,0.0015869541093707,0.0049670063890516,0.2888858737237752,0.0012003317323978,-9.807904357910155,14933.0
3.3,1.100000023841858,174.0,23.75015068054199,-0.0159035474061965,-79.78281877597247,40.458938751299975,268.6053403892816,0.0090207643806934,0.0120702665299177,0.8193615078926086,0.5730791687965393,0.0006409929121468,0.0050870144685818,-0.0071394810787316,0.0078638698905706,-0.00111115060281,0.0062004947103559,0.2875923051685095,0.0117520252370741,-9.806081780791285,14933.0
3.4,1.100000023841858,174.0,23.74639320373535,-0.0318070948123931,-79.78281891238599,40.45893874733433,268.58962277111414,0.0090151289477944,0.0120714278891682,0.8193590641021729,0.5730827450752258,0.0015458095641258,0.0039634949938958,-0.0064646356915516,-0.0045702885836362,0.0032953317277133,-0.0043108891695737,0.286768231485039,0.009011050966219,-9.80656300663948,14933.0
3.6,1.100000023841858,172.0,23.75140190124512,-0.0318070948123931,-79.78281908846549,40.45893869634131,268.57336172622445,0.0090114818885922,0.0120581351220607,0.8193574547767639,0.5730853080749512,-0.0039830563814788,0.0100205112104844,-0.0062046402714682,-0.0023671181406825,-0.0036888292524963,0.0002704950456973,0.2886316477507353,0.0051612002123147,-9.806655977368356,14933.0
3.7,1.100000023841858,171.0,23.74013328552246,-0.0318070948123931,-79.78281909779345,40.45893868998383,268.5727653798908,0.0090114818885922,0.0120581351220607,0.8193574547767639,0.5730853080749512,-0.0040100394109767,0.0094123081129865,-0.0062519598764664,0.0031500631012022,0.0015892898663878,-0.0048936619423329,0.2870144540816545,0.0097937892889603,-9.80552746474743,14933.0
3.9,1.100000023841858,175.0,23.74764633178711,-0.0477106422185897,-79.78281924464805,40.458938707102455,268.5569181858823,0.0089964102953672,0.0120651461184024,0.819355309009552,0.5730886459350586,0.0020664118755959,0.0051398654889495,-0.005482606252594,0.0016115687321871,-0.0013796825660392,-0.0050701578147709,0.2898103733360767,0.0016730151639785,-9.808713027834893,14933.0
4.0,1.100000023841858,170.0,23.75140190124512,-0.0397588685154914,-79.78281925115668,40.45893870737297,268.55637979016456,0.0089898770675063,0.0120649598538875,0.8193536400794983,0.5730910301208496,0.0023864221094561,0.0045074803844115,-0.005618643693626,0.0035354238934814,0.0002549102937337,0.0044784434139728,0.2891321876831353,0.0016991183566278,-9.808347576856614,14933.0
4.21,1.100000023841858,170.0,23.74764633178711,-0.0397588685154914,-79.7828194294392,40.45893868867197,268.54108224457883,0.0089622875675559,0.0120875546708703,0.8193514943122864,0.5730940699577332,0.0029408853063208,0.0067411186698038,-0.0047468287801421,0.0082474332302808,-0.0001115830091293,0.0071683428250253,0.2869558174721897,0.0127990160230547,-9.80601453781128,14933.0
4.3,1.100000023841858,169.0,23.75140190124512,-0.0318070948123931,-79.78281943780163,40.45893868865908,268.54063978207114,0.008956953883171,0.0120899248868227,0.8193616271018982,0.5730796456336975,0.0020171938961169,0.006373211201218,-0.0045553725623754,-0.0044356849975883,-0.0018824411090463,-0.002971310634166,0.2875740326195955,0.0087934003549162,-9.807581006884575,14933.0
4.5,1.100000023841858,170.0,23.742637634277344,-0.0238553211092948,-79.78281958514815,40.45893870598812,268.52554556888344,0.0089552225545048,0.0121048940345644,0.8193656206130981,0.5730735063552856,0.0058095312957817,0.003245101025339,-0.0043740459438641,-0.0036577619612216,0.0002350482245674,0.0057939081452786,0.2880948002636433,0.0070404193777358,-9.807117322683334,14933.0
4.61,1.100000023841858,169.0,23.75766181945801,0.0318070948123931,-79.78281975948066,40.458938665852855,268.5109650732279,0.0089731067419052,0.0121015068143606,0.8193621039390564,0.5730785131454468,0.0020907111591398,0.0090081829719119,-0.0044795486399068,0.0017237910069525,0.002996010472998,-0.0035680688451975,0.2859879753738641,0.0131673951772972,-9.806723220348356,14933.0
4.8,1.0,167.0,23.75265312194824,-0.0238553211092948,-79.78281977996647,40.45893866384964,268.51011701461675,0.0089937159791588,0.0121303042396903,0.8193615674972534,0.5730782151222229,0.0014316528272162,0.0078278464782231,-0.0043955984349769,-0.0050944229587912,0.0009521471802145,-0.0065259654074907,0.2900272136740386,0.001680279073189,-9.808623565435411,14933.0
4.9,1.0,168.0,23.74138641357422,-0.0397588685154914,-79.7828199145782,40.458938648618286,268.4956059546471,0.0089966738596558,0.0121256560087203,0.8193657994270325,0.5730722546577454,0.0015792078942102,0.0059237751182772,-0.0041923028122261,0.0043332502245903,-0.0003741097461897,0.0055706547573208,0.2898358818143606,0.0008455382182728,-9.80924220085144,14933.0
5.1,1.0,167.0,23.74013328552246,-0.0238553211092948,-79.78282008243514,40.45893863750933,268.4805582405329,0.0089898714795708,0.0121309962123632,0.8193630576133728,0.5730761289596558,0.0022757562340656,0.0074130375987328,-0.0041653089934226,0.0050880759954452,0.0018827792955562,0.0043548927642405,0.2872911187447608,0.011972264269134,-9.806934304833412,14933.0
5.21,1.0,165.0,23.74639320373535,-0.0318070948123931,-79.78282009124871,40.45893863670847,268.48017145854243,0.0089922146871685,0.0121184876188635,0.8193646669387817,0.5730741024017334,0.0012976466437137,0.0070547516344819,-0.0040387163017341,-0.007262953557074,0.0002691962872631,-0.0032402186188846,0.2882499159313738,0.0070812659477815,-9.80705768108368,14933.0
5.4,1.0,165.0,23.742637634277344,-0.0238553211092948,-79.7828200993525,40.45893863590117,268.47978625607493,0.0089911082759499,0.0121240383014082,0.8193488717079163,0.5730966925621033,0.0016868982098738,0.0062599573531611,-0.0040387174147153,0.001439771731384,0.0022795957047492,0.0018928734352812,0.2882957252115011,0.0071604397601913,-9.80715591430664,14933.0
5.5,1.0,165.0,23.74764633178711,-0.0318070948123931,-79.78282023554117,40.458938638192095,268.46517859560254,0.0090255960822105,0.012115272693336,0.819349467754364,0.573095440864563,0.0028986161458356,0.0040619416957136,-0.0040158332659563,0.0004049417329952,-0.0023339053150266,0.0001195209333673,0.2858151170611381,0.0117662138713058,-9.807203276753429,14933.0
5.7,1.100000023841858,165.0,23.74388885498047,-0.0238553211092948,-79.78282038616798,40.45893862836493,268.45019405496123,0.0090183587744832,0.0121160028502345,0.8193453550338745,0.5731012225151062,0.0024811493983781,0.0051655739461867,-0.0042085878814465,-0.0011917410884052,1.28791816678131e-05,-0.0073048779740929,0.2901734123378992,0.0016437162738293,-9.809261496663094,14933.0
5.8,1.100000023841858,163.0,23.74388885498047,0.0397588685154914,-79.78282039268295,40.45893862901335,268.4497805030346,0.0090165818110108,0.0121027966961264,0.8193287253379822,0.5731254816055298,0.0027615703508776,0.0043756212763005,-0.0043514906215747,0.0016061082715168,0.0022461018525063,0.0060129817575216,0.2897078643366694,0.0008334562090749,-9.808135907649994,14933.0
6.0,1.100000023841858,165.0,23.74138641357422,0.0318070948123931,-79.7828205173427,40.458938643173305,268.4354373158217,0.0089952535927295,0.0121170841157436,0.8193151354789734,0.573144793510437,0.0047316764352644,0.0017186211870224,-0.0042460964211996,0.005976129323244,0.0010917970212176,0.0020721484906971,0.2873203913681209,0.0117710298299789,-9.805770708918573,14933.0
6.1,1.2000000476837158,165.0,23.74013328552246,0.0397588685154914,-79.78282065817355,40.45893863505307,268.4194499642849,0.0089959995821118,0.0121199358254671,0.8193172812461853,0.5731417536735535,0.0039998736290024,0.0045346536717366,-0.0070585179942355,-0.0018310672603547,-0.0028263013809919,-0.0003260512894485,0.2863561306893826,0.0055425791430752,-9.808247589468955,14933.0
6.3,1.2000000476837158,169.0,23.738882064819336,0.0477106422185897,-79.78282066472434,40.45893863725168,268.41875931036475,0.0089964102953672,0.0121240746229887,0.8193082809448242,0.5731545090675354,0.0042298489321349,0.0039392196383916,-0.0070134361857901,0.0002604993351269,0.0002755371097009,-0.0012566056102514,0.2879366148076952,0.0107705015677493,-9.8063355499506,14933.0
6.4,1.2000000476837158,170.0,23.738882064819336,0.0159035474061965,-79.78282078107226,40.458938652324136,268.40300401461127,0.0089969336986541,0.0121279619634151,0.8193023204803467,0.5731629133224487,0.0053166196226869,0.0016687143124972,-0.0086423644821708,-0.0030962207820266,-0.003355004126206,-0.0077158287167549,0.2858082648552954,0.01486136096064,-9.806523245573043,14933.0
6.6,1.2000000476837158,170.0,23.72636032104492,0.1590354740619659,-79.78282092824662,40.4589386445002,268.3892736823559,0.0089781330898404,0.0121444482356309,0.8193032145500183,0.5731617212295532,0.0031435078196815,0.0067281023569695,-0.0075387606209941,-0.0058515942655503,-0.0013916731113567,-0.0048649981617927,0.2910425826720894,0.000875850378361,-9.809067953824998,14933.0
6.7,1.2000000476837158,171.0,23.73387336730957,0.0238553211092948,-79.7828209369119,40.45893864540412,268.3885291756392,0.0089815640822052,0.0121461916714906,0.8192967772483826,0.5731707215309143,0.0037568902232239,0.0058544119162128,-0.0077607195231394,0.0046168123371899,-0.0001842215424403,0.002308547263965,0.2890764381363988,0.0019440079136984,-9.807718416452408,14933.0
6.9,1.2000000476837158,172.0,23.74013328552246,0.0238553211092948,-79.78282109951456,40.458938648180286,268.376118937254,0.0089955274015665,0.0121592571958899,0.8192902207374573,0.5731795430183411,0.0050101712807974,0.009998538486655,-0.0063374591991769,0.0036974677350372,0.0021857153624296,0.0005732235731557,0.2869671647250652,0.0091352517652558,-9.806965295076369,14933.0
7.0,1.2000000476837158,171.0,23.74514198303223,0.0318070948123931,-79.78282111240323,40.45893864903268,268.37552345705035,0.0090127866715192,0.0121358251199126,0.8192898035049438,0.5731804370880127,0.0043862106699733,0.00951005550722,-0.0061862145106191,-0.0039296369068324,0.0004227169847581,0.0022632130421698,0.2877611617930233,0.0035418817884055,-9.808270393610002,14933.0
7.2,1.2000000476837158,172.0,23.737628936767567,0.0238553211092948,-79.78282119000927,40.45893861648089,268.3632534981966,0.0090164002031087,0.0121470503509044,0.8192814588546753,0.5731920599937439,-0.0040093504351659,0.0050652438528557,-0.0053200509770013,0.00285205245018,0.0004273309314157,0.0036098174750804,0.2864554419927299,0.0116985860257409,-9.806149023771288,14933.0
7.31,1.100000023841858,175.0,23.74138641357422,0.0318070948123931,-79.78282119371684,40.458938611441695,268.36274274599555,0.0090025486424565,0.0121393604204058,0.8192706108093262,0.5732079744338989,-0.0044819692242541,0.0044075661672045,-0.0051388453021829,-0.0033930141944438,0.0013580790255218,-0.0055272448807954,0.2852869307622314,0.0137240478233434,-9.80622854590416,14933.0
7.5,1.100000023841858,175.0,23.742637634277344,0.0477106422185897,-79.78282129111159,40.45893863858501,268.35149342727664,0.0090130539610981,0.012142882682383,0.8192691802978516,0.5732097625732422,-0.0015852787196238,0.0018839230165887,-0.004557170373157,-0.0028798358980566,-0.0025597962085157,-0.0058822087012231,0.2894845737889409,0.0010182948899455,-9.80916735649109,14933.0
7.6,1.100000023841858,176.0,23.74013328552246,0.0477106422185897,-79.7828213643158,40.45893865727529,268.3430519939661,0.0090228635817766,0.0121393967419862,0.8192672133445741,0.5732124447822571,-0.0012059474151962,-0.0011252748654111,-0.0015979642782334,0.0054998821578919,0.0002984051825478,0.0045455959625542,0.2904623561538756,0.001089538059241,-9.80823121726513,14933.0
7.8,1.100000023841858,176.0,23.748897552490234,0.0397588685154914,-79.78282135907419,40.4589386551454,268.34273503136643,0.0090300645679235,0.0121297342702746,0.8192668557167053,0.5732129812240601,-0.0018370458608655,-0.0025548413595266,-0.0015801652508534,0.0050116423517465,0.0030568747315555,0.0021775758359581,0.2867178723402321,0.0108476220024749,-9.806503365039823,14933.0
7.9,1.100000023841858,176.0,23.74138641357422,0.0874695107340812,-79.78282149258825,40.45893864682977,268.3349579663277,0.0090223988518118,0.0121191311627626,0.8192648887634277,0.5732161998748779,-0.0048502415168689,0.0048880327737539,0.0004580379397161,-0.003121462650597,-0.0023713568225502,0.0014866547426208,0.2876797027699649,0.006243233178975,-9.807237775325776,14933.0
8.1,1.100000023841858,177.0,23.74013328552246,0.0477106422185897,-79.78282160605994,40.458938669844265,268.3281799347401,0.0090144062414765,0.01211763266474,0.8192629218101501,0.5732191801071167,-0.0020034727783702,0.0061597560725341,0.0025479225423853,-0.0030120208393782,-0.0015594704309478,0.0029857964254915,0.2871498719416559,0.0078043101372895,-9.806304559707645,14933.0
8.2,1.100000023841858,178.0,23.74138641357422,0.055662415921688,-79.7828216115433,40.45893866643042,268.32845323693755,0.0090144062414765,0.01211763266474,0.8192629218101501,0.5732191801071167,-0.0020962761440047,0.0053916526937007,0.0025960967405366,0.0007034518639557,0.0021341955289244,-0.0037428801879286,0.285482373945415,0.0126280786120332,-9.806318593025209,14933.0
8.4,1.100000023841858,178.0,23.74514198303223,0.0397588685154914,-79.78282171132803,40.4589386958754,268.3226611406804,0.0090089403092861,0.0121150501072406,0.8192608952522278,0.5732221603393555,-0.0009568828495098,0.0057301703660628,0.0037055301314509,-0.002969971159473,0.0003761651460081,-0.0057293283753097,0.2883466142602265,0.0007943088433239,-9.808390846252443,14933.0
8.5,1.100000023841858,177.0,23.74514198303223,0.0477106422185897,-79.78282171677482,40.45893869351146,268.3230428786278,0.0090089403092861,0.0121150501072406,0.8192608952522278,0.5732221603393555,-0.0006845201125391,0.0049987966596585,0.0035410867099064,0.0017219010042026,-0.0025130605790764,0.0048717963509261,0.2913793092034757,0.000850882367813,-9.808400201797486,14933.0
8.7,1.2000000476837158,176.0,23.737628936767567,0.0477106422185897,-79.78282181788491,40.45893872981205,268.31876217734816,0.0090021807700395,0.012112945318222,0.8192528486251831,0.5732338428497314,0.0008857289258681,0.0055446631196922,0.0048991236383701,0.0057632587850093,0.0013658542884513,0.0054311794228851,0.2860587084107101,0.0143544416246004,-9.806400454044342,14933.0
8.81,1.100000023841858,173.0,23.74764633178711,0.0159035474061965,-79.78282182378216,40.45893872850663,268.3192786217928,0.009030177257955,0.012120384722948,0.8192638754844666,0.5732176303863525,-0.000189256702499,0.005161336228505,0.0050241141596144,-0.0062764631584286,-0.0005541770369745,-0.0042163631878793,0.2878742505982518,0.0116398660477716,-9.806177090406418,14933.0
9.01,1.2000000476837158,171.0,23.748897552490234,-0.0238553211092948,-79.7828218981613,40.45893879026079,268.3182246924639,0.0090279914438724,0.0121418610215187,0.8192700743675232,0.5732083320617676,0.0031067387363218,0.0019024991631184,0.0090791964943057,-0.0045609944500029,-0.0025060770567506,-0.0013101425720378,0.2889191845804453,0.0039872477593598,-9.806994531154633,14933.0
9.1,1.2000000476837158,169.0,23.74138641357422,-0.0318070948123931,-79.78282198533775,40.45893881705627,268.3143782706261,0.0089985746890306,0.0121302949264645,0.8192564845085144,0.5732283592224121,0.0015666320402904,0.0048945535427592,0.0087963096078601,0.0014188151108101,0.0038112106267362,-0.0006418325938284,0.2874317442812025,0.0098875160445459,-9.806617970466617,14933.0
9.31,1.2000000476837158,170.0,23.748897552490234,-0.0238553211092948,-79.78282199521735,40.458938816452935,268.3161726982594,0.0090141221880912,0.0121102668344974,0.8192681074142456,0.5732119083404541,0.0008222595939652,0.003768719787051,0.0089281376718542,-0.0030016358941793,-0.0018856199458241,-0.0041662966832518,0.2888908438570797,0.0022530943597666,-9.808905985951425,14933.0
9.4,1.2999999523162842,170.0,23.74639320373535,-0.0397588685154914,-79.78282203250039,40.45893888544274,268.3136319459677,0.0090168192982673,0.0121012069284915,0.8192682862281799,0.5732117891311646,0.00453292569239,-0.0009456443639673,0.0088353392459203,0.0012871724320575,0.0007072956068441,0.0030418566893786,0.2905887473747134,0.0007432262197835,-9.807854656577112,14933.0
9.6,1.399999976158142,169.0,23.75015068054199,-0.0238553211092948,-79.78282210697229,40.4589389493504,268.3124914110899,0.0090204766020178,0.0121220536530017,0.8192654848098755,0.5732153058052063,0.0076399402659426,0.0005895952639611,0.008950668500277,0.0048401141539216,0.0017797917826101,0.0046712760813534,0.2861869086138904,0.0142686748481355,-9.805391224622726,14933.0
9.7,1.399999976158142,169.0,23.748897552490234,-0.0397588685154914,-79.78282210998276,40.45893895537725,268.3133992494345,0.0090149091556668,0.0121350307017564,0.81926429271698,0.5732167959213257,0.0067485250074733,0.0001465557863303,0.0092051444363035,-0.0063698277808725,-0.0025349394418299,-0.0063502015545964,0.2869051476940513,0.0144703535386361,-9.807328991889952,14933.0
9.9,1.5,166.0,23.75015068054199,-0.0079517737030982,-79.78282218228323,40.4589389902715,268.3150713683367,0.0090156802907586,0.0121403727680444,0.8192776441574097,0.5731976628303528,0.003291214524894,0.0032739471140438,0.0121835874089605,-0.0064622429199516,-0.0016666748560965,-0.0056724837049841,0.2914447066560388,0.003439014761243,-9.807869274616245,14933.0
10.0,1.600000023841858,165.0,23.74514198303223,-0.0397588685154914,-79.78282218636325,40.45893899258821,268.3162902088165,0.0090199569240212,0.012156419456005,0.8192873597145081,0.5731832981109619,0.0039006160194856,0.0023128954555041,0.0120125392158157,0.0054354262538254,0.0023538668174296,0.0026651106309145,0.2896923143975437,0.0056462233245838,-9.807322559952736,14933.0
10.2,1.7000000476837158,165.0,23.748897552490234,-0.0238553211092948,-79.78282222670384,40.45893906580772,268.3188221843243,0.0090346513316035,0.0121508985757827,0.8192910552024841,0.5731779336929321,0.0058832269329249,-0.0007019761983829,0.0143168052998763,0.0045382850803434,0.0021386628504842,0.0004066301626153,0.2871416127495468,0.0071940903720678,-9.806513890028,14933.0
10.3,1.7000000476837158,166.0,23.74388885498047,-0.0159035474061965,-79.78282222749931,40.45893907086408,268.3202525020838,0.009041610173881,0.0121598280966281,0.8192949295043945,0.5731721520423889,0.0053415249050487,-0.0011205770080312,0.0142743115536022,-0.0066527775488793,-0.0057913376949727,0.0013080287026241,0.288531258367002,0.0041146827995544,-9.80730618774891,14933.0
10.5,1.8999999761581416,168.0,23.748897552490234,-0.0318070948123931,-79.78282225783731,40.45893912528813,268.32324399960044,0.0090437736362218,0.0121563766151666,0.8192886114120483,0.5731812119483948,0.0043526962571541,-0.0023233719256351,0.0154905731725214,0.0016727920155972,-0.0016920528141781,0.0048412838950753,0.2867264604382217,0.0111939553264528,-9.805140379071236,14933.0
10.6,2.0,167.0,23.74388885498047,-0.0238553211092948,-79.78282233061566,40.45893919266332,268.3230110199452,0.0090221706777811,0.0121663985773921,0.8192880153656006,0.5731822848320007,0.0085439748207196,0.0028267084731418,0.013629142641511,-0.0024131604004651,0.0022735185921192,-0.003372463863343,0.2880057764053345,0.014048998838989,-9.805842044949532,14933.0
10.8,2.0,169.0,23.74388885498047,-0.0159035474061965,-79.7828223407672,40.458939205962295,268.3257317484617,0.009013183414936,0.0122027033939957,0.8192977905273438,0.5731675028800964,0.0083262581587942,0.0010592188694908,0.0135019575601268,0.0009406043682247,0.0004344130575191,-0.0047209141775965,0.2900428367033601,0.0001970814313972,-9.8076260304451,14933.0
10.9,2.0999999046325684,170.0,23.738882064819336,-0.0318070948123931,-79.78282233520586,40.458939278587096,268.32802858364585,0.0090266056358814,0.0121922250837087,0.8193035125732422,0.5731594562530518,0.0084846179211419,-0.0036278616697856,0.0152765725623987,0.0004475959576666,0.0024381689727306,0.004926090594381,0.288913940358907,0.0026514970249263,-9.808159296512605,14933.0
11.1,2.0999999046325684,172.0,23.75015068054199,-0.0397588685154914,-79.78282236860213,40.458939344034206,268.330101528883,0.009013551287353,0.0122061017900705,0.8192985653877258,0.5731663703918457,0.0074619763140583,-0.0010698710735292,0.0134501340578197,6.0920397118024985e-06,-0.000486761884531,0.0062205013819038,0.2843612434342503,0.0136286103003658,-9.804093727469445,14933.0
11.21,2.0999999046325684,172.0,23.74514198303223,-0.0318070948123931,-79.78282236951847,40.45893935095639,268.33144243967536,0.0090126721188426,0.0122241387143731,0.8192926645278931,0.5731745362281799,0.007575839266478,-0.0018646153991127,0.0134732408235433,-0.0004194055800326,-7.839013051125221e-06,-0.0024856668896973,0.2863379495032132,0.0140637162351049,-9.80558769106865,14933.0
11.4,2.200000047683716,175.0,23.74138641357422,-0.0397588685154914,-79.7828223546137,40.458939429577946,268.3340289385319,0.0090127559378743,0.0122223496437072,0.8192958831787109,0.5731698274612427,0.0076948914887669,-0.0058549390588441,0.0128828237260021,0.0017735149012878,0.0019449621904641,-0.0043158796615898,0.2891756032593548,0.0023109395394567,-9.807900849580763,14933.0
11.5,2.200000047683716,174.0,23.74764633178711,-0.0318070948123931,-79.78282235025259,40.45893943806748,268.33529666972163,0.0090206740424036,0.0122167551890015,0.8193008303642273,0.573162853717804,0.0073327811350017,-0.0066547651607318,0.0129060741108459,-0.0016994558973237,0.0009511623647995,0.0035809753462672,0.2889314271882177,0.0025702384288888,-9.808453996181491,14933.0
11.71,2.200000047683716,178.0,23.74764633178711,-0.0318070948123931,-79.78282233975108,40.45893950791395,268.337769726038,0.009040018543601,0.0122133018448948,0.8193011283874512,0.5731621384620667,0.0054035666348066,-0.0065257472827108,0.0121466038227595,-0.0049219573847949,-0.0025568001437932,-0.0034994839224964,0.2873160242289305,0.0085293831507442,-9.80701558113098,14933.0
11.81,2.200000047683716,179.0,23.75265312194824,0.0318070948123931,-79.78282233397469,40.458939514960655,268.3389514477253,0.0090518062934279,0.0122168473899364,0.8192928433418274,0.5731737017631531,0.0060805665388215,-0.0072941829706471,0.0119406368432847,0.0056567341089248,0.0040156967006623,0.0030229173135012,0.2901727362535894,0.0041317031078506,-9.807415530681611,14933.0
12.0,2.200000047683716,176.0,23.75015068054199,-0.0318070948123931,-79.78282234028374,40.45893962971319,268.33932977330693,0.0090632606297731,0.0122265955433249,0.8192976713180542,0.5731664299964905,0.0118449124023257,-0.0066657111895522,0.0081028653941467,0.0072271958924829,0.0024697640910744,0.0070387162268161,0.2883123532310128,0.0143426569725852,-9.806146100163463,14933.0
12.11,2.200000047683716,175.0,23.74764633178711,-0.0318070948123931,-79.78282233429232,40.45893965070943,268.3400766940117,0.0090694827958941,0.0122187566012144,0.8193030953407288,0.573158860206604,0.002132177930747,-0.0011999840098069,0.0061362501422596,-0.0087845418602228,-0.0015747520374134,-0.010492187924683,0.2867986918240786,0.0153607657109387,-9.805929168462754,14933.0
12.3,2.0999999046325684,175.0,23.748897552490234,-0.0238553211092948,-79.78282233094032,40.458939656115774,268.3412650765181,0.0091047035530209,0.0122263077646493,0.819301187992096,0.5731608867645264,0.0018276920732854,-0.0030966759596735,0.0059962881637061,-0.0037490190006792,-0.0022994042374193,-0.0044701187871396,0.2906388507038355,1.375180610921234e-05,-9.807624861001967,14933.0
12.41,2.0999999046325684,176.0,23.74388885498047,-0.0318070948123931,-79.78282231823506,40.45893970928592,268.3444493354559,0.0091063017025589,0.0122250393033027,0.8193061947822571,0.573153555393219,0.0003762718792177,-0.0002254613331603,0.0071121429421255,0.0027376397047191,-0.0004722343001049,0.0044148005545139,0.2884579671733081,0.0001888587843859,-9.80756580412388,14933.0
12.6,2.0,175.0,23.75015068054199,-0.0318070948123931,-79.78282228146149,40.45893978368849,268.3481526614428,0.0091199036687612,0.0122383441776037,0.8193167448043823,0.5731379985809326,0.0004031158126296,-0.0021676610396174,0.0080363192949661,-0.0043019694276154,-0.0024786349385976,0.0031877553556114,0.2875823831744492,0.0102474909683223,-9.805284805297852,14933.0
12.7,2.0,172.0,23.74013328552246,-0.0397588685154914,-79.78282227828659,40.45893978492949,268.34894665491584,0.0091249905526638,0.0122445523738861,0.8193108439445496,0.5731462836265564,0.0004298360514398,-0.0032823807867422,0.0080040455143665,0.0044503798708319,0.0028734011575579,-0.0005145323229953,0.2867201198637485,0.0084832718025427,-9.806080611348152,14933.0
12.9,1.8999999761581416,166.0,23.742637634277344,-0.0238553211092948,-79.78282225180092,40.458939862954175,268.3528526217939,0.0091306129470467,0.0122497752308845,0.8193156123161316,0.5731392502784729,0.0018053487245997,-0.0023324809073643,0.0085240564070595,0.0028109848499298,0.0028091727290302,0.0003421201254241,0.2889439621567726,0.0060652574105188,-9.807727187275889,14933.0
13.01,1.7999999523162842,166.0,23.75140190124512,-0.0238553211092948,-79.78282224905047,40.45893986497458,268.353699231267,0.0091424779966473,0.0122415926307439,0.8193277716636658,0.5731218457221985,0.0009414980478043,-0.0032163925442062,0.0085768244949767,-0.0028836608398705,-0.0025104782544076,0.0008417515782639,0.2868399146944284,0.0065476155857322,-9.806847766041756,14933.0
13.21,1.7000000476837158,164.0,23.738882064819336,-0.0318070948123931,-79.78282222107221,40.45893998279528,268.35760665845874,0.0091216377913951,0.0122430408373475,0.8193339705467224,0.573113203048706,0.0076354024020064,-0.0039801662243798,0.0089259357161347,-0.0031878328882157,-0.001434456789866,-0.0010462375357747,0.2876718273013829,0.0073979794699698,-9.805284805297852,14933.0
13.3,1.7000000476837158,164.0,23.742637634277344,-0.0477106422185897,-79.78282221884878,40.45893999090478,268.3584829808474,0.0091222170740365,0.0122563587501645,0.8193217515945435,0.5731305480003357,0.0078914158590969,-0.0051007745693775,0.0088745396543016,0.0035343766212463,0.0047994647175073,9.19913363759406e-05,0.2881535830534995,0.0080335523968096,-9.80621743619442,14933.0
13.5,1.600000023841858,161.0,23.74013328552246,-0.0636141896247863,-79.7828221807794,40.45894005216081,268.3622551800013,0.0091322073712944,0.0122523326426744,0.8193264603614807,0.5731236338615417,0.0039238692155194,-0.0030303064285673,0.0092549945579849,0.0015452710213139,0.0005875550559721,-0.000143072931678,0.287434192802757,0.0040926238358952,-9.807830682992936,14933.0
13.61,1.600000023841858,159.0,23.74639320373535,-0.0715659633278846,-79.78282211734027,40.458940111089404,268.36329896163943,0.0091464128345251,0.0122477803379297,0.8193240761756897,0.5731268525123596,0.0009226934197168,-0.003232300162592,0.0072420727496344,0.0035178428515791,-0.0045246994122862,0.0040061343461275,0.2894527247361839,0.0009847630496369,-9.80780670940876,14933.0
13.81,1.600000023841858,157.0,23.74764633178711,-0.0318070948123931,-79.78282210833416,40.458940114934826,268.3647216947079,0.0091476291418075,0.012236313894391,0.81932532787323,0.5731253623962402,0.0005959309632286,-0.0053360029040328,0.0071467557396591,0.001149277202785,0.0001286039187107,0.0034073842689394,0.2848620026372373,0.0125536750769242,-9.8050181722641,14933.0
13.91,1.600000023841858,158.0,23.738882064819336,-0.0238553211092948,-79.78282207636373,40.45894016513343,268.3654236288071,0.0091446591541171,0.0122301634401083,0.8193227648735046,0.5731291174888611,-0.0022680073146032,0.0001298280768446,0.0054029897790997,0.0005981244612485,-0.0011525523150339,-0.0038123037666082,0.2861567589081824,0.0151134764542803,-9.80524562895298,14933.0
14.1,1.5,158.0,23.74013328552246,-0.0397588685154914,-79.78282199804511,40.45894021442703,268.368630358696,0.0091445706784725,0.0122269401326775,0.8193203806877136,0.5731326341629028,-0.0059086394950456,-0.0012620326796308,0.0066837509625195,-0.0027101074811071,0.0025527640245854,-0.0046736951917409,0.291418759636581,0.0005729026522021,-9.80790143430233,14933.0
14.2,1.5,155.0,23.74138641357422,-0.0477106422185897,-79.78282199345209,40.45894021002445,268.3692887068987,0.0091445706784725,0.0122269401326775,0.8193203806877136,0.5731326341629028,-0.0058150808886155,-0.0022643816432271,0.0065278910758769,0.0071886833757162,-0.0001138157895184,0.0060700280591845,0.292129744514823,0.0010341908654663,-9.808455165624617,14933.0
14.4,1.5,156.0,23.74514198303223,-0.0397588685154914,-79.78282198182694,40.45894024015864,268.37267544281485,0.0091412821784615,0.0122058177366852,0.8193065524101257,0.5731528997421265,-0.007654089821992,0.0063523642310115,0.0072504320030578,0.0034468004014343,0.0031520428601652,0.0038519904483109,0.2871263003535569,0.013638955989154,-9.805648502111437,14933.0
14.5,1.5,158.0,23.74764633178711,-0.0397588685154914,-79.7828219850349,40.4589402314834,268.37342437517646,0.0091316467151045,0.0122192492708563,0.8193054795265198,0.5731542706489563,-0.0085891213907123,0.0056716236235274,0.0074052223806235,-0.0057023279368877,-0.0009300463134422,-0.0032490980811417,0.2860407464951277,0.0149208826466929,-9.806042019724847,14933.0
14.7,1.399999976158142,163.0,23.748897552490234,-0.0238553211092948,-79.782821923621,40.45894028233899,268.3762789906264,0.0091144405305385,0.0122245922684669,0.8192825317382812,0.5731873512268066,-0.0082258510807328,0.0044621807663099,0.0078656053247892,-0.0037677129730582,-0.0002358488854952,-0.0083574140444397,0.2908359201438725,-0.0012756390449067,-9.80707112967968,14933.0
14.8,1.399999976158142,163.0,23.75140190124512,-0.0079517737030982,-79.78282192446005,40.45894027438622,268.3770667852164,0.0091127306222915,0.0122184716165065,0.8192747235298157,0.573198676109314,-0.0076598998192532,0.0033972119369648,0.0077261985223481,0.0045017679221928,0.0001100032677641,0.0058765965513885,0.2901025696657598,0.00258806015976,-9.80800609946251,14933.0
15.01,1.399999976158142,167.0,23.75265312194824,-0.0238553211092948,-79.7828218082625,40.45894036487146,268.3776074589491,0.0090959686785936,0.012218976393342,0.819263756275177,0.5732144713401794,-0.0039606053785483,-0.0040475736140574,0.0058492752660774,0.0062283100560307,0.0030542307067662,0.0015352922491729,0.2878570561297238,0.0108439526462461,-9.805510507822037,14933.0
15.11,1.2999999523162842,168.0,23.74514198303223,-0.0397588685154914,-79.78282179486227,40.45894042057839,268.37931666684153,0.0090705128386616,0.0122214807197451,0.8192664980888367,0.5732110142707825,-0.0025750112698823,0.0047717442542862,0.0070475174005139,-0.0048695933073759,0.0015492509119212,-0.0022779959253966,0.2861003698222339,0.0114166428800672,-9.807316712737084,14933.0
15.3,1.2999999523162842,171.0,23.71759605407715,0.7474667429924011,-79.78282180071031,40.45894041429175,268.38072436463835,0.009076714515686,0.0122296549379825,0.8192777633666992,0.573194682598114,-0.002206665891863,0.0030058774949404,0.0068952661847175,-0.0034280894324183,-0.0036726382095366,0.0043196086771786,0.2888198915496469,0.0052652966394089,-9.806945999264718,14933.0
15.4,1.399999976158142,172.0,23.72761344909668,0.2703603208065033,-79.78282173585171,40.45894051288968,268.3793150575161,0.0090566370636224,0.0122356163337826,0.8192529678344727,0.5732302665710449,0.0044736921488377,0.0017967296487186,0.003960159490864,-0.0027638981118798,-0.0037429742515087,0.0029794415459036,0.2787021436728537,0.0266892047133296,-9.80359846830368,14933.0
15.6,1.399999976158142,173.0,23.72636032104492,0.2862638533115387,-79.78282163161802,40.45894060105716,268.38212657880786,0.0090509131550788,0.0122207487002015,0.8192762732505798,0.5731973648071289,0.0074903030867482,-0.0041326362430285,0.007103050354415,0.0081706717610359,-1.2267524652997965e-05,0.0103233959525823,0.2970463575236499,0.0022144936001859,-9.807593286037443,14933.0
15.71,1.5,175.0,23.7251091003418,0.2703603208065033,-79.78282162875651,40.458940607489794,268.3828301073313,0.0090550482273101,0.0122192613780498,0.8192903399467468,0.5731772780418396,0.0052255243903383,-0.0054148883707638,0.0072037187015601,-0.0060399873182177,-0.0030943439342081,-0.0109606636688113,0.283011760879308,0.0020798603177536,-9.805919812917711,14933.0
15.9,1.600000023841858,179.0,23.728864669799805,0.278312087059021,-79.78282162474748,40.45894061409204,268.38352599155905,0.0090661998838186,0.0122385872527956,0.8192942142486572,0.5731711387634277,0.006172248952681,-0.0059837939365936,0.0070507299801007,0.0024165571667253,0.0031857015565037,0.0101945931091904,0.2916751600429416,0.0149424408283084,-9.807468155622482,14933.0
16.0,1.600000023841858,177.0,23.73387336730957,0.2942156493663788,-79.78282154598827,40.45894067744255,268.3827250541449,0.0090800011530518,0.0122676258906722,0.8193221688270569,0.5731303095817566,0.0058347739935692,-0.0054884665635351,0.0051803699746674,0.0019128039712086,0.0013201952679082,0.0033408605959266,0.2861764384433627,0.0132090063393116,-9.80864929318428,14933.0
16.2,1.600000023841858,174.0,23.7251091003418,0.3657816052436829,-79.78282145062227,40.45894072216503,268.38117312800887,0.0091026993468403,0.0122796921059489,0.8193316459655762,0.5731160640716553,0.0012534097063719,-0.0061100306395985,0.0035435533937171,0.002942512044683,0.0011674086563289,-0.0007394754793494,0.2913859055936336,0.0047965246753301,-9.806126804351807,14933.0
16.31,1.7000000476837158,174.0,23.72636032104492,0.3975887000560761,-79.78282144341371,40.45894072502064,268.38149903130534,0.0091205313801765,0.0122884856536984,0.8193203210830688,0.5731318593025208,0.0006957153649766,-0.0073958839224666,0.003507536120891,-0.005186588037759,-0.0023380783386528,0.0009465748444199,0.2906763459742069,0.0020371151156723,-9.807468740344046,14933.0
16.5,1.600000023841858,173.0,23.5886344909668,1.916377544403076,-79.78282139045572,40.45894080953701,268.3789703191519,0.0091784419491887,0.0123481219634413,0.8192716836929321,0.5731991529464722,0.0052262655755948,-0.006961752632749,0.0009741667042101,0.0071115894243121,-0.0171634741127491,0.0099753988906741,0.2886837976053357,0.0095518219121731,-9.80560464799404,14933.0
16.6,1.7000000476837158,176.0,23.70758056640625,0.3816851377487183,-79.78282130539307,40.458940864460246,268.37629822802546,0.0092183006927371,0.0123940510675311,0.8192529082298279,0.5732243657112122,0.0112449601028329,-0.0054902459862812,-0.0001949176765306,0.0505007319152355,-0.0041500781662762,0.0311216544359922,0.319296164251864,-0.0438569816155359,-9.80996199309826,14933.0
16.8,1.7999999523162842,176.0,23.080303192138672,21.64472770690918,-79.78282129242008,40.45894087870608,268.3764065743685,0.0092452494427561,0.0123969074338674,0.8192639350891113,0.5732080340385437,0.005440601236673,-0.0098981870945937,0.0006306663587384,0.007407977245748,0.0188234895467758,-0.0066792229190468,0.2819623866677284,0.0558597576152533,-9.79295712053776,14933.0
16.9,1.8999999761581416,177.0,23.64497756958008,1.1927660703659058,-79.78282124060402,40.45894093458261,268.370508143425,0.0092364214360713,0.0124137448146939,0.8192641139030457,0.5732076168060303,0.0089206992625725,-0.006700420493161,-0.0026735266839469,0.0121319536119699,0.0111553631722927,0.0035672953817993,0.2577325299941003,-0.0578867680113762,-9.782881783246994,14933.0
17.1,1.8999999761581416,176.0,23.72636032104492,0.2146978974342346,-79.78282116833938,40.45894097848492,268.3662454725504,0.009267627261579,0.012391660362482,0.8192809820175171,0.5731834769248962,0.0063985832225489,-0.0046482231318986,-0.002615774384153,-0.0067640035413205,-0.0069848224520683,-0.0020292201079428,0.2913755267858505,-0.0103624846867751,-9.809197177290915,14933.0
17.21,1.8999999761581416,176.0,23.72010040283203,0.2465049922466278,-79.78282116410405,40.45894098566151,268.36593004477027,0.009249797090888,0.012405214831233,0.8192708492279053,0.5731978416442871,0.0064784205911792,-0.0054980657855072,-0.0030995351425815,-0.008750557899475,-0.0027760525699704,0.0106420703232288,0.3042989149130881,0.0252533729444258,-9.80233020722866,14933.0
17.4,2.0,177.0,23.576114654541016,3.8566102981567374,-79.78282108320222,40.45894104793312,268.36174506855014,0.00923035107553,0.012402581050992,0.8192741274833679,0.5731936693191528,0.0084909238358096,-0.0106907047695733,-0.0023565684843464,0.000483224983327,0.0036942681763321,0.0063210153020918,0.3010715442337096,0.021790601585526,-9.794275082945823,14933.0
17.5,2.0,177.0,23.53104019165039,4.755160808563232,-79.78282107622907,40.45894105717412,268.3615142793656,0.009239187464118,0.0123694781213998,0.8192767500877379,0.573190450668335,0.0072147962987041,-0.0100421746468904,-0.0016493807270119,0.0007767674978822,-0.0157051961869001,0.0093318484723567,0.260806758441031,-0.0158255679637659,-9.79860553085804,14933.0
17.7,2.0,174.0,23.43588447570801,6.782863140106201,-79.78282103918076,40.45894109619936,268.35705255877974,0.0092440964654088,0.0124341268092393,0.8192552924156189,0.5732196569442749,0.0069141668882877,-0.0054241325091328,-0.0029523568293072,0.0037030025850981,0.0124939605593681,0.0048556271940469,0.2913369717076421,-0.0358695662626996,-9.794694913029671,14933.0
17.8,2.0999999046325684,177.0,23.38705444335937,7.768883228302003,-79.7828210361717,40.45894110409736,268.3568674565554,0.0091941002756357,0.0123816141858696,0.8192702531814575,0.5732001662254333,0.0071994582126879,-0.0060337024524744,-0.0013225870676612,0.0052166013047099,0.0016977704362943,0.0202240161597728,0.284016239438206,-0.0004098544141743,-9.815029774904252,14933.0
18.0,2.0999999046325684,179.0,23.25058174133301,10.544052124023438,-79.78282095802105,40.45894114137272,268.35169393730166,0.0091453297063708,0.0123115666210651,0.819208562374115,0.5732906460762024,0.0091532014348537,-0.0064031793615811,-0.0004856284149316,0.0010547027923166,0.047788318246603,-0.0495862327516078,0.2671872584335506,0.1546978110820055,-9.801135036349296,14933.0
18.1,2.0999999046325684,178.0,23.19173622131348,12.08669662475586,-79.78282090159792,40.45894118028307,268.34873468589785,0.0091373827308416,0.0122924353927373,0.819346010684967,0.5730947852134705,-0.0092858472807885,-0.0116056160823763,0.0002208330941653,-0.0758408084511756,-0.0456603541970253,-0.0153449336066842,0.2979672757163644,0.3421068468689918,-9.806097568273543,14933.0
18.3,2.0,178.0,23.04399299621582,15.48210334777832,-79.78282088524551,40.45894119790733,268.3495326430798,0.0092363134026527,0.0133626209571957,0.8192834854125977,0.5731586217880249,0.0081499844625937,-0.0137745009197946,0.0044908172993969,0.0276599116623401,-0.0068361074663698,-0.0826152935624122,0.224119719453156,-0.0831799682602286,-9.806457756757736,14933.0
18.4,2.0,178.0,22.95134162902832,16.849809646606445,-79.78282082314297,40.45894124030561,268.34624170672896,0.0090601211413741,0.0138209350407123,0.8193246722221375,0.5730917453765869,0.0085554852190706,-0.0117956623511624,0.0104016930285918,0.0303333457559347,0.0508991591632366,-0.103363811969757,0.2332119205221534,0.2320052013918757,-9.822886093854905,14933.0
18.6,1.8999999761581416,177.0,22.80109596252441,20.53943252563477,-79.78282074571472,40.45894128801253,268.34353550684455,0.0094538191333413,0.016416622325778,0.81949782371521,0.5727691054344177,0.0122059556165271,-0.0155251388465617,0.0092946790187327,0.0645283013582229,0.0399007424712181,0.0292456671595573,0.2120209166407585,0.1210740918293595,-9.807179887890817,14933.0
18.7,1.8999999761581416,177.0,22.69091415405273,22.20135307312012,-79.7828207266435,40.45894129832493,268.3450617582798,0.0107579762116074,0.0174161400645971,0.8197846412658691,0.5723060369491577,0.0010885685912776,-0.0218439439381428,0.0212018158529982,-0.0893483236432075,-0.0085069742053747,-0.0069268993102014,0.19078673472628,-0.1807942999899388,-9.88192075252533,14933.0
18.9,1.7000000476837158,176.0,22.52939987182617,25.85121726989746,-79.78282062033676,40.458941375264274,268.33981103610995,0.0132611989974975,0.0188232790678739,0.8220212459564209,0.5689913034439087,0.0332255193522903,-0.0548025496132708,0.0205101940428964,0.0829936861991882,-0.0702774971723556,0.042373638600111,0.2546092214807868,0.110832721022889,-9.780980853438376,14933.0
19.0,1.7000000476837158,171.0,22.44050407409668,28.35602569580078,-79.78282056110906,40.458941415940586,268.34409106683734,0.0122689390555024,0.0129973236471414,0.8246241807937622,0.5653985738754272,0.0294048599101849,-0.0673610861798322,0.0751114398000244,-0.0497846156358718,-0.0629079192876815,-0.1621266454458236,0.3436365515738726,0.1600409967452288,-10.250178394317627,14933.0
19.21,1.600000023841858,170.0,22.62330436706543,22.19340133666992,-79.78282035097627,40.45894153845588,268.3656725825072,0.0110266245901584,-0.0061847525648772,0.8283835649490356,0.5600185990333557,0.0526374481822167,-0.0697210643210093,0.2543379199305898,0.1145847663283348,-0.2020977735519408,0.0091174142435193,0.2547689783759415,-0.005238509082701,-10.670009647607804,14933.0
19.3,1.5,169.0,22.614540100097656,22.54327964782715,-79.78282028104607,40.45894160426907,268.39278010439875,0.0026900342199951,-0.0083351247012615,0.8287287354469299,0.5595820546150208,0.0421950240916917,-0.0638160650493602,0.2793671227898867,-0.006465848069638,-0.1734524071216583,-0.0460379719734191,0.0382081647310406,0.5115115016698838,-10.18665541291237,14933.0
19.5,1.5,175.0,22.540668487548828,23.720142364501957,-79.78281993445968,40.45894158598029,268.4127999187708,-0.001341299386695,-0.0028029836248606,0.8277981877326965,0.5610175728797913,0.0631817262926488,-0.0571553725934418,0.2355735471858669,0.0831349939107894,0.1467092782258987,0.0484741143882274,0.0417484436742961,-0.0347071169503033,-9.92652682185173,14933.0
19.6,1.399999976158142,176.0,22.56696128845215,23.354360580444336,-79.78281999122997,40.45894157300015,268.4044299514294,0.0051602544263005,-0.0031910862307995,0.8271451592445374,0.5619557499885559,0.0345054312487465,-0.0275965395206604,0.1945355664600796,-0.2244969010353088,0.0544103011488914,-0.0122451148927211,0.0378752297535538,0.311489729359746,-9.775347645878792,14933.0
19.8,1.399999976158142,176.0,22.47681427001953,24.35628318786621,-79.78282002465996,40.45894165685629,268.4391012207866,0.0026970785111188,-0.0016299127601087,0.8260095119476318,0.563647449016571,0.0516637576886233,0.0058962386341603,0.1551443440079777,0.039196640253067,0.1415520310401916,-0.0016606935532763,0.1795842187106609,-0.0176549915783107,-9.714804405570028,14933.0
19.9,1.399999976158142,176.0,22.4567813873291,25.485435485839844,-79.78281975683139,40.45894187867162,268.4368089304566,0.005125047173351,-0.0030976634006947,0.8257325291633606,0.5640301704406738,0.0683322554143674,-0.0099611891362361,0.1397254866625147,-0.0802077054977417,-0.0632082968950271,0.0711223185062408,0.0830211615376174,-0.0827988211624324,-9.73822075009346,14933.0
20.1,1.2999999523162842,178.0,22.366634368896484,27.29048728942871,-79.78281976420438,40.45894182894645,268.47309391361483,0.0091854091733694,-0.0028766300529241,0.8248982429504395,0.5651994347572327,0.0383955047210922,0.0224907333826677,0.1512123360812965,0.0411985926330089,-0.072743184864521,0.0267038382589817,0.1663494846224785,0.2317929840087891,-9.743639949560167,14933.0
20.21,1.2999999523162842,178.0,22.42047119140625,25.49338722229004,-79.78281980744579,40.4589418447296,268.4898648799658,0.0084177637472748,0.0002913144417107,0.8243195414543152,0.5660621523857117,0.0212967589072368,0.0375384318520208,0.1846179927241111,-0.0175660606473684,0.0617440901696682,0.0340690650045871,0.1409130549989641,0.0815245758276432,-10.033198746442798,14933.0
20.4,1.399999976158142,178.0,22.395431518554688,26.646394729614247,-79.78281962724343,40.45894188239894,268.5314197984785,0.0105070499703288,0.0001881797506939,0.8237058520317078,0.5669199228286743,0.0056154989376879,0.021460578356108,0.223216149382879,-0.0294963382184505,-0.0640587657690048,-0.0241020321846008,0.171875030323863,0.0687142856419086,-9.963933799266815,14933.0
20.51,1.399999976158142,179.0,22.453025817871094,25.25483322143555,-79.78281964780584,40.458941878643714,268.55508841735127,0.0116656944155693,-0.0013484911760315,0.8240932822227478,0.5663323998451233,0.0060076075349572,0.0272322236560409,0.2434288651715041,-0.0296345129609108,-0.1015749797224998,0.0132929878309369,0.2840729208849371,0.1812804776988924,-10.064146889448166,14933.0
20.6,1.5,178.0,22.426733016967773,26.495309829711918,-79.78281988090295,40.45894190155299,268.57572015908363,0.0088410004973411,-0.0007926043472252,0.8246769309043884,0.5655344128608704,0.0311186933582114,0.0640480133250132,0.2436569247412079,0.0197364501655101,-0.0287994239479303,-0.0824166536331176,0.128314799470827,0.2266078193485737,-9.820564749240877,14933.0
20.8,1.600000023841858,179.0,22.39668273925781,25.70013236999512,-79.78282004789061,40.45894191680795,268.62446056467303,0.0042132050730288,-0.0007859706529416,0.8262062072753906,0.5633515119552612,0.046058611997455,0.0713272476905698,0.2528374811760259,0.0282454490661621,-0.0306886192411184,-0.0466760098934173,0.1814310983195901,0.170707249995321,-9.967222273349762,14933.0
20.9,1.7000000476837158,180.0,22.39042282104492,25.60471153259277,-79.78281987471689,40.45894185308386,268.6550656573177,0.005623762961477,-0.0014470637543126,0.8272051215171814,0.5618700981140137,0.0206396425675185,0.067263184297885,0.27600925152172,-0.0908250212669372,-0.0677459314465522,-0.0295060016214847,0.0445566740585491,0.1960627504996955,-10.005294663906096,14933.0
21.11,1.7000000476837158,180.0,22.70969581604004,13.239703178405762,-79.78282021813047,40.45894196014343,268.70210734915736,0.0136341750621795,0.000975550035946,0.8277117013931274,0.5609871745109558,0.0705042920000276,0.0958901560014618,0.274128848241792,-0.0576277263462543,0.1109460443258285,0.0262179188430309,0.1068195485137403,0.1940389012545347,-9.776242854595186,14933.0
21.3,1.7999999523162842,178.0,22.218891143798828,29.84300804138184,-79.78282049098141,40.45894200234096,268.7398870081902,0.0186820831149816,-0.0007401904440484,0.8280261158943176,0.560377836227417,0.0743797495035767,0.100695969251269,0.0733183409338289,0.1084747612476348,-0.0112785454839468,0.0213928408920764,0.1618528844229877,0.0201159750111401,-9.008209324479104,14933.0
21.41,1.7999999523162842,175.0,22.124988555908203,32.48299789428711,-79.78282068089332,40.45894187688955,268.77629205000403,0.017834223806858,-0.0001341548195341,0.8285400271415709,0.5596457719802856,0.0547292342611865,0.1083984458474822,0.1261830543890845,-0.0140704307705163,0.0736168324947357,-0.0255606304854154,0.1049187557492405,0.3091371021419764,-9.678530618548391,14933.0
21.51,1.8999999761581416,172.0,21.982254028320312,35.266117095947266,-79.78282081930328,40.45894188692712,268.79312046778205,0.0171294901520013,0.000932375784032,0.8290485739707947,0.5589134097099304,0.0520882911397195,0.1092520069851905,0.2126940347821501,-0.0469667874276638,-0.032812263816595,-0.0088011650368571,0.1953523503430188,0.161794412266463,-10.440087772607804,14933.0
21.71,2.0,171.0,21.98726272583008,35.09912872314453,-79.78282115083309,40.458942194481565,268.8884173424244,0.0147517081350088,8.892675396054983e-05,0.829166054725647,0.5588077902793884,0.0934917689962818,0.1134432509492872,0.5435882757744719,0.0128196887671947,-0.0162825342267751,0.0098937293514609,0.1844029274024069,0.1970329132117331,-11.38383188724518,14933.0
21.91,2.0,166.0,21.829504013061523,37.09502410888672,-79.78282134767247,40.4589422329915,269.01738286924365,0.0136025482788681,-0.0014122775755822,0.8288314342498779,0.5593312978744507,0.0812289203249417,0.12318583099701,0.8760288947275998,-0.0663774609565734,-0.0393297895789146,0.0182032734155654,0.2039329565875232,0.2820826017670333,-11.427022930383682,14934.0
22.01,2.0,169.0,21.8282527923584,37.61188888549805,-79.78282148817446,40.45894224126095,269.11573124837884,0.0180904380977153,-0.0041410345584154,0.828208327293396,0.5601131319999695,0.0750095765772108,0.1174418639576994,1.084839434037531,-0.0975394025444984,0.0328569114208221,0.0307563077658414,0.0626826086081564,0.2643891830183565,-11.84851596236229,14934.0
22.2,2.0999999046325684,167.0,21.818235397338867,37.5164680480957,-79.78282174899122,40.458942295044096,269.356516787529,0.0231452416628599,-0.001441215747036,0.8263631463050842,0.5626599788665771,0.0979966379478119,0.1317159757106006,1.4705726719875365,0.1316322535276413,0.1207126379013061,-0.0142147717997431,0.0979488472826779,0.2227052048966288,-11.873378323316574,14934.0
22.3,2.0999999046325684,165.0,21.690526962280277,40.95958709716797,-79.78282187722152,40.458942274678016,269.5144447178841,0.0184803567826747,0.0014723060885444,0.8254743218421936,0.5641351938247681,0.0839936876626222,0.1444509474198518,1.685979611037674,0.1347840130329132,0.0294038895517587,0.0144960647448897,0.1885176678746938,0.4371616330370307,-11.96407331585884,14934.0
22.4,2.200000047683716,158.0,21.733097076416016,39.408992767333984,-79.78282198362662,40.458942325193306,269.671723315239,0.0126524101942777,0.0046870824880898,0.8249663710594177,0.5650207996368408,0.0782100669311895,0.1539864831518876,1.897827468925524,0.1617701798677444,0.0213457271456718,-0.0467840246856212,0.2179426477476954,0.2036485991813242,-12.15842423915863,14934.0
22.6,2.200000047683716,161.0,21.49896240234375,42.05693054199219,-79.78282224198949,40.45894232065654,270.07428080749514,0.0158418677747249,0.0070585892535746,0.8252413272857666,0.5645139813423157,0.0485812876081858,0.1744237183599307,2.324078072795018,0.0132178924977779,-0.050658494234085,-0.0307481288909912,0.4109260900318623,0.1494469200633466,-12.062326419353486,14935.0
22.8,2.299999952316284,164.0,21.8670654296875,35.24226379394531,-79.78282236594863,40.45894229696035,270.319282242775,0.0176433399319648,0.0052554877474904,0.8255698084831238,0.5639997124671936,0.0627499915650019,0.1894123124257292,2.5608781029022425,-0.0173551011830568,-0.108323872089386,-0.0082624917849898,0.5211246165633202,0.3239929036796093,-12.160595895051957,14935.0
22.91,2.400000095367432,163.0,21.88960266113281,31.62420463562012,-79.78282260819032,40.45894222433557,270.8296788425446,0.015985433012247,0.0001547371066408,0.8270831108093262,0.5618522763252258,0.0864301389831308,0.1902907697669127,2.883004648687165,0.0404182597994804,-0.1712167561054229,-0.0094315716996788,0.4481072187423705,0.2795944105088711,-11.44463357448578,14935.0
23.1,2.5,161.0,22.08617401123047,30.12927055358887,-79.78282287343778,40.45894207907202,271.3530579299927,0.0097253639250993,0.0058237710036337,0.8276199102401733,0.5611745715141296,0.0707009499827816,0.1559776291674716,3.0065887378716343,0.0640463754534721,0.0017625294858589,0.0110893966630101,0.3328300565108657,0.3604854496568441,-10.947545399665833,14936.0
23.2,2.5,169.0,21.968481063842773,32.053600311279304,-79.78282298646954,40.45894206249017,271.6562238426209,0.0090103335678577,0.0087537001818418,0.8274859189987183,0.5613460540771484,0.0510661574068557,0.1576639352889982,3.044819543697177,0.0356622375547885,0.0076489690691232,0.0006149789551272,0.2539487602002919,0.0778391397558152,-10.281348731517792,14936.0
23.3,2.700000047683716,171.0,22.21638870239257,28.006147384643555,-79.78282310032914,40.45894205408652,271.96260459136965,0.0106895500794053,0.0077316048555076,0.8275163173675537,0.5612867474555969,0.0332026861497732,0.1651851386417883,3.0692251316943646,-0.1791014075279235,-0.0068658264353871,-0.0302821509540081,0.126319857398048,0.1874596690200268,-10.039549992084504,14936.0
23.5,2.799999952316284,172.0,22.01981544494629,31.695770263671875,-79.78282342365677,40.458941874386056,272.45222527694705,0.0185098070651292,0.0056529454886913,0.827149510383606,0.5616486072540283,0.0771081068341852,0.1465387016357638,2.952821344882545,-0.0896427556872367,0.0811966210603714,-0.0233235992491245,0.0508867555204778,0.3047781673260033,-9.636104391217232,14937.0
23.7,2.799999952316284,167.0,22.07615852355957,29.84300804138184,-79.78282340935492,40.45894165265125,272.9794097633362,0.0186397656798362,0.0084197241812944,0.8265421390533447,0.5625032186508179,0.0808242650263945,0.1379560928445066,2.882690437401757,0.0378299430012702,0.042688213288784,0.0459775999188423,0.0833974664099514,0.3094882274419069,-9.730047512054444,14937.0
23.81,2.900000095367432,166.0,21.99602699279785,30.566619873046875,-79.78282344658666,40.458941643262094,273.26737410736087,0.0182479601353406,0.0081240274012088,0.8265718221664429,0.5624768137931824,0.0631595863840611,0.1249744357093208,2.871366833198666,-0.0149312773719429,-0.0700836256146431,-0.0039975414983928,0.1277877917513251,0.1367983784805983,-9.724275725483896,14938.0
23.9,3.0,168.0,22.124988555908203,30.15312576293945,-79.7828231923312,40.4589413022734,273.4599719734192,0.0174558535218238,0.0080538112670183,0.8267142176628113,0.5622935295104979,0.0359124596770224,0.0930532687981494,2.8086714810202222,0.1150993034243583,0.0229859873652458,0.007723145186901,0.1538088698498904,0.1411157797928899,-9.804127056598665,14938.0
24.1,3.0,170.0,22.13249969482422,27.60855865478516,-79.78282309958706,40.458941263826816,273.8920870513916,0.015027966350317,0.0085535300895571,0.8267984986305237,0.5622324943542479,0.0121288437041438,0.0615792133818208,2.686655468934521,-0.0051590274088084,-0.0679065287113189,-0.0835623741149902,0.1603969459980726,0.2553692681528628,-9.55595602154732,14938.0
24.3,3.0,175.0,22.09493827819824,29.548791885375977,-79.78282304839361,40.45894124799643,274.1585369796753,0.0133552541956305,0.0079516833648085,0.8268988132476807,0.5621358752250671,0.0098105382374333,0.0403876251686828,2.6396992556689844,0.0719384849071502,-0.0179571975022554,0.0148408254608511,0.1806574934162199,0.1636080906540155,-9.428182665109636,14939.0
24.4,3.0,177.0,22.13625717163086,27.60855865478516,-79.7828232948727,40.45894151373338,274.6893811912537,0.0115524679422378,0.009116543456912,0.8270495533943176,0.5619363784790039,0.0343561708946257,0.026449771653907,2.570001014254604,0.0727637410163879,0.0608244016766548,0.0328097492456436,0.135526828346774,0.2529110073298216,-9.523054908514023,14939.0
24.61,3.0,179.0,22.043603897094727,30.542762756347656,-79.78282329613201,40.45894162860401,275.35476405334475,0.0110302595421671,0.0092738494277,0.8267425298690796,0.5623959302902222,0.0309084777296914,0.0302986330247558,2.564295498612525,-0.0792160108685493,-0.007525470573455,-0.0591007247567176,0.1131358113605529,0.1257535271532833,-9.470821146368984,14940.0
24.7,3.0,181.0,22.06363677978516,31.27432632446289,-79.78282324831163,40.458941662514896,275.6104903907776,0.0108535271137952,0.0080512752756476,0.8266814947128296,0.5625079274177551,0.0365573073603706,0.0146733485613371,2.552208998388364,-0.0858873128890991,-0.0124227264896035,-0.01714907027781,0.1509186825156211,0.207192340772599,-9.654226081967357,14940.0
24.8,3.0,182.0,22.06864547729492,29.175058364868164,-79.78282319058283,40.458941704641575,275.86511046600344,0.0103695020079612,0.0071157594211399,0.8266140222549438,0.5626287460327148,0.0497060209458488,0.0011373796581128,2.5499452925317683,-0.0260511524975299,-0.0297006405889987,0.0277632419019937,0.0985493015125394,0.1631523367390036,-9.794469795227052,14940.0
25.0,3.0,182.0,22.161296844482425,27.91072654724121,-79.78282327876066,40.45894177196739,276.5617876739502,0.0091904932633042,0.0056314882822334,0.8263494372367859,0.563054621219635,0.0641481303873736,-0.0079571169861334,2.627596282922302,0.0493903271853923,-0.0179903339594602,-0.0199543852359056,0.1538589366339147,0.1543717374466359,-9.875023376941682,14941.0
25.2,3.0,189.0,22.11246681213379,28.43554306030273,-79.78282352130309,40.45894198512679,276.9756212921143,0.0098842699080705,0.0049160309135913,0.8265538215637207,0.562749445438385,0.0825595358430267,0.0120453632100212,2.66701085510948,-0.0589420273900032,-0.0316755399107933,-0.0790783911943435,0.0984230016544461,0.1995456079579889,-9.634923253655437,14941.0
25.31,3.0,192.0,21.98976707458496,29.707826614379893,-79.78282346052308,40.4589421178557,277.50170237731936,0.0122985579073429,0.0026199761778116,0.8276686668395996,0.561076283454895,0.0890696089809359,-0.0143025715307395,2.5867358428199005,-0.0312805771827697,-0.0052917110733687,-0.0646477043628692,0.0811810975894331,0.2096170531958341,-9.424432260990145,14942.0
25.5,3.0999999046325684,200.0,21.89711570739746,31.98998641967773,-79.78282339428429,40.45894231601349,278.1557694168091,0.0072794444859027,0.0015119559830054,0.8287428021430969,0.5595804452896118,0.1037295118648156,-0.0208530275733436,2.5804560863755297,0.0176230929791927,-0.0226491317152977,0.0280572678893804,0.0279386267904192,0.1694730306789279,-9.433177356719971,14943.0
25.61,3.0999999046325684,204.0,22.03734397888184,30.773365020751957,-79.78282327584577,40.458942483158935,278.52482993316653,0.0053091049194335,-0.0011872404720634,0.8288047313690186,0.5595114827156067,0.0864866443929268,-0.0437589004962062,2.6246970413170247,-0.0364811643958091,-0.0794098079204559,0.022306140512228,0.0968152731657028,-0.0498227358609438,-9.748326492905615,14943.0
25.8,3.0,211.0,21.90963554382324,33.11118698120117,-79.78282322512734,40.45894255281862,278.7867089004517,0.0043885800987482,-0.004406230058521,0.8287108540534973,0.5596424341201782,0.0810094662283691,-0.059446671809432,2.615369820344952,-0.0251830630004406,-0.0975765138864517,-0.0361667275428772,0.056182396011427,0.0962447402346879,-9.738748753666876,14943.0
25.9,3.0,215.0,21.76064109802246,34.83672332763672,-79.78282301461225,40.45894267976976,279.4437266082764,0.0056654596701264,-0.0057797553017735,0.8285439014434814,0.5598657131195068,0.0689322578028653,-0.081800514835845,2.720199830481272,-0.1002523526549339,0.0400758050382137,-0.0278991404920816,-0.0139283143635839,0.1229207704402506,-10.051886447668076,14944.0
26.1,3.0999999046325684,228.0,21.93592834472656,31.74348068237305,-79.78282270769465,40.458942859112746,280.1099177093506,0.0068753794766962,-0.0004158130323048,0.8278769254684448,0.5608675479888916,0.0593447316781486,-0.0632163561119007,2.8536419590342765,-0.0448789782822132,0.0352477692067623,0.0174285229295492,0.0602320268237963,0.1212637974321842,-10.2082328081131,14945.0
26.2,3.0999999046325684,231.0,22.047361373901367,28.76951789855957,-79.78282264014318,40.458942896632855,280.3964815826416,0.0077311522327363,0.0004642700660042,0.8277900815010071,0.5609846711158752,0.0453829222174231,-0.0468004114021969,2.8737491132320154,-0.0282798483967781,-0.0229778736829757,0.0432990230619907,0.0683498122449964,-0.0706151880417019,-10.032349730730056,14945.0
26.3,3.0999999046325684,240.0,21.912139892578125,32.65793609619141,-79.78282256312744,40.45894292399303,280.6835270614624,0.0082391425967216,-0.0003256810596212,0.8283621072769165,0.5601323246955872,0.0379160537448339,-0.0448960397834764,2.8616356631109285,0.0516647174954414,-0.0777996778488159,-0.0047762519679963,0.0466047389991581,-0.0296136348042637,-9.760208619832992,14945.0
26.51,3.2000000476837163,244.0,21.974742889404297,29.56469535827637,-79.7828222043516,40.45894297783414,281.32822806549075,0.0033713360317051,0.0010551523882895,0.829227089881897,0.5589007139205933,0.0208618080366028,-0.0641866241708286,2.877381739394841,0.0953434482216835,-0.0859966054558754,-0.0246313381940126,0.0615540228970348,0.1378642436675727,-9.801299927830694,14946.0
26.61,3.2000000476837163,247.0,21.97348976135254,30.74155807495117,-79.78282220058641,40.45894308002951,281.6868000717164,-0.0022134180180728,0.0017067400040104,0.8286726474761963,0.5597267746925354,0.0074970031733835,-0.0523484265389662,2.88762685370448,0.0231544096022844,-0.0739288628101348,-0.0257120002061128,0.0234941947180777,0.0689363245200365,-9.650844637155531,14946.0
26.8,3.2000000476837163,254.0,21.992271423339844,31.01987075805664,-79.78282204805096,40.45894312809392,282.2611370773316,-0.0045784665271639,-0.0034053903073072,0.8271076679229736,0.562014639377594,-0.0162848483718273,-0.0873019582366673,2.8647952634447784,-0.0514953061938285,-0.0351792462170124,0.0476195812225341,-0.0302307079173624,-0.1329909914173186,-9.764615081548689,14947.0
27.0,3.0999999046325684,259.0,21.89335823059082,32.363719940185554,-79.78282213853585,40.45894323240309,282.62659175109866,-0.0022242877166718,-0.0053971675224602,0.8264603018760681,0.5629648566246033,0.0124166926051379,-0.0782163701976657,2.8906017577493297,0.0174397807568311,0.0022644533310085,0.024139879271388,-0.0556302269920706,-0.0328514847904443,-9.762395478487017,14947.0
27.1,3.0999999046325684,260.0,21.83701705932617,32.76926040649414,-79.7828218262719,40.45894341025922,283.2733116836548,0.0012041863519698,-0.0053093056194484,0.8258258700370789,0.563899040222168,0.0402852694563673,-0.0838797710372863,2.9433635864617886,-0.0371117331087589,0.0703473091125488,0.0305456146597862,-0.0319533981475979,0.0428527177590876,-9.968119236230851,14948.0
27.21,3.2000000476837163,260.0,21.89461135864257,31.94227600097656,-79.78282178118583,40.45894344473909,283.5689373703003,0.002889288123697,-0.0040470487438142,0.8255331516265869,0.5643317699432373,0.0447286786757903,-0.0720849131284689,2.966653843754148,0.0377311073243618,0.0399505943059921,0.0852679908275604,0.0127748345886357,0.0124844860704615,-10.023184804916385,14948.0
27.4,3.299999952316284,260.0,21.885847091674805,31.52878379821777,-79.78282153383043,40.45894355823344,284.2148981781006,0.0041564642451703,-0.0031560205388814,0.8258064389228821,0.5639296174049377,0.0453689347385635,-0.0545236944630117,3.000738789645156,0.0608854666352272,0.0292581524699926,0.0212799962610006,-0.023858869113028,-0.0126992204971611,-9.904453582763672,14949.0
27.5,3.299999952316284,260.0,22.02231979370117,29.16710662841797,-79.78282147956324,40.45894358258556,284.51542098236087,0.0026156199164688,-0.0024894217494875,0.8262510299682617,0.5632905960083008,0.0448912449309082,-0.0574856731043538,3.0052556813826654,0.1105277687311172,0.0073845721781253,0.0445285588502883,0.0463518834672868,-0.0007736888428917,-9.889644924402235,14949.0
27.71,3.299999952316284,258.0,21.803211212158203,33.36564254760742,-79.78282150662587,40.45894366049215,285.15647036743167,-0.0004284639144316,-0.0018552087713032,0.8271764516830444,0.561939001083374,0.028456945948703,-0.0392553623571644,2.9863093426391174,-0.0861294716596603,-0.0455037541687488,-0.083584189414978,-0.0815307793579995,0.1726355886273086,-9.691548274755476,14950.0
27.9,3.400000095367432,250.0,21.9309196472168,31.17890548706055,-79.78282156734826,40.45894365583622,285.80431468200686,0.0003231536829844,-0.0056810262612998,0.8280404806137085,0.5606395602226257,0.0460515786353033,-0.0220156681836694,3.0034415862808297,0.0014256910653784,-0.0592792779207229,-0.008857300505042,0.0274066900508478,0.0275840685353614,-9.89704983830452,14950.0
28.0,3.400000095367432,250.0,21.90337562561035,31.194808959960927,-79.782821579608,40.458943692191546,286.1046477050781,0.0009562289342284,-0.0076776379719376,0.8284900784492493,0.5599503517150879,0.0651965594862046,-0.0289369618528999,3.00157780004898,0.0308057572692632,-0.0066322414204478,-0.0565868318080902,-0.0350923708034679,0.2215196453779936,-9.73674725174904,14951.0
28.1,3.400000095367432,246.0,21.78693389892578,34.33575820922852,-79.78282142556172,40.45894369280132,286.4449415893555,0.0017570165218785,-0.0079498840495944,0.8288308382034302,0.5594401955604553,0.060800118413885,-0.040361257658245,3.0060446893284283,-0.0135170649737119,0.0644504278898239,0.0338571518659591,-0.0697770856088027,0.1389030746184289,-9.759499352574348,14951.0
28.3,3.5,245.0,21.849536895751957,31.98998641967773,-79.7828214631912,40.45894376162579,287.0497580261232,5.777020123787224e-05,-0.0019118748605251,0.8281891345977783,0.5604456067085266,0.0963154355583548,-0.0160442403512226,3.051844480499272,0.1684430688619613,0.0542415305972099,-0.0008421255624853,0.0363522539148107,0.2719321825727821,-10.088121643066406,14952.0
28.4,3.5999999046325684,241.0,21.870820999145508,31.822999954223643,-79.78282157300801,40.45894378705252,287.39073474121096,-0.0023738564923405,0.0017855550395324,0.8275315165519714,0.5614115595817566,0.0700977772500213,0.0153000485229323,3.0850591346843297,0.033635426312685,0.0200635474175214,-0.067559503018856,-0.0255143323517404,0.0856650349125266,-10.0010109937191,14952.0
28.6,3.5999999046325684,237.0,22.014806747436523,28.23674964904785,-79.78282193582451,40.45894379174924,288.04524142456063,0.0031130944844335,-0.0025022553745657,0.8267098665237427,0.5626143217086792,0.0683323705287285,0.0557820387868666,3.1189069233936064,-0.1603990644216537,0.0072618392296135,0.0571824945509433,0.0194166617235168,-0.0204864692129194,-9.965755791664124,14953.0
28.8,3.700000047683716,234.0,21.895862579345703,31.695770263671875,-79.78282211152735,40.458943894190455,288.6655302734375,0.0112698534503579,-0.0110642975196242,0.8271670937538147,0.5617341995239258,0.1403666831865364,0.039027199910007,3.0738902267270034,-0.1106679290533065,-0.0612465590238571,-0.0205073654651641,0.0173036926891654,0.2811212281510234,-9.737119134664535,14953.0
28.9,3.799999952316284,233.0,21.83075523376465,31.011919021606445,-79.78282212787694,40.45894386725647,289.0120783538818,0.0101060941815376,-0.0124516561627388,0.8274466991424559,0.5613152980804443,0.1552301310980007,0.0236686564634675,3.053615848951456,0.0093696480616927,-0.0316882580518722,-0.0901801362633705,-0.1128072252497077,0.3346715274453163,-9.538921912908556,14954.0
29.0,3.900000095367432,235.0,21.98600959777832,29.66011619567871,-79.78282219058944,40.458943906830285,289.31674105834963,0.0077897203154861,-0.0117114149034023,0.8276192545890808,0.561113715171814,0.1538891170152655,-0.005572524214785,3.0278633093542062,0.1033571287989616,-0.0060552633367478,0.0790109485387802,-0.2091226528398692,0.0562157753901556,-9.577248657345772,14954.0
29.2,4.0,234.0,21.872074127197266,30.176982879638672,-79.78282229921233,40.45894402741428,289.9621020050049,0.0048792250454425,-0.0113084288313984,0.8273123502731323,0.5616072416305542,0.1202042443227763,-0.0189700416084217,2.9677313121086986,0.0072493567131459,-0.0037785146851092,0.0288894567638635,-0.1337200935278087,0.2376298208534717,-9.459845337867735,14954.0
29.4,4.099999904632568,234.0,21.81447982788086,33.214561462402344,-79.78282248862881,40.45894424372343,290.6138277740479,0.0044239209964871,-0.0129077965393662,0.8260077834129333,0.5634936690330505,0.1308075230622901,-0.0185446368290292,2.9627573456387366,-0.0560927093029022,-0.0314000882208347,-0.0460546948015689,-0.1831052840687334,0.270386836566031,-9.518417481780055,14955.0
29.5,4.199999809265137,234.0,21.78693389892578,32.33191299438477,-79.78282254560851,40.45894429650818,290.9098673553467,0.0037294880021363,-0.0148020377382636,0.8257865905761719,0.5637761354446411,0.1342674084506254,-0.0220297294145022,2.95748551531788,-0.0278260093182325,-0.0968479067087173,-0.0236464291810989,-0.1099143975321203,0.3439126863330603,-9.538606747984886,14955.0
29.6,4.300000190734863,237.0,21.85078811645508,30.74950981140137,-79.78282256096865,40.45894445932191,291.25220782470706,0.0040566883981227,-0.0164743177592754,0.8261088132858276,0.5632553100585938,0.1543462972762338,-0.0344111684913233,2.993819352139542,-0.0375895611941814,-0.0515829250216484,-0.0423131845891475,-0.0875459562800824,0.1610288107395172,-9.85517441868782,14956.0
29.8,4.300000190734863,237.0,21.6917781829834,33.84275054931641,-79.78282272031699,40.45894460170085,291.8502188415528,0.0010552924359217,-0.0134974876418709,0.8268110752105713,0.5623167753219604,0.167571586059196,-0.0219749876473047,2.9900801911639667,0.0243168268352746,0.0112791443243622,-0.0136889116838574,-0.1919129267334938,-0.0143296800367534,-9.898078948259354,14956.0
29.92,4.300000190734863,236.0,21.80571556091309,32.07745742797852,-79.7828223822448,40.45894470775772,292.1884661407471,0.0040536834858357,-0.013322252780199,0.8273707628250122,0.5614836812019348,0.13620887896775,-0.0532030992232207,3.0474614799499458,-0.0805119797587394,0.0632574334740638,0.0239351745694875,-0.0834229748882353,0.1907609887048602,-10.151876174211502,14957.0
30.1,4.300000190734863,236.0,21.83451271057129,32.14902114868164,-79.7828224277195,40.4589448450041,292.82050234985354,0.0127104725688695,-0.011140152812004,0.8285768032073975,0.5596203804016113,0.1753930795538594,-0.0226821949751661,3.057403141211972,-0.1114546433091163,0.0275653041899204,-0.0594543628394603,-0.1080126820039004,0.2850659608282149,-9.75373224377632,14957.0
30.3,4.400000095367432,230.0,21.7205753326416,35.40129852294922,-79.78282247179436,40.45894491768578,293.1257582397461,0.0140017811208963,-0.0118890460580587,0.8291944265365601,0.5586585402488708,0.1846521560347863,-0.0161673925054297,3.0432265439739217,-0.0615491494536399,-0.0233438163995742,-0.0508863814175128,-0.1702521356195211,0.2986839616298675,-9.70285152733326,14958.0
30.41,4.400000095367432,227.0,21.716819763183597,34.02564239501953,-79.78282245052851,40.458945059806005,293.7514010162354,0.0116561343893408,-0.0167778767645359,0.8291701674461365,0.5586228966712952,0.194239897325933,-0.0317655013195153,3.0493485287544733,-0.014938861131668,-0.0793685764074325,-0.02478813752532,-0.1942800258100032,0.4208461106568575,-9.707833939790726,14958.0
30.6,4.400000095367432,224.0,21.73184394836425,32.125167846679695,-79.78282240614446,40.45894516696328,294.3745890350342,0.0110051054507493,-0.017036048695445,0.8285443782806396,0.5595560073852539,0.1790905079315944,-0.0575530338252755,3.0680035968829937,0.0066765542142093,0.0441884659230709,-0.0211585257202386,-0.2124748067557812,0.2952630115672946,-9.95668676018715,14959.0
30.71,4.400000095367432,223.0,21.88960266113281,29.365901947021484,-79.78282243528925,40.45894520898796,294.68262583923337,0.0122712897136807,-0.0154146002605557,0.829025149345398,0.5588641166687012,0.1675979226092925,-0.0398907656005142,3.080800537153875,0.059713676571846,0.0089149745181202,-0.0310425702482461,-0.0377507069008424,0.339418735653162,-9.894133247137072,14959.0
30.81,4.400000095367432,221.0,21.77942276000977,33.28612518310547,-79.78282246663214,40.45894523757625,294.99030215454104,0.0141159258782863,-0.0150451157242059,0.8300873041152954,0.5572517514228821,0.1464089703656061,-0.0182092432076542,3.0561618638832573,-0.0407035313546657,0.0388675518333911,-0.0189634356647729,-0.0432898199697956,0.2985729558952153,-9.577738654017448,14959.0
31.01,4.400000095367432,219.0,21.749372482299805,31.68781852722168,-79.78282253555395,40.45894527856175,295.5986948699952,0.0132102668285369,-0.0133560001850128,0.8306134343147278,0.5565325021743774,0.1557619551741834,-0.0010113049054552,3.0091529214678783,0.1675654053688049,0.0065349037759006,-0.0299760419875383,-0.0776093807257712,0.3342554249614477,-9.709212128520011,14960.0
31.2,4.5,218.0,21.63167953491211,34.892383575439446,-79.78282263154044,40.45894525777807,296.2155657501221,0.0070171072147786,-0.0097708711400628,0.8298053145408629,0.557923436164856,0.0957482936441575,0.0166363634096389,3.017223319484033,0.0030220188200473,-0.0270875114947557,0.0405776873230934,-0.0480927411792799,0.1965973504632711,-9.724030727148056,14961.0
31.3,4.5,218.0,21.785682678222656,32.16492462158203,-79.7828226741466,40.458945256069,296.51947695922854,0.0074880844913423,-0.0115935988724231,0.8293275237083435,0.5585924386978149,0.0812238815410564,0.0076400482641212,3.055159886923897,-0.0294155236333608,-0.0390521176159381,0.0115068247541785,-0.0658472222182899,0.2252345459349453,-10.104680957794187,14961.0
31.4,4.5,221.0,21.816984176635746,31.425411224365234,-79.78282277286249,40.45894525272064,296.837548324585,0.0090198088437318,-0.0130292512476444,0.8286514878273009,0.5595406293869019,0.1024032034696488,0.0114859181332836,3.068686220149436,-0.0211907252669334,-0.0274982657283544,0.0986252874135971,-0.0716503416420892,0.1871369209885596,-10.044297931194306,14961.0
31.6,4.599999904632568,224.0,21.67550277709961,33.34973907470703,-79.78282299120453,40.45894525382853,297.4641657562256,0.0116846226155757,-0.0112048909068107,0.8275122046470642,0.56121426820755,0.1368349180562854,0.0221794238427907,3.062583809311752,0.0573121346533298,0.0718169435858726,-0.0201379116624593,-0.039677305072546,0.3797620020434261,-9.859565677642824,14962.0
31.8,4.599999904632568,224.0,21.888351440429688,29.49312973022461,-79.78282305707225,40.45894526681725,297.77154071044924,0.0160603448748588,-0.0087087992578744,0.8281914591789246,0.5601475238800049,0.1351834411484271,0.0214116968625594,3.077323673137712,-0.004758033901453,0.1085578352212906,-0.017933489754796,-0.1104083410743624,0.2376165367104113,-9.904726063013078,14962.0
31.9,4.599999904632568,224.0,21.70805549621582,32.79311752319336,-79.78282315908109,40.45894525481189,298.3956423492432,0.016317743808031,-0.0081765949726104,0.829598069190979,0.558062732219696,0.1563461605381443,0.0437795089188151,3.01450344116084,0.0414875634014606,-0.1363637596368789,0.0029432077426463,-0.1370697532407939,0.2339211146906018,-9.494631008505822,14963.0
32.1,4.699999809265137,216.0,21.61164665222168,35.8227424621582,-79.78282321100258,40.45894524437496,299.0191717834473,0.0050639961846172,-0.0144439227879047,0.8290226459503174,0.5590056777000427,0.1302086369796752,-0.0144115659754262,3.0146719232654537,-0.0004220913397148,-0.1663517206907272,-0.044054802507162,-0.1758678198046982,0.3196922765672207,-9.61611159145832,14964.0
32.2,4.699999809265137,223.0,21.619159698486328,35.210453033447266,-79.78282324716336,40.45894528369647,299.3227682800293,-0.0009357771486975,-0.0183337219059467,0.8289716839790344,0.558989405632019,0.1342465976628129,-0.0376467966786214,3.0587330206653567,0.0219509154558181,-0.1395169794559478,0.0051311687566339,-0.0825414797198027,0.4723831770569086,-9.80972459614277,14964.0
32.3,4.800000190734863,222.0,21.61289978027344,35.05141830444336,-79.78282330169476,40.458945331648174,299.6321230621338,-0.003002543002367,-0.0207066368311643,0.8292717933654785,0.5584537386894226,0.1308059860570756,-0.0647648373417019,3.125504064256452,-0.0250064395368099,-0.0691561996936798,-0.0046284077689051,-0.3147643163055181,0.2054276328161358,-10.380323381423947,14964.0
32.5,4.800000190734863,223.0,21.92340850830078,28.42759132385254,-79.78282332627043,40.458945302131255,300.27072817993167,0.0085266474634408,-0.0189398750662803,0.8302160501480103,0.5570547580718994,0.1473369194220151,-0.0665169007463708,3.18476105863294,-0.1521786153316497,0.0575461164116859,0.0062383455224335,-0.2455916455015539,0.3048072754964233,-9.89629437804222,14965.0
32.6,4.900000095367432,227.0,21.725584030151367,32.75335693359375,-79.78282361928675,40.45894526044688,300.57805926513674,0.0134105030447244,-0.0199866537004709,0.8298404812812805,0.5574814081192017,0.1703537158304349,-0.0076079386655964,3.1073655344377387,-0.1248646676540374,-0.0625800564885139,-0.0902412831783294,-0.0939173199981451,0.4924863064661622,-9.494584815502169,14965.0
32.8,4.900000095367432,226.0,21.76189422607422,31.838903427124023,-79.78282380496616,40.45894532737978,301.1962919921875,0.0134056638926267,-0.021971071138978,0.8279095292091371,0.5602707862854004,0.2172415845736789,0.0045053131495789,3.075455424301276,0.1073020994663238,0.0050353948026895,0.0785936191678047,-0.2109380853921175,0.368903941847384,-9.694217528700827,14966.0
33.0,4.900000095367432,225.0,21.89711570739746,29.23867225646973,-79.78282394352931,40.45894534081939,301.8181296081543,0.0105914091691374,-0.021158143877983,0.8270072937011719,0.5616931319236755,0.1816387248886721,-0.0005904128076789,3.0554425720250444,0.081820361316204,0.0038461377844214,-0.030558368191123,-0.1672363610565662,0.3487523170933128,-9.71231349170208,14966.0
33.1,4.900000095367432,225.0,21.739356994628903,33.166847229003906,-79.78282409954814,40.458945377756585,302.13985736083987,0.0105157559737563,-0.0193899050354957,0.8269689679145813,0.5618148446083069,0.1746615826565322,0.0131331945433632,3.0293223341207947,-0.1074579507112503,-0.0024821907281875,-0.020944770425558,-0.2361542028933763,0.3831770318001509,-9.501611414551736,14967.0
33.2,4.900000095367432,227.0,21.79820251464844,30.701799392700195,-79.78282421063196,40.4589453997641,302.442435333252,0.012830352410674,-0.017765924334526,0.8269789814949036,0.5618056058883667,0.1735859602138672,0.0197081783703542,3.0191226049656072,-0.0511318705976009,0.0605479776859283,-0.0425667874515056,-0.0823304591886699,0.4136075500398875,-9.717940267324447,14967.0
33.4,5.0,221.0,21.78192710876465,31.01987075805664,-79.7828245428139,40.45894538835347,303.0644674987793,0.0189688876271247,-0.0175005160272121,0.8277504444122314,0.5605025291442871,0.2055771322448272,0.0555740077408365,3.0105143832204933,-0.0425482094287872,0.0279635433107614,-0.0486447066068649,-0.2331804917380213,0.578455396592617,-9.660447519421576,14968.0
33.6,5.0,220.0,21.83075523376465,30.495052337646484,-79.782824867346,40.45894534538944,303.6899710388184,0.0220771208405494,-0.0180462226271629,0.8284287452697754,0.5593682527542114,0.2260954493708626,0.0791050545942324,3.0200705856629586,-0.058854091912508,-0.0136090274900197,0.0096199437975883,-0.0201309585012495,0.4247916290536523,-9.768221644163132,14968.0
33.7,5.0,220.0,21.695533752441406,32.968055725097656,-79.78282498962844,40.45894536598311,303.9923277587892,0.0222253464162349,-0.0192086622118949,0.8283649682998657,0.5594180822372437,0.2262145635374503,0.0688743071067235,3.0121030784152136,-0.0359137691557407,-0.0908408612012863,-0.0428714975714683,-0.0791199723444879,0.4345252696797252,-9.818739248514175,14968.0
33.8,5.0,220.0,21.71431541442871,33.0078125,-79.78282510415559,40.45894538114575,304.29444415283206,0.0224668029695749,-0.0212967060506343,0.8284930586814879,0.5591431260108948,0.2292637586157716,0.0602940884436302,3.0142603313868426,0.0010089626302942,-0.0070149209350347,-0.0317780748009681,-0.1027242865785956,0.5180247517302633,-9.793864023685456,14969.0
34.0,5.0,217.0,21.86080551147461,30.359872817993164,-79.78282533299634,40.458945385132864,304.918509552002,0.0216535720974206,-0.0213149283081293,0.8291003108024597,0.5582736134529114,0.2193012656538595,0.0322753154912766,3.0414906083809483,9.881906589725986e-05,-0.0311250127851963,-0.0910732820630073,-0.1495978969987482,0.6290390744805336,-9.79027149438858,14969.0
34.1,5.0,215.0,21.74436378479004,32.594322204589844,-79.782825376866,40.45894530633738,305.2350989074708,0.0205704290419816,-0.0198327042162418,0.8292576670646667,0.5581355690956116,0.19626047922564,0.0320244503603184,3.02325651619335,-0.0086093740537762,0.0146344834938645,0.0132706947624683,-0.1357343588210642,0.5763288008049131,-9.629132171273232,14970.0
34.3,5.0,215.0,21.65046119689941,33.64395523071289,-79.78282552072207,40.45894528548392,305.8392706604004,0.0221697706729173,-0.0175789427012205,0.8299307823181152,0.5571485161781311,0.165475687634303,0.0227759865089666,3.0168141131327872,-0.0735417455434799,0.0508859157562255,-0.0598134547472,-0.2349371780455113,0.3555582202970981,-9.777137478590012,14970.0
34.5,5.0,212.0,21.660476684570312,33.826847076416016,-79.78282557265761,40.45894520799493,306.15476138305667,0.0286357682198286,-0.0155175570398569,0.8301262259483337,0.5566235780715942,0.1556697256513439,0.0260186044788335,3.0304066872185937,-0.1039657443761825,0.153325617313385,0.0535527653992176,-0.2529684196785092,0.3655696402117609,-9.872794418334964,14971.0
34.61,5.0,206.0,21.74436378479004,33.198657989501946,-79.78282560859914,40.45894505307171,306.7729101867676,0.0336200855672359,-0.012749508023262,0.830501914024353,0.5558542013168335,0.1689164280205507,0.0655575437563055,3.038139723423622,0.1008579656481742,0.0596664883196353,-0.029206434264779,-0.0089994770195335,0.4121723144128919,-9.783969950079918,14971.0
34.8,4.900000095367432,205.0,21.82574844360352,29.914573669433597,-79.78282555240371,40.45894492008836,307.3827696533204,0.0244862213730812,-0.0113618001341819,0.8310146331787109,0.555595338344574,0.1044110761614795,0.0323492245648042,3.0714552945371296,0.1581590175628662,-0.044683288782835,0.0514599159359932,0.026383772206027,0.4341020043566824,-9.832088441848756,14972.0
34.9,4.900000095367432,205.0,21.75062561035156,31.441314697265625,-79.78282571949323,40.45894500618819,307.7287016601564,0.0199270453304052,-0.0106964912265539,0.8309880495071411,0.5558303594589233,0.0965610259716399,0.0268811771546787,3.0823800066355407,0.0133581776171922,-0.071458913385868,-0.0617681741714477,0.0602223469410091,0.5948985709995032,-9.728367606997493,14972.0
35.0,4.900000095367432,206.0,21.7205753326416,32.761306762695305,-79.78282568539423,40.45894495641793,308.03662020874026,0.0163928791880607,-0.0116931973025202,0.8307387828826904,0.5562982559204102,0.0793307271643444,0.0055513630182448,3.0726037486131856,0.0769120454788208,-0.0909020453691482,-0.0687779411673545,0.0111499207676388,0.5713151422888041,-9.728443620800974,14973.0
35.2,4.900000095367432,208.0,21.736852645874023,31.52878379821777,-79.78282592316378,40.458944845818905,308.6902914733887,0.012566459365189,-0.0158217325806617,0.8305688500404358,0.5565493106842041,0.0907556387218786,-0.0001435718171914,3.1160271461081983,-0.065892107784748,-0.1096544712781906,-0.0392346307635307,-0.0920140787120908,0.4959141635522247,-9.92406280517578,14973.0
35.4,4.800000190734863,207.0,21.796951293945312,30.956254959106445,-79.78282602146227,40.45894477412487,309.3451452941895,0.0081374356523156,-0.0159976407885551,0.8311694860458374,0.5557295083999634,0.1286968039874169,-0.0093660607399969,3.1668499577355185,0.0102742398157715,-0.0024816165678203,-0.0569622628390789,-0.0197498296760022,0.5336316281184554,-9.923910777568818,14974.0
35.5,4.800000190734863,206.0,21.790691375732425,29.64421272277832,-79.78282607988393,40.4589447806756,309.6623945922852,0.008261788636446,-0.0164207909256219,0.8312252163887024,0.5556319355964661,0.139753093748508,-0.0122814318278581,3.1687930527800985,0.0511001795530319,0.0097903255373239,0.0548903308808803,0.0538531074067577,0.4599410695955157,-9.849627749919891,14974.0
35.6,4.800000190734863,212.0,21.7456169128418,30.70975112915039,-79.78282594437202,40.45894460861872,309.99938876342776,0.0124854538589715,-0.0143887950107455,0.8311551809310913,0.5557141304016113,0.1148057508393831,-0.0247397801118854,3.1628930701110263,-0.1423362493515014,0.0536322072148323,0.0005821784143336,-0.0815754466038197,0.5297196581214667,-9.62804517388344,14974.0
35.81,4.800000190734863,207.0,21.7205753326416,32.08540725708008,-79.78282602598358,40.458944640854895,310.62903887939456,0.0260056480765342,-0.0099795442074537,0.8307909369468689,0.5558872222900391,0.1832277483693835,0.0367453053644528,3.140209420724632,-0.1206558346748352,0.0226725451648235,-0.0498575903475284,0.0870066328626126,0.609602344930172,-9.743843432664873,14975.0
36.0,4.800000190734863,207.0,21.753129959106445,30.70975112915039,-79.78282604000715,40.45894456395421,310.9603377075196,0.0274237189441919,-0.0107087818905711,0.8306573033332825,0.5560051798820496,0.1905577655489285,0.0580837670152551,3.1593417508464703,-0.1064362600445747,-0.0834962874650955,-0.167195439338684,-0.0117478785105049,0.5933551253378392,-9.82536531329155,14975.0
36.1,4.800000190734863,207.0,21.87833404541016,27.97434043884277,-79.78282597099259,40.45894452213778,311.602290222168,0.0206806045025587,-0.015566830523312,0.8306479454040527,0.5561961531639099,0.1895369187116104,0.0151317540764051,3.167858363922204,0.0050379419699311,-0.0929496958851814,-0.0197933539748191,-0.0444288484426215,0.6138545863330365,-9.812052372694016,14976.0
36.3,4.800000190734863,203.0,21.666736602783203,33.278175354003906,-79.78282595888327,40.45894454573413,312.2324515075684,0.0114941401407122,-0.0178610254079103,0.8302314877510071,0.5570141077041626,0.1472493523327244,-0.0505776737943992,3.1392311514564866,-0.0142726050689816,-0.0108674159273505,0.1223418414592742,-0.1440001473203301,0.3240772497653961,-9.620684698820115,14977.0
36.4,4.800000190734863,209.0,21.597875595092773,34.097206115722656,-79.7828258361567,40.45894441083775,312.55660922241213,0.0131871225312352,-0.017126465216279,0.8304333090782166,0.556698739528656,0.1183650451290815,-0.0732975913155914,3.1615149759215897,0.0189098436385393,0.0581385307013988,0.0171519983559846,-0.1949019320122897,0.4514547131583095,-9.78072357594967,14977.0
36.5,4.800000190734863,210.0,21.695533752441406,31.958179473876957,-79.78282581887811,40.4589444147583,312.8749838562012,0.0164624061435461,-0.015387431718409,0.8306466341018677,0.5563438534736633,0.1414489664319434,-0.0542320556503869,3.197281851238784,0.0386912710964679,0.0552535690367221,0.116745576262474,-0.0704213619790971,0.2786469971202314,-10.175143414735793,14977.0
36.7,4.800000190734863,210.0,21.743112564086918,31.66396331787109,-79.78282607531622,40.458944310828095,313.5082617492676,0.0212026424705982,-0.0119153400883078,0.8307756185531616,0.556075930595398,0.1625764598777547,-0.004324756398922,3.198965763842055,-0.0259248446673154,0.0210821963846683,0.0346871204674243,-0.017468684669584,0.5103701251745224,-9.866284128427504,14978.0
36.8,4.800000190734863,207.0,21.736852645874023,31.44926643371582,-79.78282608947613,40.45894432876153,313.8280859680176,0.0227826628834009,-0.0127630485221743,0.8312098383903503,0.5553452968597412,0.184135941854538,0.0138855780038421,3.1873381015492432,0.0297519527375698,0.040263146162033,-0.0047183209098875,-0.0318312164652161,0.5037201233580709,-9.710182181596757,14978.0
37.0,4.800000190734863,207.0,21.76439666748047,31.457218170166016,-79.78282603656801,40.458944261834,314.4650908203125,0.0185928680002689,-0.0170572623610496,0.8316733241081238,0.5546917915344238,0.1665902304712892,-0.0137312891672652,3.1215447821884954,-0.0224352404475212,-0.0710057467222213,0.0243946723639965,0.0303338884329423,0.6231257852911949,-9.674536385536197,14979.0
37.21,4.699999809265137,207.0,21.81072425842285,30.62228202819824,-79.78282585307127,40.4589441435302,315.09013278198245,0.0146418577060103,-0.0176891610026359,0.831722617149353,0.5547162890434265,0.1283690557808045,-0.0611144666263165,3.1017932311219067,-0.0633946284651756,0.0414971113204956,-0.056434404104948,-0.0797179963253438,0.3585014893859625,-9.60499778866768,14980.0
37.31,4.699999809265137,207.0,21.84703254699707,28.98421669006348,-79.78282583313077,40.458944139216726,315.3998594970704,0.0141890458762645,-0.0160099361091852,0.8316699862480164,0.5548580884933472,0.1221628093783764,-0.0513905511085691,3.0894578853733674,-0.0213327277451753,0.0059394473209977,0.0253767203539609,-0.0054901517741382,0.4257676024362445,-9.688350432515143,14980.0
37.4,4.699999809265137,211.0,21.68927383422852,32.228538513183594,-79.78282561399044,40.45894393796823,315.7182341308594,0.0127732045948505,-0.0150846168398857,0.8316184878349304,0.554995596408844,0.0933006750872776,-0.0493128148976391,3.0857813712398467,0.0681682229042053,0.0109000662341713,0.0903216749429702,-0.1079715961776673,0.3420333181321621,-9.675097718238831,14980.0
37.6,4.699999809265137,213.0,21.791942596435547,31.0914363861084,-79.78282546830167,40.45894389124896,316.3478842468262,0.0073383077979087,-0.014681315049529,0.831578254699707,0.55516517162323,0.1047344128491034,-0.0553462198012461,3.1430933611460574,-0.0083200791850686,0.0281092710793018,-0.017774436622858,-0.1893659526854752,0.4710550551116467,-10.13162024974823,14981.0
37.8,4.599999904632568,212.0,21.78693389892578,29.16710662841797,-79.78282547351728,40.45894391937134,316.9823256225586,0.0123154446482658,-0.0154804959893226,0.8310728669166565,0.5558118224143982,0.1355292577813916,-0.0398698196204049,3.1867543309191806,-0.0413338094949722,0.0270459465682506,-0.0439765527844429,-0.1440658371336758,0.4440543308481574,-10.119845126867297,14981.0
37.9,4.5,212.0,21.84703254699707,29.381805419921875,-79.78282554765892,40.45894394878518,317.292719909668,0.0155734969303011,-0.0154851721599698,0.8304371833801271,0.5566792488098145,0.1719685602183373,-0.0245062391858475,3.1626872699175546,0.0235236547887325,0.0319447889924049,0.030506394803524,-0.0220245336089283,0.3777366361767054,-9.803140631318092,14982.0
38.0,4.5,207.0,21.796951293945312,30.53481101989746,-79.78282558642258,40.45894398036436,317.60863024902346,0.0190310887992382,-0.015695558860898,0.8297242522239685,0.5576282143592834,0.1722818599907029,-0.0054687535306535,3.147443330248536,-0.101627767086029,-0.0226266216486692,0.023008432239294,-0.0603675177739933,0.5212274910137058,-9.667785190343857,14982.0
38.21,4.400000095367432,207.0,21.793193817138672,28.682048797607425,-79.7828255711847,40.45894392033645,318.2342596740723,0.0172063671052455,-0.0174584351480007,0.8304083943367004,0.5566157698631287,0.1763753900502648,-0.0059646421103585,3.1126267552024727,-0.0153415445238351,-0.0506468191742897,-0.0425605401396751,0.0264681479847058,0.384914970472455,-9.631202670335773,14983.0
38.3,4.300000190734863,208.0,21.801958084106445,29.89071846008301,-79.78282558677675,40.45894393181686,318.54475314331063,0.0159849859774112,-0.0174733791500329,0.8315111994743347,0.5550030469894409,0.1502130002718431,-0.0255994870045468,3.0871150719281566,-0.0378820598125457,0.0106058828532695,-0.0623753704130649,-0.184416284635663,0.3862481721863151,-9.538272871971133,14983.0
38.5,4.300000190734863,209.0,21.73184394836425,31.89456558227539,-79.78282562531977,40.45894383411532,319.1617155761719,0.0135783087462186,-0.0120434863492846,0.8345049619674683,0.5507014989852905,0.1095153530303448,-0.0242410860687531,3.0301634132139883,0.0087416339665651,-0.0271983593702316,-0.043371956795454,-0.0680524539202451,0.3446943859755993,-9.473621962666511,14984.0
38.7,4.199999809265137,211.0,21.67800521850586,32.944198608398445,-79.7828257184307,40.45894372732413,319.4749479980469,0.0115940375253558,-0.0121440785005688,0.8354382514953613,0.5493277907371521,0.0912532690146317,0.0081022360068048,3.024578109423443,0.0297783985733985,-0.0117398435249924,-0.0602373480796814,-0.1512472229450941,0.3492935134470463,-9.53221106350422,14984.0
38.8,4.199999809265137,214.0,21.7456169128418,29.588550567626957,-79.78282575830609,40.45894367496236,320.07556063842776,0.0090723475441336,-0.0128075620159506,0.8357658982276917,0.548861563205719,0.0741810384387841,-0.0045685713732882,2.9923808435820107,0.0634134262800216,0.0039091655053198,0.0608711764216423,-0.0997449109330773,0.0364378379657864,-9.749435709714891,14985.0
39.0,4.199999809265137,215.0,21.70805549621582,32.49094772338867,-79.78282588405719,40.45894363482065,320.6923437805176,0.0075439023785293,-0.0090509047731757,0.8343452215194702,0.551116406917572,0.0694562946087772,0.0192044290965466,3.0071464600816467,-0.0917045772075653,-0.0260922536253929,0.020072728395462,-0.0513504899712279,0.335827704705298,-9.74893986582756,14985.0
39.11,4.199999809265137,215.0,21.801958084106445,29.81120109558105,-79.7828259436004,40.45894354522861,321.0014372558594,0.0070579582825303,-0.0077329655177891,0.8334231972694397,0.552536129951477,0.0767232365288593,0.0338088977207938,3.0323482995526407,0.0201586596667766,0.0016937713371589,0.0406523905694484,-0.0441405533021316,0.2952937277220189,-9.838064296245577,14986.0
39.2,4.199999809265137,216.0,21.71807098388672,31.711673736572266,-79.78282600124909,40.45894353216043,321.3044844360352,0.0105813322588801,-0.0079455953091382,0.8326542973518372,0.5536351203918457,0.0661995847178622,0.0344922340949693,3.024428187394756,-0.126675009727478,0.0661352649331092,0.0362357720732688,-0.1035754767246544,0.2086173620447516,-9.715624185204506,14986.0
39.41,4.199999809265137,217.0,21.56156539916992,34.8685302734375,-79.78282608359571,40.45894343725009,321.91276461791995,0.0163638181984424,-0.0101999901235103,0.8320498466491699,0.5543657541275024,0.1297171579590238,0.0363900450650761,3.027907095867198,0.0030053025111556,-0.0147490855306386,-0.0098220994696021,-0.1422624370548874,0.4894528075307608,-9.754883560538293,14986.0
39.6,4.199999809265137,218.0,21.706802368164062,32.18082809448242,-79.78282612957497,40.45894344015723,322.21688754272463,0.015577950514853,-0.0118017317727208,0.8320620656013489,0.5543382167816162,0.1352875870539341,0.0353304672629314,3.0548321313296123,-0.0049843662418425,-0.0497142933309078,0.0842212289571762,-0.1070031693577766,0.2182945770397782,-10.103574664592744,14987.0
39.71,4.199999809265137,218.0,21.632932662963867,32.570465087890625,-79.78282611861106,40.45894327683144,322.82813555908206,0.019313272088766,-0.0127381766214966,0.8316812515258789,0.5547713041305542,0.11354053907084,-0.0027536464651163,3.0774906729219165,0.0417693965137004,0.1146773919463157,0.0534218028187751,-0.1129658766556531,0.1537982900440693,-9.928374541997911,14987.0
39.9,4.300000190734863,219.0,21.664234161376957,32.093360900878906,-79.78282605638623,40.458943114837886,323.43660266113284,0.020844466984272,-0.011165983043611,0.8323014974594116,0.5538187026977539,0.1057393860723376,0.013963074910608,3.0979287669884354,0.0133701162412762,-0.045735664665699,-0.030988885089755,-0.0042282346996944,0.3889079609513283,-9.933477991819382,14988.0
40.0,4.400000095367432,212.0,21.69428253173828,29.77144241333008,-79.78282601955506,40.45894307302039,323.7472067565918,0.0213723722845316,-0.0127366790547966,0.8324412107467651,0.5535547137260437,0.0867753553416976,0.0032663545846176,3.1067708664622766,0.0065674055367708,-0.0425436906516552,-0.052140325307846,-0.0079651137068867,0.3546174032986164,-9.830023205280304,14988.0
40.11,4.400000095367432,212.0,21.753129959106445,30.773365020751957,-79.78282595042245,40.45894285536716,324.04065234375,0.0209734793752431,-0.0139279989525675,0.8325071930885315,0.5534419417381287,0.0786582590266897,-0.0139830792880423,3.0607195195760104,0.0378008596599102,-0.0475444979965686,-0.0315908677875995,0.0062374533433467,0.3728758458048105,-9.68060638010502,14989.0
40.3,4.5,211.0,21.749372482299805,30.2962589263916,-79.78282581255219,40.45894273677351,324.64820391845706,0.0144763616845011,-0.0154720032587647,0.832710862159729,0.5533027052879333,0.0590280696792664,-0.046410132451647,3.0358086528625154,0.0906756371259689,-0.0784902572631836,0.0027578687295317,-0.1160257337428629,0.3830984963849187,-9.760233178138732,14989.0
40.51,4.5,216.0,21.71807098388672,30.009994506835927,-79.78282548213268,40.45894248746919,325.2453642578125,0.0018955225823447,-0.0169453006237745,0.8324190378189087,0.5538842678070068,0.0137603409561179,-0.0881210251795487,3.015172184103061,0.1197178065776825,-0.0108362855389714,0.0633753910660743,-0.1584352051466703,0.4744779420644045,-9.716978400349618,14990.0
40.6,4.5,220.0,21.73184394836425,31.775287628173828,-79.78282520027281,40.45894223290991,325.5377264709473,7.054984598653391e-05,-0.0167866274714469,0.832021951675415,0.5544888377189636,-0.0385632569852947,-0.10975836814072,3.0019471712136467,-0.0571692585945129,0.0351699441671371,-0.0225079376250505,-0.1736116351000964,0.4504209254309535,-9.651509465575216,14990.0
40.7,4.599999904632568,220.0,21.64294815063477,32.79311752319336,-79.78282513527927,40.45894216359483,325.8369856567383,0.0008085886365734,-0.017054546624422,0.8315231204032898,0.5552276968955994,-0.0321413718849276,-0.0976304511796114,2.9883831725439034,-0.044720634818077,-0.0235656797885894,0.1142102479934692,-0.1686218770779669,0.2249087281152606,-9.75005200624466,14990.0
40.9,4.599999904632568,220.0,21.630428314208984,32.78516387939453,-79.7828249342313,40.458941893232,326.4371824951172,0.0063540558330714,-0.0174684114754199,0.8310767412185669,0.55584716796875,0.0120750701978325,-0.0740100993350288,3.029926312153464,0.0609757006168365,0.0605546087026596,0.0379966348409652,-0.1199625361338257,0.4285430564358831,-9.98597312450409,14991.0
41.1,4.599999904632568,227.0,21.809471130371094,28.79337310791016,-79.78282491497102,40.45894183570972,326.7416830749512,0.0094091948121786,-0.0157026555389165,0.8310632109642029,0.5558766722679138,0.040945798835057,-0.0515011192344721,3.055363800427505,0.0824467092752456,0.0540018416941165,0.1423933207988739,-0.0502286239899694,0.2989738556183874,-10.047563016414642,14991.0
41.2,4.599999904632568,221.0,21.590362548828125,32.896488189697266,-79.78282480751183,40.45894162290675,327.34210498046883,0.0045834393240511,-0.0136340614408254,0.8311464786529541,0.5558675527572632,0.0396612756136676,-0.0270030135227973,3.030983784214841,0.0132480692118406,-0.122954212129116,-0.0260596945881843,-0.0829013667069375,0.3413218581676483,-9.660975522994995,14992.0
41.4,4.599999904632568,221.0,21.72683525085449,30.28830718994141,-79.78282468849144,40.458941416713536,327.936217376709,0.0063549666665494,-0.0143871707841753,0.8318873047828674,0.5547217726707458,0.035876197662811,-0.0434971047724565,3.009464283256849,-0.0470952279865741,0.0498989969491958,-0.0350240431725978,-0.1033727245219051,0.4115697222948074,-9.660615919232368,14992.0
41.51,4.599999904632568,222.0,21.67800521850586,32.46709442138672,-79.78282469304509,40.458941391962064,328.23652560424813,0.0083066029474139,-0.0131594045087695,0.8321166038513184,0.5543825030326843,0.0603272967757925,-0.0333107027795461,2.992055853348964,-0.0188191812485456,0.0072939423844218,-0.0205625966191291,-0.1557959547266364,0.3686734519153833,-9.633754979968067,14993.0
41.6,4.599999904632568,222.0,21.75438117980957,29.143251419067383,-79.78282460240631,40.45894124199751,328.52905184936526,0.0090863769873976,-0.0136703327298164,0.8322735428810121,0.5541222095489502,0.0668903622576351,-0.0229481364766262,2.9827082027599405,-0.0452845096588134,-0.027920801192522,-0.0111660826951265,-0.0940510385110974,0.3100186064466834,-9.737186962366104,14993.0
41.8,4.599999904632568,223.0,21.644201278686523,31.457218170166016,-79.78282460586655,40.4589412185096,329.12591082763674,0.0107615292072296,-0.0161382872611284,0.8321505188941956,0.5542106032371521,0.0866707528866592,-0.0351892043997635,2.991045139380983,-0.0751469209790229,-0.0048702973872423,-0.0174424219876527,-0.1198641750030219,0.3994426335766912,-9.89175459980965,14994.0
42.0,4.599999904632568,223.0,21.67675399780273,30.57457160949707,-79.78282453936353,40.45894105738776,329.7214728088379,0.0113958744332194,-0.0171754769980907,0.8320546746253967,0.5543105602264404,0.1068488832584457,-0.0416860125486843,2.990224844127142,0.0132109308615326,-0.0354333259165287,-0.0073036281391978,-0.1518315151054412,0.502551886215806,-9.866943694353104,14994.0
42.11,4.599999904632568,223.0,21.69428253173828,31.36179542541504,-79.78282445361572,40.45894093469856,330.012015411377,0.0110180219635367,-0.0178195033222436,0.8322223424911499,0.5540462136268616,0.1021091973394087,-0.0433593625093832,2.9895570897411603,0.0380567125976085,0.0470360107719898,-0.020489152520895,-0.2093953158147633,0.3744024076312781,-9.802797399759292,14995.0
42.2,4.599999904632568,225.0,21.58535385131836,33.20660781860352,-79.78282445488063,40.45894091931584,330.3113089294434,0.010697953402996,-0.0184581223875284,0.8326587677001953,0.5533754229545593,0.103299876910252,-0.0451050392309007,2.995627581912619,0.0560965947806835,-0.0153152300044894,0.1323985010385513,-0.1728561200201511,0.2026236370950937,-9.884972999095917,14995.0
42.4,4.599999904632568,225.0,21.547792434692383,33.15094375610352,-79.78282433960996,40.45894076615107,330.90511996459963,0.0095334164798259,-0.0158949606120586,0.8330580592155457,0.5528749823570251,0.0882660182649594,-0.0568408611581145,3.023781439593087,-0.0318648926913738,-0.0321755670011043,-0.1580387651920318,-0.1880552444793284,0.4660621176660061,-9.938986068964004,14995.0
42.6,4.599999904632568,226.0,21.710559844970703,30.328065872192383,-79.78282433217514,40.45894075043663,331.20859820556643,0.0079964315518736,-0.0162297934293747,0.8331981897354126,0.5526785850524902,0.078140823003873,-0.0477259962652082,3.0445445842039303,-0.0225524771958589,-0.0654033124446868,0.0870799720287323,-0.1642589953914285,0.2957471792958677,-9.992600358724594,14996.0
42.7,4.599999904632568,226.0,21.58159828186035,31.870710372924805,-79.78282429996226,40.458940637021726,331.8039694519043,0.0052629695273935,-0.0163064636290073,0.8330239653587341,0.5529715418815613,0.0931969243216207,-0.0661302321789708,3.0373902268389257,0.0945249423384666,0.0188680402934551,-0.0240321718156337,-0.1235505886562168,0.368509364426136,-9.803711319565773,14996.0
42.9,4.699999809265137,226.0,21.602882385253903,32.323959350585945,-79.78282426255345,40.45894048859662,332.3977652282715,0.008281753398478,-0.0157439839094877,0.8337627649307251,0.5518363118171692,0.0881010549417416,-0.0635576128104684,3.022457811688974,-0.0850920155644416,-0.0277779065072536,-0.1435558497905731,-0.2715627847239375,0.1994062249548733,-9.758005973696712,14997.0
43.0,4.699999809265137,227.0,21.70805549621582,29.827104568481445,-79.78282425647207,40.45894049151986,332.7004805297852,0.008685971610248,-0.0169393960386514,0.8341491818428041,0.5512103438377379,0.0967111617542844,-0.0587749727603735,3.0259994466132896,-0.0266855545341968,-0.0551058538258075,0.0199494771659374,-0.2081991947628557,0.4644994492828846,-9.7258924806118,14997.0
43.1,4.599999904632568,227.0,21.632932662963867,32.16492462158203,-79.78282416779109,40.45894039129765,332.99537951660164,0.0081445844843983,-0.0175092406570911,0.8343490362167358,0.5508982539176941,0.11100721420639,-0.0763645685785089,3.009833741798734,0.0860392451286315,0.0665657296776771,0.0225137453526258,-0.2839762042835355,0.4781129367649555,-9.697751001119617,14997.0
43.3,4.699999809265137,227.0,21.72933959960937,29.723730087280277,-79.78282413973552,40.45894042181187,333.59671313476565,0.005300962831825,-0.0171250496059656,0.8335829973220825,0.5521032214164734,0.1014003571738903,-0.0782360277649132,3.0073050635898926,-0.0132375136017799,-0.015523949638009,0.1163707301020622,-0.2466379316523671,0.1807479608058928,-9.838507515192031,14998.0
43.4,4.699999809265137,228.0,21.63543701171875,31.194808959960927,-79.78282408471503,40.45894025487791,333.8925657958985,0.0038787552621215,-0.018520925194025,0.8330147266387941,0.5529271960258484,0.0906679801527108,-0.0757966413269239,3.011819137789247,-0.0202106833457946,-0.0599956586956977,-0.0851810052990913,-0.1548251890204847,0.4742576116696,-9.831628850698472,14998.0
43.61,4.699999809265137,233.0,21.64294815063477,31.06758117675781,-79.78282401517485,40.458940150649255,334.49248797607424,0.0027276829350739,-0.0196581110358238,0.8327508568763733,0.5532920360565186,0.0934929179391911,-0.0876052314285517,3.0160952854623955,0.0103796897456049,0.0771573185920715,-0.005999865476042,-0.2809133779071272,0.3020010687969625,-9.793612008690834,14999.0
43.8,4.699999809265137,233.0,21.66798973083496,31.60830116271973,-79.78282404888594,40.45894018329231,335.0985213012696,0.0089196255430579,-0.0188518818467855,0.8326453566551208,0.5534136891365051,0.1137524460873128,-0.0680016623374638,3.0394722737511763,-0.113994687795639,0.0128583759069442,-0.0631276592612266,-0.1662390087917447,0.105327540077269,-9.940713336467743,15000.0
43.9,4.699999809265137,233.0,21.67174530029297,29.636260986328125,-79.78282392465555,40.45894008627568,335.40071398925784,0.0094998218119144,-0.0184814296662807,0.832676351070404,0.5533699989318848,0.1258542928616262,-0.0619258704874285,3.0496376244442662,-0.096953772008419,-0.0746348872780799,-0.0550378859043121,-0.0951421654969454,0.4749170314148069,-9.935785303115845,15000.0
44.0,4.699999809265137,229.0,21.684267044067383,30.15312576293945,-79.78282393971631,40.45894010640128,335.7065153808594,0.0079766307026147,-0.0201870165765285,0.8329222798347473,0.5529642701148987,0.138096687227113,-0.0576961464289979,3.0554701880163533,0.0756443962454795,-0.0725099667906761,0.0253295917063951,-0.2534587452560663,0.3124339815974236,-9.84364604830742,15000.0
44.2,4.699999809265137,232.0,21.59537124633789,32.69769287109375,-79.78282387974303,40.45894003901857,336.3090849609375,0.0053529981523752,-0.0228327196091413,0.833705723285675,0.5517107248306274,0.1209340728922131,-0.0851984499723243,3.05930629411842,-0.0340018905699253,-0.0382426157593727,0.0271038133651018,-0.3162196882814169,0.1362357210181653,-9.908346658945083,15001.0
44.4,4.599999904632568,232.0,21.709306716918945,30.97216033935547,-79.78282380950995,40.45893996343725,336.9161864013672,0.0085446313023567,-0.0225999187678098,0.8344475030899048,0.5505576133728027,0.1271724328845243,-0.0887059448228748,3.081485251782601,0.0426985658705234,0.0211310852319002,0.0634771510958671,-0.3476523827388883,0.4858429558575154,-10.009324564933776,15001.0
44.5,4.599999904632568,232.0,21.680509567260746,31.39360427856445,-79.78282383104003,40.45893996507333,337.22420794677737,0.0065099778585135,-0.0210422240197658,0.8345955610275269,0.5504228472709656,0.1246230458255378,-0.0681395354547814,3.0703870976811336,0.0360589735209941,0.0232813563197851,-0.019892992451787,-0.2677347770892084,0.3992150307074189,-9.715837023854256,15002.0
44.6,4.599999904632568,232.0,21.659225463867188,32.20468521118164,-79.78282379353845,40.45893985217157,337.52459246826174,0.0041946647688746,-0.0204024165868759,0.834594190120697,0.5504714250564575,0.1164964856968588,-0.0623473801365251,3.040575086016553,0.1399876773357391,0.0389337316155433,0.0887912288308143,-0.2491535500064493,0.1328632480278611,-9.635743618011476,15002.0
44.8,4.599999904632568,234.0,21.75062561035156,29.874814987182607,-79.78282388028553,40.45893982390533,338.1288557739258,0.0050298850983381,-0.019995629787445,0.8346842527389526,0.550342857837677,0.087968866824992,-0.0472476935737483,2.9956739235939263,-0.0198787357658147,0.0665996745228767,0.0235851742327213,-0.1864887936785817,0.2078184679336846,-9.56678681910038,15003.0
44.9,4.599999904632568,235.0,21.574085235595703,32.4432373046875,-79.78282382777236,40.45893971164555,338.4281340332032,0.0070794550701975,-0.0173828061670064,0.8348239064216614,0.5501971840858461,0.080806311704917,-0.0405580730651807,2.9656521364070763,-0.0622302331030368,0.0557984560728073,-0.0749038383364677,-0.173706451356411,0.4520364745706321,-9.477207475304605,15003.0
45.1,4.599999904632568,235.0,21.8570499420166,27.62446212768555,-79.78282378068424,40.45893955373897,339.0286589355469,0.0093514192849397,-0.0114305485039949,0.8355913758277893,0.5491529703140259,0.0951410357920092,-0.0023621686224117,2.931645340457055,0.1439742147922516,0.0275608915835618,-0.0041201575659215,-0.1171894758380949,0.2100084329210222,-9.384937242865565,15004.0
45.3,4.5,227.0,22.007295608520508,23.43387794494629,-79.78282381126115,40.45893953644429,339.3184996337892,0.0081513728946447,-0.0117793148383498,0.8359307646751404,0.5486479997634888,0.0723597757419962,0.000697008335512,2.86147270310196,-0.0039342371746897,-0.0085104955360293,-0.0716081038117408,-0.1288209399394691,0.2458919548429549,-9.154609571099284,15004.0
45.4,4.5,229.0,21.89961814880371,25.859169006347656,-79.78282383106111,40.45893952025534,339.6001234741211,0.007184739690274,-0.0129701327532529,0.8358750343322754,0.548719584941864,0.0661480226182424,-0.0132975077346864,2.7629480600488487,0.0502733774483203,-0.0351121835410594,-0.0778719633817672,-0.139953618273139,0.2502126086689532,-8.816010176539422,15004.0
45.6,4.400000095367432,229.0,21.99352264404297,24.6027889251709,-79.78282379018084,40.45893925641855,340.41363818359383,0.0031221427489072,-0.0162017792463302,0.834661066532135,0.5505167841911316,0.044725636257145,-0.0401610150757695,2.441672678274914,-0.0399705059826374,0.0385526828467845,0.0640865489840507,-0.2138632463850081,0.230955662727356,-8.558762508630753,15005.0
45.7,4.400000095367432,230.0,22.052370071411133,22.185449600219727,-79.7828237997112,40.458939242172704,340.6503935546875,0.0031276626978069,-0.016200840473175,0.834240198135376,0.551154375076294,0.0417691973598048,-0.042649533349735,2.2958942589336897,0.0211156979203224,0.053698394447565,0.0096661485731601,-0.1648484678193927,0.2876826263777912,-8.378746034502981,15005.0
45.8,4.300000190734863,234.0,21.95345687866211,25.18326759338379,-79.78282381226185,40.45893923085119,340.8727064819336,0.0039154379628598,-0.0157162770628929,0.8337581753730774,0.5518921613693237,0.0396716079871052,-0.0386050767730032,2.149231639277461,-0.0779512003064155,-0.0551662780344486,0.0571679919958114,-0.2272212288156152,0.2740978450700641,-8.367398927807809,15005.0
46.01,4.300000190734863,230.0,21.81447982788086,26.60663604736328,-79.78282375805931,40.45893911488125,341.28883654785164,0.0090281562879681,-0.0141001371666789,0.83356112241745,0.5521734952926636,0.0391927039039406,-0.0301819502474725,1.941265225704176,-0.0470507815480232,0.1051886156201362,0.1132153049111366,-0.2544232800230384,0.1514025213383138,-8.666025002002716,15006.0
46.2,4.300000190734863,231.0,21.99352264404297,23.799659729003903,-79.78282365490222,40.45893899398809,341.68548114013674,0.0117623666301369,-0.0152296051383018,0.8339461088180542,0.5515103936195374,0.040577463001613,-0.0304816288079391,1.8282996278483388,-0.0275063998997211,-0.0162678454071283,-0.0534880794584751,-0.2691837719455361,0.2370737871900201,-9.011524695754051,15006.0
46.3,4.199999809265137,231.0,21.96597671508789,24.81748580932617,-79.78282362437447,40.4589389794116,341.86390216064456,0.0104090366512537,-0.0167758502066135,0.8336808681488037,0.5518936514854431,0.0356001985975566,-0.0433581305182798,1.7401648979334232,0.0148131605237722,-0.0808680951595306,-0.0551037564873695,-0.180784469358623,0.2735884612239897,-9.005576907992364,15006.0
46.4,4.199999809265137,231.0,21.90462684631348,26.272661209106445,-79.78282349549484,40.458938860560295,342.0768080444336,0.0075275576673448,-0.0170202795416116,0.8335803747177124,0.5520848035812378,0.0236860613538651,-0.0629491570970454,1.7090374701184072,-0.0752218291163444,-0.1041928380727768,0.0508255213499069,-0.2397231788747013,0.245598223619163,-9.057515970468524,15007.0
46.6,4.199999809265137,236.0,21.9497013092041,24.714113235473643,-79.78282328219136,40.45893872149643,342.47165972900393,0.0109079200774431,-0.0202054604887962,0.8346567153930664,0.5502917766571045,0.0221179783324424,-0.0960552490725317,1.6742024681129748,0.0260438229888677,-0.0018842758145183,0.1164982691407203,-0.2836046137288213,-0.0132192206941545,-9.44545767903328,15007.0
46.8,4.199999809265137,235.0,22.0135555267334,22.73412132263184,-79.78282319110565,40.45893870497471,342.63672930908206,0.0119616193696856,-0.0216476507484912,0.8353111147880554,0.5492209792137146,0.0300634863659163,-0.1034307510222459,1.6232017144302715,0.0948147773742675,-0.0298516657203435,0.0011531887575984,-0.3293101057782769,0.1725472408533096,-9.270777958631516,15007.0
46.9,4.300000190734863,235.0,21.895862579345703,26.28856468200684,-79.78282292864098,40.45893860744814,343.0245695800781,0.0077590108849108,-0.0230616070330142,0.8354469537734985,0.5490323305130005,0.0084137439554862,-0.1244330322560476,1.5546763944328437,0.0630843564867973,0.0106235556304454,0.0299834813922643,-0.4069597774744034,0.3941281358152628,-9.033370478153229,15008.0
47.1,4.300000190734863,239.0,22.586994171142567,7.2043070793151855,-79.78282258133359,40.458938501994574,343.3940687866211,0.0026213394012302,-0.0224910620599985,0.8342445492744446,0.5509296655654907,-0.0029130913564959,-0.1467449525513746,1.4789888152913069,0.0272086765617132,0.0277183651924133,-0.0478844307363033,-0.3771224592626095,0.1848850851505994,-9.109048066735268,15008.0
47.2,4.400000095367432,237.0,22.27523422241211,19.529556274414062,-79.78282243881972,40.45893849858073,343.53302294921883,0.0046552387066185,-0.0217286478728055,0.8332461714744568,0.5524556040763855,-0.0044831238779863,-0.1603994304530225,1.2477338735688557,-0.0781315490603447,-0.0061480314470827,0.1962957233190536,-0.4292189580202103,0.3165570360794663,-7.664235577583313,15008.0
47.3,4.5,237.0,22.06238555908203,21.565210342407227,-79.78282229581394,40.45893852901121,343.64288623046883,0.005666225682944,-0.0193243250250816,0.8205881118774414,0.5711651444435121,0.0343110412136323,-0.1557991073733209,0.9587501638899524,0.0210492704063654,-0.0090182032436132,0.7880781292915344,-0.2173684146255254,0.4102290653809905,-7.2627780300378815,15008.0
47.51,4.5,236.0,22.124988555908203,20.80183982849121,-79.78282189540381,40.45893844029195,343.8107634277344,0.0041563934646546,-0.0203378666192293,0.7620477676391602,0.6471880078315735,0.0739728524470511,-0.1746958325317466,0.6202168594902672,-0.0733883753418922,0.0109433187171816,1.2454016208648682,-0.3269258305057883,0.4879440797120333,-8.108652033805846,15008.0
