time,wind_speed,wind_angle,battery_voltage,battery_current,position_x,position_y,position_z,orientation_x,orientation_y,orientation_z,orientation_w,velocity_x,velocity_y,velocity_z,angular_x,angular_y,angular_z,linear_acceleration_x,linear_acceleration_y,linear_acceleration_z,node_ids
0.0,1.5,182.0,23.6712703704834,0.0,-79.78282110187551,40.4589156569655,266.2847297413349,0.0037056466098874,0.0100213307887315,0.8886806964874268,0.4584021866321564,0.0063015027058685,-0.0002662612236172,0.0125254029009759,0.002529312390834,0.0011354357702657,0.0058055305853486,0.2007480147667229,-0.0186156662693247,-9.809645074009897,14931.0
0.2,1.399999976158142,179.0,23.67502593994141,0.0,-79.7828211052601,40.45891566196885,266.2859889192581,0.0037046794313937,0.0100222965702414,0.8886789083480835,0.4584056735038757,0.0056564673940511,-0.0008426947851132,0.0127270719599047,-0.0034279488027095,-0.0009713513427414,-0.005388447549194,0.2010527643375098,-0.0157982642075512,-9.80906269133091,14931.0
0.31,1.2999999523162842,178.0,23.676279067993164,-0.0079517737030982,-79.7828210805483,40.45891571383896,266.2792316300869,0.003706517862156,0.0100211631506681,0.8886773586273193,0.4584087729454041,0.0039096842993359,-0.0025672431341944,0.0114372039605082,-0.0049208039417862,7.469207776011899e-05,-0.0059072105213999,0.1999493764713406,-0.0170636028167791,-9.809307104945184,14931.0
0.51,1.2999999523162842,178.0,23.67502593994141,0.0079517737030982,-79.78282108739721,40.458915759188784,266.27127598953246,0.0037026077043265,0.0100183738395571,0.8886772394180298,0.4584088623523712,0.0057521792652782,0.0001730886133561,0.0101565361596228,0.0051507698372006,0.0041257096454501,0.0054658185690641,0.2019755097851156,-0.0308398530283011,-9.810650210380556,14931.0
0.6,1.399999976158142,176.0,23.67753028869629,-0.0159035474061965,-79.78282109373788,40.45891576768441,266.27334531378744,0.0037088291719555,0.0100444331765174,0.8886821866035461,0.4583987593650818,0.0058344879797202,-0.0009870604053558,0.0104780457996755,0.0066491444595158,0.0029420175123959,0.0013124506222084,0.200252773873508,-0.0179406063642818,-9.808897799849513,14931.0
0.8,1.7000000476837158,165.0,23.67377471923828,-0.0318070948123931,-79.78282109484054,40.4589158270095,266.2659337444305,0.0037111409474164,0.0100540434941649,0.8886841535568237,0.4583948254585266,0.0076315998541403,-0.0011238862857179,0.0102650078751749,-0.006334938108921,-0.0012192700523883,-0.0059560677036643,0.2001224540546536,-0.0194001387711614,-9.810178924798969,14931.0
0.9,1.7999999523162842,163.0,23.67502593994141,0.0,-79.78282112441906,40.45891587459055,266.25934889149664,0.0036975471302866,0.0100610880181193,0.8886871933937073,0.4583886265754699,0.0093428347878031,0.004070949162028,0.0099157642801332,-0.0067334487102925,-0.0036046379245817,-0.0023168558254837,0.203408461343497,-0.0300958450860343,-9.812861627340316,14931.0
1.1,1.7000000476837158,144.0,23.666261672973643,-0.0318070948123931,-79.78282113447565,40.45891587990194,266.2603521866798,0.0036726624239236,0.0100739952176809,0.8886836767196655,0.4583953619003296,0.0101442332771756,0.0030124974795714,0.01006200176933,0.0058523002080619,0.0001602229458512,-4.811467806575821e-05,0.2017886546999216,-0.0275806515687145,-9.813390215635303,14931.0
1.2,1.7999999523162842,150.0,23.66751480102539,-0.0238553211092948,-79.78282114478206,40.45891594689737,266.2537510616779,0.0036574038676917,0.0100938063114881,0.8886976838111877,0.4583679437637329,0.0120735569558676,0.0011706417660489,0.0098860313080684,0.003257640870288,0.0031235057394951,0.0007838616147637,0.200066521782428,-0.0263606779882684,-9.810932046175004,14931.0
1.4,1.7000000476837158,165.0,23.6712703704834,-0.0238553211092948,-79.78282115374662,40.45891595525352,266.25475602579115,0.0036661641206592,0.0101023223251104,0.8887041807174683,0.4583551287651062,0.0118831442001153,0.0006620221687508,0.0102557140971704,-0.0068957218900322,-0.0026589969638735,0.0022246660664677,0.2015023421309889,-0.0299748648237437,-9.812641772031784,14931.0
1.5,1.7999999523162842,159.0,23.67377471923828,-0.0079517737030982,-79.78282116998815,40.45891597981437,266.2456858975887,0.003664406016469,0.0100784888491034,0.8886986970901489,0.4583663046360016,0.0069199891012097,0.0040675329215844,0.0056782975036491,-0.0035673512611538,-0.0035313344560563,0.0038636126555502,0.1997807391174137,-0.0189187370496802,-9.810273649692537,14931.0
1.7,1.8999999761581416,162.0,23.67252349853516,-0.0397588685154914,-79.78282117818551,40.45891598316421,266.24626808595656,0.0036635180003941,0.0100794276222586,0.8886972665786743,0.4583690464496613,0.0068235167911804,0.0033518795554707,0.0059248135391491,-0.0040040677413344,-0.0009193852311,-0.0062085785903036,0.2003935273177922,-0.016926579256542,-9.810922690629962,14931.0
1.82,1.8999999761581416,155.0,23.67252349853516,-0.0238553211092948,-79.78282119375322,40.45891605004376,266.2376212699413,0.0036597666330635,0.0100818378850817,0.8886958956718445,0.4583717286586762,0.0101686630717951,0.0010615058840755,0.0037556597015071,-0.0037428590003401,-0.0029683895409107,-0.0080636069178581,0.2032180979289114,-0.031770556170959,-9.811900345087052,14931.0
2.0,1.8999999761581416,140.0,23.6712703704834,-0.0238553211092948,-79.7828211980921,40.458916103633655,266.2293838186264,0.0036577431019395,0.0100835049524903,0.8886957764625549,0.4583719074726105,0.0124312386815487,0.000450205982334,0.0022513659379784,0.0052854567766189,0.004047074355185,0.0049823783338069,0.2043647003732621,-0.0300583566678687,-9.810873574018476,14931.0
2.1,1.8999999761581416,145.0,23.676279067993164,-0.0159035474061965,-79.78282121425703,40.458916121610976,266.22986244392393,0.003656979650259,0.0100818574428558,0.8886939883232117,0.458375483751297,0.0126874699076545,-0.0009337208073524,0.0024856849143354,0.0030762064270675,-0.0008088042377494,0.0028932285495102,0.200615246426314,-0.0201298530120402,-9.81011694431305,14931.0
2.3,1.7999999523162842,150.0,23.67753028869629,0.0,-79.78282122434894,40.45891615625886,266.2221231980324,0.0036572497338056,0.0100778993219137,0.8886938691139221,0.4583757817745209,0.0100194222968597,0.0014427361627845,0.001414068339587,-0.0066537414677441,0.0015105451457202,0.0005657151341438,0.2015996434539556,-0.0234477299102582,-9.8103566801548,14931.0
2.4,1.5,152.0,23.67753028869629,0.0,-79.78282122188325,40.45891619827939,266.21680038404463,0.0036595701240003,0.0100769018754363,0.8886920809745789,0.4583792090415954,0.007063759863712,-0.0005562385511973,0.0042124983254298,-0.0037366978358477,-0.0028461827896535,0.0011517612729221,0.2008969360403716,-0.0290347924316302,-9.809847387671471,14931.0
2.6,1.2999999523162842,154.0,23.67878341674805,-0.0079517737030982,-79.78282122590319,40.45891620397813,266.2172224445343,0.0036607433576136,0.0100739877671003,0.8886921405792236,0.4583792090415954,0.0074067261710654,-0.0012461989777883,0.0043387870701332,0.0015459096757695,0.0003270279266871,-0.0041265334002673,0.2009112069010734,-0.017660046222154,-9.809799440503117,14931.0
2.7,1.399999976158142,152.0,23.67252349853516,0.0,-79.7828212394942,40.45891623548457,266.21086650323866,0.0036601116880774,0.0100688515231013,0.8886902928352356,0.4583828449249268,0.0045605021382716,0.0016458081277558,0.0030886137320012,-0.0068429931998252,0.0029467735439538,-0.0034181959927082,0.2043599860556424,-0.0322512315586209,-9.812292108535765,14931.0
2.9,1.399999976158142,142.0,23.68003463745117,-0.055662415921688,-79.78282124431674,40.458916238480406,266.21118091773985,0.0036580611485987,0.0100682722404599,0.8886887431144714,0.4583859443664551,0.0056386687149224,0.0008740672858314,0.0031996086011944,0.005412929225713,0.001175815006718,0.0024279181379824,0.2020564754493534,-0.0276475359499454,-9.812357597351074,14931.0
3.01,1.5,139.0,23.66876602172852,-0.0874695107340812,-79.78282128590033,40.45891627843008,266.20705782604216,0.0036518266424536,0.0100616505369544,0.8886890411376953,0.4583855271339417,0.0082334813649477,0.0050381796249334,0.0055793830756252,0.0037834816612303,0.0014085671864449,0.002441681921482,0.2040863546356559,-0.0256116359587758,-9.812114353179927,14931.0
3.2,1.2999999523162842,138.0,23.66501045227051,-0.0954212844371795,-79.78282129597316,40.45891628208936,266.207638256073,0.0036509262863546,0.0100625567138195,0.8886873126029968,0.4583888649940491,0.0082322655753696,0.0042954919132616,0.0058132445127018,-0.0038284608162939,-0.001768977381289,-0.0014221929013729,0.1996928664296865,-0.0302663119789212,-9.8108092546463,14931.0
3.3,1.2999999523162842,138.0,23.662506103515625,-0.0954212844371795,-79.7828213144692,40.45891634393208,266.2038461489677,0.0036475972738116,0.0100649036467075,0.888685941696167,0.4583916068077088,0.0111019794250546,0.0019033530471354,0.0071432755633977,0.0046510151587426,-0.0010768028441816,-0.0019640743266791,0.1994018395431339,-0.0176284369966015,-9.809160924553874,14931.0
3.5,1.2999999523162842,139.0,23.67502593994141,-0.0159035474061965,-79.78282132934059,40.45891638410345,266.19939213228224,0.0036476324312388,0.0100623527541756,0.888685941696167,0.4583916068077088,0.0091817192918132,0.0033617813154566,0.0079642443139311,-0.0051526674069464,0.0003136467421427,-0.0056589529849588,0.2011781322956084,-0.0165047015051823,-9.809522282481192,14931.0
3.6,1.399999976158142,139.0,23.6712703704834,-0.0079517737030982,-79.78282134759174,40.45891639578514,266.2010186834335,0.0036463772412389,0.0100617110729217,0.8886846899986267,0.4583940505981445,0.0093788140927542,0.0020620575675636,0.0084382871567,-0.0046323551796376,-0.0016343931201845,-0.0002806789707392,0.202707252278924,-0.0285193900647573,-9.812188028097154,14931.0
3.8,1.2999999523162842,138.0,23.67753028869629,0.0,-79.78282136463973,40.45891643442442,266.1971021814346,0.0036459902767092,0.0100604956969618,0.8886846899986267,0.4583940804004669,0.0096263070686585,0.0026958674515668,0.0086667350454574,0.0080138957127928,0.0010549987200647,0.0029978360980749,0.2039868423342704,-0.0266280716168694,-9.812100319862369,14931.0
3.9,1.2999999523162842,139.0,23.67377471923828,0.0,-79.7828214122917,40.45891648071387,266.1944488210678,0.0036411932669579,0.0100546143949031,0.8886836171150208,0.4583961963653565,0.0107119121906683,0.0060745981890014,0.0090107445187942,0.0007750455988571,0.0033637462183833,-0.0024382723495364,0.1995965152792632,-0.020213938714005,-9.811271184682846,14931.0
4.1,1.399999976158142,135.0,23.67753028869629,0.0,-79.7828214252529,40.45891648555848,266.1953690571785,0.003639955073595,0.0100536616519093,0.8886837363243103,0.4583962261676788,0.0107653242746606,0.0056409072151148,0.0091746667445866,0.0006264059920795,-0.0030090301297605,0.0022997388150542,0.2023331035673618,-0.0326838752673938,-9.811969342231752,14931.0
4.2,1.399999976158142,135.0,23.67377471923828,-0.0079517737030982,-79.78282143504536,40.45891654478083,266.19494127464293,0.0036414782516658,0.0100600346922874,0.8886820673942566,0.4583993256092072,0.0111789540253084,0.0004438812514627,0.0129072109649295,0.0035709086805582,0.0004529886355157,0.0031522100325673,0.2008576317876577,-0.0178914269409142,-9.81025844693184,14931.0
4.4,1.399999976158142,138.0,23.67502593994141,-0.0079517737030982,-79.78282144235315,40.45891655272259,266.1962399406433,0.0036415371578186,0.0100585520267486,0.8886802196502686,0.4584027528762818,0.0104607747127565,-5.409110240779582e-05,0.0131069400602273,-0.0028538913466036,-0.0016935328021645,-0.0033495728857815,0.2005097590014338,-0.0180846614297479,-9.809034624695778,14931.0
4.5,1.399999976158142,136.0,23.68128776550293,0.0,-79.78282147691776,40.45891659864328,266.1942077202797,0.0036403401754796,0.0100535461679101,0.8886801600456238,0.4584029316902161,0.0097164321716185,0.0014967557971285,0.0119211275830443,-0.0088164219632744,-0.0013608359731733,-0.0001384690840495,0.2035755455307662,-0.0285868112021125,-9.811294573545457,14931.0
4.7,1.399999976158142,132.0,23.676279067993164,-0.0079517737030982,-79.78282148470333,40.45891660562732,266.1954014225006,0.0036394537892192,0.0100544299930334,0.8886783719062805,0.4584064185619354,0.0102407203179903,0.0008214748190499,0.012012528645881,0.0017229707445949,-0.0013352328678593,0.0010654312791302,0.2008043673075736,-0.0197411228064447,-9.81049701333046,14931.0
4.8,1.5,126.0,23.67878341674805,-0.0079517737030982,-79.78282149619717,40.45891665132913,266.1939625663757,0.0036407359875738,0.0100534884259104,0.8886768221855164,0.4584093689918518,0.0081189312476729,-0.0007941078448818,0.0116814065088577,-0.00260642147623,-0.0004785780038218,-0.0046555022709071,0.2037996217980981,-0.0319887486775405,-9.81187227845192,14931.0
5.0,1.5,122.0,23.67753028869629,0.0238553211092948,-79.78282154321089,40.45891669083999,266.19156550598143,0.0036346444394439,0.010048285126686,0.8886769413948059,0.458409309387207,0.0108029809888834,0.0042529143742509,0.0108516620273675,0.0076742628589272,0.0012170246336609,0.0047956607304513,0.2026236736401916,-0.0297288866224698,-9.811972850561142,14931.0
5.11,1.5,121.0,23.68253898620605,0.0397588685154914,-79.782821564592,40.458916702313694,266.1937954945564,0.003633975982666,0.0100469021126627,0.8886751532554626,0.458412915468216,0.0108769328058157,0.003286455829962,0.0112607651938686,0.0039688586257398,0.0013352079549804,-0.0002323543158126,0.2024356125667691,-0.0233355981297791,-9.811519106626507,14931.0
5.3,1.600000023841858,125.0,23.68128776550293,0.0318070948123931,-79.7828215930647,40.45891674603712,266.19144492578505,0.0036334933247417,0.0100454799830913,0.8886750936508179,0.4584130346775055,0.0097181670679581,0.0040657910120328,0.0107610285759612,-0.0029239077121019,-0.0011812879238277,0.0017060472164303,0.2017332523316145,-0.0317387550836429,-9.811701539754868,14931.0
5.41,1.600000023841858,123.0,23.696311950683597,0.0397588685154914,-79.7828216355822,40.458916830968,266.19032060337065,0.0036268441472202,0.0100523354485631,0.8886734843254089,0.4584162831306458,0.0157078762671386,6.820172650950918e-05,0.0103795836545246,0.0072431252337992,0.0023627053014934,0.0035525362472981,0.1999006435833872,-0.0184465698176063,-9.80938487291336,14931.0
5.6,1.600000023841858,121.0,23.685043334960927,0.0238553211092948,-79.78282164575519,40.45891684241687,266.1913684530258,0.0036272436846047,0.0100498003885149,0.8886734247207642,0.458416223526001,0.0149975726044302,-0.0003462677678541,0.0106410392037295,-0.0075077558867633,0.0015884061576798,-0.0055449409410357,0.2014351722411811,-0.0236722652753815,-9.809510588049893,14931.0
5.7,1.600000023841858,122.0,23.67878341674805,0.0159035474061965,-79.78282170539983,40.4589168971678,266.19056325387953,0.0036233379505574,0.0100456289947032,0.8886716365814209,0.4584198594093323,0.0153216885323577,0.0031099278159019,0.0104774466358308,-0.002283364534378,0.0019148413557559,0.0067702932283282,0.2024562970921396,-0.0306400267174467,-9.811743639707563,14931.0
5.9,1.5,125.0,23.68003463745117,0.0397588685154914,-79.78282171851515,40.45891690706152,266.1916149778366,0.003622266696766,0.0100450972095131,0.8886700868606567,0.458422839641571,0.0149983983239319,0.0026070846856979,0.01052735022866,-0.0073137050494551,0.0006623282679356,-0.0025751083157956,0.2009955529868602,-0.0183575733681209,-9.808534687757492,14931.0
6.0,1.5,124.0,23.68379211425781,0.0238553211092948,-79.78282173898026,40.458916957185785,266.190825275898,0.0036271251738071,0.0100424820557236,0.8886699676513672,0.4584230780601502,0.011055543363543,0.000567105792919,0.0102946440671992,-0.0031580827198922,0.0007065410609357,-0.0024976911954581,0.2048303031921386,-0.029598237897735,-9.81030756354332,14931.0
6.2,1.399999976158142,124.0,23.67878341674805,0.1113248318433761,-79.78282174686014,40.458916965600174,266.191851667881,0.003626218996942,0.0100433770567178,0.8886680603027344,0.4584267735481262,0.0113936662970133,-2.518445101352528e-05,0.0103027945105447,0.0032175797969102,-0.0005378011264838,-0.0046810153871774,0.2005478572659194,-0.0189190819440409,-9.809081987142564,14931.0
6.31,1.399999976158142,126.0,23.67878341674805,0.0715659633278846,-79.78282179851881,40.4589170172475,266.19122689199446,0.0036248813848942,0.010039378888905,0.8886666297912598,0.4584295749664306,0.0103703715362007,0.0015556377838165,0.0101913133806685,-0.0061637689359486,0.0025888213422149,-0.0033285631798207,0.2003792016394436,-0.0198290229029953,-9.809126425981525,14931.0
6.5,1.2999999523162842,129.0,23.68379211425781,0.0795177370309829,-79.78282183786713,40.45891708241188,266.1897111458778,0.0036215770523995,0.0100413067266345,0.8886667490005493,0.4584295749664306,0.0133228409691508,0.0009349868815279,0.0098875724571238,0.0039008774328976,-5.229743692325428e-06,0.0020099517423659,0.2013287894614041,-0.0229654419701546,-9.810157874822618,14931.0
6.6,1.2000000476837158,132.0,23.66876602172852,0.1192766055464744,-79.78282185638038,40.458917101743744,266.1917194647789,0.0036201060283929,0.010040727443993,0.8886651396751404,0.4584325850009918,0.0130060400305838,-0.0001946005141291,0.0102026497640481,-0.0027788255829364,-0.001217016368173,-0.0052637541666626,0.200596791151911,-0.0185460581362713,-9.809754416942598,14931.0
6.8,1.100000023841858,131.0,23.6712703704834,0.1351801604032516,-79.78282190117955,40.45891714952192,266.19065206480025,0.0036196024157106,0.0100379865616559,0.8886651396751404,0.4584326148033142,0.0124725534619447,0.0012252853351376,0.010017802129294,0.0056135198101401,-0.0014256157446652,0.0030327169224619,0.2015889174677432,-0.0279433685168624,-9.811703878641133,14931.0
6.9,1.0,129.0,23.666261672973643,0.2385532110929489,-79.78282195783315,40.45891720939214,266.19103877973555,0.0036190522368997,0.0100334640592336,0.8886635303497314,0.458435982465744,0.0109143598870918,0.002540233919859,0.0100533322457985,-0.0005271075642667,-0.00190635479521,-0.0044515123590826,0.2010657926648856,-0.0290100765251554,-9.81078118801117,14931.0
7.1,0.8999999761581421,124.0,23.67878341674805,0.0874695107340812,-79.78282196761056,40.45891721663664,266.192050508976,0.0036184631753712,0.010032121092081,0.8886635303497314,0.458435982465744,0.0118174854256935,0.0018631072422562,0.0100830806478324,0.0034631681628525,0.0012227570405229,0.0057668886147439,0.2034179265238344,-0.0286574985575862,-9.810769493579864,14931.0
7.21,0.8999999761581421,126.0,23.676279067993164,0.0636141896247863,-79.78282202798162,40.458917293702655,266.1929631156921,0.0036145127378404,0.0100346384570002,0.8886619806289673,0.4584388732910156,0.0133852911347144,0.0009679596308127,0.0101045834349549,0.0002548212942201,-0.0035226284526288,-0.0041579995304346,0.2001611735858023,-0.0185981931444257,-9.809161509275436,14931.0
7.4,0.8000000119209291,123.0,23.6712703704834,0.1113248318433761,-79.78282203786978,40.458917303480966,266.19397341442107,0.0036142305471003,0.0100333699956536,0.8886608481407166,0.4584410190582275,0.0141834278828143,0.0003704280924259,0.0101054777100313,0.002037085359916,-0.0008096529054455,0.0049160653725266,0.2029630131460726,-0.0297987996786832,-9.810725054740908,14931.0
7.5,0.8000000119209291,121.0,23.6712703704834,0.1192766055464744,-79.78282210281255,40.45891736330302,266.195175163269,0.003614455461502,0.0100277215242385,0.8886609077453613,0.4584410488605499,0.0119544093305702,0.0022613402328941,0.0100371398762241,0.0054500200785696,-0.0012695133918896,-0.0018621219787746,0.2012478420697152,-0.024700827053748,-9.809468488097194,14931.0
7.7,0.8000000119209291,116.0,23.67878341674805,0.0954212844371795,-79.78282211289347,40.458917371239686,266.19618504476546,0.0036135504487901,0.0100286221131682,0.8886590600013733,0.4584448635578156,0.0124008752916543,0.0017951350986967,0.0101665192780145,0.0028129811398684,0.0014857354108244,0.003396809566766,0.2031548018194735,-0.0315922366501763,-9.811603306531907,14931.0
7.8,0.8999999761581421,119.0,23.67878341674805,0.0795177370309829,-79.78282218008098,40.45891742957704,266.1980173511505,0.0036112344823777,0.0100261233747005,0.8886572122573853,0.4584482908248901,0.0114149478698433,0.0028031205280716,0.0103727293556266,0.0023063840344548,0.0036307766567915,0.0017857768107205,0.2012571062520146,-0.0243408532720059,-9.810943740606309,14931.0
8.0,0.8999999761581421,114.0,23.65499496459961,-0.0397588685154914,-79.78282224007758,40.4589174849474,266.19910221529005,0.0036100044380873,0.010024813003838,0.88865727186203,0.4584482610225678,0.0107128643333662,0.003802294636532,0.0103919747243126,0.0003824444720521,-5.406918717199005e-05,0.0029281261377036,0.2021462850272656,-0.0306279188697226,-9.811117987632752,14931.0
8.1,0.8999999761581421,112.0,23.662506103515625,-0.0159035474061965,-79.78282226087394,40.45891749753114,266.2012011928558,0.003610314335674,0.0100230993703007,0.8886551260948181,0.458452433347702,0.0114084537924092,0.0027924066298856,0.0105736675517482,0.0103498017415404,0.0043756277300417,0.0018634314183145,0.2040633129514754,-0.0278808512748219,-9.812388002872469,14931.0
8.3,0.8999999761581421,110.0,23.65123748779297,-0.0159035474061965,-79.78282232426092,40.4589175689423,266.20248132181166,0.0036070710048079,0.0100251687690615,0.8886551856994629,0.4584523141384125,0.0128772442538557,0.0021507605636816,0.0107323381551178,-0.0036981827579438,-0.0020015351474285,0.001973281847313,0.2010295582003891,-0.0271080389432609,-9.8115647149086,14931.0
8.4,0.8999999761581421,113.0,23.662506103515625,0.0715659633278846,-79.7828224007566,40.45891763409983,266.20477961730955,0.0036050730850547,0.0100219137966632,0.8886532783508301,0.4584561288356781,0.0121631484768803,0.003611601276464,0.0106236341870377,0.0056248572655022,-0.0005621759337373,0.0046569053083658,0.201161687001586,-0.0189997461112216,-9.809947375059126,14931.0
8.6,0.8999999761581421,115.0,23.66751480102539,0.0318070948123931,-79.78282241200803,40.45891764107729,266.2058499379158,0.0036060207057744,0.0100196227431297,0.8886532783508301,0.4584561288356781,0.0116371573044345,0.0031901716938834,0.0107627419601891,-0.0045197280123829,-0.0002035523502854,-0.0024494775570929,0.1998007292859256,-0.0210672393394634,-9.809032285809517,14931.0
8.7,1.0,115.0,23.658750534057607,0.0238553211092948,-79.78282249713236,40.458917725930746,266.21050386857985,0.0036016192752867,0.0100225415080785,0.8886515498161316,0.4584594070911408,0.0144203199488673,0.0021390768471267,0.0140812610838587,7.355623529292643e-05,-0.0011873852927237,0.0053053740411996,0.201103689931333,-0.0232932286569848,-9.809293656349183,14931.0
8.9,1.0,111.0,23.662506103515625,0.0159035474061965,-79.7828225086137,40.45891773573428,266.2119107170105,0.0036007957533001,0.0100222015753388,0.8886496424674988,0.4584630727767944,0.014126190387063,0.0016855174224238,0.0141553028893044,-0.0061204591765999,0.0002207007928518,-0.0029909466393291,0.2014917623251676,-0.0182398147846106,-9.808973813652992,14931.0
9.0,1.0,112.0,23.65624618530273,0.0238553211092948,-79.78282261277988,40.45891780472461,266.2165630979538,0.0035968387965112,0.0100170308724045,0.8886498808860779,0.4584628343582153,0.0150635787355016,0.0047467821842301,0.0158674525991082,0.0001928438141476,-0.0035802177153527,0.0036038749385625,0.2035517363995313,-0.0267589967139065,-9.811507412195208,14931.0
9.2,1.0,111.0,23.660001754760746,-0.055662415921688,-79.78282262716031,40.4589178138317,266.2181544525623,0.0035959631204605,0.0100179156288504,0.8886480927467346,0.4584663212299347,0.0149263383827673,0.0042656528724027,0.0160215394264064,-0.0028158382046967,-0.0007073064916767,-0.00591552676633,0.2010609504394232,-0.0169131192401982,-9.809802364110949,14931.0
9.3,0.8999999761581421,113.0,23.66501045227051,-0.0636141896247863,-79.78282274612978,40.45891787977453,266.22080715727805,0.0035925034899264,0.0100118974223732,0.8886467814445496,0.4584689736366272,0.015151653203009,0.0079054055203252,0.013965129963715,-0.0036860089749097,-0.0027761915698647,0.006337555591017,0.203541595134884,-0.0276456835702992,-9.81079989910126,14931.0
9.5,0.8999999761581421,114.0,23.67753028869629,0.0397588685154914,-79.78282282303648,40.45891797127104,266.2225165588856,0.0035893029998987,0.01001887768507,0.8886467218399048,0.4584689736366272,0.0187483273064078,0.0035163475987587,0.0128395442438392,-0.0035495003685355,-0.0017107609892264,-0.0039446875452995,0.1998521116934716,-0.0191107609821483,-9.809923986196518,14931.0
9.6,0.8999999761581421,115.0,23.676279067993164,0.0397588685154914,-79.78282285468926,40.45891799647983,266.225093893528,0.0035875756293535,0.0100190453231334,0.8886447548866272,0.4584727883338928,0.0191395580550779,0.0026761158634772,0.0130057527708303,-0.0064987456426024,-0.0038040322251617,0.0016901311464607,0.2038098178803921,-0.029898558659479,-9.810783526897431,14931.0
9.8,0.8999999761581421,116.0,23.676279067993164,0.0159035474061965,-79.78282293959361,40.45891807081879,266.22464232873915,0.0035869388375431,0.0100192446261644,0.8886445164680481,0.4584732055664063,0.0186113648639538,0.0019827286698711,0.0081820619905194,-0.0023859704378992,0.0007392023107968,-0.0045595122501254,0.1995966980047524,-0.0182346493634395,-9.809590694904328,14931.0
9.91,0.8000000119209291,113.0,23.67753028869629,0.0238553211092948,-79.78282302827513,40.45891814522592,266.2261849863529,0.0035897705238312,0.0100165512412786,0.8886428475379944,0.4584765136241913,0.0147251773029771,0.0007041763847508,0.0063518986112191,-0.006334617268294,-0.001106169540435,0.0006722030811943,0.2031281604431569,-0.0314349671057425,-9.811398653984073,14931.0
10.1,0.8000000119209291,111.0,23.68379211425781,0.0397588685154914,-79.78282303898068,40.45891815611133,266.22680484485625,0.0035902231466025,0.010015052743256,0.8886428475379944,0.4584765136241913,0.01538981354412,0.000268750428441,0.0062356353147076,0.0027469934429973,0.0001180971084977,-0.0015553294215351,0.2018644492328167,-0.0216308561107143,-9.810108758211138,14931.0
10.2,0.8000000119209291,113.0,23.67753028869629,0.0318070948123931,-79.78282314108583,40.458918242612654,266.22991450858115,0.0035866720136255,0.0100157968699932,0.8886416554450989,0.4584790468215942,0.0158455832347038,0.0003147065357992,0.0078462521543536,-0.0064843385480344,7.814524724381045e-05,-0.0007286480395123,0.2006856322847307,-0.0175582726928405,-9.80939481317997,14931.0
10.4,0.8000000119209291,116.0,23.67878341674805,0.0318070948123931,-79.78282315221908,40.45891825467814,266.2306916339397,0.0035856910981237,0.0100153880193829,0.8886399269104004,0.4584822356700897,0.0169438535729996,-0.0002588196197748,0.0077754606273723,0.0078720049932599,0.0012731058523058,0.0030810297466814,0.2039782907813787,-0.0279922681418247,-9.811340181827546,14931.0
10.5,0.699999988079071,118.0,23.67753028869629,0.0318070948123931,-79.78282328981511,40.45891831946611,266.2312950415611,0.003581847064197,0.0100050317123532,0.8886399865150452,0.4584823846817017,0.0160983374937411,0.0060492812488018,0.0045083514790568,0.0022849962115287,0.0009762887493707,-0.0053229043260216,0.2005769288912416,-0.0212651013513095,-9.8100689971447,14931.0
10.7,0.699999988079071,123.0,23.68253898620605,0.0318070948123931,-79.78282330642372,40.45891832827878,266.23176046442984,0.0035810316912829,0.0100058922544121,0.8886384963989258,0.4584852755069733,0.0162753740286442,0.00564931752012,0.004626390207956,0.0010560911614447,-0.0013225575676187,0.0027969873044639,0.2022221161052584,-0.0323872569808736,-9.811129682064056,14931.0
10.8,0.699999988079071,122.0,23.676279067993164,0.0159035474061965,-79.78282341919437,40.45891839757506,266.2328232152462,0.0035808272659778,0.0100032426416873,0.888637125492096,0.4584880173206329,0.0138629470030585,0.0058101727418208,0.0030345558616042,0.0067120133899152,0.0003747457521967,0.0035735506098717,0.2005715750344097,-0.0171993861277587,-9.809406507611277,14931.0
11.0,0.6000000238418579,128.0,23.68128776550293,0.0238553211092948,-79.78282350551387,40.45891847507022,266.2355503363609,0.0035813329741358,0.0100067276507616,0.8886371850967407,0.4584878087043762,0.0128273605027048,0.002620777315658,0.0051548370982829,-0.007437274325639,-0.000589890521951,0.000331635819748,0.200979253873229,-0.0250918824411928,-9.80984621822834,14931.0
11.1,0.6000000238418579,130.0,23.685043334960927,0.0397588685154914,-79.78282352775129,40.45891849273152,266.2365770263672,0.003581243334338,0.010005815885961,0.8886349201202393,0.4584921300411224,0.0137718914816161,0.0016183250143543,0.0052127830166723,0.0004049644339829,-0.0021095646079629,0.0030967523343861,0.2022064382582903,-0.0320600139023736,-9.81077767968178,14931.0
11.3,0.6000000238418579,136.0,23.68379211425781,0.0159035474061965,-79.78282364773436,40.45891857713409,266.2397800607681,0.0035791734699159,0.0100036105141043,0.8886378407478333,0.4584865272045136,0.0166427223787384,0.0042557203086591,0.0071007659908758,-0.0034097319003194,-0.0021336083300411,-0.0057081542909145,0.1999162483401596,-0.0169017559988424,-9.809674894809724,14931.0
11.4,0.6000000238418579,137.0,23.68003463745117,0.0397588685154914,-79.78282376228441,40.45891865951867,266.24395593237875,0.0035615637898445,0.0099798887968063,0.8886427879333496,0.4584777951240539,0.0144623657335712,0.0051377590610089,0.0084516736707455,-0.0067328354343771,-0.0004542050592135,0.0001164992718258,0.2031053380295634,-0.0286920884926803,-9.811195170879364,14931.0
11.6,0.699999988079071,142.0,23.68003463745117,0.0159035474061965,-79.78282377699777,40.45891866796339,266.2448071761131,0.0035680697765201,0.0099961226806044,0.8886395096778871,0.4584836661815643,0.0151369761254274,0.0046208050540026,0.0084211916530787,0.0028418973088264,0.0021796298678964,-0.0002083947620121,0.2010727910511196,-0.0220371736446395,-9.81038006901741,14931.0
11.7,0.699999988079071,145.0,23.676279067993164,0.0238553211092948,-79.78282391521209,40.45891873053933,266.2493768854141,0.0035743613261729,0.0099945934489369,0.8886396884918213,0.4584833383560181,0.0119908401686671,0.0108300517477764,0.0091653077015314,-0.0027505990583449,-0.0020573306828737,-0.0089588500559329,0.202645655516535,-0.031942414061632,-9.810587060451509,14931.0
11.9,0.699999988079071,154.0,23.67878341674805,0.0318070948123931,-79.78282393374958,40.458918734149904,266.2503136022091,0.0035920380614697,0.0099997771903872,0.888640820980072,0.4584810137748718,0.0128432277367198,0.0103454119356738,0.0092060455057581,0.0041282409802079,-0.0001443352084606,0.007215968798846,0.2031509828567505,-0.0306067090085707,-9.81156354546547,14931.0
12.01,0.699999988079071,155.0,23.68379211425781,0.0238553211092948,-79.78282404917883,40.45891881401678,266.2550697548389,0.0035913514439016,0.0100051620975136,0.8886287212371826,0.4585041105747223,0.0125336161755914,0.0090188852301014,0.0096984411954917,0.0076750507578253,0.0021711559966206,0.002283408306539,0.2014450942352414,-0.0214082553517073,-9.809269682765008,14931.0
12.2,0.699999988079071,153.0,23.67878341674805,0.0159035474061965,-79.78282406597516,40.4589188186032,266.25606846046446,0.0035920306108891,0.0100078489631414,0.8886289000511169,0.4585038125514984,0.0122459096760985,0.0086965722313337,0.0099560262611814,-0.0034247387666255,-0.0015854744706302,0.002410618821159,0.2005771664343774,-0.0282952909567393,-9.810836151838306,14931.0
12.31,0.8000000119209291,154.0,23.67878341674805,0.0159035474061965,-79.78282415391665,40.45891894049396,266.26082333159445,0.0035924492403864,0.010012506507337,0.8886247277259827,0.4585117101669312,0.0155629438189384,0.0007655304074964,0.0104552024199339,0.0011593772796913,0.0010653398931026,0.0049568386748433,0.2009214760735631,-0.0199362987536005,-9.809794178009032,14931.0
12.5,0.8999999761581421,153.0,23.67377471923828,0.0954212844371795,-79.78282426211412,40.45891903302213,266.26494561862944,0.0035889991559088,0.0100129498168826,0.8886248469352722,0.4585115313529968,0.0163989749572647,0.0010831977604823,0.0106802149235793,-0.0008901823312044,0.0001321524759987,-0.0070599713362753,0.2000283321551978,-0.0155976418987847,-9.809338679909708,14931.0
12.6,0.8999999761581421,155.0,23.688798904418945,0.0318070948123931,-79.78282428579662,40.45891905749368,266.2670919818878,0.0035885667894035,0.0100123453885316,0.8886235356330872,0.4585140943527222,0.0166670979243852,9.332919020568244e-05,0.0109198130235473,-0.0068225301802158,-0.0023125850129872,-0.0056478669866919,0.2019399331323802,-0.0314804269233718,-9.81128054022789,14931.0
12.8,0.8999999761581421,157.0,23.67502593994141,0.0159035474061965,-79.7828244017891,40.45891913493516,266.2713364584446,0.0035871902946382,0.0100084617733955,0.8886236548423767,0.458514004945755,0.0156809344021021,0.0024605592374806,0.0109011213309553,0.0048216884024441,-6.920544547028841e-05,0.0077430303208529,0.2037362160533666,-0.0298501386889256,-9.81227573633194,14931.0
12.9,1.0,158.0,23.66501045227051,-0.0397588685154914,-79.78282454140412,40.45891923987021,266.2750808520317,0.003582592587918,0.0100191347301006,0.8886216282844543,0.4585175812244415,0.0186689745148757,0.0042854212246902,0.0077545022318411,0.0059937909245491,0.0002482701675035,0.0029074901249259,0.2028680141642689,-0.0285305865691043,-9.810202313661575,14931.0
13.1,1.0,157.0,23.660001754760746,-0.0477106422185897,-79.78282455776704,40.45891925120246,266.275867007494,0.0035742053296417,0.0100213903933763,0.8886280059814453,0.458505392074585,0.017997752536697,0.0040438822718471,0.0079152313744681,-0.0069944765418767,-0.0004104425897821,-0.0037700203247368,0.2009322751499712,-0.0236746064457111,-9.809254480004313,14931.0
13.2,1.0,156.0,23.660001754760746,-0.0715659633278846,-79.78282468226685,40.45891935928484,266.2792737407684,0.0035506314598023,0.0100412340834736,0.8886333107948303,0.4584948718547821,0.0186076467899473,0.0026419440990269,0.0056364195913654,-0.0057878135703504,-0.0023775240406394,-0.0009885211475193,0.2011128079332412,-0.0261758648604154,-9.810033913850782,14931.0
13.41,1.100000023841858,154.0,23.66876602172852,-0.0715659633278846,-79.7828246975583,40.4589193721689,266.27983357739447,0.0035459154751151,0.0100524481385946,0.8886332511901855,0.4584948420524597,0.019477974819975,0.002006751609868,0.0055590854139954,0.007470809854567,0.0032138284295797,-0.0029573431238532,0.2017194565571844,-0.0241562776872888,-9.81023622751236,14931.0
13.51,1.2000000476837158,153.0,23.6612548828125,-0.0636141896247863,-79.78282485062155,40.45891948075101,266.28537421655653,0.0035323500633239,0.0100526250898838,0.8886410593986511,0.4584796130657196,0.0218853157742346,0.0043993821819217,0.0076415569861768,0.0024719613138586,0.0008319820626638,-0.0026191612705588,0.201394844725728,-0.0222832683334127,-9.810834982395171,14931.0
13.7,1.2999999523162842,159.0,23.6712703704834,-0.0477106422185897,-79.78282486959965,40.45891949479128,266.2861523849964,0.0035413352306932,0.0100585799664258,0.8886463642120361,0.4584692120552063,0.0220582245357175,0.0040718656075025,0.0078428677136331,-0.0027958548162132,-0.0005228410591371,0.0038485531695187,0.2006076815910637,-0.0291313263075426,-9.81135187625885,14931.0
13.81,1.2999999523162842,162.0,23.658750534057607,-0.055662415921688,-79.78282497175918,40.45891961075208,266.2916757686138,0.0035544068086892,0.0100766932591795,0.8886590003967285,0.4584441483020783,0.0194627901224576,-0.0004400157183191,0.009465132787469,-0.0093173002824187,0.0005081386188976,0.0030476853717118,0.2006756189279258,-0.02974787408486,-9.811888650655748,14931.0
14.0,1.2000000476837158,162.0,23.663759231567383,-0.0636141896247863,-79.7828250943834,40.45891971163183,266.29586201143263,0.0035592762287706,0.0100789293646812,0.8886620402336121,0.4584382176399231,0.0217146158895549,0.0021188855050812,0.0097169019932016,0.0030054952949285,-0.0019786395132541,-0.0008964688749983,0.202350060492754,-0.0234246790898032,-9.810987010002137,14931.0
14.1,1.2000000476837158,164.0,23.66501045227051,-0.0715659633278846,-79.78282512696606,40.45891974201025,266.2978450579643,0.0035968516021966,0.0100874109193682,0.888676106929779,0.4584105014801026,0.0223927412789431,0.0010240354059233,0.0100084160337512,0.0041659204289317,0.0014820710057392,0.0010665336158126,0.2012447357363999,-0.0256314662424847,-9.810516893863678,14931.0
14.3,1.2999999523162842,162.0,23.663759231567383,-0.1113248318433761,-79.78282521284436,40.45891986469945,266.2984126729965,0.0036013182252645,0.0100963413715362,0.8886794447898865,0.4584037959575653,0.0219880707181892,-0.0034559473520187,0.004613110355556,-0.0039041279815137,-0.0007650676998309,-0.0017990121850743,0.2011975194700062,-0.0246301830955781,-9.810466607809069,14931.0
14.4,1.2999999523162842,158.0,23.68253898620605,0.0079517737030982,-79.78282530502064,40.458920001363424,266.2978412134647,0.0036081452853977,0.0100936815142631,0.8886702060699463,0.4584217071533203,0.0223252580282782,-0.0074036082314686,-0.0030429301679107,-0.00477000977844,-0.0017707740189507,-0.0032042460516095,0.2019868204928934,-0.0268195268162526,-9.811584595441818,14931.0
14.6,1.2000000476837158,156.0,23.68003463745117,0.0,-79.78282531317012,40.45892002220131,266.2975138647556,0.0035995300859212,0.0101024424657225,0.8886702060699463,0.4584215879440308,0.0233845576717095,-0.0082816324174269,-0.0030718251776382,0.0054802712984383,0.0016056461026892,0.0035053854808211,0.2040873413532972,-0.0280036428035236,-9.811060684919358,14931.0
14.7,1.2000000476837158,154.0,23.676279067993164,0.0159035474061965,-79.78282542696921,40.45892014220453,266.29822146129607,0.0036090947687625,0.0101039698347449,0.8886635899543762,0.4584342837333679,0.0226159577993524,-0.0057241633195904,-0.0051941199047382,0.0049070012755692,0.001010512583889,0.0031139198690652,0.2004178480803966,-0.0230743166687898,-9.81049701333046,14931.0
14.9,1.2999999523162842,156.0,23.686294555664062,0.0238553211092948,-79.7828254365888,40.458920161558254,266.2976988477707,0.0036092873197048,0.0101020550355315,0.8886615633964539,0.4584382474422455,0.0220670718344079,-0.0062734433001453,-0.0049185044788401,-0.0049825380556285,0.0013119747163727,-0.0058126347139477,0.1998758660070598,-0.0229161791782826,-9.810274819135666,14931.0
15.01,1.2999999523162842,155.0,23.67878341674805,-0.0159035474061965,-79.78282551886791,40.458920231620496,266.3007936401367,0.0036152745597064,0.0100900959223508,0.8886616230010986,0.458438366651535,0.0127997785884674,-0.0023338398931632,-0.0030444311730711,-0.0050780740566551,-0.0023624296300113,-0.0024868310429155,0.2013117594458162,-0.0221365237771533,-9.810178924798969,14931.0
15.2,1.2999999523162842,149.0,23.676279067993164,-0.0079517737030982,-79.7828255253572,40.45892024278476,266.3004832191467,0.0036143632605671,0.010090971365571,0.8886592984199524,0.4584428668022156,0.0136118505264448,-0.0031685166025712,-0.0029663843837053,0.0029584334697574,0.0028639265801757,0.0029788208194077,0.2025210732780397,-0.025988993786741,-9.811622017621994,14931.0
15.3,1.2999999523162842,148.0,23.67252349853516,0.0159035474061965,-79.7828256288786,40.45892036446698,266.3037669284344,0.0036083899904042,0.0100909490138292,0.8886573910713196,0.4584466516971588,0.0159186755071593,-0.0027866310253425,-0.0014175777093759,0.0051734582521021,0.0039530671201646,-0.0010545548284426,0.2024604632332921,-0.0271958385407924,-9.810157874822618,14931.0
15.5,1.399999976158142,144.0,23.6612548828125,0.4055404663085937,-79.78282572425016,40.45892044193234,266.30734505486487,0.0036086626350879,0.0100826630368828,0.8886575102806091,0.4584465622901917,0.0108503745416236,0.0028239952162054,-0.0005600018329156,-0.0044841975905001,3.454902252997272e-05,0.0016564677935093,0.2010420931689441,-0.0309310901490971,-9.811054837703708,14931.0
15.6,1.399999976158142,142.0,23.63746452331543,0.8667433857917786,-79.7828257438653,40.45892045604669,266.30726393294333,0.0036250683479011,0.0100783072412014,0.8886754512786865,0.4584116935729981,0.0114340232092732,0.0014221656369563,-0.0001588740943053,0.0005490452167578,0.002029990311712,0.0035081875976175,0.2047523342259228,-0.034791321423836,-9.813263915777208,14931.0
15.8,1.399999976158142,143.0,23.66876602172852,0.3180709481239319,-79.78282581217637,40.45892057834404,266.3108179790973,0.003614472458139,0.0100986277684569,0.8886798024177551,0.4584029018878937,0.0129818359191307,-0.0016823490288106,0.0007991748337301,-0.0022531363647431,0.0011579318670555,-0.0034484176430851,0.2015510202012956,-0.0135237441421486,-9.811671134233476,14931.0
15.9,1.2999999523162842,142.0,23.66501045227051,0.3339745104312897,-79.78282589575869,40.45892069898385,266.3128116650581,0.0036150689702481,0.01009620167315,0.8886837959289551,0.4583951830863953,0.0123858285684294,-0.0045627834477158,-0.0011693444293509,-0.0058436952531337,0.0009613170986995,-0.0042567458003759,0.1969648296944797,-0.0248801264399662,-9.810183602571488,14931.0
16.1,1.2999999523162842,147.0,23.66751480102539,0.3180709481239319,-79.7828259005091,40.45892071111804,266.31268020701407,0.0036258858162909,0.010103884153068,0.8886716365814209,0.4584185183048248,0.0144988898179014,-0.005427353578519,-0.001028417544416,0.0084602376446127,0.0024556617718189,0.0031063426285982,0.1967632103897632,-0.0321496818680316,-9.814331617355348,14931.0
16.2,1.399999976158142,148.0,23.663759231567383,0.3339745104312897,-79.78282600521142,40.45892081422914,266.3162819368839,0.0036041501443833,0.0100901769474148,0.8886803388595581,0.458402156829834,0.0123974287399958,-0.0004377882451245,8.517072401192355e-06,-0.0027658764738589,-0.0011795469326898,-0.0095387594774365,0.198492908142507,-0.0295748741598799,-9.810846676826475,14931.0
16.4,1.399999976158142,148.0,23.65749740600586,0.4134922325611114,-79.7828260125215,40.45892082399565,266.3162775559425,0.0036091881338506,0.0100767603144049,0.8886809349060059,0.4584012627601624,0.0128035893206688,-0.001743918619405,7.31218053625002e-05,0.0030765656847506,0.0058301547542214,0.0039902226999402,0.2052054568938911,-0.0270282541424967,-9.809791839122774,14931.0
16.5,1.399999976158142,148.0,23.658750534057607,0.4293957948684693,-79.78282611622281,40.45892096378522,266.31992610526083,0.0035837064497172,0.0100730778649449,0.8886860609054565,0.4583916068077088,0.017455114511886,-0.0033818309644171,0.0008684677081601,0.0027548826765269,0.0033021313138306,0.0020546703599393,0.1956168820336461,-0.0251038144156336,-9.811278201341633,14931.0
16.7,1.2999999523162842,152.0,22.92254447937012,10.68718433380127,-79.78282612458486,40.45892097916471,266.32000189256667,0.0035758686717599,0.0100816786289215,0.8886868953704834,0.4583897292613983,0.0178669629244473,-0.00377299400417,0.0010576949974472,-0.0017954115755856,-0.000381629273761,0.0016947761178016,0.2071306891925633,-0.0371336292196065,-9.812963368892673,14931.0
16.8,1.2999999523162842,151.0,23.62744903564453,1.0734894275665283,-79.78282623473645,40.45892112780292,266.32405256462096,0.0033242651261389,0.0100542781874537,0.8886237740516663,0.4585145711898804,0.0254106981341452,-0.0054190357822574,-5.9552491039597474e-05,0.0171434208750724,0.0031565639656037,0.0090839453041553,0.2275998908467591,-0.009208198635606,-9.798383921384811,14931.0
17.0,1.399999976158142,152.0,23.662506103515625,0.2624085247516632,-79.78282632380002,40.45892122990597,266.3275855703354,0.0033444201108068,0.010059293359518,0.8886184096336365,0.4585247933864594,0.0191854938843306,-0.0046310626283496,0.0021315465334822,-0.0163098983466625,-0.0148204527795314,-0.0062991096638143,0.1832790742814541,-0.0195548296021297,-9.805804038047787,14931.0
17.1,1.399999976158142,152.0,23.33446884155273,5.311784744262695,-79.78282634356655,40.45892126550983,266.3279483540058,0.0033392375335097,0.0099763665348291,0.8886128067970276,0.4585376381874085,0.0186806678981164,-0.0072534037735683,0.0015498896740466,-0.0026688559446483,0.0422379896044731,0.0190160181373357,0.2028621852211654,-0.0211785831162706,-9.809412354826929,14931.0
17.3,1.399999976158142,156.0,23.65749740600586,0.3180709481239319,-79.78282643741778,40.4589213831738,266.33290939760207,0.0032758039887994,0.0100959530100226,0.8885849118232727,0.4585894346237183,0.0260707701957943,-0.0042524875085123,0.004088457013518,0.0029685120098292,-0.046575628221035,0.0061921016313135,0.2089277212880552,-0.0588079146109521,-9.818376721143723,14931.0
17.4,1.399999976158142,157.0,23.65249061584473,0.2624085247516632,-79.78282651822927,40.45892149894566,266.3337965233326,0.0032766181975603,0.0100780501961708,0.8886116147041321,0.4585381150245666,0.0196278552321213,-0.0061948228309407,0.0007849858629973,-0.0033987842034548,0.0041843918152153,-0.0145032443106174,0.1784856182523072,-0.0373395128804259,-9.804967301487924,14931.0
17.6,1.600000023841858,165.0,23.526033401489247,2.711555004119873,-79.7828265260446,40.45892151735038,266.33383759093283,0.0032444612588733,0.0100158341228961,0.8886049389839172,0.4585525691509247,0.0208116787100749,-0.0066905793180818,0.0004672784766452,-0.0021773411426693,-0.0027543827891349,0.0054560932330787,0.1982340957596898,-0.0100249918503686,-9.811989222764971,14931.0
17.7,1.600000023841858,164.0,23.44214630126953,4.0792598724365225,-79.78282662628253,40.45892158978408,266.3375638051033,0.0032647906336933,0.0100567387416958,0.888590395450592,0.4585797488689423,0.0130134947729064,0.0005310524240988,0.0013977430260357,-0.0060250917449593,-0.0002405777195235,-0.0021926388144493,0.1968997246026992,-0.0540672479756176,-9.804096651077272,14931.0
17.9,1.600000023841858,158.0,23.336973190307607,6.003589153289795,-79.78282663653316,40.458921600061046,266.3376908524036,0.0032335626892745,0.0099799688905477,0.8885757923126221,0.4586099982261658,0.0126166431185821,1.850288100312559e-05,0.0008436695653216,-0.0132813705131411,-0.0078147500753402,0.0105685153976082,0.1939991950057447,-0.0230205656820908,-9.826229531764984,14931.0
18.0,1.600000023841858,153.0,23.280630111694336,7.053223609924316,-79.78282673494645,40.45892168966545,266.33977460098265,0.0033203128259629,0.0100398873910307,0.8885682225227356,0.4586226344108582,0.0137339877333837,0.0013089244799811,0.0023193471731562,0.0033267659600824,0.0115023106336593,0.0462839491665363,0.179089178815484,-0.124815176948905,-9.810268971920014,14931.0
18.2,1.7000000476837158,144.0,23.14916610717773,9.629598617553713,-79.78282674499575,40.458921699544135,266.33997585606573,0.0033723146189004,0.0100571438670158,0.8885521292686462,0.4586532711982727,0.0173239083898484,-0.001009355581617,0.0025524584631645,0.0122862765565514,0.0131098348647356,0.0140051078051328,0.2158945873752236,-0.0692881533131003,-9.84195854187012,14931.0
18.31,1.7000000476837158,142.0,23.072790145874023,11.490313529968262,-79.78282686779814,40.45892178944429,266.3438720924854,0.0035677421838045,0.0102124167606234,0.8884991407394409,0.45875084400177,0.0166915190060899,0.0067248238450837,0.0076123089789815,-0.0353360846638679,-0.1177402809262275,0.123395949602127,0.2308727419003844,-0.0058069977723062,-9.825023835897444,14931.0
18.5,1.7999999523162842,136.0,22.913780212402344,14.03488063812256,-79.78282694346672,40.45892188176956,266.3465391321182,0.0034701393451541,0.010390093550086,0.8885272145271301,0.4586931467056274,0.0198173954209472,0.0067702311524409,0.0096902717280948,0.0503439605236053,-0.0524036735296249,-0.0477528870105743,0.2527862058207393,-0.1597235294803977,-9.873304295539857,14931.0
18.6,1.8999999761581416,132.0,22.829893112182607,15.537766456604006,-79.78282696809227,40.458921905302574,266.34850790333746,0.0036218545865267,0.0110872043296694,0.8885491490364075,0.4586332738399506,0.0169516328999542,-0.0059732439480591,0.007783767237607,0.002523693954572,0.0729555860161781,-0.0444621965289115,0.1177035557292401,-0.0836096929293125,-9.783252496719363,14931.0
18.8,2.0,128.0,22.65961456298828,18.98883628845215,-79.78282706242274,40.45892199545875,266.3539161307812,0.0036782748065888,0.0120897116139531,0.8884894251823425,0.4587230682373047,0.0268791717268988,0.0028443641359066,0.0203768838173574,0.0727570727467536,-0.014387727715075,-0.0146924927830696,0.2331074746325612,-0.0291945470427162,-9.786162071228029,14931.0
18.9,2.200000047683716,125.0,22.565710067749023,20.889310836791992,-79.7828271765233,40.45892209196116,266.36152412724493,-0.00078344339272,0.0140903890132904,0.8882805109024048,0.4590846598148346,0.0405707044683085,0.0085285823981871,0.0294785969567178,0.1202513501048088,-0.0279993321746587,0.0367411039769649,0.3231881075352431,0.2402266972325742,-9.835946434736252,14931.0
19.1,2.299999952316284,123.0,22.34785270690918,24.23700714111328,-79.7828272119613,40.45892212179208,266.36446823906897,-0.00414201291278,0.0155717814341187,0.8885005712509155,0.4585927128791809,0.0684243421190365,0.0027730356477786,0.0310535392154368,0.1548089534044265,-0.0169774778187274,-0.0543566457927227,0.0865579869691282,0.041362979686819,-9.81957890868187,14931.0
19.2,2.299999952316284,120.0,22.24894142150879,26.224950790405277,-79.78282742349239,40.458922252454975,266.36577584576605,-0.0082407621666789,0.0155171463266015,0.891697347164154,0.4522912204265594,0.0976692343930211,0.0024427603962408,0.076365439368853,0.0242794658988714,-0.020809780806303,-0.07522764056921,0.1931884602829814,-0.1549355552159249,-9.946240124702454,14931.0
19.4,2.299999952316284,119.0,22.04610824584961,28.419639587402344,-79.78282751423862,40.45892233256178,266.375793926239,-0.0113072795793414,0.0082866176962852,0.8932681083679199,0.4493056237697601,0.124836465404636,0.0259055269241477,0.1362083872434011,-0.1286414265632629,-0.2265360802412033,-0.0829195007681846,0.2862438276037574,0.2837388256005943,-10.37574150323868,14931.0
19.5,2.299999952316284,123.0,22.376649856567383,23.63267135620117,-79.78282761411181,40.45892290551879,266.40293528866766,-0.0114310691133141,-0.0003089438250754,0.8933457136154175,0.4492245614528656,0.1725484591815653,0.0193645599654688,0.2862638355006165,-0.1073732674121856,-0.1042801439762115,0.0296209827065467,0.1254042291082442,-0.0793384206667542,-10.78293692350388,14931.0
19.7,2.299999952316284,129.0,22.395431518554688,23.083999633789062,-79.78282777660193,40.45892303459285,266.4322429819107,-0.0066687250509858,-0.0008847663993947,0.8933666348457336,0.4492782354354857,0.1737556716094737,0.0376758169860351,0.3021024993228485,-0.2877004146575928,0.0730202794075012,-0.0800143182277679,0.1077898482698947,0.0409589599259197,-10.058472751379014,14931.0
19.8,2.200000047683716,138.0,22.4279842376709,22.288822174072266,-79.78282827299087,40.45892332918165,266.4736465586424,0.0144606549292802,-0.0005364450043998,0.8921529054641724,0.4515016973018646,0.1822940450031363,0.0580867393477819,0.2173865273804782,-0.2341406345367432,0.1974600553512572,-0.0301537103950977,0.3524833888560533,-0.3436970702558756,-9.710443552136422,14931.0
20.0,2.400000095367432,142.0,22.22139549255371,26.26470947265625,-79.7828289743415,40.45892356809521,266.46980290842055,0.0230366475880146,0.0031186880078166,0.8913852572441101,0.4526499509811402,0.1826220057858416,0.0617998548177765,0.1076789839669252,-0.1525554358959198,0.0147144310176372,0.0272349119186401,0.2089779707975685,-0.0124631208926439,-9.297979205846788,14931.0
20.1,2.400000095367432,147.0,22.230159759521484,25.73989295959473,-79.78282933856391,40.458923721842375,266.4814283622503,0.0248727053403854,-0.0029083972331136,0.8899009227752686,0.4554660618305206,0.1368572816664569,0.0825088395977937,0.0200868061624852,0.0479442439973354,-0.1744363158941269,0.0236656591296196,0.3120578229054809,0.2535362574085593,-9.2376248306036,14931.0
20.3,2.200000047683716,147.0,22.30528259277344,24.006404876708984,-79.78282970927458,40.458923919151,266.50115708243845,0.0196302235126495,-0.0050077578052878,0.8891237378120422,0.4572182893753052,0.1343312977271881,0.0727252445842492,0.0602435645541442,0.1258155703544616,-0.1521773636341095,0.0662979558110237,0.2159787141904235,0.0244176527950912,-9.793829525113106,14931.0
20.41,2.200000047683716,157.0,22.113719940185547,27.60855865478516,-79.7828301846454,40.45892418918747,266.5337830109596,0.0108241792768239,-0.007511961273849,0.8895812034606934,0.4565871357917786,0.1006741603105388,0.1010161241164293,0.0726926687979928,0.0399724878370761,0.0579578801989555,-0.0502326935529708,0.1770040617138147,-0.0782187336869537,-9.749866064786907,14931.0
20.5,2.200000047683716,168.0,22.117475509643555,27.529041290283203,-79.78283035235324,40.45892420868827,266.5415219737291,0.0078865624964237,-0.0042628347873687,0.8907729387283325,0.4543603956699371,0.0875072603195675,0.1240963731982493,0.0744035507632958,0.0120156640186905,0.0207786187529563,-0.0566011145710945,0.1668674382939934,0.0485981735866516,-9.81286747455597,14931.0
20.71,2.0999999046325684,173.0,22.12749290466309,27.21096992492676,-79.7828305243013,40.45892420146875,266.54980964195727,0.0082122739404439,-0.0034849161747843,0.8919354677200317,0.4520747363567352,0.0691027737927176,0.1275776741346062,0.0905979969727886,-0.0497084110975265,0.0374702550470829,-0.0616098307073116,0.1203252553660422,0.1245145935192704,-9.933839349746703,14931.0
20.9,2.0,188.0,22.11246681213379,26.821332931518555,-79.78283093258169,40.45892421049719,266.58298750948904,0.0166045725345611,0.0035353393759578,0.8931698203086853,0.4493989944458008,0.0473762398878641,0.1357476116305377,0.1238784780426279,-0.1239794120192527,0.1442188620567321,0.0117828622460365,0.0817823923565447,0.1395551670715213,-9.846441017389296,14931.0
21.0,1.8999999761581416,187.0,22.107460021972656,26.837236404418945,-79.78283110638566,40.458924172384464,266.59793435019253,0.0228461232036352,0.00675745960325,0.8931675553321838,0.4490925371646881,0.0286081690626895,0.1449099031676813,0.1179949295876693,-0.0751917362213134,0.1680051684379577,-0.0035012331791222,0.1496413948014378,0.319175528883934,-9.726095378994945,14931.0
21.2,1.7999999523162842,188.0,22.00979995727539,28.67409706115723,-79.78283139289175,40.45892404166843,266.62217406910656,0.0205825455486774,0.0114762391895055,0.8919826149940491,0.4514551758766174,-0.009373015900543,0.1257055978605802,0.1348166767287558,-0.0237734913825988,0.08124341070652,-0.0323271863162517,0.1702360557764768,0.1191015427652746,-9.955882183313369,14931.0
21.3,1.8999999761581416,187.0,21.937179565429688,30.025897979736328,-79.78283160920839,40.458924027933605,266.64481294137244,0.0196364931762218,0.0119656696915626,0.8909471035003662,0.4535245597362518,-0.0087730634945941,0.1252288749350502,0.1795898335872728,0.0975226461887359,-0.0195898804813623,0.0857545211911201,0.2626641264930368,0.0676938825566321,-10.159130229949954,14931.0
21.4,1.600000023841858,181.0,22.05362129211425,27.457475662231445,-79.78283177541802,40.45892387057828,266.6768529152572,0.0121336970478296,0.0128605589270591,0.8901425004005432,0.4553391933441162,-0.0408631239540192,0.1104134604970363,0.2387503640571992,-0.0082604708150029,0.0026503710541874,0.0365774147212505,0.197087712585926,0.0466454685106873,-10.262960407733916,14931.0
21.6,1.5,181.0,22.21263122558593,25.57290458679199,-79.78283188301977,40.458923711083386,266.72115557017554,0.0142581406980752,0.0147107513621449,0.8908282518386841,0.4538780748844147,-0.0365748748119854,0.0948075515189233,0.1197353669085417,0.0351309403777122,0.0084341596812009,0.0187790710479021,0.4060460403934121,0.3845438915491105,-8.871518379449844,14931.0
21.8,1.600000023841858,168.0,21.885847091674805,30.47914886474609,-79.78283204212556,40.45892366832226,266.7296329278573,0.008458187803626,0.0123273432254791,0.8911423087120056,0.4534777104854584,-0.0178262183645042,0.0992950248678794,0.0631513558822193,0.1661724746227264,-0.2015240043401718,-0.0203900970518589,0.4048143975064159,0.2241699506901204,-9.306730148792267,14931.0
21.91,1.7000000476837158,165.0,21.656721115112305,34.987804412841804,-79.78283211469795,40.45892360569102,266.7377187235355,0.0020958380773663,0.010932270437479,0.8914169669151306,0.4530473053455353,-0.017755362573252,0.0867984673163165,0.0953316623914818,0.0588623695075511,-0.023505263030529,-0.0173937864601612,0.3392318440228701,0.074952332843095,-9.943874341249469,14931.0
22.1,1.7000000476837158,159.0,21.537776947021484,37.07117080688477,-79.78283240727346,40.458923482521946,266.7889315931201,0.0021575158461928,0.0114984810352325,0.8911475539207458,0.4535629749298096,0.012243142358044,0.1000846675964085,0.3190885294294162,0.0067581245675683,0.0486051104962825,0.0998755693435669,0.2781283490918577,0.1886690924875438,-11.03371230840683,14931.0
22.21,1.7000000476837158,151.0,21.574085235595703,36.7928581237793,-79.78283251643246,40.45892345196104,266.83028694969414,0.0043636998161673,0.0122029650956392,0.8909429311752319,0.4539305567741394,0.0274438586041463,0.103060153330974,0.5074331383028929,-0.0778318792581558,0.0595601238310337,0.1147074103355407,0.3520413758978248,-0.0341098147351294,-11.5621380507946,14931.0
22.3,1.8999999761581416,141.0,21.29988670349121,40.79259872436523,-79.78283284297133,40.458923456950295,266.9478517694473,0.0139083936810493,0.0136912958696484,0.8906683921813965,0.4542345106601715,0.0785199417471536,0.0938976454677095,0.8492604407871209,0.0401830226182937,0.0634490698575973,0.0999850109219551,0.3052664281055331,0.04668348911684,-11.565627669095994,14931.0
22.51,2.0999999046325684,137.0,21.19346237182617,42.35114669799805,-79.7828331594767,40.458923575086615,267.15501274895666,0.0117416838183999,0.0207743048667907,0.8894455432891846,0.4564178287982941,0.1286071225238279,0.0753430797209689,1.273680017267783,0.1039188951253891,0.0827800706028938,0.0112507585436105,0.3294878611341119,0.2250682474672794,-11.852860443592071,14932.0
22.7,2.400000095367432,130.0,21.294878005981445,40.42681884765625,-79.78283325125524,40.45892367771248,267.29527615737913,0.0071073174476623,0.0278263948857784,0.8883917331695557,0.4581871032714844,0.1595678574183074,0.0506609814596791,1.5206507874413973,0.1107110902667045,0.066481202840805,-0.0038159824907779,0.2513251876272261,0.3036127624288201,-12.213036063909527,14932.0
22.8,2.5,136.0,21.18094253540039,41.54006576538086,-79.78283339344577,40.45892381499375,267.4502816123962,0.0088575026020407,0.0248902775347232,0.8874345421791077,0.4601762294769287,0.1503220184322478,0.0540385021520601,1.7205076647907422,-0.1794490069150924,-0.1376582086086273,0.0053962767124176,0.4131591051444412,0.0964312938228249,-12.042503188848492,14932.0
22.9,2.799999952316284,143.0,21.20848655700684,42.68512344360352,-79.78283355680864,40.45892421553423,267.8301211519241,0.0206329748034477,-0.0087103340774774,0.8864182829856873,0.4623430371284485,0.2086422101834885,-0.0267822121840276,2.1672689156632243,-0.2937606275081634,-0.1890147030353546,-0.0134707409888505,-0.0074890863988548,0.1401477275602519,-12.213234869241717,14932.0
23.1,3.0999999046325684,146.0,20.84789657592773,36.180572509765625,-79.78283359304741,40.45892451344832,268.30726980400084,0.0276434738188982,-0.0195182207971811,0.8863770365715027,0.4617258608341217,0.2868646837395618,-0.1068848339393049,2.5497726892667147,0.1171770915389061,0.028426731005311,-0.0415509045124054,-0.0586477648559957,0.3856874972954393,-11.518404386043551,14933.0
23.21,3.5,152.0,20.825359344482425,37.47671127319336,-79.78283361778959,40.45892471106718,268.5548084897995,0.0227866359055042,-0.0120324399322271,0.8866276741027832,0.4617655277252197,0.276078184521544,-0.1054232105428829,2.60131974727216,0.1507837325334549,-0.0277223754674196,0.0201807077974081,0.0795832728222012,0.5109377070888877,-10.784111044406892,14933.0
23.4,3.5999999046325684,153.0,20.901735305786133,36.29984664916992,-79.78283359311767,40.45892483947297,268.81867145729063,0.0168545320630073,-0.0060614007525146,0.8858640789985657,0.463599145412445,0.2339951384764456,-0.0912128785707639,2.6405044923543275,0.0714602991938591,-0.1042331084609031,0.0721721276640892,0.1777715818583965,0.3440662488341332,-10.249449831247327,14933.0
23.6,4.0,159.0,20.936792373657227,35.68756103515625,-79.78283353616614,40.45892515859693,269.3378209991455,0.0134963188320398,-0.0182719193398952,0.8814322948455809,0.4717639684677124,0.1935598398809913,-0.1222324900555486,2.656233732423691,-0.1358875781297683,-0.0917179137468338,0.1678492575883865,-0.0707761235162615,0.2290080465562641,-9.976029349565506,14934.0
23.7,4.300000190734863,163.0,20.949312210083008,34.70154190063477,-79.78283350683445,40.458925300029016,269.6049508972168,0.0152780450880527,-0.0244029685854911,0.8786695599555969,0.4765616059303284,0.2285458928040072,-0.158338832689678,2.6719855370840087,-0.0743797272443771,-0.0081418119370937,0.2348827123641968,-0.2265308370999992,0.3575343964621425,-10.011354718208311,14934.0
23.8,4.599999904632568,176.0,20.970598220825195,34.566360473632805,-79.78283347535452,40.458925668694576,270.1352341098785,0.0178490877151489,-0.0261858310550451,0.8722806572914124,0.4879778623580933,0.2849686517665541,-0.1601150231712117,2.670264550580491,0.0070108473300933,0.0074625192210078,0.1583687216043472,-0.3355279252678156,0.2994589735195041,-9.9213099360466,14935.0
24.0,4.800000190734863,183.0,20.765260696411133,38.72513961791992,-79.78283339574647,40.458925997424544,270.65144967269896,0.0269854329526424,-0.0323332250118255,0.8690458536148071,0.4929359555244446,0.2516913339529136,-0.1507409603041753,2.6618099942750293,-0.1939756721258163,0.0742527544498443,0.0515253506600856,-0.4478632436692715,0.2210702320374548,-9.902990609407423,14935.0
24.1,4.900000095367432,188.0,20.791553497314453,37.88225173950195,-79.78283336604866,40.45892607808906,270.9204249305725,0.0353460125625133,-0.0315278209745883,0.8702380061149597,0.4903495609760285,0.2566777721510767,-0.1438369841165129,2.692141166107735,-0.0724794492125511,0.094224028289318,-0.1036894172430038,-0.2947290145978332,0.466448435895145,-10.100618312358854,14935.0
24.31,5.099999904632568,190.0,20.820350646972656,38.17646789550781,-79.78283333307054,40.45892613915292,271.17613410186766,0.0384995378553867,-0.028117237612605,0.8722008466720581,0.4868191182613373,0.2406855702046328,-0.1204712563052542,2.7176472646604526,0.0580166541039943,0.0598932392895221,-0.0775324627757072,-0.1258263980783522,0.4748672204464674,-10.307275285720824,14936.0
24.5,5.300000190734863,185.0,20.817846298217773,38.44682693481445,-79.78283305250879,40.4589259286924,271.76270055007933,0.0289802346378564,-0.0210392419248819,0.875931978225708,0.4811037182807922,0.1175006351580508,-0.0668175279972282,2.8350777316129308,0.1608230471611023,-0.052283477038145,-0.115978829562664,-0.0430500475829467,0.3936053581908345,-10.383719444274902,14936.0
24.6,5.199999809265137,183.0,20.867929458618164,37.46875762939453,-79.78283275208175,40.45892574268383,272.346035949707,0.012916381470859,-0.0160686206072568,0.8768477439880371,0.4803259074687958,-0.0097302534385203,-0.0883182278705487,3.002733650087431,0.1112193167209625,0.0052192290313541,-0.0762882009148597,-0.0731613078480586,0.4144189243018627,-10.566858916282657,14937.0
24.7,5.300000190734863,183.0,20.90298652648925,37.17454147338867,-79.78283255313643,40.458925521160495,272.6988501472473,0.0066213137470185,-0.0123495673760771,0.8766695857048035,0.4808889627456665,-0.0449713433181624,-0.0869781448437275,3.056574678698308,0.1398821622133255,-0.0059037082828581,0.03646045550704,-0.0860640342906117,0.2874657312221825,-10.421312363147736,14937.0
24.9,5.300000190734863,183.0,20.8917179107666,36.776954650878906,-79.78283221493939,40.45892522440047,273.356937877655,0.0038424481172114,-0.0102371135726571,0.8755412101745605,0.4830196499824524,-0.0789744701286216,-0.0938690921314727,3.1524189043129707,-0.0192613266408443,-0.01448380574584,-0.0420074574649334,-0.1435490985866636,0.3856931617856026,-10.321741297245026,14938.0
25.1,5.199999809265137,196.0,20.884206771850582,36.64972686767578,-79.78283209214824,40.45892515283848,273.6747531814575,0.0063658435828983,-0.0128242205828428,0.875308632850647,0.4833526611328125,-0.0647556450895796,-0.0939423011469071,3.2044523241187,-0.0794899687170982,-0.0173224620521068,0.037504244595766,-0.0707514647115022,0.3844887084513903,-10.368672219514847,14938.0
25.2,5.199999809265137,193.0,20.841636657714844,36.466835021972656,-79.78283197656495,40.45892509401936,273.99829482269286,0.0092812804505229,-0.015826778486371,0.8746646046638489,0.4843813478946686,-0.0277675316123731,-0.1080472000498856,3.265048177977841,-0.0585452131927013,-0.0220177583396434,0.1100674718618393,-0.1081527410913258,0.4451334344968199,-10.428585129976272,14938.0
25.4,5.099999904632568,193.0,20.92176818847656,35.75117492675781,-79.7828316927538,40.45892491957173,274.70653676223753,0.008020750246942,-0.0195842534303665,0.8727248907089233,0.4877535700798034,0.0239523529061248,-0.1274193034647047,3.3320655853019137,0.0350945331156253,-0.0250140205025672,-0.0158237107098102,-0.2747138675116002,0.3434364306181669,-10.213363155126572,14939.0
25.5,5.099999904632568,194.0,20.88545799255371,37.27791595458984,-79.78283150842516,40.45892474197432,275.0905189437866,0.0032443606760352,-0.0182026531547308,0.8713817000389099,0.4902572333812714,0.029747976856306,-0.1375070446607789,3.3483095112624044,0.0292994268238544,-0.0277476329356432,0.0607161223888397,-0.3905334138125181,0.3383040370792151,-10.02253927230835,14940.0
25.7,5.099999904632568,200.0,20.949312210083008,35.043468475341804,-79.78283131920483,40.45892467877518,275.76129912567137,0.0054812165908515,-0.0216956790536642,0.8685218691825867,0.4951455891132355,-0.0080938637957962,-0.1441123426910405,3.337466744059515,-0.2063519060611724,-0.0734942182898521,-0.0090644527226686,-0.2360286522097885,0.4114337379857898,-9.727089405655864,14940.0
25.81,5.199999809265137,202.0,21.035703659057614,33.84275054931641,-79.78283115823753,40.45892446906828,276.4489316864013,0.0112352762371301,-0.0257821884006261,0.8706476092338562,0.4911027550697327,0.0463118689376584,-0.1346143151489608,3.298813320791472,-0.1044132858514785,-0.13936647772789,-0.0695770382881164,-0.1897534951753914,0.253301235884428,-9.724243565797806,14941.0
26.0,5.300000190734863,201.0,20.974353790283203,34.64587783813477,-79.78283111979573,40.45892444932056,276.7278041763305,0.0151915121823549,-0.0293319337069988,0.8732993006706238,0.4860631227493286,0.0607547581126828,-0.1288727033834093,3.2316781646962767,-0.0992150232195854,-0.0879982858896255,-0.0412229262292385,-0.136600304050371,0.3230101329088211,-9.860801779031751,14941.0
26.1,5.300000190734863,201.0,21.043216705322266,33.858654022216804,-79.78283104595141,40.45892438803017,277.0521726531982,0.0178293697535991,-0.0308462083339691,0.8761193156242371,0.4807761311531067,0.0875107702205992,-0.1207811864998279,3.2480125313996195,-0.03859818354249,-0.0330769941210746,-0.1223035231232643,-0.1491404894180596,0.337857236713171,-9.952255740165713,14942.0
26.3,5.199999809265137,197.0,21.25982093811035,37.0234603881836,-79.78283096306444,40.45892415315742,277.7887601776123,0.0143131213262677,-0.0188910067081451,0.881729006767273,0.4711606204509735,0.0650843851650273,-0.0782777324663302,3.2489631913272,0.0589530430734157,0.1779650449752807,-0.1446593999862671,-0.1026961468532681,0.4227183525636792,-9.725159824490548,14942.0
26.4,5.199999809265137,190.0,21.51273536682129,32.4989013671875,-79.78283093266181,40.458923781746826,278.5573558731079,0.0099198808893561,-0.004896312020719,0.8874742984771729,0.4607244729995728,0.011205621820069,0.0292473643839485,3.26648002444628,0.1561805605888366,0.0696260705590248,-0.0323316603899002,0.0909162548370659,0.4202124917507172,-9.88478471875191,14943.0
26.6,5.099999904632568,188.0,21.65046119689941,30.39963150024414,-79.78283094284637,40.45892369443872,278.88396739196776,0.0047709662467241,0.0008039610111154,0.8899107575416565,0.4561089873313904,0.0109693518386818,0.0656434218447632,3.2656303738225594,0.108414702117443,0.010801387950778,-0.1292971372604369,0.0107639360125176,0.4096761380508542,-9.83783742427826,14943.0
26.7,5.099999904632568,187.0,21.624168395996094,30.3042106628418,-79.78283095988532,40.45892363194008,279.2098340911865,0.00557711860165,0.0044719581492245,0.892089307308197,0.4518027901649475,-0.0110910969921788,0.0694490575435935,3.245891180415832,-0.0871104225516319,0.0222516488283872,-0.1433693021535873,-0.0041546934004873,0.44193654242903,-9.678469222784043,14944.0
26.9,5.099999904632568,179.0,21.65046119689941,30.11336708068848,-79.78283101649815,40.458923299202056,279.977534286499,0.0158536825329065,0.0060192700475454,0.8960552215576172,0.4436187148094177,0.034840563503652,0.0988653184350133,3.1906591658460743,-0.1260146200656891,-0.0575379505753517,0.0571437440812587,0.0744506645807996,0.3275579145178199,-9.281721022725105,14944.0
27.0,5.099999904632568,170.0,21.733097076416016,29.16710662841797,-79.78283115029045,40.45892298620208,280.423789970398,0.0201702918857336,0.0020554354414343,0.897017776966095,0.4415293037891388,0.0964844168562071,0.1006658293289614,3.171027353574775,-0.0832282528281211,-0.0518075935542583,-0.0977133363485336,0.0977178091742098,0.5404682657495141,-9.213876948952676,14945.0
27.1,5.199999809265137,168.0,21.664234161376957,28.96036148071289,-79.78283121778423,40.45892309106305,281.0463991088867,0.0131447352468967,-0.0012189960107207,0.8972461819648743,0.4413332939147949,0.1881511880710235,0.0015298077428651,3.0447276537904884,0.0229014512151479,-0.0084080072119832,0.155744269490242,-0.1851058906316757,0.3849110966920853,-9.180577055811884,14946.0
27.31,5.300000190734863,167.0,21.6817626953125,29.43746757507324,-79.78283143324848,40.45892318566798,281.7551574630737,0.0153389982879161,-0.0052727228030562,0.8957064151763916,0.4443501532077789,0.2292086361817608,-0.0828797566443413,2.9247047009617617,-0.0437152497470378,0.0045852614566683,-0.0840087607502937,-0.2788169135525822,0.7200760560482741,-8.92208743929863,14946.0
27.4,5.400000095367432,170.0,21.55655670166016,32.33986282348633,-79.78283153998588,40.45892317637115,282.14833163452147,0.0165671426802873,-0.0091736111789941,0.8944780826568604,0.4467106759548187,0.2670893096088605,-0.093435662805377,2.8731471737078964,-0.0497849434614181,-0.0748173370957374,-0.0816544443368911,-0.2490228830091656,0.6670205408334733,-8.872929312586782,14947.0
27.6,5.400000095367432,171.0,21.606639862060547,31.03577423095703,-79.78283156503377,40.45892336043823,282.43296527099614,0.0175041630864143,-0.0146320154890418,0.8930925726890564,0.4492941200733185,0.3016552815106179,-0.1343350429570765,2.800306048264316,-0.0955885350704193,-0.0827790647745132,0.1082671880722046,-0.4132833584770561,0.4883417269214988,-9.06575177371502,14947.0
27.81,5.5,173.0,21.57283401489257,31.44926643371582,-79.78283169683594,40.45892356442317,283.1019773406982,0.0243248026818037,-0.0246206521987915,0.8904134631156921,0.4538349807262421,0.3508070985482813,-0.1872239131329386,2.732966579648643,-0.1244223862886428,-0.0522359833121299,-0.0070140529423952,-0.2459515233524144,0.4460346731543541,-9.266431138515475,14948.0
27.9,5.699999809265138,175.0,21.427595138549805,33.103233337402344,-79.7828316951501,40.45892379176239,283.3749837799072,0.0242490749806165,-0.0279384739696979,0.8894774317741394,0.4554792642593384,0.3674570886965588,-0.2150073825300816,2.6919053063349923,-0.0659990236163139,-0.0721036568284034,0.0572221986949443,-0.3205668373033405,0.6404850722104312,-9.367845831513405,14948.0
28.01,5.800000190734862,179.0,21.54153251647949,32.23649215698242,-79.78283180541446,40.45892397649077,284.0632600708008,0.0160085968673229,-0.0325714536011219,0.889450192451477,0.4555889666080475,0.3585459969169622,-0.2362921635396604,2.736978052642724,0.0541334599256515,-0.1097092032432556,-0.0352518297731876,-0.3861363441869617,0.4925433899089695,-9.726702904701233,14949.0
28.2,6.0,183.0,21.547792434692383,31.385652542114247,-79.78283204387253,40.45892419029107,284.7726812286377,0.0045151999220252,-0.0372686274349689,0.8876964449882507,0.4588962495326996,0.3513220855393839,-0.2811640084983406,2.870150960490624,0.1084323152899742,-0.0259792376309633,0.2068336755037308,-0.2334783708304167,0.7935442741960288,-9.889537335634232,14949.0
28.4,6.300000190734862,184.0,21.43886375427246,33.492870330810554,-79.78283208489965,40.45892440272153,285.0626687927246,0.0072638927958905,-0.0370956435799598,0.8864545226097107,0.4612696766853333,0.3414085602521628,-0.2795904324708616,2.875916445368189,-0.0718585774302482,0.0180362500250339,-0.007292547263205,-0.3376145772635937,0.6659849258512259,-9.82823863506317,14950.0
28.5,6.300000190734862,185.0,21.537776947021484,32.29215240478516,-79.78283220349763,40.45892464315951,285.52573870849614,0.0131765119731426,-0.0390547551214695,0.8856374025344849,0.4625447690486908,0.4011994145513828,-0.2601369331159236,2.982898181632105,-0.087461844086647,0.034506119787693,0.0387432314455509,-0.3481550605595112,0.6881899465620518,-9.719208528399466,14950.0
28.6,6.300000190734862,196.0,21.41883087158203,33.246368408203125,-79.78283241414611,40.4589251037016,286.12588214111327,0.0241785869002342,-0.0359124727547168,0.8856497406959534,0.4623314440250397,0.4775102637074512,-0.2169299404777616,2.956673092458623,0.0193012822419405,0.0241194553673267,0.0815455019474029,-0.5170442102104426,0.5560722550749779,-9.68156123042107,14951.0
28.8,6.300000190734862,198.0,21.690526962280277,28.4912052154541,-79.78283245952589,40.45892519141281,286.5060243530273,0.0236456040292978,-0.0328684523701667,0.8861362338066101,0.4616527855396271,0.4775019882505564,-0.189857202561672,3.0100571223117263,0.0277103427797555,0.0731043741106987,-0.0409203879535198,-0.4206464647874236,0.5967270684242248,-9.811155409812928,14951.0
28.91,6.300000190734862,199.0,21.77190971374512,26.717960357666016,-79.78283255635561,40.458925401636094,286.80928515625,0.0241253543645143,-0.0335136428475379,0.8864562511444092,0.4609666466712952,0.4413794099800726,-0.1742077539710788,2.987914893345587,-0.1073622480034828,-0.1091072484850883,0.0186306368559598,-0.3002314455248415,0.4754089649766684,-9.626030223369597,14951.0
29.0,6.5,190.0,21.81072425842285,26.14543342590332,-79.78283274672418,40.45892603080082,287.4257459564209,0.0207223426550626,-0.0455075800418853,0.8867891430854797,0.4594614505767822,0.4719587467802898,-0.2217975662231852,2.8307475242301683,-0.0134595222771167,-0.1716144233942032,-0.0571070350706577,-0.4397239925712347,0.6723474273830653,-8.890739346742631,14952.0
29.21,6.5,191.0,21.80696678161621,25.843265533447266,-79.7828330627538,40.458926405705775,288.03200816345213,0.0223265141248703,-0.0530531667172908,0.8867570161819458,0.4586382806301117,0.4433435828636298,-0.2470989080851209,2.6235230943301424,-0.1101987808942794,0.0262758750468492,-0.0314942896366119,-0.5023490243777633,0.7376489856094123,-8.570559266209603,14953.0
29.3,6.699999809265138,191.0,21.915895462036133,24.3721866607666,-79.78283315134759,40.45892660460323,288.2928247375488,0.0289250146597623,-0.0520576648414135,0.8876785039901733,0.4565965533256531,0.4308605538062336,-0.2545620982346258,2.515280751510012,-0.1681585758924484,0.1268214881420135,-0.0212203320115804,-0.6082935918867588,0.6281847231835127,-8.707053744792939,14953.0
29.5,6.699999809265138,191.0,21.8570499420166,25.42182159423828,-79.78283312839382,40.45892674963488,288.5796251220703,0.0313219316303729,-0.0494722723960876,0.8890050053596497,0.4541384279727936,0.4413735649388832,-0.2257087950756955,2.442472442321434,-0.0141142476350069,-0.0559439323842525,-0.0479488372802734,-0.5060750529170036,0.6957469611614943,-8.716683524250985,14953.0
29.7,6.800000190734862,192.0,21.7456169128418,27.163259506225582,-79.78283323056282,40.45892707414478,289.05686473083495,0.0232010595500469,-0.0571398511528968,0.8926115632057191,0.4465886056423187,0.349828655092799,-0.2334824994089879,2.26186342031269,-0.0770679414272308,-0.1173574775457382,0.0894486010074615,-0.6927881969511509,0.3887871428579092,-8.892154957652092,14954.0
29.8,6.800000190734862,191.0,21.76064109802246,26.65434646606445,-79.78283329643475,40.458927158034186,289.322504989624,0.0238312128931284,-0.0639508441090583,0.8937375545501709,0.4433684647083282,0.3103125252403927,-0.2532700254379592,2.230708198450549,-0.2470007836818695,-0.1200862675905227,-0.1105434447526931,-0.6274481932818889,0.8232158969342709,-9.102365868687633,14954.0
29.9,6.699999809265138,195.0,21.695533752441406,28.34012222290039,-79.7828333347353,40.45892726994186,289.8088922424316,0.019012214615941,-0.0678344815969467,0.8946956992149353,0.4410857856273651,0.2890117016830116,-0.2434034989365975,2.184716706358342,0.1267105340957641,-0.0361290387809276,-0.1802234053611755,-0.6978932547569275,0.6394852714240551,-9.29580404162407,14954.0
30.1,6.699999809265138,196.0,21.716819763183597,28.125423431396484,-79.78283336148236,40.45892728116677,290.24729632568364,0.0141180362552404,-0.0663858875632286,0.8951016664505005,0.4406661689281464,0.1596806656769685,-0.2002755021257573,2.1587032187756643,0.0620106421411037,-0.022586902603507,0.1133558303117752,-0.6746477220207453,0.4783462772145868,-9.581188511252403,14955.0
30.2,6.699999809265138,211.0,21.63919258117676,29.61240577697754,-79.78283336155124,40.4589271943788,290.5167360229492,0.0122591918334364,-0.065682828426361,0.8949398398399353,0.4411555528640747,0.1283992897334849,-0.1592815163396885,2.2237117464514005,0.0428089052438736,0.0758071392774581,0.0608104318380355,-0.8411850484460592,0.3487816993519664,-9.62275052011013,14955.0
30.4,6.599999904632568,214.0,21.77190971374512,26.38398551940918,-79.78283340619035,40.45892708744913,290.7396173400879,0.0069014769978821,-0.0610107965767383,0.8950350880622864,0.4417491853237152,0.0951662409773332,-0.1222245987107409,2.233770395660345,0.1314258426427841,0.1127544716000557,-0.0976811200380325,-0.773261525630951,0.3546727691218257,-9.816764059066774,14955.0
30.6,6.599999904632568,215.0,21.769405364990234,26.240854263305664,-79.78283350792577,40.458926844167344,291.20694064331053,0.0055770622566342,-0.0478202737867832,0.8950784802436829,0.4433021545410156,0.0067591430009036,-0.0375704248857245,2.2614821342169344,0.1039303094148636,0.2124355435371399,-0.0042693568393588,-0.6521952179074287,0.4171660193055868,-9.668430722951893,14956.0
30.7,6.5,215.0,21.78067398071289,26.75771903991699,-79.78283350175937,40.45892647470522,291.6089296264648,4.653603173210286e-05,-0.0344217866659164,0.8930022716522217,0.4487339854240417,-0.028957559187346,0.0697551718473771,2.204847973460069,-0.0442724488675594,0.0017869961448013,0.0094487583264708,-0.4891173235327005,0.5956898089125753,-9.427114378809929,14956.0
30.8,6.300000190734862,210.0,22.021068572998047,17.54161262512207,-79.78283362848927,40.45892629142022,291.8266019744873,0.0004012490389868,-0.031330294907093,0.8913360834121704,0.4522591829299927,-0.0068987934209109,0.0785344714441827,2.1577641446686915,0.0288511142134666,0.0687111020088195,0.122811459004879,-0.526822326220572,0.3716147110238672,-9.31082495391369,14956.0
31.0,6.199999809265138,212.0,22.170061111450195,19.784013748168945,-79.78283382718794,40.45892592032418,292.16261958312987,0.0163450874388217,-0.0190319959074258,0.8977639079093933,0.4397619366645813,-0.0346068858806225,0.1103702665701726,1.6026085400798042,-0.2213295698165893,0.0751297622919082,-0.4671794176101685,-0.5225784171000123,0.4167264914140105,-7.747956596016884,14957.0
31.2,6.099999904632568,214.0,22.12749290466309,20.07027816772461,-79.78283391245293,40.45892578445624,292.30926608276366,0.0171969141811132,-0.0160330440849065,0.9085347652435304,0.4171472489833832,0.0005894676497106,0.1073503024883245,1.3508444899494472,0.2310353964567184,0.0200416762381792,-0.5407348275184631,-0.3649001705646515,0.2831004192866385,-7.313895558714867,14957.0
31.31,6.0,214.0,22.002286911010746,21.70834350585937,-79.78283386780254,40.45892570558132,292.4076509399414,0.0117607386782765,-0.0140785621479153,0.9208046197891236,0.3895924985408783,-0.0259665971003772,0.0842082471675473,1.1570136185107158,0.0867828801274299,-0.0656061768531799,-0.7555787563323975,-0.4158631134778261,0.602100221067667,-7.6366121613979345,14957.0
31.5,5.9000000953674325,193.0,21.96472549438477,23.10785484313965,-79.78283385966992,40.45892557652711,292.57993029785155,-0.0005263109342195,-0.018943740054965,0.9449914693832396,0.3265457451343536,-0.0308208782280077,0.0170233255591336,0.8410134871885809,-0.0052717444486916,-0.0407296381890773,-0.6032363772392273,-0.7868994252383711,0.1245357622671872,-8.085150904655457,14957.0
31.6,5.800000190734862,187.0,21.958465576171875,23.20327568054199,-79.78283384468855,40.458925536192176,292.65652751159666,-0.0013729939237236,-0.0214654300361871,0.956474244594574,0.2910230457782745,-0.0303056487212051,-0.0190816416733877,0.7017193841144815,-0.0927997380495071,0.0238072928041219,-0.6797440052032471,-0.6694834611564875,0.196419631652534,-8.354512833952905,14957.0
31.71,5.699999809265138,189.0,21.92340850830078,23.577009201049805,-79.78283372961684,40.458925583293606,292.7437124176025,0.003148338291794,-0.023504601791501,0.9769510626792908,0.2121420353651046,-0.0226358632279872,-0.0518681269337401,0.5142399398616946,-0.1805993020534515,0.0039627118967473,-0.8113951086997986,-0.5975192930549383,0.1913092382624745,-8.913487354516981,14957.0
31.9,5.599999904632568,190.0,21.94719696044922,23.592912673950195,-79.78283354091162,40.45892571435318,292.7807493133545,-0.002696247305721,-0.0279909055680036,0.99150288105011,0.127009704709053,-0.0086033851341818,-0.0736428457182874,0.3372571319933472,0.0637755990028381,0.0112972855567932,-0.8894251585006714,-0.6563330000638962,0.0204352101450786,-8.881041739583015,14957.0
32.01,5.5,170.0,21.785682678222656,25.93868637084961,-79.78283350280924,40.45892576666665,292.81118487548827,-0.0064815585501492,-0.0283021330833435,0.9960336685180664,0.0841066762804985,-0.0228019931249044,-0.0825088149176107,0.273093833780887,-0.0671567618846893,-0.0139885712414979,-0.8971302509307861,-0.7401239658147097,-0.0824985849112272,-9.109839195013048,14957.0
32.2,5.5,165.0,21.832008361816406,25.80350685119629,-79.78283346537866,40.45892582672784,292.8365697784424,-0.0085519663989543,-0.0284964684396982,0.9987466335296632,0.0402489379048347,-0.0280053799017289,-0.0849620658636089,0.2290080489723613,-0.0639496222138404,0.0032547824084758,-0.9134600758552552,-0.608093068934977,-0.0303538009431213,-9.321069860458373,14957.0
32.4,5.400000095367432,172.0,21.76815414428711,26.82928466796875,-79.7828331947464,40.45892602613415,292.8310670776367,0.0110273696482181,0.0298568718135356,-0.9982644319534302,0.0495498552918434,-0.0389533550087362,-0.0805573449503139,0.1777761237368361,0.016789648681879,-0.0252036824822425,-0.9080781936645508,-0.5720603699237109,-0.2690499437972904,-9.615916879177094,14957.0
32.51,5.400000095367432,176.0,21.80070686340332,25.93868637084961,-79.7828330513549,40.45892619310354,292.8096628112793,0.0162638295441865,0.0295420307666063,-0.99483984708786,0.0956902503967285,-0.0366809057457945,-0.0839184311653602,0.1874404624259508,0.062994547188282,0.0990862473845482,-0.8939793109893799,-0.5515366429835559,-0.1861155951395631,-9.76234460771084,14957.0
32.6,5.5,164.0,21.80070686340332,25.92278289794922,-79.78283300561392,40.4589263366988,292.8477735443115,0.0262460149824619,0.0264308769255876,-0.9804651141166688,0.1931340098381042,-0.0522415435383663,-0.085101876668642,0.1805546595195547,0.0045868624001741,0.0451086126267909,-1.1061400175094604,-0.6961523193866015,-0.3391587538272143,-9.63178797662258,14957.0
32.8,5.400000095367432,163.0,21.38126945495605,33.71552276611328,-79.78283260912734,40.45892635683835,292.83959864807133,0.0432168953120708,0.0289471913129091,-0.955094575881958,0.2916997969150543,-0.0309538962152771,-0.0826968397725333,0.2278194113074891,0.1229886934161186,-0.0104535762220621,-1.2034627199172974,-0.5501093376427889,-0.3801580412685872,-10.139167835712431,14957.0
33.0,5.300000190734863,172.0,21.584102630615234,30.05770492553711,-79.78283184185563,40.45892620784427,292.84212016296385,0.0502538494765758,0.0283596105873584,-0.9381800889968872,0.3413040041923523,-0.0356543380417629,-0.0523728246665581,0.3387843387325321,0.0341368652880191,-0.0187472011893987,-0.9608547687530518,-0.4724927392601967,-0.7229639958590269,-10.404610376358033,14957.0
33.1,5.300000190734863,178.0,21.637939453125,28.483253479003903,-79.7828318962865,40.45892622946961,292.8789606018066,0.052215751260519,0.0284492205828428,-0.9186469912528992,0.3905788958072662,0.0005637689706523,-0.0580029832800258,0.3976175237471346,0.0093001527711749,-0.0897005274891853,-1.192100167274475,-0.3211343826726079,-0.7143820374459029,-10.3097018802166,14957.0
33.21,5.400000095367432,175.0,21.82699966430664,24.93676376342773,-79.78283203454387,40.45892655798273,292.76246737670897,0.046630460768938,0.0334679558873176,-0.8713853359222412,0.4872300326824188,0.0518705275831857,-0.0953149695105717,0.4316843513949766,-0.086653247475624,-0.133053570985794,-0.9601225852966307,-0.3496634594723582,-0.8687124241143466,-10.290001441240314,14957.0
33.4,5.5,169.0,21.944692611694336,23.068096160888672,-79.78283216627858,40.45892664206968,292.6456727905273,0.046329703181982,0.0331788808107376,-0.8131225109100342,0.5792965888977051,0.085745256949674,-0.1059506226048358,0.3266086609077793,-0.0724008604884147,0.0648672431707382,-1.0940449237823486,0.0244637293112464,-0.4971732152625918,-9.539590834379196,14957.0
33.5,5.5,182.0,21.982254028320312,22.73412132263184,-79.78283234371983,40.45892656212443,292.67429637145995,0.048311173915863,0.0324236638844013,-0.7804487943649292,0.6225065588951111,0.097180214884508,-0.1090780962406647,0.2709250052631447,-0.1230387836694717,-0.080635517835617,-1.0975133180618286,-0.0238423690013587,-0.6168080149590971,-9.198116948604584,14957.0
33.7,5.5,189.0,21.924659729003903,23.65652656555176,-79.7828325145063,40.45892646046475,292.6965475006104,0.0499127246439456,0.0301556792110204,-0.7463555335998535,0.6629878282546997,0.1272154290880086,-0.1073875670549056,0.2068672819400692,-0.061412438750267,0.050404354929924,-1.1832962036132812,0.1560762556269765,-0.6223347301036121,-9.155628740787506,14957.0
33.9,5.599999904632568,183.0,21.723079681396484,27.60060691833496,-79.78283287344915,40.45892633270846,292.58978747558587,0.0507919751107692,0.0245249308645725,-0.6764402389526367,0.7343346476554871,0.1552101175780521,-0.1203978978360607,0.0430917371704497,-0.1797883361577987,0.0699418559670448,-1.1248290538787842,0.2682083284668624,-0.4903654482588172,-9.201289647817612,14957.0
34.0,5.599999904632568,179.0,21.77190971374512,26.40784072875977,-79.78283293252996,40.45892593796132,292.5378770751953,0.0516810417175293,0.0201896782964468,-0.6442034840583801,0.7628389596939087,0.205454941963622,-0.1239905729281442,0.0221088384926328,-0.106006383895874,0.0490286648273468,-0.8457503914833069,0.3972501835227013,-0.6649925802648068,-9.481782336831094,14957.0
34.1,5.599999904632568,190.0,21.77316093444824,26.01820373535156,-79.78283313334802,40.458925509197,292.5372838897705,0.0510122291743755,0.0148133346810936,-0.5905671715736389,0.8052383065223694,0.2257997223713976,-0.1294626656120696,0.0488508723476988,-0.0723885968327522,-0.0108420047909021,-0.5248088240623474,0.6258169662952423,-0.5945795322954655,-10.045367971658706,14957.0
34.31,5.599999904632568,196.0,21.86330986022949,25.42977333068848,-79.78283338828355,40.45892538884274,292.47432421875,0.0528210923075676,0.0167580228298902,-0.5542724132537842,0.8304885029792786,0.2422665270386312,-0.1347021501747433,0.0825797020124156,0.1197047978639602,0.0362555012106895,-0.2059629559516906,0.7907193381339312,-0.4901935035735369,-10.06621797323227,14957.0
34.4,5.800000190734862,198.0,21.710559844970703,27.9345817565918,-79.78283357789597,40.45892506873113,292.3906145019531,0.0563652850687503,0.0154404109343886,-0.5435852408409119,0.8373169898986816,0.274066220660667,-0.1545275911196538,0.0557151690506965,-0.0563884451985359,0.0863386690616607,-0.3319771885871887,0.9292803689092398,-0.4902970723807812,-9.766692012548448,14957.0
34.6,5.9000000953674325,199.0,21.66798973083496,28.41168785095215,-79.78283358818949,40.45892476815252,292.39186572265623,0.0574943907558918,0.0243487246334552,-0.5356354117393494,0.8421379327774048,0.3156000997503047,-0.1110363273256461,0.0435660989020404,0.244976669549942,-0.296810507774353,-0.3320110142230987,1.096943357437849,-0.0566098914295435,-9.626184005141258,14957.0
34.8,6.0,208.0,21.684267044067383,27.735788345336918,-79.78283373173767,40.45892441778004,292.2824430389404,0.0224181022495031,0.0660765022039413,-0.5260143876075745,0.8476085066795349,0.3520797848625285,0.0492026998763079,0.0705490087143712,-0.2853839993476868,-0.6994220018386841,-0.1925313621759414,0.9088736593723298,-0.8518633798509837,-10.188286786079408,14957.0
34.91,5.9000000953674325,212.0,21.690526962280277,27.61651039123535,-79.78283322522705,40.458923902353895,292.2065973205566,-0.03052862547338,0.0671800747513771,-0.5212244987487793,0.8502234220504761,0.4247072601219058,0.3365820358358776,0.1838197265294643,-0.3952274918556213,-0.3018423020839691,-0.1443882137537002,0.8287566453963519,-0.5104997140914203,-10.472462636232375,14957.0
35.0,6.099999904632568,198.0,21.85204124450684,24.491464614868164,-79.78283250738559,40.4589237205654,292.2194318695068,-0.0451531633734703,0.0629065781831741,-0.519920289516449,0.8506978750228882,0.4437455538396656,0.5396371702891501,0.250272609134945,-0.1675101071596145,-0.0751342922449112,-0.2508416771888733,0.9615208196640016,-0.171872910708189,-10.320512212514878,14957.0
35.2,6.099999904632568,196.0,21.686769485473643,27.34615135192871,-79.78283154747831,40.45892362413385,292.2347383422852,-0.0494950003921985,0.0611615926027298,-0.5194170475006104,0.8508909940719604,0.4583381188996156,0.7600152171132737,0.2961334064416431,0.1142165139317512,-0.099132016301155,0.1709369570016861,0.7224365770071746,-0.6351855213940144,-10.172038543224335,14957.0
35.4,6.099999904632568,199.0,21.590362548828125,29.469274520874023,-79.78282911554611,40.458923785782254,292.2122564239502,-0.051822405308485,0.0604787692427635,-0.5222316384315491,0.8490765690803528,0.4138706318615751,1.2249072476373457,0.3259552354163102,-0.0832959040999412,0.0403454899787902,0.0829424932599067,1.0285130272060634,-0.5475857890024781,-9.93805051445961,14957.0
35.5,6.199999809265138,200.0,21.644201278686523,28.1015682220459,-79.7828277839742,40.45892393669045,292.1664819641113,-0.0534887947142124,0.0582751221954822,-0.5246042609214783,0.8476635217666626,0.3828859463116603,1.4386057769187368,0.2814889854592092,-0.0067220428027212,-0.0471555329859256,0.2033412307500839,1.079967136234045,-0.8598561581969262,-9.757196719050407,14957.0
35.6,6.300000190734862,201.0,21.607891082763672,29.48517799377441,-79.78282378636506,40.458924757273294,292.1752996368408,-0.0646028295159339,0.0575293526053428,-0.5278918147087097,0.8448948264122009,0.2913369702619307,1.9436940247061605,0.3723219799569158,-0.0675067603588104,-0.0245594177395105,0.077271319925785,1.0459571718424558,-0.6388251938670874,-10.09830515384674,14957.0
35.81,6.300000190734862,203.0,21.666736602783203,28.26060485839844,-79.78282182956417,40.4589250954504,292.1281309051513,-0.0704171657562255,0.0576524063944816,-0.5284885168075562,0.8440483808517456,0.2338413044391805,2.162659761599813,0.4296955457854784,-0.1724376678466797,-0.0427108295261859,-0.1503286212682724,0.9012526177614928,-0.3171093421429396,-10.161294869184497,14957.0
35.9,6.199999809265138,204.0,21.72683525085449,26.9724178314209,-79.7828167719903,40.45892633899509,292.0825452728272,-0.0847609713673591,0.0641644969582557,-0.5250270366668701,0.8444200754165649,0.1713970811971702,2.6942735480199094,0.5215297951798701,-0.1286945044994354,-0.2413970828056335,-0.248014286160469,0.972956438586116,-0.4505466771125794,-10.081361092329026,14957.0
36.1,6.199999809265138,205.0,21.809471130371094,25.326400756835927,-79.78281019987719,40.45892849460089,292.0834264678955,-0.0923019498586654,0.0674655809998512,-0.5150967240333557,0.8494728803634644,0.1436905355171553,3.220571351070384,0.7686538634650937,-0.0834906175732612,0.1999992579221724,-0.2330669611692429,0.5818954962864519,-0.2989619236439466,-10.172775292396546,14957.0
36.3,6.099999904632568,200.0,21.895862579345703,23.74399757385254,-79.78280684267494,40.45892947268775,292.041951171875,-0.0899353697896003,0.0612152181565761,-0.5116966366767883,0.8522505760192871,0.1899541074660858,3.461828052274065,0.7642228402928073,-0.0694619044661521,0.0813569352030754,-0.1777007430791854,0.6309785959124565,-0.1839972768165171,-9.845890209674836,14957.0
36.4,5.9000000953674325,200.0,21.58660697937012,29.25457572937012,-79.78280290020922,40.45893085742191,292.03442095947264,-0.0883428901433944,0.0578252635896205,-0.5106732845306396,0.8532670736312866,0.1990880148188342,3.7309961957930846,0.7186930822039244,-0.0121320411562919,0.0582857802510261,0.085938848555088,0.5319516865164042,-0.3118596022948622,-9.595151662230492,14957.0
36.6,5.699999809265138,199.0,21.62541961669922,27.44157218933105,-79.78279447755358,40.45893354836528,291.97092913818364,-0.0914812162518501,0.0457532554864883,-0.5146661996841431,0.8512676954269409,0.1421628470541048,4.213623882005258,0.7082395571298895,-0.2296358942985535,0.1160617023706436,0.1216643303632736,0.5474912102892995,-0.3936999003589153,-9.904683963060382,14956.0
36.7,5.5,199.0,21.63167953491211,28.14132881164551,-79.78278478188015,40.458936767186216,291.90598582458495,-0.0982988178730011,0.0341328009963035,-0.5192867517471313,0.8482415080070496,0.0518210335619819,4.703932500315045,0.7604099972668446,-0.0810633897781372,0.0185295008122921,-0.1299490630626678,0.5463654750958086,0.1234941082075238,-10.082745712995528,14956.0
36.9,5.0,201.0,21.536523818969727,30.145174026489247,-79.78277966074997,40.45893876922144,291.8871316833496,-0.0967893302440643,0.0383031144738197,-0.5218491554260254,0.8466630578041077,-0.0061093694911647,4.925237691150468,0.8303595034461798,0.1638475060462951,-0.0368223562836647,0.0698142498731613,0.3742300244048238,-0.3349542768672109,-10.230134139060974,14956.0
37.01,4.800000190734863,200.0,21.44512367248535,31.838903427124023,-79.78277397503747,40.45894041335655,291.8524694366455,-0.0927131399512291,0.0382504723966121,-0.5248781442642212,0.8452480435371399,-0.0610614098382588,5.133172776432836,0.9185071418537142,-0.0543540865182876,0.1386142820119857,-0.0184854734688997,0.2583487168885767,-0.1562317002005875,-10.274583503007891,14956.0
37.2,4.199999809265137,195.0,21.254812240600582,35.305877685546875,-79.78276264301559,40.45894504314889,291.83487796020506,-0.0901874899864196,0.0253949146717786,-0.5294818282127379,0.8431312441825867,-0.2498166253262114,5.568718120075968,1.0867127069656284,-0.144752949476242,0.1445429772138595,-0.1110202223062515,0.2194715850055217,0.045663775820285,-10.89854222416878,14956.0
37.3,4.0,193.0,21.408815383911133,32.79311752319336,-79.78275627730544,40.458947234775074,291.7865571899414,-0.087967611849308,0.0195723511278629,-0.5319796204566956,0.8419479727745056,-0.2911758279200956,5.767874244395705,1.18410751964715,-0.0360323190689086,0.1121987849473953,0.042880930006504,0.2539345989748836,-0.1643593116849661,-11.379759886264806,14956.0
37.4,3.5,188.0,21.427595138549805,32.49094772338867,-79.78274324823383,40.45895265966127,291.7750654144287,-0.0838355720043182,0.0212664976716041,-0.5321539640426636,0.8422181606292725,-0.4545361319127492,6.161207048778437,1.3808307356900595,0.0938320979475975,-0.0629399940371513,-0.0660974830389022,0.1819258823990822,-0.0363829472288489,-11.16166692852974,14956.0
37.61,3.299999952316284,184.0,21.64169692993164,27.44952392578125,-79.78272998632455,40.45895860413303,291.85790156555174,-0.0786847397685051,0.0312524400651454,-0.5259886980056763,0.8462671041488647,-0.5482586662870894,6.5157190331535055,1.6025878713115602,-0.0129972714930772,-0.0256291907280683,-0.143918976187706,0.0161102577019482,-0.202169545982033,-10.522013111114502,14956.0
37.7,2.700000047683716,173.0,21.6279239654541,28.06180953979492,-79.78272258880794,40.45896178409192,291.8375005645752,-0.0782075673341751,0.0339018069207668,-0.5225427150726318,0.8483415246009827,-0.5396139618310704,6.707709202393326,1.6003605447587563,-0.0175807252526283,0.0051622963510453,-0.1050922200083732,0.1320046483632177,-0.0911329672671854,-10.220172822475432,14956.0
37.9,2.5999999046325684,167.0,21.652965545654297,28.06976127624512,-79.78271553278695,40.458965036355686,291.88243197631834,-0.0791984722018241,0.0335587076842784,-0.5190933346748352,0.8503785133361816,-0.521097793785429,6.872210287295027,1.6425450758972469,0.062765248119831,0.0194985643029212,-0.0246281269937753,0.060450822324492,-0.3711692993715406,-10.116176583766936,14956.0
38.1,2.5,150.0,21.580345153808597,28.85698699951172,-79.7827002955887,40.45897169460515,291.8648099822998,-0.082040823996067,0.0324572212994098,-0.5159465074539185,0.8520652055740356,-0.4900494435355897,7.237148627242231,1.6422065709646112,-0.046279139816761,0.0081481635570526,-0.056229542940855,-0.0601726867211982,-0.1369091649446636,-9.95894144654274,14956.0
38.2,2.400000095367432,144.0,21.713064193725582,26.04205894470215,-79.78269275327163,40.458975234967646,291.9033250732422,-0.0846800133585929,0.0330227203667163,-0.5163045525550842,0.8515682220458984,-0.5055278713799762,7.377736763084925,1.7206018622317787,0.0319503471255302,0.0099237747490406,0.039018128067255,-0.1277709261886775,-0.1061535506509244,-10.203511766195298,14956.0
38.3,2.400000095367432,130.0,21.53902816772461,29.62830924987793,-79.78267670947021,40.45898229613281,291.86489390563963,-0.0640098303556442,0.0264620035886764,-0.5232294201850891,0.8493723869323729,-0.6054147530308358,7.637733867922182,1.6827201591248628,0.0658630430698394,0.4093962907791137,0.0129451230168342,-0.3552017228677869,-0.041810679975897,-10.051603442430496,14956.0
38.5,2.5,124.0,21.607891082763672,28.316267013549805,-79.7826599161155,40.45898977343104,291.8701715393066,-0.0343972481787204,0.0183279830962419,-0.5319900512695312,0.8458531498908997,-0.7752148603371778,7.907806499667733,1.1766311455584098,0.0573544986546039,0.1390678584575653,0.1090904548764228,-0.1595868873596191,-0.2685851266980171,-9.949127479791642,14956.0
38.7,2.799999952316284,119.0,21.76815414428711,24.96061897277832,-79.78265185000504,40.458993600737145,291.9052400512695,-0.0303593631833791,0.0159566290676593,-0.5332707762718201,0.8452491164207458,-0.8850463430357938,7.979521113019228,0.963869761393686,-0.0835992395877838,-0.0369532220065593,-0.0471121259033679,-0.1469342070445418,0.0489410122856497,-9.635459443330763,14956.0
38.8,3.0,116.0,21.74186134338379,25.62856674194336,-79.78264290501765,40.458997645567656,291.9036416931152,-0.0338476859033107,0.0168314445763826,-0.5323646664619446,0.8456707000732422,-0.906658589722132,8.064282695487657,0.8181677828226938,0.0784031450748443,-0.1544509828090667,0.0446059741079807,-0.2545045380480588,-0.2624605337530374,-9.358627111315728,14956.0
38.9,3.400000095367432,110.0,21.629175186157227,27.48928260803223,-79.78262583382288,40.45900567274024,291.9760866088867,-0.0406987555325031,0.0216405894607305,-0.5264507532119751,0.8489551544189453,-0.8825849832837634,8.14960041593196,0.92805262633455,-0.0187079925090074,0.0768323466181755,-0.0913155674934387,-0.4952772921323776,-0.0741859638690948,-9.414635251164436,14956.0
39.11,3.5,108.0,21.785682678222656,25.000377655029297,-79.78260930994307,40.45901363442704,292.0117254180908,-0.037497904151678,0.0257008373737335,-0.5184774398803711,0.8538820743560791,-0.8020385573972532,8.248012182751895,0.8805766797949321,0.041278425604105,-0.0696646049618721,-0.0648691281676292,-0.3991695320606232,-0.187645245026797,-9.469359927177427,14957.0
39.2,3.900000095367432,99.0,21.75062561035156,25.03218460083008,-79.78260020981676,40.45901787330155,292.05062770080565,-0.0364237464964389,0.0241065267473459,-0.5139198899269104,0.8567255735397339,-0.7577510966604558,8.318740448035026,0.8768649102821067,0.0175563525408506,0.0754152089357376,-0.0207084156572818,-0.3891457964479924,-0.4037594501674176,-9.389251318573953,14957.0
39.4,4.0,96.0,21.662981033325195,26.702056884765625,-79.78259185920999,40.45902196278261,292.06128215026854,-0.0315275639295578,0.0254737008363008,-0.5111378431320189,0.8585425615310669,-0.6974114605042105,8.361951590808863,0.8195835541764023,-0.0205215252935886,0.0944900512695312,-0.1610763221979141,-0.6466261104494334,0.0713071055151522,-9.357296869754792,14957.0
39.6,4.400000095367432,92.0,21.85078811645508,24.06206703186035,-79.78257436417722,40.459030353592304,292.1016454620361,-0.0038029509596526,0.0413516238331794,-0.5140129923820496,0.8567767143249512,-0.5951794656519369,8.412332363425993,0.590174634459256,0.348373532295227,0.260210782289505,0.0278747994452714,-0.6162974799424411,-0.0095291342586278,-9.495970605611802,14957.0
39.7,4.599999904632568,90.0,21.819488525390625,23.50544357299805,-79.7825659499093,40.459034413065865,292.10588549804686,0.0086814388632774,0.0468603111803531,-0.5190428495407104,0.8534185886383057,-0.6009291469464157,8.394625129673187,0.381739347954927,0.2177797704935073,0.1697244495153427,0.1717683970928192,-0.6574953534454108,-0.3528668200224638,-9.22758340716362,14957.0
39.8,5.099999904632568,90.0,21.848285675048828,23.09990310668945,-79.7825483030432,40.4590425576147,292.13305567932133,0.004471727181226,0.034308448433876,-0.5296579003334045,0.8475055694580078,-0.7509826721371275,8.325660899745436,0.1005279999875967,-0.3532498180866241,-0.0286295171827077,0.1269928067922592,-0.9121020533144476,-0.4573436267673969,-9.34917099416256,14957.0
40.01,5.300000190734863,92.0,21.958465576171875,22.51942443847656,-79.78253079193213,40.45905077122203,292.1495847625732,-0.011373640038073,0.0254431795328855,-0.5371569395065308,0.843021810054779,-0.8699313039472062,8.233910053063187,0.1682759833935198,0.03005176410079,-0.0676988884806633,-0.0950366929173469,-0.5684340729564429,0.1745547727122903,-9.288658744096756,14957.0
40.11,5.699999809265138,92.0,21.88960266113281,23.09990310668945,-79.78252247267245,40.45905464705203,292.1357316894531,-0.0165622755885124,0.0304681994020938,-0.5380658507347107,0.8421891927719116,-0.90080925511279,8.19251923376943,0.1790021175112795,0.1586060374975204,-0.0805110484361648,-0.0640992447733879,-0.9400419500470162,-0.0019429566711187,-9.037236072421074,14957.0
40.31,5.9000000953674325,92.0,21.884593963623047,23.34640884399414,-79.78251343085536,40.45905883215521,292.14008044433587,-0.0192443579435348,0.0340329520404338,-0.5377863645553589,0.8421741724014282,-0.9445905014928094,8.17962724694806,0.2631644280778203,0.025478970259428,-0.087107129395008,0.0804143920540809,-0.8012064655870199,-0.2560473807156086,-9.06815673351288,14957.0
40.5,6.199999809265138,91.0,21.844528198242188,23.03628921508789,-79.7824961089962,40.45906678405994,292.11853312683104,-0.0171907357871532,0.0279274825006723,-0.5339924097061157,0.8448531627655029,-0.9239731529990634,8.129218326723873,0.2467159124604821,-0.1824579685926437,0.0596510916948318,0.0053006177768111,-1.0424713542312385,-0.4208486688137055,-9.269262945055964,14957.0
40.6,6.300000190734862,88.0,21.89085388183593,22.082077026367188,-79.78247974774355,40.45907444293197,292.0599489135742,-0.005075505003333,0.0198227427899837,-0.5316130518913269,0.8467402458190918,-0.8330195875707725,8.061742433009519,0.0266638893488943,-0.0095972158014774,0.1340208202600479,-0.0744659528136253,-1.0030705493688583,-0.3862877870723605,-9.575727796554563,14957.0
40.7,6.599999904632568,86.0,21.845781326293945,23.56905746459961,-79.78247073084222,40.45907853132231,292.0805673522949,0.004461130592972,0.0206653121858835,-0.530628502368927,0.8473408222198486,-0.7929510845536613,8.030249197018067,-0.0729537283953034,0.1683351844549179,0.2229691594839096,-0.0239639226347208,-0.6437214329838753,-0.2734594387561083,-9.458639057278631,14957.0
40.9,6.699999809265138,87.0,22.07740974426269,19.35461807250977,-79.78246264356008,40.459082314106695,292.0510950012207,0.0086442036554217,0.0225866362452507,-0.5298230648040771,0.8477633595466614,-0.7666939925006729,7.991438163885232,-0.2131770359018809,0.0056215152144432,-0.1139888316392898,-0.0022679960820823,-0.7005350267887116,-0.3569604557007551,-9.530928769111632,14957.0
41.1,6.9000000953674325,92.0,21.81447982788086,23.799659729003903,-79.78244557396188,40.459090110580405,292.05229090881346,-0.0058414102531969,0.0293602291494607,-0.5266203284263611,0.8495734333992004,-0.6988978870111245,7.92108245334435,-0.187241663691226,-0.0644872039556503,-0.1661684215068817,-0.0456531979143619,-0.9350199957937004,-0.1892066891491412,-8.976163074374199,14957.0
41.2,6.800000190734862,91.0,21.898366928100582,22.535327911376957,-79.7824375918297,40.45909380195096,292.01415156555174,-0.0077021145261824,0.032233078032732,-0.5250474810600281,0.850427508354187,-0.6305589397194545,7.870148589766175,-0.1274614267974762,0.106949895620346,-0.0287568140774965,0.1650244444608688,-0.8937985872477293,-0.303718341216445,-8.97142332136631,14957.0
41.3,6.800000190734862,93.0,21.756885528564453,25.366159439086918,-79.78242090523281,40.45910133977951,291.9523134155273,0.0019146006088703,0.0234991703182458,-0.5225232243537903,0.8522989749908447,-0.5694773157532792,7.816385100248072,-0.191314675846013,-0.1625418961048126,0.1524553447961807,-0.0869104713201522,-0.649194280654192,-0.2017980102449656,-9.36993621110916,14956.0
41.5,6.699999809265138,93.0,21.554052352905277,29.15915489196777,-79.78241239483228,40.4591051232853,291.9264707489013,0.0060485615395009,0.0166239384561777,-0.5216807723045349,0.8529574275016785,-0.523324170485599,7.781538065610698,-0.2838205850105199,0.0189300775527954,0.1730896979570388,-0.1723725646734237,-0.497724278792739,-0.2719262805394829,-9.856711066961289,14956.0
41.6,6.5,96.0,21.670494079589844,26.781574249267567,-79.78239674035105,40.45911229087235,291.84351443481444,0.0063462788239121,0.0161848161369562,-0.5212879776954651,0.8532038331031799,-0.4969043054526207,7.6683392106075745,-0.3873136020137825,0.0297523122280836,-0.074705384671688,-0.0725996419787406,-0.4357245336100459,-0.2697987163066864,-10.138904711008072,14956.0
41.8,6.5,96.0,21.838268280029297,24.141586303710927,-79.78238091020013,40.459119623440586,291.7991208953857,-0.0049568680115044,0.0282874777913093,-0.5199079513549805,0.8537395000457764,-0.4858329667171939,7.602745538661265,-0.1650903476588187,0.0662976056337356,-0.1047556027770042,-0.1391259580850601,-0.811300660148263,-0.3902935683354736,-9.91120360851288,14956.0
41.9,6.4000000953674325,97.0,21.51774406433105,30.145174026489247,-79.78237297794445,40.45912318303228,291.709317199707,-0.0119963819161057,0.034032717347145,-0.5185791254043579,0.8542678952217102,-0.4804897596793915,7.572726330438844,-0.0242797473978573,0.06187354773283,-0.1924440562725067,-0.046779416501522,-0.5957611449435354,-0.5388547996804118,-10.070744887590411,14956.0
42.11,6.4000000953674325,99.0,21.73434829711914,26.08976936340332,-79.78236532659841,40.459126700026026,291.68284701538084,-0.0175754036754369,0.0359126478433609,-0.5171226263046265,0.854977011680603,-0.4611003501425674,7.559045161986036,0.1614558304101197,0.0528572164475917,-0.1584475487470626,0.132961556315422,-0.7578343780338764,-0.5761562713980675,-10.173858196735384,14956.0
42.3,6.199999809265138,94.0,21.37626266479492,33.03961944580078,-79.78234975878269,40.45913370814557,291.5560026092529,-0.025141030550003,0.0396430753171444,-0.5117465853691101,0.8578529953956604,-0.4148291636690496,7.571688031701642,0.350181152656881,0.0954198539257049,-0.0327133424580097,-0.1878553330898285,-0.5773239969089627,-0.1764402073994279,-10.125022251605987,14956.0
42.4,6.099999904632568,94.0,21.45889663696289,31.36179542541504,-79.78234208144147,40.45913724267661,291.53802584838866,-0.0263578109443187,0.0434148721396923,-0.5079060196876526,0.8599139451980591,-0.3650883424679101,7.599797363359637,0.4775885604441055,0.0638616830110549,-0.0097964834421873,-0.2348180711269379,-0.500807771421969,-0.2048793467134237,-10.362780565023424,14956.0
42.5,6.0,96.0,21.590362548828125,28.14132881164551,-79.78232662043976,40.459144276526686,291.4225492401123,-0.0221309289336204,0.0487215146422386,-0.5014510750770569,0.8635295033454895,-0.2443006747701334,7.629534063365138,0.6842170400210352,-0.0459563992917537,0.1518042385578155,-0.1173105463385582,-0.715882140621543,-0.4607800719514489,-10.647445242404938,14956.0
42.7,5.9000000953674325,96.0,21.46014976501465,30.83697891235352,-79.7823108406151,40.45915139964352,291.3459405822754,-0.0097860731184482,0.0441520363092422,-0.4999098777770996,0.8648958802223206,-0.1162495781980911,7.669395669430803,0.6615677527145533,-0.0287610180675983,0.1320361942052841,0.1021187528967857,-0.6192614335566761,-0.5422229420766235,-10.549254119396211,14956.0
42.9,5.800000190734862,94.0,21.467660903930664,30.192886352539062,-79.7823030135094,40.45915491832057,291.35765170288084,-0.0049888892099261,0.0404436886310577,-0.5015760660171509,0.8641532659530641,-0.0862247426124295,7.6817217513351075,0.6111271109373749,-0.1116201430559158,0.1360756903886795,-0.0170447956770658,-0.4866110607236624,-0.2192026861757039,-10.37133270263672,14956.0
43.0,5.699999809265138,99.0,21.455141067504886,29.77144241333008,-79.78229500178412,40.45915843677432,291.2907857818604,-0.0035371321719139,0.0344786047935485,-0.5031598210334778,0.8634980916976929,-0.0895126048536411,7.672815907114277,0.5261713999055964,-0.0958626195788383,0.0333647169172763,0.0592941865324974,-0.5327207050099969,-0.4745257430523634,-10.384975426197052,14956.0
43.1,5.699999809265138,100.0,21.58785820007324,28.149280548095703,-79.78227935611784,40.45916537357664,291.3329400939941,-0.0050336509011685,0.0231031160801649,-0.5054026246070862,0.8625596761703491,-0.1012664837356603,7.6360665105301955,0.5335204476379779,-0.0340170450508594,0.0351320467889308,-0.0353170931339263,-0.4502755490317941,-0.2120283718407154,-10.300863229036333,14956.0
43.3,5.599999904632568,100.0,21.690526962280277,25.83531379699707,-79.78226371297015,40.45917228064626,291.3111982269287,-0.0073489928618073,0.0171582400798797,-0.5080075860023499,0.8611503839492798,-0.1335907173971469,7.578834718037656,0.5144990500838453,0.122204415500164,-0.0150501132011413,0.02375128865242,-0.3623439871519804,-0.0750522288680076,-10.149584065675736,14956.0
43.4,5.400000095367432,104.0,21.644201278686523,27.12350082397461,-79.7822560008638,40.45917574389444,291.2479543609619,-0.0064743305556476,0.0205652937293052,-0.5097266435623169,0.860066294670105,-0.166739695833057,7.541703220407474,0.4435840380507301,0.1069204360246658,-0.0842102020978927,0.0765191540122032,-0.4949901938438416,-0.2947254879958928,-9.861015787124632,14956.0
43.6,5.400000095367432,102.0,21.550296783447266,28.89674568176269,-79.78224829082626,40.45917916681197,291.2701063079834,-0.0083131166175007,0.0237625539302826,-0.5111323595046997,0.8591333031654358,-0.2037393680544734,7.527287390169977,0.4466402765795829,0.032800443470478,-0.1277980655431747,0.0946830660104751,-0.5057576221972704,-0.3881726370379329,-9.714771076440812,14956.0
43.8,5.300000190734863,101.0,21.58660697937012,27.97434043884277,-79.78223296884016,40.45918589237653,291.2289762420654,-0.0134630054235458,0.0246370397508144,-0.5129927396774292,0.8579337596893309,-0.2475115656670851,7.477299808833711,0.521502004101058,0.0073183011263608,-0.0439432933926582,-0.021714424714446,-0.5955386218428612,-0.3709034337848425,-9.961130644083022,14956.0
43.9,5.199999809265137,100.0,21.607891082763672,27.76759529113769,-79.78222533121127,40.45918928724467,291.24842166137694,-0.013543521054089,0.0235779844224452,-0.5132262706756592,0.857822597026825,-0.2656121881213446,7.473271324390228,0.5652111786388142,0.0012414498487487,-0.0505192019045352,0.0515838898718357,-0.5485979054868222,-0.523206006065011,-10.071947075128556,14956.0
44.0,5.199999809265137,98.0,21.606639862060547,27.86301612854004,-79.78221015867484,40.45919600162725,291.2487001342773,-0.0177759248763322,0.0213629659265279,-0.5135724544525146,0.8575961589813232,-0.2894532681556671,7.4465177843230865,0.5859153666988183,-0.0066488650627434,0.0200730711221694,0.0131803285330533,-0.5489184790849686,-0.2749173323437571,-10.032273716926577,14956.0
44.2,5.199999809265137,98.0,21.770658493041992,24.793630599975582,-79.78219477637818,40.45920265163195,291.26938342285155,-0.0201537124812603,0.0289517939090728,-0.5143647789955139,0.8568457365036011,-0.2842331588355146,7.446805805240147,0.5763093370641568,0.1386372596025467,-0.0876503586769104,0.136284664273262,-0.3409944871813059,-0.5711139980703592,-9.525951619148255,14956.0
44.3,5.199999809265137,98.0,21.733097076416016,25.33435249328613,-79.78218716227087,40.4592060531818,291.28289317321776,-0.0227644313126802,0.0317505896091461,-0.51459801197052,0.856541097164154,-0.3078987849811301,7.461867347035892,0.5894574280164349,-0.0551775582134723,-0.058839950710535,0.0185281988233327,-0.6496119180321693,-0.203922596052289,-9.33338877439499,14956.0
44.51,5.199999809265137,98.0,21.811975479125977,22.85339736938477,-79.78217944000029,40.45920952426251,291.31388758850096,-0.0250457730144262,0.0320818051695823,-0.5148388743400574,0.8563202619552612,-0.3293195324467877,7.466127636630754,0.6280203927505971,-0.0301320645958185,0.0430725812911987,-0.0868297219276428,-0.5025362814590335,-0.2481127456203103,-9.435544894337657,14956.0
44.7,5.199999809265137,95.0,21.584102630615234,27.751691818237305,-79.78216415336405,40.459216394282215,291.3276128692627,-0.0276923831552267,0.0278010312467813,-0.5143206715583801,0.8566998839378357,-0.3433143372429317,7.513128392322246,0.5996644280058708,-0.0962204709649086,0.0321985632181167,0.0995229110121727,-0.6967232999950648,-0.3388829845190048,-9.376608468890188,14956.0
44.8,5.199999809265137,95.0,21.74060821533203,24.777727127075195,-79.78214880196474,40.45922324753757,291.38452433776854,-0.0263833794742822,0.0300987791270017,-0.5142318606376648,0.8567168116569519,-0.3369933844164815,7.545483996781365,0.6036022792373328,0.0880491435527801,-0.1299313455820083,0.0639612525701522,-0.4905320573598146,-0.3618398840725422,-9.610845004320144,14956.0
44.9,5.199999809265137,94.0,21.736852645874023,25.382062911987305,-79.78214109066792,40.459226720095465,291.4391050262451,-0.0257278345525264,0.0352038145065307,-0.5142576098442078,0.8565266728401184,-0.3519965340730778,7.552565519744173,0.6163669836405696,0.0207914188504219,-0.0420382283627986,-0.0016763841267675,-0.5613213005661964,-0.2374291151762009,-9.452448610067368,14956.0
45.1,5.199999809265137,93.0,21.74186134338379,25.07194328308105,-79.78212564720619,40.4592336874034,291.44007395935057,-0.0275462288409471,0.0391183607280254,-0.5146701931953429,0.8560523986816406,-0.3304907235300204,7.59969162183005,0.5861476678851133,0.0280143804848194,-0.052061129361391,0.138661727309227,-0.4830999904498458,-0.0542309700138866,-9.334120261073114,14956.0
45.2,5.199999809265137,89.0,21.725584030151367,25.461580276489247,-79.78211771553521,40.45923715535796,291.4864854736328,-0.0305435694754123,0.0387141518294811,-0.5163320899009705,0.8549675941467285,-0.3152770728147937,7.620584560952477,0.6181057746657814,0.0203835014253854,-0.0687340721487999,0.1217451095581054,-0.5901899909600615,-0.4221828937903047,-9.331672031879426,14956.0
45.4,5.199999809265137,88.0,21.624168395996094,27.3063907623291,-79.78210990169694,40.45924063451167,291.48001193237303,-0.0342798344790935,0.0372439660131931,-0.5185804963111877,0.8535292744636536,-0.3403970633854603,7.655657096768035,0.6093933223346858,-0.1441222876310348,-0.0940519645810127,0.0559299513697624,-0.5697446532547474,-0.2052803926169872,-9.343948845863345,14956.0
45.6,5.199999809265137,85.0,21.71431541442871,25.61266326904297,-79.78209407114123,40.45924757512719,291.5105676574707,-0.0401226989924907,0.0305437818169593,-0.5215948820114136,0.8517019152641296,-0.3916858546256456,7.702713312357972,0.7131045632284402,-0.1055627837777137,-0.0330424755811691,0.1119595170021057,-0.681156257763505,-0.1720933507382869,-9.728678094148638,14956.0
45.7,5.199999809265137,84.0,21.67800521850586,26.15338516235352,-79.78208613461302,40.45925107087348,291.50401972961424,-0.0425304993987083,0.0260447338223457,-0.5220988392829895,0.8514256477355957,-0.4045392486364604,7.753311669387847,0.7093383884343983,-0.1437215059995651,0.006964657921344,-0.1304475367069244,-0.6191746754944325,0.1193398076668381,-9.607396901249889,14956.0
45.8,5.300000190734863,81.0,21.76439666748047,24.809534072875977,-79.78207023358256,40.45925808572624,291.5481653137207,-0.0480564460158348,0.0224547572433948,-0.5193688869476318,0.8529024124145508,-0.4125255377597628,7.811197219128831,0.7380145930192203,-0.0878838375210762,-0.0794101357460022,-0.0784825459122657,-0.5018301936239005,0.0185189325374085,-9.597060193419455,14956.0
46.0,5.300000190734863,79.0,21.749372482299805,24.594837188720703,-79.7820540255574,40.45926515918554,291.5776967926025,-0.0477417148649692,0.0165370441973209,-0.5132794380187988,0.8567330837249756,-0.3384675643507002,7.871899358667933,0.7858225229470774,-0.0556082688271999,0.1112710461020469,-0.1379663944244384,-0.5923328127712012,-0.0546481688506901,-9.594861055612563,14956.0
46.2,5.199999809265137,76.0,21.801958084106445,24.252910614013672,-79.78204595788407,40.45926875912506,291.5697030944824,-0.0425476692616939,0.0131272338330745,-0.5101976990699768,0.8589038252830505,-0.3122403845701363,7.909799607495017,0.7010943377769123,-0.0675161853432655,0.1277892142534256,-0.1958197504281997,-0.5891337645426393,0.256600490771234,-9.60537668824196,14956.0
46.3,5.300000190734863,75.0,21.78067398071289,23.990501403808597,-79.78203772524495,40.45927229310646,291.59402560424803,-0.0373312570154666,0.0111296558752655,-0.5081835985183716,0.8603674173355103,-0.2542385566958539,7.9289191677804896,0.5980782845749221,0.1206438913941383,0.093179166316986,0.0456639379262924,-0.6608911239355802,-0.210451231598854,-9.420812834501268,14956.0
46.41,5.300000190734863,74.0,22.098695755004886,17.796070098876953,-79.7820214492186,40.45927949762319,291.60097216796873,-0.0276901759207248,0.0156540274620056,-0.5087826848030089,0.8603072166442871,-0.2348843147527526,7.950070727529356,0.4030491109985689,0.1430301964282989,-0.0454968251287937,0.0804295167326927,-0.482462863214314,0.0476330449618399,-9.409845212101937,14956.0
46.6,5.300000190734863,75.0,21.723079681396484,25.39796638488769,-79.78200528265977,40.45928682096759,291.5596437377929,-0.025021756067872,0.0217474121600389,-0.5108032822608948,0.8590582609176636,-0.2771528477420774,7.971548945779532,0.2419274960059794,0.0406718738377094,0.0198531374335289,-0.0356587804853916,-0.6164011949300766,0.0053941203933209,-9.046208624839783,14956.0
46.7,5.199999809265137,75.0,21.65171241760254,27.091693878173828,-79.78199688172673,40.45929048391086,291.57017039489745,-0.0276631284505128,0.021484401077032,-0.5110828876495361,0.858817458152771,-0.2980728736511626,7.990970751730906,0.2362705370794472,-0.0052444650791585,-0.0105796996504068,-0.0698255077004432,-0.4349036210775376,0.0055478564836084,-9.363523569703103,14956.0
46.9,5.199999809265137,76.0,21.604135513305664,27.529041290283203,-79.78198877672472,40.45929416227872,291.54116343688963,-0.0299618579447269,0.0209130719304084,-0.5105792880058289,0.8590539693832397,-0.3256020802024677,7.996191007786961,0.2550015743644099,-0.1082338839769363,-0.1011535003781318,-0.0867558345198631,-0.6091047103330494,-0.0397693804465234,-9.508857284188274,14956.0
47.1,5.300000190734863,77.0,21.685518264770508,26.07386589050293,-79.7819724339565,40.45930153601926,291.52762126159666,-0.0241014063358306,0.0195586830377578,-0.5095821619033813,0.8598620295524597,-0.2925817466482548,8.000347519437302,0.3086415948630561,0.2176864892244339,0.0637305155396461,0.111341081559658,-0.5648291548714042,-0.0524693592544645,-9.939927470684053,14956.0
47.2,5.300000190734863,77.0,21.78818702697754,23.87917709350586,-79.78196432319777,40.459305243724735,291.5064592285156,-0.0202076267451047,0.0245299749076366,-0.5104025602340698,0.8593481779098511,-0.3058166408527896,8.010305419651415,0.2997147008944118,0.1993085741996765,0.0315993912518024,0.0736384540796279,-0.5531542386487127,-0.1594903352111578,-10.140457731485366,14956.0
47.3,5.300000190734863,79.0,21.607891082763672,27.083742141723643,-79.78194799086359,40.45931270960053,291.4797792358398,-0.020798310637474,0.030872905626893,-0.5143407583236694,0.8567776083946228,-0.3780776738418801,8.02289522344831,0.3541342195404636,-0.066460944712162,-0.0628185346722602,0.1387913972139358,-0.7379206618666649,-0.4069709968194365,-9.926849588155749,14956.0
