time,wind_speed,wind_angle,battery_voltage,battery_current,position_x,position_y,position_z,orientation_x,orientation_y,orientation_z,orientation_w,velocity_x,velocity_y,velocity_z,angular_x,angular_y,angular_z,linear_acceleration_x,linear_acceleration_y,linear_acceleration_z,node_ids
0.0,2.900000095367432,152.0,24.2221736907959,-0.0159035474061965,-79.78275423751897,40.45893885125911,267.3967873134613,0.0107102701440453,-0.0097909988835454,0.4449403882026672,0.8954426050186157,-0.0222738844115575,-0.0073484336596086,0.001919838831359,0.0002414135378785,-0.0025030344258993,0.006076889578253,0.0722463556425646,0.2417745283059776,-9.80405864417553,14932.0
0.11,2.900000095367432,152.0,24.218416213989247,-0.0079517737030982,-79.78275424655038,40.45893883086189,267.3969172515869,0.0106915924698114,-0.0097760427743196,0.4449354410171509,0.8954454660415649,-0.0257099596622636,-0.0099472091971794,0.0020995923059272,-0.0010967763373628,-0.0002284938964294,0.0019519084598869,0.0720908973645419,0.2341436926089228,-9.805619850754738,14932.0
0.3,2.900000095367432,151.0,24.21716499328613,-0.0397588685154914,-79.78275422751359,40.45893886843648,267.3966812171936,0.0106869600713253,-0.009760620072484,0.4449517726898193,0.8954375982284546,-0.0253564664103423,-0.0142127161606248,0.0047926335642867,0.0111013082787394,0.003687433199957,0.0053506703115999,0.0740933448867872,0.2233111774362624,-9.805992318391802,14932.0
0.4,2.900000095367432,149.0,24.21591186523437,-0.0159035474061965,-79.78275423278261,40.45893884222372,267.3970940389633,0.0106881503015756,-0.0097498828545212,0.4449688792228699,0.8954291343688965,-0.0296075780758535,-0.0166343596973665,0.0052735518185276,-0.0098187988623976,-0.002186759840697,-0.0045030456967651,0.0689878942212089,0.2335960277728737,-9.805347955226898,14932.0
0.5,2.900000095367432,148.0,24.21591186523437,-0.0318070948123931,-79.78275420717956,40.4589389008444,267.39771273517607,0.0106583023443818,-0.0097154267132282,0.4449995160102844,0.8954146504402161,-0.024425587747669,-0.0160148418283744,0.0071527814660731,-0.0060554784722626,0.0001203339124913,-0.005247563123703,0.0766320049250498,0.218948917016387,-9.808138246536256,14932.0
0.7,2.900000095367432,152.0,24.223424911499023,-0.0079517737030982,-79.78275420911066,40.45893887294661,267.3983509221077,0.0106705697253346,-0.0097204465419054,0.4450314939022064,0.8953986167907715,-0.0269099551064493,-0.0187649858607434,0.0072966831430844,0.0024553581606596,0.0007193508208729,0.0043920218013227,0.0733354041259735,0.2187642911821604,-9.80583853662014,14932.0
0.8,2.900000095367432,151.0,24.223424911499023,0.0079517737030982,-79.7827541580184,40.458938971355856,267.4012935438156,0.0106034521013498,-0.0096596479415893,0.4450626969337464,0.8953845500946045,-0.0157243578747614,-0.0175617060734361,0.0127893060431589,-0.0061111999675631,-0.005787368863821,-0.0042854002676904,0.072088800589554,0.2360495011880994,-9.805073136091233,14932.0
1.0,2.799999952316284,152.0,24.2221736907959,0.0,-79.7827541113252,40.4589390586554,267.4043208041191,0.0105902329087257,-0.0096355751156806,0.4450554847717285,0.8953886032104492,-0.0073230075026288,-0.0159464249928978,0.0199077285517737,0.007932111620903,0.0001084393588826,0.0071856128051877,0.0786078658886253,0.2245799501426518,-9.806890450716017,14932.0
1.2,2.799999952316284,151.0,24.219669342041016,0.0,-79.78275409222938,40.45893902268299,267.4082704463005,0.0105738276615738,-0.0096659120172262,0.4450940489768982,0.895369291305542,-0.0133926137345064,-0.0216752768321277,0.0204552948758415,0.0050845257937908,0.0027498737908899,0.0039186128415167,0.072356744678691,0.241230572797358,-9.803116657733918,14932.0
1.3,2.700000047683716,154.0,24.2221736907959,-0.0079517737030982,-79.78275409372056,40.45893912392327,267.4081374087333,0.0105332722887396,-0.0096572674810886,0.4451077282428741,0.8953630924224854,-0.0101660116277135,-0.0106000477548257,0.0202975082554439,-0.0001024459925247,0.0030620147008448,-0.001616372494027,0.0717874268721789,0.2417134614475072,-9.80532456636429,14932.0
1.4,2.700000047683716,152.0,24.22092056274414,-0.0159035474061965,-79.78275399748111,40.45893918762571,267.4127468743324,0.0105088893324136,-0.0096140196546912,0.4451308250427246,0.8953523039817809,-0.0005473543100204,-0.0195823295040088,0.0262854164763869,0.0041342647746205,0.0041626542806625,0.0045912000350654,0.0711882517207413,0.2239673994854092,-9.806187615394592,14932.0
1.6,2.5999999046325684,151.0,24.223424911499023,0.0079517737030982,-79.7827539801182,40.45893917531676,267.4153703131676,0.0105005148798227,-0.0096313878893852,0.4451335072517395,0.8953509330749512,-0.0043232816467955,-0.0218735763380087,0.0267449832402124,-0.0037660107482224,-0.0039719641208648,-0.0013626494910568,0.0734060183912515,0.2303724029660225,-9.805636222958563,14932.0
1.7,2.400000095367432,150.0,24.223424911499023,0.0,-79.78275388746124,40.458939228427305,267.4250497498512,0.010504039004445,-0.0096021573990583,0.4451521337032318,0.8953419327735901,-0.0001487165375187,-0.0273527159510495,0.0434048057073307,-0.0064228987321257,-0.0041743605397641,-0.0067842993885278,0.0732346675638109,0.2231965537369251,-9.806722050905227,14932.0
1.9,2.400000095367432,157.0,24.21591186523437,-0.0159035474061965,-79.7827538617837,40.45893921219285,267.4293623843193,0.0104887774214148,-0.0096200853586196,0.4451586008071899,0.8953386545181274,-0.0017536777452632,-0.030223795277445,0.0435138386170026,0.0062507158145308,0.0004870424163527,0.0058330912142992,0.0740151794906705,0.2213694632984698,-9.806807420253756,14932.0
2.0,2.400000095367432,157.0,24.219669342041016,-0.0079517737030982,-79.78275376519147,40.45893926545889,267.43958028936385,0.0104861911386251,-0.0096084093675017,0.4451833367347717,0.8953264951705933,0.0015217567162522,-0.0324863576980377,0.0539091825165827,0.0016289345221593,-0.0011305218795314,0.0046079424209892,0.0706071161432191,0.2399462684243917,-9.805065534710884,14932.0
2.2,2.5,155.0,24.223424911499023,0.0,-79.78275373416339,40.45893924547385,267.44495472097395,0.0104833971709013,-0.0096300579607486,0.4451941549777985,0.8953210115432739,-0.002038930574891,-0.0352078480090995,0.0542916650140928,-0.0027522384189069,-0.0008671305258758,-0.005397115368396,0.0697903240704909,0.2427989422157407,-9.80441649377346,14932.0
2.3,2.5,149.0,24.223424911499023,0.0,-79.78275377180832,40.45893932296417,267.444796649456,0.0104467961937189,-0.0096646472811698,0.4451971650123596,0.8953195810317993,-0.0062148876085659,-0.0190654580466636,0.0525541262074863,0.0024869733024388,0.0002405210398137,0.0050132926553487,0.0765692935371771,0.2200932902097702,-9.807452368140224,14932.0
2.5,2.5,152.0,24.219669342041016,-0.0079517737030982,-79.7827537327172,40.45893934864549,267.4486006774902,0.0104146478697657,-0.0096816578879952,0.445229172706604,0.8953038454055786,-0.0093932671474501,-0.0217504344041614,0.0493074364177584,-7.852511043893172e-05,-0.0005191629752516,0.0033223745413124,0.0731502164108678,0.2221788458526134,-9.807333669662476,14932.0
2.61,2.400000095367432,155.0,24.21215629577637,0.0,-79.78275370571292,40.45893930401415,267.4584045090675,0.0104101244360208,-0.009655469097197,0.4452440440654754,0.8952968120574951,-0.015265433619693,-0.0266268528968999,0.049974432768324,-0.0053137224167585,0.0007154662162065,-0.0018235961906611,0.0691947942925617,0.2360417718999088,-9.806114525198938,14932.0
2.8,2.5,161.0,24.2221736907959,0.0,-79.78275370626666,40.45893937962339,267.4555262007713,0.0103757297620177,-0.0096480473875999,0.4452488422393799,0.8952948451042175,-0.0085982519777858,-0.0168907571110598,0.0460943373891263,0.0036653159186244,0.0031862566247582,-0.0008638052968308,0.0724016586039215,0.2320477033406496,-9.806642528772352,14932.0
2.9,2.299999952316284,158.0,24.2221736907959,0.0,-79.78275367431661,40.458939450489424,267.4568456687927,0.0103198308497667,-0.0096235778182744,0.4452823102474213,0.8952791094779968,0.0006001796735979,-0.0117111235302714,0.0431870597801031,0.001935911248438,0.0021406444720923,0.0030013779178261,0.071664872886613,0.2242058197036385,-9.805314041376112,14932.0
3.11,2.200000047683716,168.0,24.22092056274414,0.0079517737030982,-79.78275366352277,40.45893944279389,267.4611709990501,0.0103208180516958,-0.009624988771975,0.4453175067901611,0.8952615857124329,-0.0025699473115272,-0.0137167643912246,0.0435609335108089,-0.0047627915628254,0.0010184772545471,-0.001143691712059,0.0724393822811544,0.2243240430951118,-9.80482989192009,14932.0
3.2,2.200000047683716,174.0,24.21716499328613,0.0079517737030982,-79.78275368609987,40.45893946888784,267.458929625988,0.0103042284026741,-0.0096533177420496,0.4453450739383697,0.8952476978302002,-0.0125179000093731,-0.0098719499235942,0.037145540540588,-0.0045922845602035,-0.0030580656602978,-0.0019001624314114,0.0731526329554617,0.2323921774327755,-9.80409431219101,14932.0
3.41,2.299999952316284,170.0,24.21716499328613,-0.0159035474061965,-79.78275368589328,40.45893945315958,267.46259954357146,0.0102961165830492,-0.0096278665587306,0.4453398287296295,0.8952507376670837,-0.0147694400095502,-0.0124036650593454,0.0372977359487022,0.0032658544369041,0.0023758693132549,0.0013319349382072,0.0723414688277989,0.2354431266523897,-9.80556196331978,14932.0
3.6,2.299999952316284,164.0,24.219669342041016,0.0,-79.7827537029765,40.45893948615793,267.4590502061844,0.0102498913183808,-0.0096067199483513,0.4453721046447754,0.8952353596687317,-0.0168161083144909,-0.0100658579838161,0.031972681199868,-0.0023763424251228,0.0008137592230923,-0.0001094931794796,0.0714186639944091,0.2209915869869292,-9.806372972130776,14932.0
3.7,2.5,160.0,24.223424911499023,0.0079517737030982,-79.78275370580849,40.45893946619584,267.46220364952086,0.0102573167532682,-0.0096180206164717,0.4453757703304291,0.8952333331108093,-0.0193444815488118,-0.0123899872927759,0.0321955402806609,0.0014599302085116,-0.0020112143829464,0.0053390618413686,0.0752936183754354,0.2218490628898144,-9.80623322367668,14932.0
3.8,2.200000047683716,164.0,24.223424911499023,0.0,-79.78275372464992,40.45893948012324,267.45555647993086,0.010211325250566,-0.0096244532614946,0.4453645646572113,0.8952394127845764,-0.0220511935400077,-0.0110236322878502,0.0228555422592182,0.0096258362755179,-0.0012647247640416,0.0042506824247539,0.0705831653997302,0.2416864180751145,-9.802665837407114,14932.0
4.0,2.0999999046325684,171.0,24.21215629577637,0.0159035474061965,-79.78275373806352,40.45893952347677,267.4460811891556,0.0102049112319946,-0.0096212867647409,0.4453839361667633,0.8952298164367676,-0.0194405941058494,-0.0059896795120705,0.0145969541124748,-0.0065138917416334,-0.005764237139374,-0.008163196966052,0.0713658928731456,0.2357830508798361,-9.805122252702713,14932.0
4.2,2.200000047683716,172.0,24.223424911499023,0.0159035474061965,-79.78275375332528,40.458939483695886,267.44890823745726,0.0102157378569245,-0.0096256332471966,0.4454009234905243,0.8952212929725647,-0.0245024658949511,-0.010393536458543,0.0150754608267294,-0.0030727805569767,-0.0011207073694095,-0.0015133200213313,0.074952611499466,0.2291360274888576,-9.806315084695816,14932.0
4.3,2.299999952316284,174.0,24.2221736907959,-0.0079517737030982,-79.78275376921948,40.45893953265551,267.4382742323875,0.0101916212588548,-0.0096134589985013,0.4454040229320526,0.8952201008796692,-0.0194885611924836,-0.0051673871464065,0.008327194926961,0.0043978542089462,0.0007661953568458,-0.000725626188796,0.0738401969941333,0.2319936531409621,-9.805787081122398,14932.0
4.4,2.0999999046325684,174.0,24.21716499328613,-0.0159035474061965,-79.78275379370521,40.45893954906224,267.4296303071976,0.0101509559899568,-0.0095929959788918,0.4453957974910736,0.8952248692512512,-0.0193677827492883,-0.004588544107374,0.0055210056508707,0.0009353869245387,9.722992399474606e-05,-0.0017999054398387,0.0719757163524627,0.2213256274536252,-9.806019215583802,14932.0
4.61,2.400000095367432,180.0,24.21215629577637,0.0,-79.78275380351664,40.4589395322424,267.43012508535384,0.010138620622456,-0.0095841810107231,0.4453917145729065,0.8952271342277527,-0.0217644995769098,-0.0062215903111237,0.0055315804298598,0.0014739971375092,-0.0011936848750337,0.0043859756551682,0.075545939435251,0.22010288329795,-9.805461391210557,14932.0
4.7,2.5,179.0,24.219669342041016,0.0,-79.78275381290362,40.458939511600754,267.43061777734755,0.0101243341341614,-0.0095628071576356,0.4453887045383453,0.8952289819717407,-0.0246700962745637,-0.0084690915943021,0.005704664814047,-0.0004961270024068,0.0004200979019515,-0.0009312622714787,0.0724039015593007,0.2366856965236365,-9.804131734371186,14932.0
4.91,2.5999999046325684,183.0,24.21215629577637,-0.0159035474061965,-79.78275385919207,40.45893954148277,267.4211342015266,0.01009829249233,-0.009574725292623,0.4454103410243988,0.8952184319496155,-0.0234024503349078,-0.0029688355789384,0.0037019899490383,-0.0009552488336339,-0.0005499101243913,-0.0038098262157291,0.0696353454468771,0.2419796742126345,-9.805247383117676,14932.0
5.01,2.5,183.0,24.22092056274414,-0.0159035474061965,-79.7827538942889,40.45893958065651,267.4107730665207,0.0100525058805942,-0.0095544718205928,0.4454379379749298,0.8952054977416992,-0.0184083687165954,-0.0007137145961875,0.0018169861256526,0.0038825490046292,0.0010665421141311,-0.0036720731295645,0.0732715278631076,0.2179783888533711,-9.806633757948877,14932.0
5.2,2.700000047683716,193.0,24.2221736907959,0.0079517737030982,-79.7827539071642,40.45893956549448,267.4109046139717,0.0100549720227718,-0.0095430463552475,0.4454281330108642,0.8952105045318604,-0.0211557389630212,-0.0024420798545997,0.0018934945167878,-0.0002891756012104,-0.0024870436172932,0.0019663530401885,0.0714566206466406,0.2236501514911652,-9.805236858129502,14932.0
5.3,2.5999999046325684,195.0,24.219669342041016,-0.0079517737030982,-79.78275393702295,40.458939603868224,267.40005442285536,0.0100312856957316,-0.0095409844070673,0.4454490840435028,0.8952003121376038,-0.0182285320975321,-0.0015199774762343,0.0005734144106158,-0.004607209470123,-0.0026977504603564,0.0009547226363793,0.0733348148362711,0.2364572896622121,-9.805007647275923,14932.0
5.5,2.799999952316284,198.0,24.21090507507324,0.0715659633278846,-79.78275397276069,40.458939617295606,267.3880920090675,0.0100406948477029,-0.0095518566668033,0.4454512596130371,0.8951989412307739,-0.0209662079972827,-0.0003538173509003,-0.002717281955794,0.0004109481233172,-1.1294136129436085e-05,-0.0024701971560716,0.070517946104519,0.2405122971720993,-9.80433404803276,14932.0
5.6,2.799999952316284,202.0,24.21591186523437,-0.0159035474061965,-79.78275400229055,40.458939582638656,267.38744964981083,0.0100415488705039,-0.009563316591084,0.4454789757728577,0.8951851129531859,-0.02615923511978,-0.0038848911029532,-0.002479610483361,-0.0044921925291419,0.0012469120556488,-0.0059266132302582,0.0749295698152855,0.2211254882253706,-9.80652499973774,14932.0
5.8,2.799999952316284,205.0,24.218416213989247,-0.0079517737030982,-79.78275402396677,40.4589396055646,267.3750299491882,0.0100260376930236,-0.0095658935606479,0.4454761147499085,0.8951866030693054,-0.0216528783405676,-0.0022007271666143,-0.005521396986168,0.0055543244816362,0.0008302457281388,0.0049307509325444,0.0739922428736463,0.2205598432011902,-9.807604395747186,14932.0
5.91,2.700000047683716,206.0,24.20589637756348,-0.055662415921688,-79.78275406453079,40.45893961411733,267.3611141719818,0.0100157894194126,-0.0095653515309095,0.4455118179321289,0.8951689600944519,-0.0197066385342856,-0.0016525640757891,-0.0078227433151967,0.0074734073132276,0.0011806245893239,0.0057735741138458,0.0708310782071203,0.2376215068437159,-9.804499524235728,14932.0
6.1,2.5999999046325684,207.0,24.213409423828125,0.0238553211092948,-79.78275407749607,40.458939598683855,267.3602839388847,0.0100024668499827,-0.0095527851954102,0.4455256462097168,0.8951623439788818,-0.0232241215721848,-0.003059854077027,-0.0077140234573129,-0.0083373086526989,-0.0026907846331596,-0.0075598945841193,0.0694442556984722,0.2366643907316029,-9.803998417854311,14932.0
6.2,2.5999999046325684,205.0,24.21716499328613,-0.0159035474061965,-79.78275412005304,40.45893957526928,267.34522658371924,0.0100387781858444,-0.0095543209463357,0.4455640316009521,0.8951427936553955,-0.0271810791106277,-0.0067973668376312,-0.0092966503769803,-0.008786454796791,-0.0038116420619189,-0.0086288899183273,0.0765348589187488,0.2219093988463282,-9.806146100163463,14932.0
6.4,2.5,205.0,24.218416213989247,-0.0159035474061965,-79.78275413262054,40.45893955225014,267.3442150630951,0.0100353360176086,-0.0095533346757292,0.4455898702144623,0.8951299786567688,-0.0283289656145616,-0.008827846294844,-0.0093722875514766,0.0047779697924852,0.0024824291467666,0.0075696893036365,0.0739825355820357,0.224236718583852,-9.805888237953187,14932.0
6.5,2.5999999046325684,205.0,24.21716499328613,-0.0477106422185897,-79.78275417577343,40.45893955637165,267.3292499759197,0.0100321471691131,-0.0095464903861284,0.4456015527248383,0.8951243162155151,-0.0244358686910055,-0.0065676540352428,-0.0101191534599676,0.0053299064747989,0.003610152285546,0.0063965548761188,0.0716202284814789,0.2357861937582493,-9.804724642038344,14932.0
6.7,2.5,208.0,24.2221736907959,0.0079517737030982,-79.78275418766914,40.45893953387687,267.3281718173027,0.0100497780367732,-0.0095515716820955,0.4456080794334412,0.8951208591461182,-0.0279639260008684,-0.0079901203868685,-0.0098882112214636,-0.0082553494721651,-3.3422743399569303e-06,-0.0073022949509322,0.070246023167856,0.2363722857646645,-9.804931633472444,14932.0
6.8,2.5999999046325684,209.0,24.21090507507324,0.0795177370309829,-79.78275425553822,40.45893953534075,267.3149776139259,0.0100215068086981,-0.00956223718822,0.4456347227096557,0.8951077461242676,-0.0279329624877305,-0.0034849725504608,-0.0069532244200839,-0.0086355060338974,-0.003904512617737,-0.0078174797818064,0.0776419880893081,0.2244817169196904,-9.806448985934258,14932.0
7.01,2.700000047683716,206.0,24.21090507507324,0.1510837078094482,-79.78275428479401,40.45893951997181,267.3001096525192,0.0100305769592523,-0.0095765106379985,0.4456431269645691,0.8951033353805542,-0.0272001542797408,-0.0061056430295707,-0.0090593003987272,0.0059936777688562,0.00449536787346,0.0060450881719589,0.0723916954966262,0.2274468582496047,-9.805839706063267,14932.0
7.2,2.799999952316284,205.0,24.21591186523437,0.1033730581402778,-79.78275431328808,40.45893946958621,267.2981332221031,0.0100417966023087,-0.0095761129632592,0.4456765651702881,0.8950865864753723,-0.0323484219804324,-0.0097790553897007,-0.0090773647576544,0.004869766999036,0.0027965144254267,0.001163728069514,0.0713324038591236,0.2316335377469659,-9.80394169986248,14932.0
7.3,2.799999952316284,197.0,24.20464515686035,0.2226496636867523,-79.78275434508072,40.45893951538824,267.282777217865,0.0100141931325197,-0.0095564499497413,0.4456756114959717,0.8950875401496887,-0.0218841356096173,-0.0016089299261902,-0.0104455451876049,-0.0056668519973754,-0.0022891866974532,-0.0038917658384889,0.069913042508997,0.2307020762935281,-9.804869068264962,14932.0
7.4,2.799999952316284,194.0,24.2071475982666,0.0715659633278846,-79.78275439002554,40.45893948949992,267.26694518113135,0.0100215775892138,-0.0095648374408483,0.4456754028797149,0.8950875401496887,-0.0236012763644987,-0.0036055067117546,-0.0109017367589366,-0.0092592071741819,0.0012750311288982,-0.0007117743371054,0.0759407909447327,0.2280776449106633,-9.80651272058487,14932.0
7.6,2.799999952316284,193.0,24.21466064453125,0.0795177370309829,-79.78275440276313,40.45893947071175,267.26579129481314,0.0099973529577255,-0.0095536895096302,0.4456664025783539,0.8950923681259155,-0.0250937668262353,-0.0055918280028374,-0.0109303182161718,0.006705499254167,0.0054216692224144,0.0066271824762225,0.076219397066161,0.2287590830773115,-9.806280001401902,14932.0
7.8,2.900000095367432,192.0,24.21090507507324,0.1033730581402778,-79.78275444876623,40.45893943953831,267.2479492702484,0.0100041385740041,-0.0095695191994309,0.4456531107425689,0.8950987458229065,-0.0254231531156146,-0.0063723191185527,-0.0149369862131177,0.0073261549696326,0.0052164597436785,0.0006897116545587,0.0700461306190118,0.2289870148524642,-9.8055397439003,14932.0
7.9,3.0,190.0,24.20840072631836,0.0636141896247863,-79.78275446098802,40.4589394175164,267.2463794627189,0.0100157279521226,-0.0095910523086786,0.4456624388694763,0.8950937390327454,-0.0284383259880639,-0.0078474549535564,-0.0148590257906661,-0.0028805271722376,-0.0023275015410035,-0.0015009207418188,0.0731172847095877,0.2287118668109179,-9.805169030427932,14932.0
8.0,3.0,189.0,24.21591186523437,0.0954212844371795,-79.78275453245786,40.4589394013597,267.2297183253765,0.0099793653935194,-0.0095985913649201,0.4456806182861328,0.8950850367546082,-0.027590127589938,-0.0022438329816107,-0.0140447891574606,-0.0046457624994218,-0.0008306392701342,-0.0012541563482955,0.0721723975008353,0.2303900359757245,-9.805380114912989,14932.0
8.2,3.0,186.0,24.209651947021484,0.0874695107340812,-79.78275454911805,40.45893937954257,267.22823238158225,0.0099777430295944,-0.0096112489700317,0.4456637799739837,0.8950932025909424,-0.029152002615463,-0.0044011744991607,-0.014147852845223,0.0065049119293689,0.0016602131072431,0.0051916930824518,0.0762812861893326,0.2255651328898966,-9.806498687267304,14932.0
8.3,3.0,187.0,24.209651947021484,0.0636141896247863,-79.78275459294694,40.45893934716036,267.2087789752483,0.0099620716646313,-0.0096061155200004,0.4456898272037506,0.89508056640625,-0.0282294233171903,-0.0056693353500638,-0.017669785739766,0.0074117495678365,0.005077838897705,0.0052758138626813,0.0682744425488636,0.2323548283427954,-9.804895965456964,14932.0
8.5,3.0,189.0,24.21466064453125,0.0795177370309829,-79.78275462752096,40.45893933424031,267.1930516638756,0.0099362656474113,-0.0096107609570026,0.4456928670406341,0.8950792551040649,-0.0258082369693846,-0.0034605448495778,-0.0163114403851026,-0.0069808503612875,-0.0010819528251886,-0.0057860491797328,0.0702452420163899,0.2359687365218997,-9.804478474259376,14932.0
8.6,3.0,193.0,24.21466064453125,0.0954212844371795,-79.78275465664044,40.45893929055038,267.1896217443943,0.0099426181986928,-0.0096139088273048,0.4456937909126282,0.8950785994529724,-0.0306577032086437,-0.0066597489021731,-0.0164578421826834,-0.0084410840645432,-0.0017078437376767,-0.0087258061394095,0.0721366746677085,0.2241442046687007,-9.806472959518434,14932.0
8.8,2.900000095367432,196.0,24.20840072631836,0.0715659633278846,-79.78275466810327,40.458939266256216,267.174484906435,0.009937260299921,-0.0096240751445293,0.4456959664821625,0.8950775861740112,-0.0241874066062602,-0.0087389209450576,-0.0150675233510263,0.001532879890874,0.0048393812030553,0.0059325015172362,0.0786802617274224,0.22295553881675,-9.804382579922676,14932.0
8.9,3.0,198.0,24.209651947021484,0.0954212844371795,-79.78275474801423,40.45893924434086,267.15727025055884,0.009880288504064,-0.0096263475716114,0.4457050859928131,0.8950736522674559,-0.0229966572912536,0.0031845071878268,-0.0143643742032324,0.0069292662665247,0.0053197899833321,0.0070830341428518,0.0674687327770516,0.2408362877368927,-9.80452115893364,14932.0
9.1,3.0999999046325684,202.0,24.21090507507324,0.0874695107340812,-79.78275476759211,40.45893922912344,267.155779538393,0.0098717752844095,-0.0096044689416885,0.4457001686096192,0.8950763940811157,-0.0264227245840126,0.002145783730062,-0.0142332238409398,-0.0105457101017236,-0.0005673341220244,-0.0069486717693507,0.072521905680187,0.2384496187604964,-9.804503032565115,14932.0
9.3,3.0,206.0,24.21215629577637,0.0954212844371795,-79.78275481163605,40.45893918013737,267.1381699719429,0.0098877334967255,-0.0095839826390147,0.4457056820392609,0.8950736522674559,-0.0259892288220745,-0.0011221282260339,-0.0134521511240656,-0.0019503511721268,-0.0019884200301021,-0.0052712173201143,0.0742626948701217,0.2248330432176589,-9.806991022825242,14932.0
9.4,2.900000095367432,207.0,24.21215629577637,0.0715659633278846,-79.78275482849861,40.45893916109317,267.13674738788603,0.0098669407889246,-0.0095805153250694,0.4457111656665802,0.895071268081665,-0.0272829199811212,-0.0028055209489894,-0.0136381373295388,0.0077027743682265,0.0063773565925657,0.0051118619740009,0.0783286887500435,0.2235677422955632,-9.805844383835792,14932.0
9.6,2.799999952316284,210.0,24.21215629577637,0.0715659633278846,-79.78275487656494,40.4589391147137,267.1194206752777,0.0098536238074302,-0.0095640122890472,0.4456978738307953,0.8950781226158142,-0.0265968222235972,-0.0036230593786583,-0.0135910183491596,0.0072136945091187,0.0020378141198307,0.0049953474663197,0.0692444271035492,0.2307419287227094,-9.804098405241966,14932.0
9.7,2.900000095367432,212.0,24.218416213989247,0.0079517737030982,-79.78275489236215,40.45893909279369,267.1179848291874,0.0098620634526014,-0.009579692967236,0.4456984400749207,0.8950775861740112,-0.0293725469251977,-0.0048223747777945,-0.0135585839024722,-0.0010183157864958,-0.0038768674712628,0.001139739411883,0.070663313367404,0.2239225586503744,-9.804667924046518,14932.0
9.8,2.799999952316284,215.0,24.22092056274414,0.0,-79.78275493641172,40.45893905136949,267.1005519309044,0.0098582115024328,-0.0095685683190822,0.4457075893878937,0.8950732350349426,-0.0261324466990811,-0.0041407236543511,-0.0134135048958047,0.0010757639538496,-0.0005021234974265,0.0016966109396889,0.0701875464431941,0.2329337575100362,-9.804117116332057,14932.0
10.0,2.799999952316284,215.0,24.20464515686035,-0.0874695107340812,-79.78275496959293,40.45893902706239,267.08405785048006,0.0098425550386309,-0.0095495423302054,0.4457020163536072,0.8950763940811157,-0.0212528677139221,-0.0010426017850693,-0.0132976366804028,-0.0004154257767368,-0.0014322291826829,-0.001054038410075,0.0719698965456336,0.2384548629820347,-9.803973274827005,14932.0
10.1,2.799999952316284,215.0,24.218416213989247,0.0,-79.78275499739833,40.45893899185007,267.0812634655237,0.0098080690950155,-0.0095455376431345,0.4457202553749085,0.8950677514076233,-0.0258540026733352,-0.0041498274927629,-0.0133915488061216,-0.0042314142920076,-0.0004762874741572,-0.0033061001449823,0.0750893815280869,0.2195799777656793,-9.806449570655824,14932.0
10.3,2.799999952316284,213.0,24.21591186523437,-0.0079517737030982,-79.78275503088031,40.4589389529264,267.0644413360357,0.009802408516407,-0.0095534268766641,0.4457175731658936,0.8950690031051636,-0.0234582673418238,-0.0034973706617805,-0.013276892753179,0.0024158416781574,0.003195175435394,0.0051149246282875,0.0788264421187341,0.2223978240787983,-9.80668989121914,14932.0
10.4,2.799999952316284,215.0,24.21716499328613,-0.0159035474061965,-79.78275505790988,40.45893891130513,267.06163789117335,0.0098284194245934,-0.0095522869378328,0.4457286596298218,0.8950632214546204,-0.027568196385643,-0.0071042990571262,-0.0134740603467968,0.0094135291874408,0.0023295017890632,0.0062178815715014,0.0706390200136229,0.2397981328703463,-9.804183189868928,14932.0
10.6,2.799999952316284,216.0,24.219669342041016,0.0,-79.7827550893399,40.45893888759149,267.0424621232748,0.0098069505766034,-0.0095458654686808,0.4457332193851471,0.895061194896698,-0.0235312063977475,-0.0035006752975792,-0.0171989928438433,-0.0053274263627827,-9.409163612872362e-05,-0.0069868313148617,0.0676989714615047,0.240442934576422,-9.803349376916886,14932.0
10.8,2.900000095367432,216.0,24.22092056274414,0.0,-79.7827551100562,40.45893884056594,267.02639420115946,0.0098049975931644,-0.0095216073095798,0.4457553029060364,0.895050585269928,-0.0193978775488807,-0.0050495668822273,-0.0118940020664325,-0.0050509241409599,-0.0020995510276407,-0.0068977209739387,0.0702838610485196,0.2210410690493882,-9.807102119922638,14932.0
10.9,2.900000095367432,216.0,24.21591186523437,0.0159035474061965,-79.78275511842426,40.45893882401633,267.025145260334,0.0097790351137518,-0.0095278918743133,0.4457606971263885,0.8950480818748474,-0.020772699882766,-0.0063235623950175,-0.0120368615577905,-0.0012958531733602,0.0017092371126636,0.0044941916130483,0.0797600962780416,0.2172825336456298,-9.806021554470062,14932.0
11.0,3.0,217.0,24.218416213989247,0.0159035474061965,-79.78275515397506,40.458938758423606,267.00749864959715,0.0097640864551067,-0.0095232473686337,0.4457888305187225,0.8950342535972595,-0.0227822250530078,-0.0064647336910166,-0.0121585200678743,0.000257771287579,0.0013359078438952,0.0020152947399765,0.0749170165741816,0.2428409690782428,-9.802416161298751,14932.0
11.2,3.2000000476837163,215.0,24.219669342041016,0.0079517737030982,-79.78275516413784,40.45893873773417,267.0062088497877,0.0097509371116757,-0.0095392661169171,0.4457717835903168,0.8950427174568176,-0.024622083614105,-0.0085215075856338,-0.0122780466865233,0.0063229813240468,0.0030063611920922,0.0019157539354637,0.0680323860934004,0.2271171301044524,-9.805280127525329,14932.0
11.3,3.299999952316284,219.0,24.218416213989247,0.0,-79.78275519654187,40.45893870325134,266.98852576100825,0.0097450651228427,-0.0095261987298727,0.4457836151123047,0.8950370550155641,-0.0206344211051481,-0.0037511606201816,-0.0128535098481197,-0.0025744666345417,-0.0042157350108027,0.0051947981119155,0.0633003258286044,0.2380122104845941,-9.805238027572631,14931.0
11.5,3.5,223.0,24.21716499328613,-0.0238553211092948,-79.78275522288135,40.45893866232053,266.9716577731967,0.009734128601849,-0.0095238666981458,0.4458239376544952,0.8950170278549194,-0.0187901003206143,-0.0022022717917462,-0.0158539628324335,0.0064884703606367,0.0039116917178034,0.0031940657645463,0.0775133402086794,0.2248626082018018,-9.806663578748704,14931.0
11.6,3.5999999046325684,225.0,24.22092056274414,0.0,-79.78275524560043,40.45893862926202,266.9683840551376,0.0097629707306623,-0.0095228077843785,0.4458030462265015,0.8950272202491759,-0.024120573849051,-0.0054654698445652,-0.0157473014175502,-0.0090762767940759,-0.0004911188734695,-0.0101721528917551,0.0709736589062959,0.2435757813602686,-9.804794808626175,14931.0
11.8,3.700000047683716,225.0,24.218416213989247,0.0079517737030982,-79.7827552693539,40.45893858204443,266.95085054421423,0.0097558228299021,-0.009528724476695,0.4458093047142029,0.8950240612030029,-0.0221588532557912,-0.0046115454893356,-0.0185131623397678,0.0007997501525096,0.0001838595781009,0.0063921469263732,0.07006508838851,0.2251368974335492,-9.807060019969938,14931.0
12.0,3.900000095367432,227.0,24.219669342041016,0.0,-79.78275526513897,40.45893851259278,266.93351072603457,0.0097510470077395,-0.0095114288851618,0.4457863867282867,0.8950357437133789,-0.0182147464738281,-0.0112648556933205,-0.0167223871869696,0.0053620198741555,0.0013143798569217,0.0020765345543622,0.0741934738866984,0.212901269774884,-9.806843088269234,14931.0
12.11,4.0,228.0,24.21466064453125,-0.0079517737030982,-79.78275526804684,40.45893849314512,266.93178338342904,0.0097407782450318,-0.0094944750890135,0.4457762539386749,0.8950411081314087,-0.0209564635843657,-0.0125182729719901,-0.0167805482454837,-0.0011191290104761,-0.0018251737346872,-0.0037122219800949,0.0695503826625645,0.2369995458237827,-9.8036738973856,14931.0
12.3,4.099999904632568,226.0,24.21466064453125,-0.0079517737030982,-79.78275528829654,40.45893844686782,266.9180388727188,0.0097255371510982,-0.0094922464340925,0.4457861185073853,0.8950363993644714,-0.0172228752059648,-0.0101562764305217,-0.0077011960284047,-0.0076265018433332,-0.0086676254868507,-0.0022179204970598,0.0664228075090795,0.2422960816696286,-9.802441304326056,14931.0
12.41,4.199999809265137,227.0,24.21716499328613,-0.0159035474061965,-79.78275528994232,40.458938429152106,266.917201919198,0.0097345532849431,-0.0094747487455606,0.445787250995636,0.8950358629226685,-0.0185737308877063,-0.0114339415335196,-0.0079484217152262,-0.0048538991250097,-0.0065799816511571,-0.0044004279188811,0.0785377084370702,0.2211374201998114,-9.803138292431832,14931.0
12.5,4.199999809265137,227.0,24.21591186523437,-0.0238553211092948,-79.78275533471286,40.45893838352583,266.9035717749,0.009704366326332,-0.0094514153897762,0.4457750916481018,0.8950424790382385,-0.0182884662192446,-0.0062493966385791,-0.0046002769050967,0.0092092715203762,0.0043753217905759,0.0016989768482744,0.0760651310719549,0.2197867133840918,-9.805899932384492,14931.0
12.7,4.099999904632568,225.0,24.21591186523437,-0.0079517737030982,-79.78275534207881,40.45893836564044,266.90306394332646,0.0097013833001256,-0.0094512235373258,0.4457740783691406,0.8950430154800415,-0.0204895997674293,-0.0080845617378503,-0.004629192665967,0.0027844267897307,0.0040531386621296,0.0042401761747896,0.0708541564363986,0.237145360764116,-9.803475676774982,14931.0
12.9,4.099999904632568,224.0,24.21215629577637,-0.0477106422185897,-79.78275537406962,40.45893829893117,266.8863478877544,0.009691989980638,-0.009481044486165,0.4457914531230927,0.8950342535972595,-0.0240378316517097,-0.0070467403264518,-0.0078509024121759,-0.0039124861359596,-0.0031040895264595,-0.0018065639305859,0.0692605069465935,0.2411257614567876,-9.801550773382187,14931.0
13.0,3.900000095367432,223.0,24.21716499328613,-0.0079517737030982,-79.78275539298414,40.458938222076505,266.8690694400072,0.0097028035670518,-0.0094861928373575,0.445783793926239,0.8950378894805908,-0.0282505151071246,-0.0101562898396196,-0.0137514981072681,0.0060150967910885,0.0027922617737203,0.0078209871426224,0.0763444635272026,0.2133645519800484,-9.805834443569184,14931.0
13.1,3.799999952316284,222.0,24.213409423828125,-0.0159035474061965,-79.7827554140532,40.45893816687757,266.8661359787881,0.0097220065072178,-0.0094710681587457,0.4458219110965729,0.8950188755989075,-0.0329536570358467,-0.0135427494274303,-0.013868152241319,-0.0032052665483206,-0.0054873786866664,-0.002670151181519,0.0745285193435847,0.2272076888568699,-9.804578461647036,14931.0
13.3,3.700000047683716,225.0,24.218416213989247,0.0,-79.78275543687488,40.45893815759336,266.8505267514344,0.0096892872825264,-0.0094542009755969,0.4458437561988831,0.8950084447860718,-0.0230510050551057,-0.0054913244213222,-0.0139441843223806,0.0011114302324131,-0.0038665141910314,-0.0025351762305945,0.0710449218470603,0.2196725647710264,-9.80646243453026,14931.0
13.4,3.5999999046325684,222.0,24.218416213989247,-0.0238553211092948,-79.78275549731758,40.45893808908632,266.8328428656757,0.0096518145874142,-0.0094403140246868,0.4458341002464294,0.8950138092041016,-0.0280265040309081,-0.0014355011000477,-0.0165685166503958,-0.0058474792167544,-0.0043732211925089,-0.0096680121496319,0.0741120468406006,0.2266382796876133,-9.805249722003936,14931.0
13.61,3.299999952316284,223.0,24.21716499328613,-0.0238553211092948,-79.78275551541272,40.45893806858936,266.831089907974,0.0096513060852885,-0.0094476556405425,0.4458259642124176,0.8950178027153015,-0.0288089837944968,-0.0026298147728527,-0.0169077040683684,0.0065898331813514,0.0039539611898362,0.0083468127995729,0.0759548288304358,0.2219986602477729,-9.80625193476677,14931.0
13.8,3.2000000476837163,223.0,24.21466064453125,-0.0079517737030982,-79.78275555126852,40.45893801325353,266.814911784321,0.0096465153619647,-0.009444355033338,0.4458433389663696,0.8950092196464539,-0.0247374534462234,-0.0015088822287757,-0.015645076498318,0.0015773709164932,-0.0005875961505807,0.0006002824520692,0.0734175026882439,0.2381133855879307,-9.803147063255311,14931.0
13.9,2.900000095367432,226.0,24.2071475982666,-0.0159035474061965,-79.7827555673328,40.458937994868336,266.8132722170055,0.0096416575834155,-0.0094194198027253,0.4458191394805908,0.8950216174125671,-0.0266150758131629,-0.0030365992930335,-0.0158672215283525,0.0011747690150514,0.0003533729468472,-0.0007115509361028,0.0697928822273388,0.240891452562064,-9.802743605375287,14931.0
14.1,2.700000047683716,231.0,24.218416213989247,0.0079517737030982,-79.7827556020614,40.45893794534445,266.7971499801576,0.0096162557601928,-0.0094025768339633,0.4458329975605011,0.8950151205062866,-0.0226828455782389,-0.001787949808649,-0.0150988408083226,-0.0042126486077904,0.0015074721304699,-0.0015502248425036,0.0740828427392989,0.2233422407694161,-9.804507125616077,14931.0
14.2,2.5,234.0,24.219669342041016,0.0079517737030982,-79.7827556164293,40.45893792739652,266.7955721446276,0.0096220849081873,-0.0094010243192315,0.445829838514328,0.8950166702270508,-0.024370662702883,-0.003233776420293,-0.0152453585461337,0.0002722061472013,-0.0053266161121428,0.0026003993116319,0.0707491121208295,0.2230742738395929,-9.805236858129502,14931.0
14.3,2.400000095367432,235.0,24.218416213989247,0.0,-79.78275565252822,40.45893787869953,266.7791958578825,0.0096057197079062,-0.0093847047537565,0.4458101689815521,0.8950268626213074,-0.0212923118295883,-0.0021157500580544,-0.0148719901364877,0.0018236894393339,0.0003883063909597,0.0052990117110311,0.0707843141863122,0.2398869374580681,-9.80367740571499,14931.0
14.51,2.200000047683716,231.0,24.21716499328613,-0.0238553211092948,-79.78275565505943,40.4589378219757,266.7650452160239,0.009607165120542,-0.0093718916177749,0.4458108246326447,0.8950266838073729,-0.0201574411067884,-0.005101106157327,-0.0144291183097625,-0.0029067180585116,0.0017845629481598,-0.0098261665552854,0.0709038212243467,0.2416139856912196,-9.802642448544503,14931.0
14.6,2.0999999046325684,232.0,24.21716499328613,0.0,-79.78275567347079,40.45893778556347,266.7619963713884,0.0095687666907906,-0.0093548959121108,0.4458224177360535,0.8950214982032776,-0.0238150285919633,-0.0076062125327914,-0.0147250231148418,-0.0057985377497971,-0.0007406782242469,-0.0078446548432111,0.0745455539273098,0.221478130146861,-9.80556313276291,14931.0
14.8,1.8999999761581416,232.0,24.219669342041016,0.0079517737030982,-79.78275566875553,40.4589377603328,266.75131796085844,0.0095529370009899,-0.009349875152111,0.4458312094211577,0.8950172662734985,-0.0146393820859343,-0.0050645661898499,-0.0079010372341372,0.005344565026462,0.0016589261358603,0.0046747545711696,0.0753744378592819,0.223701990712434,-9.806030325293538,14931.0
15.0,1.7999999523162842,231.0,24.195880889892567,-0.0715659633278846,-79.78275569298826,40.45893771928167,266.73784613394736,0.00951564963907,-0.009332918561995,0.4458645582199097,0.8950012922286987,-0.0118381985518871,-0.000393007417313,-0.0066292765009028,0.0039690844714641,-0.0005279067554511,-0.0005856644711457,0.0692619139328599,0.2298035237006843,-9.803981460928917,14931.0
15.1,1.600000023841858,232.0,24.20464515686035,-0.0715659633278846,-79.78275570128744,40.45893771019633,266.737145660162,0.009506469592452,-0.0093335201963782,0.4458768665790558,0.8949952125549316,-0.0138072563156965,-0.0013477733348139,-0.0067475486067396,-0.004038534592837,-0.0009706316632218,0.0042118025012314,0.0722009346541017,0.2212348494306207,-9.804774928092955,14931.0
15.21,1.5,232.0,24.198383331298828,-0.0715659633278846,-79.78275570941092,40.458937698886345,266.73641522759203,0.0094966143369674,-0.0093328393995761,0.4458674192428589,0.8950001001358032,-0.0153007262304895,-0.0028203885170526,-0.0070182304421441,-0.001820920035243,0.0007972050225362,-0.0033034791704267,0.0711715369066223,0.239583064969629,-9.80220741569996,14931.0
15.4,1.399999976158142,233.0,24.20088768005371,-0.0874695107340812,-79.78275577010238,40.45893764537481,266.7231003769636,0.0094604678452014,-0.0093697626143693,0.4458816349506378,0.8949928879737854,-0.0188035002075685,0.0021034814936924,-0.0058302142701458,-0.0072744074277579,-0.001755271339789,-0.0081198932603001,0.0698518386064097,0.2381314388662577,-9.802347164154051,14931.0
15.5,1.2999999523162842,232.0,24.218416213989247,-0.0079517737030982,-79.78275577426672,40.45893756703465,266.7098754175901,0.0094757480546832,-0.0093632908537983,0.4459032118320465,0.8949820995330809,-0.0190549830467061,-0.0031433670205254,-0.0051254522578044,-0.0088365795090794,-0.0037749060429632,-0.0008897341322153,0.0749666585214436,0.2235549697838724,-9.805575996637344,14931.0
15.7,1.2000000476837158,236.0,24.218416213989247,0.0,-79.78275578440703,40.45893755116508,266.709294495821,0.0094729047268629,-0.0093579543754458,0.4458990693092346,0.894984245300293,-0.0198450673440739,-0.0045265733719257,-0.0054227294220075,0.0006851750076748,0.0036911421921104,0.0028520969208329,0.0734190604230389,0.2313255722075701,-9.80435158967972,14931.0
15.8,1.2000000476837158,238.0,24.21716499328613,-0.0079517737030982,-79.78275580678878,40.45893748866817,266.6960578986406,0.0094717284664511,-0.0093659572303295,0.4459165036678314,0.8949755430221558,-0.0186620218801148,-0.0026595933369418,-0.0047069812237574,0.000946307030972,-0.0004850106488447,-0.0019788269419223,0.0718772318819537,0.2238634104095399,-9.804156877398489,14931.0
16.01,1.2000000476837158,245.0,24.15581512451172,0.9701164364814758,-79.78275581717645,40.458937445839936,266.6830356248617,0.0094448206946253,-0.0093746650964021,0.4459925889968872,0.8949377536773682,-0.0136370986002472,0.0014825658181665,-0.0044164134342697,0.0032207197509706,-0.0006597305182367,-0.0042317193001508,0.0739888624520972,0.2201227821037173,-9.80698868393898,14931.0
16.11,1.100000023841858,250.0,24.18836784362793,0.3021674156188965,-79.78275582832306,40.45893743672575,266.6825460323095,0.0094489976763725,-0.0093583660200238,0.4459561407566071,0.8949560523033142,-0.0149300403281675,2.2418152596559264e-05,-0.0047805626025246,-0.0054606879130005,0.001186920912005,0.0057930639013648,0.0676244423026219,0.2453021352365613,-9.803509590625763,14931.0
16.3,1.2000000476837158,256.0,24.19087219238281,0.3101191818714142,-79.78275583991659,40.45893733251535,266.6695820071697,0.0094469925388693,-0.0093556633219122,0.4460025727748871,0.8949329853057861,-0.0219606104185462,-0.0045604238632041,-0.0037806343519927,-0.0049327882006764,-0.0016352875391021,-0.0079739224165678,0.073758801924996,0.2392303682304919,-9.802736588716508,14931.0
16.5,1.2000000476837158,259.0,24.192123413085927,0.3021674156188965,-79.78275586438124,40.45893725892424,266.65709979617594,0.0094276713207364,-0.0093438196927309,0.446006566286087,0.8949313163757324,-0.0225748951641164,0.0003313096337479,-0.0037483747589612,-0.006074636708945,-0.0041770203970372,-0.0122787691652774,0.0728901523584499,0.2306938536465168,-9.803116657733918,14931.0
16.6,1.2000000476837158,269.0,24.18961906433105,0.2942156493663788,-79.78275587950806,40.4589372425426,266.65665890061854,0.0094092776998877,-0.009325754828751,0.4459846913814545,0.894942581653595,-0.0222803796386328,-0.0015183883849009,-0.0040549758219285,0.0072647389024496,0.0006139204488135,0.0081150252372026,0.0814264613762498,0.2220845960453152,-9.806968218684196,14931.0
16.7,1.100000023841858,274.0,24.18836784362793,0.3339745104312897,-79.78275588999834,40.45893716843028,266.6440992184877,0.0093790404498577,-0.0093288151547312,0.4460143446922302,0.8949280977249146,-0.0195911758190201,-0.0017149789914835,-0.0037814870698626,0.009446115233004,0.003716796869412,0.0071071963757276,0.0661525153974071,0.2366706582158804,-9.802792721986773,14931.0
16.9,1.100000023841858,285.0,24.18210792541504,0.3896369338035584,-79.78275590322359,40.4589371535057,266.6436622121334,0.0093666296452283,-0.0093298191204667,0.4460132420063019,0.8949287533760071,-0.0227922482294384,-0.0014893712868082,-0.0038571062782756,-0.0052959905005991,-0.0040255882777273,-0.0064780167303979,0.0629970700386911,0.219710663035512,-9.802716708183288,14931.0
17.0,1.100000023841858,287.0,24.18210792541504,0.4452993273735046,-79.78275589207136,40.458937084584754,266.6332357802391,0.0093604456633329,-0.0092913303524255,0.4460116028785705,0.8949301242828369,-0.0167502918947177,-0.003149999959989,0.0002411169844282,-0.007466587703675,-0.0035651419311761,-0.0024478130508214,0.0680140313180163,0.229946287125349,-9.806528508067132,14931.0
17.2,1.100000023841858,294.0,23.94421768188477,2.298062562942505,-79.78275590014567,40.45893707024806,266.63328440272807,0.0092006232589483,-0.0092523964121937,0.4459294974803925,0.8949730396270752,-0.0167330579038154,-0.0057118080588285,0.0002163574739963,0.0084621654823422,0.0273866727948188,0.0087916124612092,0.0494188028946518,0.187205881588161,-9.813708304166797,14931.0
17.3,1.100000023841858,295.0,24.14579772949219,0.4373475611209869,-79.78275587696,40.45893700114299,266.6203157135248,0.0091894874349236,-0.0091833770275115,0.4459384381771088,0.8949693441390991,-0.0119453507998361,-0.0067387881932336,-0.002859197879931,0.0235928501933813,-0.0125040439888834,-0.0243265945464372,0.0911484989337623,0.2312313406728208,-9.819132181406024,14931.0
17.5,1.0,296.0,22.91628456115723,19.752206802368164,-79.78275587317793,40.45893694100076,266.6087837048769,0.0091334581375122,-0.0091925431042909,0.4460359513759613,0.8949211835861206,-0.0161191771504015,-0.0015253870179019,-0.0017287700425555,-0.0111128194257617,-0.0236114580184221,0.0037937681190669,0.0435889415955171,0.2365134594775737,-9.801665378808975,14931.0
17.6,0.8999999761581421,299.0,24.013080596923828,1.486981749534607,-79.7827558876906,40.45893691526216,266.60821994924544,0.0090804966166615,-0.0091275367885828,0.4460614323616028,0.8949097394943237,-0.0187795466240868,-0.0055258620065199,-0.0033305791419917,0.0062144543044269,0.0284288376569747,-0.0098959915339946,0.0555100164609029,0.2282853124290705,-9.79744310438633,14931.0
17.81,0.8000000119209291,296.0,24.17209053039551,0.2385532110929489,-79.78275594162044,40.45893682637893,266.59934225463866,0.0091555742546916,-0.0091872867196798,0.4461093842983246,0.8948845267295837,-0.0253137412428349,0.0016583493690615,0.0002766338444661,0.0107357129454612,-0.0014355982420966,0.0148275643587112,0.099043336417526,0.1939938046038151,-9.799823505878448,14931.0
17.9,0.8000000119209291,299.0,24.173343658447266,0.2385532110929489,-79.78275595106507,40.45893675654936,266.59040635609625,0.0092184338718652,-0.0091744549572467,0.4461899101734161,0.8948438763618469,-0.020799087276955,0.0014932361278123,0.00670873016957,0.0046697407960891,0.0027633078861981,0.0149742942303419,0.0534580868761986,0.2256761751696467,-9.800018218159677,14931.0
18.11,0.8000000119209291,298.0,23.91667175292969,3.816851377487183,-79.78275596754675,40.45893674217335,266.5910255589485,0.0092384107410907,-0.0091645717620849,0.4461939334869385,0.894841730594635,-0.0233075334795029,-0.0002498433156973,0.0067726886037851,0.0015314035117626,0.0166684631258249,-0.0196430962532758,0.0770015992037951,0.2426214244030416,-9.805846138000488,14931.0
18.3,0.8000000119209291,300.0,23.782703399658203,5.932023525238037,-79.78275595126605,40.45893667700079,266.5828967370987,0.0091997748240828,-0.0091486983001232,0.446236103773117,0.894821286201477,-0.0168240658695953,-0.001378608481801,0.0111410101197606,-0.0095215048640966,-0.002154123969376,-0.0109312264248728,0.0508705569058656,0.2184274915605784,-9.806337304115296,14931.0
18.41,0.8000000119209291,300.0,23.628700256347656,6.679490089416504,-79.78275596063756,40.45893666318758,266.5839351990224,0.0090937688946723,-0.0091174961999058,0.4463284015655517,0.8947766423225403,-0.0131309323666435,-0.0030998575172124,0.0101905863389153,0.0090824579820036,-0.0490394495427608,0.056893240660429,0.0892044641822576,0.1501996028982103,-9.830015019178392,14931.0
18.51,0.8999999761581421,300.0,23.60115623474121,7.959725856781006,-79.78275593860998,40.45893659837599,266.5758507826328,0.0088471602648496,-0.0089375069364905,0.4462807774543762,0.8948046565055847,-0.0132126892720083,-0.0047863987613102,0.0142808724645192,0.0015186633681878,0.0022326323669403,-0.0161104742437601,0.1076213022787124,0.2526294273510575,-9.802188119888308,14931.0
18.7,0.8000000119209291,296.0,23.37703895568848,10.870075225830078,-79.78275594094724,40.45893658457836,266.5773808338642,0.0089914770796895,-0.0084523474797606,0.4463760256767273,0.8947604298591614,-0.0165876928855447,-0.0043068635833133,0.0211123051623333,0.0519267618656158,0.0271403156220912,0.0029494182672351,0.0513930787146091,0.2106096911430359,-9.81846559882164,14931.0
18.8,0.8000000119209291,294.0,23.27937889099121,12.205972671508787,-79.78275597146794,40.45893653008481,266.5699522175789,0.0091618252918124,-0.0067982622422277,0.4463241994380951,0.8947986364364624,-0.0171909257468334,-0.005507844555001,0.0236151519580966,-0.0172201637178659,-0.0933961942791938,0.109930545091629,0.239456089027226,0.2639861636795104,-9.881714930534365,14931.0
19.01,0.8000000119209291,297.0,23.01644897460937,15.092467308044435,-79.78275595711972,40.45893649022088,266.55847054505347,0.0097393440082669,-0.0055212690494954,0.4464386403560638,0.8947442770004272,-0.0064315611277909,-0.0038525568177524,0.0196715723841419,-0.0088796857744455,-0.0354959554970264,-0.0154226450249552,0.0962571564316749,0.2905139212869108,-9.792612134814265,14931.0
19.1,0.8000000119209291,295.0,22.90501594543457,17.000892639160153,-79.7827559484214,40.4589364736519,266.5627355554104,0.0120356548577547,-0.0030419009272009,0.4464213848114013,0.8947367668151855,-0.0097693158997459,-0.015314014420636,0.0183058321338858,0.0261924117803573,0.0560988523066043,0.023634772747755,0.0478731965040788,-0.0017539819702506,-9.830479288101197,14931.0
19.3,0.8999999761581421,292.0,22.63832855224609,20.13389205932617,-79.78275592898687,40.458936383719006,266.5507207789421,0.0132314786314964,-0.003205967368558,0.4465369880199432,0.8946616053581238,-0.0236095778220794,-0.0158848327620435,0.0163795923150014,-0.0431985035538673,-0.0228239689022302,0.0168433971703052,0.1806092356145382,0.2064803874492645,-9.830330768823622,14931.0
19.4,0.8999999761581421,291.0,22.50561141967773,22.090028762817383,-79.78275581932539,40.45893630328155,266.5442146935463,0.012060223147273,-0.0085883410647511,0.4440256059169769,0.8958917856216431,-0.0447716002310644,-0.0218024570447956,0.1220879444142639,-0.0214563719928264,-0.0510073006153106,-0.0454761236906051,0.0724519537948072,-0.0703129326738417,-10.163182350397111,14931.0
19.6,1.0,289.0,22.697175979614247,17.724504470825195,-79.78275583364409,40.45893624659557,266.562860874176,0.010437736287713,-0.0114958276972174,0.4418264627456665,0.8969661593437195,-0.0540114730694023,-0.0293813822527116,0.2590777438591968,0.0366070829331874,-0.0559995025396347,0.0240940283983945,-0.0613976601278409,0.2365914467163384,-10.945059163570404,14931.0
19.7,1.0,290.0,22.74475288391113,17.644987106323242,-79.78275592132577,40.458935942390816,266.5998174228668,-0.0007755854167044,-0.0042435713112354,0.4389728307723999,0.8984900116920471,-0.082690630696587,-0.025832003839808,0.2767654717106356,0.0733553096652031,-0.0520838014781475,-0.025016875937581,0.0019489272264763,0.117867953851819,-10.472013570070269,14931.0
19.9,1.0,291.0,22.69216728210449,17.708600997924805,-79.78275595420061,40.45893587380817,266.62587032997607,-0.0034782111179083,-0.000272738863714,0.4389385879039765,0.8985103368759155,-0.0621245832296353,-0.0322334315818751,0.2481774257636224,0.1488681137561798,0.098501332104206,0.0889069288969039,-0.1192028731852769,-0.1211913650482893,-9.610774837732317,14931.0
20.0,0.8999999761581421,282.0,22.633319854736328,18.64690971374512,-79.78275593227843,40.45893577984226,266.6382384278774,-0.0014250674284994,0.0020799918565899,0.4396495819091797,0.8981658816337585,-0.0146476690848787,0.0067762051759836,0.1216335647717207,0.0601972080767154,0.140570119023323,-0.0169940199702978,-0.024627992673777,0.1894150144793093,-9.42806747496128,14931.0
20.21,0.8999999761581421,275.0,22.56320571899414,19.87943458557129,-79.78275596097909,40.45893577912943,266.64949786448483,0.0019577224738895,0.003250865265727,0.4395564198493957,0.8982070088386536,-0.0130634272171885,0.0212868053881553,0.1063517676755392,0.0001957481290446,0.0959935560822486,0.021474489942193,0.1750392145290971,-0.0665655161160975,-9.611005802750588,14931.0
20.4,0.8999999761581421,271.0,22.478065490722656,21.461837768554688,-79.78275626800622,40.45893566870272,266.68542152428626,0.0104262353852391,-0.0006811476196162,0.4385708570480346,0.8986358642578125,-0.0444080381423717,0.0522429120038182,0.1224509060483749,-0.1213760375976562,-0.0852631255984306,0.0552034564316272,0.2608017883077264,-0.2452009418606758,-9.778375918865205,14931.0
20.5,0.8999999761581421,253.0,22.395431518554688,21.4379825592041,-79.78275632731894,40.45893558597111,266.69230888569354,0.0102888699620962,-0.004465508274734,0.4382712244987488,0.8987728953361511,-0.0498650798008409,0.0639375395442974,0.144953158831996,-0.1102332547307014,-0.1662002503871917,0.0420500449836254,0.2033180304989219,-0.0212773599475622,-9.903663039207457,14931.0
20.6,0.8999999761581421,242.0,22.47180557250977,19.96690368652344,-79.7827564145045,40.458935586362415,266.70906503283976,0.0075141359120607,-0.0072263246402144,0.438613086938858,0.8986155986785889,-0.0508760392647008,0.0631768536901416,0.1912807428210073,-0.0175894442945718,-0.1142774671316146,0.0178176071494817,0.0854262857884168,0.0366898803692311,-10.17638770222664,14931.0
20.8,0.8999999761581421,224.0,22.49559593200684,19.704496383666992,-79.78275653444122,40.45893550275292,266.75118586206435,0.0053829317912459,-0.0050357445143163,0.4428418874740601,0.8965694904327393,-0.0640391902022422,0.0549555451040274,0.2426581180773535,0.0580250658094883,0.0859676152467727,-0.0512109659612178,0.0792488851770758,0.0442015653429552,-10.036880153417588,14931.0
20.91,0.8999999761581421,215.0,22.429235458374023,21.207380294799805,-79.78275664592697,40.45893548409779,266.77445958340166,0.006530612707138,-0.0042352145537734,0.446184366941452,0.8949072360992432,-0.0823053578983017,0.0666364177462644,0.2265852485596505,0.0219648666679859,0.0742108225822448,-0.053822137415409,0.068839808916673,0.1384501894935965,-9.740972449779507,14931.0
21.1,1.0,194.0,22.4279842376709,20.51557731628418,-79.78275691809759,40.45893548174541,266.8125756883025,0.0060591790825128,0.00242500891909,0.4509646594524384,0.8925179839134216,-0.0767997941589985,0.1159440419404512,0.1916318465451755,0.0099700968712568,0.0461868047714233,-0.0276319719851017,0.2577709937095642,0.0662442116159945,-9.604689055681224,14931.0
21.21,1.0,183.0,22.273983001708984,22.630748748779297,-79.78275708288356,40.45893549780579,266.8304018561691,0.0047752847895026,0.0059329411014914,0.4522381126880646,0.8918647170066833,-0.0664565391730919,0.1311633491112505,0.1701662739880972,0.0742635354399681,-0.0262044090777635,0.0189620517194271,0.2411232032999396,0.0718943212833255,-9.628712341189384,14931.0
21.41,1.0,175.0,22.4567813873291,20.348588943481445,-79.78275758332423,40.45893562871964,266.87693726243083,0.0060604154132306,0.0099976900964975,0.4509457051753998,0.892474889755249,-0.0448441670418305,0.1710895600009662,0.2417021086589257,-0.0061558382585644,0.0022903364151716,0.0837868973612785,0.224613882265985,0.0767777056619525,-10.00316744685173,14931.0
21.5,1.0,172.0,22.273983001708984,21.811716079711918,-79.78275782590737,40.45893556977197,266.9008263216316,0.0091302189975976,0.0113817388191819,0.4486235976219177,0.8936017155647278,-0.0386396053073371,0.1550906136162409,0.2310132851404636,-0.0018477798439562,0.0583622008562088,0.0286148581653833,0.2857354304753244,0.0965490695368498,-9.87312654018402,14931.0
21.71,1.2000000476837158,164.0,22.740997314453125,17.207639694213867,-79.78275813913676,40.458935694374745,266.94914393657444,0.0145901963114738,0.0122056696563959,0.4441573619842529,0.8957468867301941,-0.0089208718573493,0.1570540122182377,0.1869317324760621,-0.0447502769529819,-0.0229252893477678,0.0198210384696722,0.3084290408715606,0.108620235119015,-9.248958488702772,14931.0
21.8,1.2999999523162842,167.0,22.08241844177246,26.05796241760254,-79.78275828586412,40.458935805616825,266.9482031741142,0.0167047455906867,0.0095927370712161,0.4433080554008484,0.8961622714996338,-0.003550871329238,0.1626745322047932,0.0493436976652631,-0.1772172302007675,-0.0329092219471931,0.0173265431076288,0.2785679683461785,0.143128217831254,-8.797971516251565,14931.0
22.0,1.5,174.0,21.992271423339844,25.294591903686523,-79.78275864368976,40.458935953822646,266.9602081828713,0.0176506880670785,-0.0007879183394834,0.4424615502357483,0.8966134786605835,0.0557982654712816,0.1500555503162476,0.1660246739462769,0.0238266605883836,-0.0348443575203418,0.0799310505390167,0.3162225387990475,0.0590805501770228,-10.41815135836601,14931.0
22.11,1.600000023841858,178.0,21.789438247680664,28.80132484436035,-79.78275883735208,40.45893618033793,267.01861999714373,0.0204047560691833,-0.0014818154741078,0.4403575360774994,0.8975894451141357,0.0447119774775043,0.1505732382793383,0.4375254067085182,-0.0494175180792808,0.0792760252952575,0.0101640680804848,0.3389751512557269,0.1477998873218894,-10.831326141357422,14932.0
22.3,1.7000000476837158,192.0,21.666736602783203,29.532888412475582,-79.78275875744251,40.45893634628396,267.03714845860003,0.0206042155623436,-0.0036490231286734,0.4399054050445557,0.8978003859519958,0.0720954819839164,0.1614769632136126,0.5858744090970558,0.0044964170083403,-0.1498609483242035,0.0522299371659755,0.5036264217272401,0.0497835595160722,-11.8049074280262,14932.0
22.4,1.7000000476837158,189.0,21.66548538208008,29.12734794616699,-79.78275885287384,40.458936464526296,267.10759550118445,0.0178780294954776,-0.0041048894636332,0.4390896260738373,0.8982560634613037,0.0711862860358589,0.1708084756515806,0.8086883392057759,0.0313728041946888,0.126085489988327,-0.0044858991168439,0.355095522813499,0.3664905766770244,-11.863183118104937,14932.0
22.61,2.0,191.0,21.753129959106445,28.45939826965332,-79.78275905577557,40.45893660682796,267.29683750653265,0.0167037937790155,-0.0065925423987209,0.4337182939052582,0.9008696675300598,0.0393379997904538,0.2034280636997461,1.2279388557534372,-0.1035002022981643,0.1583648025989532,-0.0315508320927619,0.3208326297998428,0.3666029163077474,-11.917616018056869,14932.0
22.7,2.200000047683716,195.0,21.524003982543945,31.26637458801269,-79.7827592110593,40.45893671240415,267.43016585493086,0.020859345793724,-0.0041706198826432,0.4335067868232727,0.9008992314338684,0.0499000470148869,0.2092343652595625,1.432302555361616,0.1140200793743133,0.1177434548735618,-0.0606096312403678,0.427803420200944,0.0575537873525172,-11.92567698955536,14932.0
22.9,2.5999999046325684,206.0,21.49896240234375,33.65985870361328,-79.78275963357069,40.45893683794306,267.7452414908409,0.026838406920433,0.0059073907323181,0.4407629072666168,0.8972029089927673,0.0355243035807333,0.2734413358684799,1.8355761723464328,-0.02150284871459,-0.0704318061470985,-0.0828937590122222,0.5979633159935475,0.0333878571912646,-11.923002473115922,14932.0
23.0,2.700000047683716,205.0,21.50271797180176,30.009994506835927,-79.782759925218,40.458936815875965,267.91204002285,0.0264631174504756,0.0052251191809773,0.4436567425727844,0.8957908749580383,0.0348894503346267,0.2866806705627172,2.0373631245208808,-0.0144999986514449,0.0307843014597892,0.0189273115247488,0.5467202914506197,0.2436068264208734,-12.139852312803267,14932.0
23.2,3.0,208.0,21.42008399963379,29.69987487792969,-79.78276020681216,40.45893704895405,268.375555185318,0.03190453723073,-0.002397647826001,0.4412178695201874,0.8968294858932495,0.0894061155490591,0.29635053785102,2.5642987393080268,-0.1698625981807708,0.1841525733470916,0.1295869499444961,0.5617382801324129,0.2470343728736043,-12.361894479990006,14933.0
23.3,3.2000000476837163,209.0,21.683013916015625,28.29241180419922,-79.78276048838664,40.45893705071961,268.5948545017242,0.0392488054931163,-0.0097494460642337,0.4381140172481537,0.8980093002319336,0.114496460818987,0.3218041119658523,2.7229334011352377,-0.1759461462497711,-0.1412371397018432,0.0427710451185703,0.6963613573461771,0.3845226953923702,-11.942018787860867,14933.0
23.5,3.400000095367432,215.0,21.91714859008789,23.871225357055664,-79.78276113566713,40.45893696253578,269.07973351860045,0.0445413142442703,-0.0154681429266929,0.4331725239753723,0.9000769257545471,0.1363764809290825,0.3384196275915763,2.894280343895701,-0.130227655172348,-0.0327234901487827,-0.0960695818066597,0.4653646179288626,0.5265374571830035,-10.83661202430725,14934.0
23.61,3.400000095367432,225.0,21.93968391418457,24.65049934387207,-79.78276127893567,40.45893703673089,269.3800827541351,0.0465147756040096,-0.0133526213467121,0.4316825568675995,0.9007266163825988,0.1280851588607732,0.3263791599821584,2.950456850363496,0.0680571347475051,0.0014086039736866,0.0093825878575444,0.5352160408347846,0.477794519327581,-10.44825984120369,14934.0
23.8,3.400000095367432,224.0,21.99101829528809,23.457733154296875,-79.78276202642037,40.45893671418624,269.87178697967533,0.0453355982899665,-0.004031702876091,0.4327235519886017,0.9003771543502808,0.0163371283492847,0.2877851850652554,2.9155252667857883,0.0688050389289856,-0.0532937757670879,-0.0669130533933639,0.5067768284305929,0.4631766263768077,-10.07072617650032,14934.0
23.9,3.400000095367432,225.0,22.012304306030277,22.14569091796875,-79.78276268258328,40.458936358629366,270.39444079780577,0.037067599594593,0.0001829523534979,0.4320879578590393,0.9010693430900574,-0.0675736770168571,0.2221133754982316,2.883159604574976,0.0181356482207775,-0.0705780386924743,-0.0248362366110086,0.4245685577765108,0.4066044860333205,-9.980563280582428,14935.0
24.11,3.400000095367432,227.0,22.103702545166016,22.09798049926757,-79.78276281061959,40.45893623262617,270.6826130428314,0.0363612435758113,-0.002069333102554,0.4304882884025574,0.9018610715866088,-0.0952722500924455,0.1795660857742977,2.8707461832718653,-0.1626790314912796,-0.0011239950545132,-0.0888456776738166,0.4069420896470547,0.3974331282824278,-9.652936770915986,14935.0
24.2,3.400000095367432,226.0,22.05612564086914,22.55918312072754,-79.78276291918975,40.4589360904096,270.9681800880432,0.0382133461534976,-0.0057835853658616,0.4291747510433197,0.9023942351341248,-0.0911017994380995,0.1421528513215909,2.8393213882843966,-0.1115898564457893,0.0263693779706954,0.0154369976371526,0.417521895468235,0.3234435577690601,-9.522155022025109,14935.0
24.4,3.2000000476837163,224.0,22.01981544494629,22.94086837768555,-79.7827635096114,40.458935727414186,271.44316330337523,0.0365715473890304,-0.0092777637764811,0.4296288192272186,0.9022170305252076,-0.0844442112893096,0.1079519295805904,2.703478875127924,-0.0040070652030408,-0.0509613119065761,0.0561295114457607,0.3887124446779489,0.1967241984978318,-9.443752046227456,14936.0
24.5,3.0999999046325684,225.0,22.032337188720703,23.09990310668945,-79.78276349169406,40.45893613666885,272.1270593681336,0.0349951907992363,-0.0071096662431955,0.4319252073764801,0.9012023210525512,-0.0635808291651129,0.1060188113498054,2.715587104813445,-0.0228258799761533,0.0174126997590065,-0.1190076544880867,0.2986467952653766,0.3298921595513821,-9.511655176877976,14937.0
24.71,2.900000095367432,222.0,22.012304306030277,22.996530532836918,-79.78276357721417,40.45893596078749,272.3976105728149,0.0366356372833252,-0.0040661534294486,0.4335118532180786,0.9003937244415283,-0.0829846269528301,0.0709974606380271,2.7062557499889803,0.1136737167835235,0.1072351261973381,-0.0347269624471664,0.2057519705593586,0.3092909204587341,-9.65704970240593,14937.0
24.8,2.700000047683716,218.0,22.06363677978516,22.41604995727539,-79.78276343688863,40.45893602321153,272.8037375488281,0.0371508188545703,0.0009675627807155,0.4338644742965698,0.9002113342285156,-0.0900899583859316,0.0907655774504981,2.7538490327946703,0.1803090423345565,0.0263578295707702,0.0220026113092899,0.3909642074257136,0.2099370055273176,-9.71528036892414,14937.0
25.0,2.5,214.0,21.9209041595459,23.56110572814941,-79.78276357322973,40.45893563141287,273.3517078437805,0.027181914076209,0.0073251104913651,0.4320497810840607,0.9014103412628174,-0.1671720057280548,0.0450277476993326,2.752655658132668,0.0332148186862468,-0.0831046625971794,-0.0005365614197216,0.3002758112736046,0.2196739534847438,-9.87710615515709,14938.0
25.1,2.5,210.0,21.96722984313965,22.392194747924805,-79.78276367840783,40.45893535088605,273.7265275993347,0.0233126897364854,0.0081514082849025,0.4308191239833832,0.9021003246307372,-0.2124650673276188,0.0092150347801203,2.803556651833187,-0.0600666925311088,-0.0601669773459434,-0.0389748737215995,0.2958002427779138,0.1578825884498655,-9.954402837753298,14938.0
25.3,2.400000095367432,202.0,22.16880989074707,20.610998153686523,-79.78276393644245,40.45893478819851,274.43192472839354,0.0153662748634815,0.005969866644591,0.4324421286582947,0.9015110731124878,-0.2358262735338986,-0.0369186898868208,2.893077405975544,0.0786894410848617,-0.0800407081842422,-0.026821719482541,0.31220623254776,-0.048165095904842,-9.856391808986665,14939.0
25.5,2.299999952316284,203.0,22.15002822875977,20.8177433013916,-79.78276400549423,40.4589342292764,275.1938275375366,0.0135897565633058,0.009627423249185,0.4361180067062378,0.8997354507446289,-0.2404843902621992,-0.0876218016689353,2.9717097545145834,0.0742210671305656,0.0419792607426643,-0.0344833992421627,0.1595683772675693,0.1762035048007965,-9.667133225798606,14940.0
25.6,2.299999952316284,203.0,22.058629989624023,22.511472702026367,-79.78276402703483,40.45893396084111,275.4900330581665,0.0131230121478438,0.010402807034552,0.4359558522701264,0.8998122215270996,-0.2433355466918978,-0.0790635543386765,2.946720328418969,-0.0601390749216079,-0.0404332689940929,-0.0070285657420754,0.2459039416350424,0.2395115827582777,-9.528399848341945,14940.0
25.7,2.400000095367432,206.0,22.13625717163086,20.467866897583008,-79.78276401339565,40.45893370839401,275.7827405014038,0.0111595494672656,0.0086564216762781,0.4344627857208252,0.9005790948867798,-0.2233788119723613,-0.0913577009996004,2.9184017477639363,0.0013167130528017,-0.0264451503753662,0.0029012598097324,0.2270630068145693,0.2215627868659794,-9.570813211798669,14940.0
25.9,2.200000047683716,212.0,22.052370071411133,22.0661735534668,-79.78276380385883,40.45893320507791,276.49919214630125,0.0054110302589833,0.0016999109648168,0.4311060607433319,0.902283489704132,-0.1871359392619074,-0.1534207777309369,2.9401683314703817,-0.0808951705694198,-0.0966533422470092,0.0114363292232155,0.0536720766965299,0.2030888379178941,-9.590999554395676,14941.0
26.01,2.200000047683716,219.0,21.944692611694336,22.082077026367188,-79.7827637969138,40.458933011573365,276.8945387878418,0.0040429402142763,-0.0024893919471651,0.4299171268939972,0.9028558731079102,-0.1425373886448885,-0.1847904366215276,2.9909743898249976,-0.0722485110163688,0.0179234836250543,0.0052294237539172,-0.0458144147135317,0.1832986989989876,-9.613867430090904,14941.0
26.21,2.299999952316284,243.0,22.04110145568848,22.91701316833496,-79.78276362606051,40.45893255459381,277.4882039108276,0.0020843476522713,-0.0071104546077549,0.4276123940944672,0.9039318561553956,-0.109469851031099,-0.2084492504990746,2.9423055654014005,0.0557353310286998,-0.076248712837696,0.0355089418590068,-0.0073095905827358,0.0568674612790346,-9.56671314418316,14942.0
26.3,2.299999952316284,260.0,21.992271423339844,21.37436866760254,-79.78276372517833,40.45893230575648,278.16180220031737,-0.0038082229439169,-0.0051627550274133,0.4242391288280487,0.9055275917053224,-0.1168211148353074,-0.1947607904978695,2.9651113821662376,-0.0038100674282759,-0.0737593472003936,0.0113407438620924,-0.0031385569553822,0.188299109917134,-9.724634159803394,14943.0
26.51,2.400000095367432,291.0,21.94344139099121,23.282794952392567,-79.78276403373881,40.458932190039896,278.49879732513426,-0.0069367419928312,-0.0045186406932771,0.4226274490356445,0.906265676021576,-0.1411064317800947,-0.1668651186533048,2.9477092934963007,-0.0344287194311618,-0.0612026900053024,0.0025554383173584,-0.0411068031191825,0.071825095731765,-9.608339472413064,14943.0
26.6,2.400000095367432,298.0,21.94344139099121,23.1953239440918,-79.78276402421058,40.45893200544518,278.79273119354247,-0.0088670458644628,-0.0049129384569823,0.4218671321868897,0.9066010117530824,-0.1450568696365937,-0.1673303555868622,2.932505496497324,-0.057387925684452,-0.0611983835697174,-0.0247038844972848,-0.045765078831464,0.0912868860829621,-9.69054196894169,14943.0
26.8,2.5999999046325684,310.0,21.994773864746094,22.320629119873047,-79.78276403114225,40.45893183943607,279.085921195984,-0.0090533988550305,-0.0060486765578389,0.4223183691501617,0.9063822627067566,-0.1299429945133672,-0.1638312830888246,2.9269794840913947,0.0301642995327711,-0.0238552186638116,0.0222100466489791,-0.0093659603968262,0.0106817666441202,-9.790866156220437,14944.0
27.0,2.5999999046325684,313.0,21.815731048583984,25.39796638488769,-79.78276381454164,40.458930943074925,280.0774888076782,-0.0060210903175175,-0.007979460991919,0.4267365038394928,0.9043208360671996,-0.118979901941296,-0.1687161624644988,2.935807743243464,-0.0820050463080406,-0.0142918685451149,-0.0106511674821376,0.0443705224664881,0.0751497403252869,-9.555715116262435,14945.0
27.1,2.799999952316284,319.0,21.80571556091309,24.17339324951172,-79.78276381207226,40.45893078522953,280.37018766784666,-0.0033435525838285,-0.008373899385333,0.4278124272823334,0.9038226008415222,-0.096626290300242,-0.1459174707837581,2.9191816088637133,0.0176360551267862,-0.0179444085806608,-0.0511874444782733,0.0484826773731038,0.205469001866877,-9.65489091038704,14945.0
27.2,3.0,321.0,21.85078811645508,23.21122741699219,-79.78276382035315,40.458930655434585,280.6621636428833,-0.0036830736789852,-0.0050377477891743,0.4292400777339935,0.9031689167022704,-0.0654404883246331,-0.115323801339726,2.915415176521239,0.1714635342359542,-0.0665753558278083,0.030578427016735,0.0699399808142334,0.1283494533598423,-9.709196341037751,14945.0
27.4,2.900000095367432,325.0,21.829504013061523,23.75990104675293,-79.78276336746792,40.45893062593378,281.2852744140625,-0.0073925196193158,-0.0007293731323443,0.4303747117519378,0.9026198387145996,-0.0318940617912208,-0.1177024288901394,2.911567996183003,0.0608053840696811,-0.0019816590938717,-0.0030229215044528,0.0884711502492427,0.0861241418402642,-9.75030168235302,14946.0
27.5,3.0,325.0,21.753129959106445,25.056039810180664,-79.78276334230759,40.45893071067989,281.58686819458006,-0.0072074080817401,-0.0067612128332257,0.4306457638740539,0.9024670124053956,-0.0250792260666062,-0.1001055627584528,2.911930552218169,-0.1551281958818435,0.0005948458565399,-0.0288085024803876,-0.0596586936246603,0.1054457634687423,-9.770742963552475,14946.0
27.7,3.0,321.0,21.845781326293945,23.720142364501957,-79.7827632768847,40.45893064927731,282.17082777404784,-0.0080781001597642,-0.01736281812191,0.4302415251731873,0.9025106430053712,0.0599000733835488,-0.0772424537546555,2.915220895160213,0.0892967358231544,-0.0674866586923599,0.0737732723355293,0.0452622137172147,0.1644696778804064,-9.805246213674543,14947.0
27.9,3.0999999046325684,323.0,21.736852645874023,24.777727127075195,-79.78276356377737,40.45893085403467,282.7706135787964,-0.0062860706821084,-0.0007708673365414,0.4267593026161194,0.9043431282043456,0.0603471052783012,-0.0177854692073796,2.9317065675810725,0.2834239602088928,0.085928589105606,0.0965131074190139,-0.000682966208551,0.2903880051523447,-9.810370713472368,14947.0
28.0,3.2000000476837163,322.0,21.664234161376957,25.87507247924805,-79.78276356804152,40.4589309415226,283.07891645812987,-0.0033401604741811,0.0062566972337663,0.4243901073932648,0.905451774597168,0.0325567036813092,0.0284823752385155,2.933400954409022,-0.0461722016334533,0.1621421873569488,-0.0446457006037235,0.0194927897304296,0.30144033908844,-9.82889469265938,14948.0
28.1,3.299999952316284,323.0,21.778169631958008,24.165441513061523,-79.78276358593638,40.45893102348232,283.3725852050781,-0.0006685767439194,0.0039459951221942,0.4244546294212341,0.9054404497146606,0.0260193264874237,0.0730762347302738,2.944807297244924,-0.159581258893013,-0.1301582902669906,-0.0041772415861487,0.2108632775768637,-0.1561930537596345,-9.96181009054184,14948.0
28.3,3.299999952316284,322.0,21.660476684570312,25.83531379699707,-79.7827632395033,40.45893131205018,283.9406794586181,0.0042854198254644,-0.0138758672401309,0.4288444221019745,0.9032616615295408,0.1046831617273408,0.0425863047993654,2.927144827304889,-0.1433249562978744,0.0572997964918613,-0.1138919815421104,-0.0243968175211921,0.2370881859585643,-9.82034021615982,14948.0
28.5,3.299999952316284,326.0,21.751876831054688,25.07194328308105,-79.78276359148228,40.4589314492155,284.5223349609375,0.0082310531288385,-0.0130978627130389,0.4313316047191621,0.902060866355896,0.1025317657109929,0.0857093822726171,2.952102932642562,-0.0061455368995666,0.0344041138887405,-0.0786402225494384,0.0039527360536158,0.2526995573937893,-9.935807522535324,14949.0
28.6,3.2000000476837163,329.0,21.711811065673828,25.37411117553711,-79.78276366887326,40.458931499971264,284.8183249511718,0.0069801500067114,-0.0081916004419326,0.4306940138339996,0.9024339318275452,0.0829558235258911,0.1010052173112948,2.966043501901736,0.0484683476388454,-0.0472280718386173,0.0030266721732914,0.0468933082278817,0.1311817349866032,-9.932471101284028,14949.0
28.7,3.0999999046325684,331.0,21.630428314208984,26.5748291015625,-79.78276375859146,40.458931543116186,285.1153868713379,0.0053650708869099,-0.0039722267538309,0.429257869720459,0.9031574130058287,0.0545821213095773,0.1053089279635071,2.972213664463477,0.1784739941358566,-0.0492136515676975,0.0941190049052238,0.1284657581336796,-0.0581655385857448,-9.896303733587263,14950.0
28.9,3.0999999046325684,329.0,21.594118118286133,26.60663604736328,-79.7827641591617,40.45893184696586,285.71327963256834,0.002178460592404,-0.0050951926968991,0.4271453320980072,0.9041659832000732,-0.0014752463020429,0.1498574367524596,3.00934706356268,-0.1483332812786102,-0.081166923046112,-0.1021179184317588,0.0381921899551525,0.2654552035219967,-10.01283991098404,14950.0
29.0,3.2000000476837163,325.0,21.610395431518555,24.73796844482422,-79.78276441527018,40.45893209820094,286.01239385986327,0.0007124855183064,-0.0061439601704478,0.4267143905162811,0.904365301132202,0.0270045897550334,0.1712964340350218,3.01837937488087,-0.0179995410144329,-0.1141102761030197,0.072462759912014,0.0376112782163545,-0.0233954407274723,-10.147107185125352,14951.0
29.2,3.2000000476837163,319.0,21.63543701171875,25.270736694335927,-79.78276475751852,40.45893229816657,286.62185469055174,0.0029995699878782,-0.0038824526127427,0.4257069230079651,0.9048479199409484,0.0128796176108027,0.1976952711580383,3.0734422167912943,-0.1088591292500496,0.0891554504632949,-0.0611136928200721,0.0698767486587166,0.2125658040493727,-10.02905891776085,14951.0
29.4,3.2000000476837163,316.0,21.629175186157227,25.69218063354492,-79.78276536690039,40.45893234912791,287.2453860321045,0.011591195128858,-0.0087875304743647,0.4251641035079956,0.9049994349479676,0.0121650142491082,0.2282101982251265,3.0791525377290565,0.1971606016159057,-0.039146889001131,0.1023535057902336,0.0913989607617259,-0.0691061404533684,-9.962928078174592,14952.0
29.5,3.0999999046325684,311.0,21.6279239654541,26.376033782958984,-79.78276527016621,40.45893267267432,287.5431708374024,0.0112338196486234,-0.0040763672441244,0.4233868420124054,0.9058701992034912,0.0593739513431583,0.2201073473613408,3.052337272094164,0.1883628666400909,0.1153685227036476,0.0585484728217125,0.3367279201000929,0.1957194093056024,-9.877323671579363,14952.0
29.6,3.0999999046325684,305.0,21.560312271118164,27.680124282836918,-79.78276545796359,40.458932763681815,287.8491820373535,0.0122064007446169,0.0002981562574859,0.4216575026512146,0.906673014163971,0.0088956176175291,0.2498383948001404,3.067160888993224,-0.1380659192800522,0.0624448023736476,-0.1016135066747665,0.2118579985946417,0.2295094818435609,-9.832269705533983,14952.0
29.8,3.0,294.0,21.477678298950195,27.91072654724121,-79.78276590597754,40.4589331405288,288.46994772338866,0.0196216497570276,-0.001814754679799,0.4240808784961701,0.9054099917411804,0.0289514875490846,0.2969583641075662,3.1309284833387565,-0.1872904747724533,0.1634932905435562,-0.1570864468812942,0.3003767853789032,0.461213716082275,-10.171819857358932,14953.0
30.0,3.0,287.0,21.602882385253903,25.024232864379893,-79.78276625117033,40.45893357723085,289.09942427062987,0.023416107520461,-0.0015555687714368,0.4289262592792511,0.9030346870422364,0.1168306953414897,0.3123915094212901,3.1996937003828307,0.0869573056697845,0.1290577203035354,-0.0139470621943473,0.3662564322352409,0.1165673229563981,-10.394838509559632,14954.0
30.1,3.2000000476837163,272.0,21.566574096679688,26.15338516235352,-79.78276639305733,40.45893371050512,289.42234030151366,0.0246250685304403,-0.0008276477456092,0.4306201636791229,0.9021968841552734,0.098929400934043,0.3188505921823445,3.235786440966056,-0.1661669164896011,0.0273568946868181,-0.1412553042173385,0.2954159710742533,0.382242829464376,-10.156530557870868,14954.0
30.21,3.2000000476837163,262.0,21.630428314208984,25.37411117553711,-79.78276653131968,40.45893383676973,289.748416809082,0.0255803950130939,-0.0015694766771048,0.4319162964820862,0.901549518108368,0.1139808254434703,0.3201000129437814,3.2682731641497886,0.0038140614051371,-0.0477028526365757,0.0365106910467147,0.3388004656881094,0.1236027567833662,-10.211456962823869,14954.0
30.41,3.299999952316284,251.0,21.759389877319336,23.0203857421875,-79.78276678917581,40.45893417806116,290.39505949401854,0.0291340555995702,-0.0055265687406063,0.4325529038906097,0.9011207818984984,0.1298806271563334,0.317464923497435,3.2888449469817926,-0.0741220265626907,0.0433638580143451,-0.0577209405601024,0.5023630211502313,0.3537682779505849,-10.014304053783418,14955.0
30.5,3.299999952316284,249.0,21.832008361816406,23.31460189819336,-79.78276671010529,40.458934380626886,290.71494284057616,0.0282936450093984,-0.0101214023306965,0.4329257905483246,0.9009286165237428,0.1831888356216365,0.3165634713485088,3.2348198593331747,-0.0355060547590255,-0.0569626577198505,-0.0159913916140794,0.4445701649039984,0.4051661806181073,-9.68958010196686,14955.0
30.7,3.400000095367432,247.0,21.769405364990234,21.604969024658203,-79.78276686364207,40.45893464570229,291.35872450256346,0.0297541432082653,-0.009987105615437,0.4318084716796875,0.901419162750244,0.2167150904939689,0.2515758804425076,3.166970126795245,-0.0143493860960006,0.0586353465914726,-0.0336216911673545,0.2836843185871839,0.5037526484951377,-9.478474566936493,14956.0
30.9,3.400000095367432,249.0,21.83451271057129,22.47171401977539,-79.78276691858385,40.458934953730704,292.0036677398681,0.0332393050193786,-0.0113942259922623,0.4307737946510315,0.9017756581306458,0.2082936067398052,0.2522865947898702,3.073335426568507,-0.1426136493682861,-0.0440440960228443,-0.0115297958254814,0.2735732036456466,0.4722551230341197,-9.410981910824775,14957.0
31.0,3.5999999046325684,252.0,21.92716407775879,21.946895599365234,-79.78276692302998,40.45893516896578,292.34617987060545,0.0337250009179115,-0.0140210790559649,0.4307874739170074,0.901714026927948,0.2534638739656348,0.2246837997144512,3.0570519656503223,0.0372606143355369,0.0182930454611778,0.0266671273857355,0.3110103307664395,0.3529660034179687,-9.22509015440941,14957.0
31.1,3.5999999046325684,254.0,21.63919258117676,25.44567680358887,-79.78276690842387,40.45893526445289,292.6509093322754,0.0366489365696907,-0.015975272282958,0.4300436079502105,0.9019225239753724,0.2600181211462793,0.188957886978809,3.004273735100692,-0.0083072520792484,-0.0149274636059999,0.0710590183734893,0.227716707251966,0.3945401087030769,-9.245963544845582,14957.0
31.3,3.5999999046325684,260.0,21.87833404541016,20.603046417236328,-79.78276686751478,40.4589354524008,293.28653517150883,0.0330456532537937,-0.0213315207511186,0.4258028268814087,0.9039607048034668,0.2877489096114288,0.1568392622565088,3.0168099276964977,0.1574089378118515,-0.0352180153131485,-0.0073920688591897,0.3206394158676267,0.5404803987219929,-9.673588551878929,14958.0
31.4,3.5999999046325684,261.0,21.7744140625,22.805686950683597,-79.78276681518011,40.45893549872903,293.5881384887695,0.026925204321742,-0.0228890348225832,0.4246981143951416,0.9046451449394226,0.2608952206063672,0.1142094230447981,2.9832806737704733,0.0179319363087415,-0.0117964753881096,-0.0385759957134723,0.2262727008014917,0.4978668046742678,-9.512588977217677,14958.0
31.6,3.5999999046325684,264.0,21.735599517822266,23.529298782348643,-79.7827669277435,40.45893548141128,294.20528211975096,0.021080020815134,-0.026348365470767,0.4245766401290893,0.9047630429267884,0.2046845949440967,0.0364346414453267,2.9539977534126,0.0436254478991031,0.0413492582738399,0.047299463301897,0.155020065754652,0.3520431300625205,-9.581949234008787,14959.0
31.7,3.5999999046325684,265.0,21.67424964904785,23.799659729003903,-79.7827669120587,40.45893547296683,294.5008753814697,0.0232180338352918,-0.02159802056849,0.4259183704853058,0.9042057394981384,0.1940995854390018,0.0287444423633536,2.9485483481634627,0.1060505881905555,0.0506385788321495,0.0370908826589584,0.117567882053554,0.3717472600936889,-9.733436558246614,14959.0
31.9,3.5999999046325684,269.0,21.87457847595215,21.15171813964844,-79.78276703057942,40.45893525445585,295.12148847961424,0.0317046716809272,-0.0178568996489048,0.4285771250724793,0.9027722477912904,0.1338428782180776,0.0838404974278945,2.9642892821124804,0.0621951445937156,-0.0302714761346578,-0.0056706871837377,0.282574297785759,0.4482896518707276,-9.657089463472367,14960.0
32.0,3.5999999046325684,270.0,21.775665283203125,22.304725646972656,-79.78276726709596,40.45893484809276,295.4619406738281,0.0308013763278722,-0.0155692659318447,0.4294224083423615,0.902444064617157,0.0754171707066422,0.0962074391807721,2.978480256539513,-0.0439754910767078,-0.0482979789376258,-0.0776645988225936,0.3633172927424312,0.5931477684527636,-9.527003533244134,14960.0
32.21,3.5999999046325684,270.0,21.765649795532227,22.38424301147461,-79.78276731424556,40.45893467369852,296.0537966766357,0.0277265664190054,-0.0165698826313018,0.4283601641654968,0.9030306339263916,0.064215618451368,0.0639158483600394,2.9394188534200065,-0.0809095278382301,-0.0001849713444244,-0.0200106613337993,0.3066430819407105,0.7252709417045117,-9.550732703804972,14961.0
32.3,3.700000047683716,271.0,21.80571556091309,22.47171401977539,-79.78276745760091,40.45893473240061,296.4267424621582,0.0284644123166799,-0.0185480881482362,0.4266098737716675,0.903797447681427,0.1033765612671958,0.0677509516964782,3.00423021785233,0.0348379947245121,0.0288086105138063,0.0655115097761154,0.2811560556292534,0.6156920738518238,-9.677348896265029,14961.0
32.5,3.5999999046325684,271.0,21.763145446777344,22.46376037597656,-79.78276760297447,40.45893481370978,297.0598639526367,0.0304106958210468,-0.0234259292483329,0.4255567491054535,0.904117226600647,0.1403227969726894,0.0781532619538278,2.9830203076027404,-0.0690442249178886,-0.0840190127491951,0.1033033728599548,0.2249202215485274,0.4654094953089953,-9.457784194350245,14962.0
32.6,3.5,273.0,21.751876831054688,23.410022735595703,-79.78276760777408,40.45893477120013,297.35664358520506,0.0293443165719509,-0.0250988230109214,0.4272014498710632,0.9033315181732178,0.1478333656036493,0.0693742539387322,2.945371221953148,-0.0270266532897949,-0.0626529529690742,-0.0600947812199592,0.2320645323581993,0.6512180019915105,-9.414351076483726,14962.0
32.9,3.400000095367432,268.0,21.61289978027344,24.491464614868164,-79.78276766072152,40.458934666349634,298.267164138794,0.0276132114231586,-0.0175345055758953,0.4303205907344818,0.9020833373069764,0.1116454510290699,0.0486314546230052,2.938179239704401,0.1366024017333984,-0.0599539279937744,0.098816841840744,0.2560443657450378,0.3165764049813152,-9.764206361174583,14963.0
33.1,3.400000095367432,262.0,21.560312271118164,25.61266326904297,-79.78276787721146,40.4589345301293,298.8686141052246,0.0226773787289857,-0.0129573242738842,0.4296567738056183,0.9026145935058594,0.0528671468165409,0.0628740601016213,2.9687792577766663,0.0016503222286701,-0.0442965701222419,-0.0392460897564888,0.2712144368514418,0.4402428233250976,-9.920421159267423,14963.0
33.3,3.400000095367432,262.0,21.42634391784668,28.125423431396484,-79.78276787355202,40.45893430359792,299.45289984130864,0.0255710408091545,-0.009820501320064,0.4258945286273956,0.9043581485748292,0.0275700219423526,0.021902294479686,2.9876405146162885,0.0633835643529892,-0.0124443769454956,0.1774367392063141,0.2373989654704929,0.2751451727561653,-9.988255877494812,14964.0
33.41,3.400000095367432,267.0,21.403806686401367,26.42374420166016,-79.78276788206658,40.45893418638376,299.7524336853027,0.0257565304636955,-0.0079892380163073,0.4232480525970459,0.9056124687194824,0.0089856967644239,0.0296542104026477,3.0085949040620528,0.0850924625992775,-0.0404925160109996,0.1187132820487022,0.3084478981420397,0.1391551809757948,-9.990204169750212,14964.0
33.5,3.5,267.0,21.456392288208008,27.02012825012207,-79.78276816459535,40.45893394867203,300.03230657958983,0.0191906820982694,-0.0106312911957502,0.4209302067756653,0.9068276882171632,-0.0495116836874074,0.0656792283788373,3.0109292103293344,-0.1361929476261139,-0.1512561291456222,-0.081446535885334,0.2209958993084728,0.4425148686021567,-10.08464138031006,14965.0
33.7,3.700000047683716,268.0,21.377513885498047,27.77554702758789,-79.78276825869008,40.45893369755021,300.6362570800781,0.0087556410580873,-0.0124836079776287,0.4188192188739777,0.9079415798187256,-0.0110422441815639,-0.0352389646333197,3.009323549697972,0.0604635253548622,0.1223071664571762,0.0464497841894626,0.020737250810489,0.5710656854510308,-9.705162346959115,14965.0
33.8,3.900000095367432,267.0,21.526508331298828,25.159412384033203,-79.78276826313025,40.45893364814334,300.9047926940918,0.0109746260568499,-0.0107062011957168,0.4193905889987945,0.9076764583587646,0.0427508114131352,-0.0201259444295129,2.9339407173200365,0.0453380830585956,0.0689604952931404,-0.0128893638029694,-0.009284186172299,1.0319704858213663,-9.553508377075197,14965.0
34.0,4.199999809265137,266.0,21.799455642700195,21.620872497558597,-79.78276804609325,40.45893345068657,301.4794081726074,0.0169677343219518,-0.0067531052045524,0.4207224547863007,0.9070056080818176,0.1104969343446048,0.0228701540155837,2.831214406556272,-0.3195593655109405,0.027618758380413,-0.0570825636386871,0.2049553970620036,1.0315139644593,-9.092422678470612,14966.0
34.11,4.400000095367432,265.0,21.81072425842285,21.764005661010746,-79.78276784977922,40.458933571744,302.02004232788084,0.0298768356442451,-0.0376153625547885,0.4217866659164429,0.905421793460846,0.2838505584107387,0.0454001172421077,2.544309099238564,-0.3213391900062561,-0.0872512981295585,0.030673200264573,0.3640200184285641,0.4175767862051726,-8.719380844831466,14967.0
34.3,4.900000095367432,269.0,21.79820251464844,22.137739181518555,-79.782767915791,40.45893334341176,302.279910949707,0.0354907698929309,-0.0483291894197464,0.4225252866744995,0.9043655395507812,0.4044176946412193,0.0032579414599918,2.4566819495677112,-0.0782317891716957,0.0005706734373234,0.07383793592453,0.1091096653416753,1.1655333897471432,-8.580229391455651,14967.0
34.4,5.0,283.0,21.696786880493164,22.41604995727539,-79.7827677313748,40.45893342219114,302.5240210571289,0.040406234562397,-0.0515085011720657,0.4218057990074157,0.9043197631835938,0.4375571873225672,-0.0260643853005406,2.353613235441736,-0.0997220277786254,0.0072135771624743,0.1214236691594123,0.0422311358945444,0.8423398004472256,-8.652005717754365,14967.0
34.61,5.300000190734863,289.0,21.33995246887207,28.63433837890625,-79.78276738691144,40.45893344367638,302.9910391845703,0.0362241901457309,-0.0582067668437957,0.4180600047111511,0.9058287143707277,0.3830312225015125,-0.052914224325373,2.156228600929802,-0.0714453309774398,-0.0448612906038761,0.0460106320679187,-0.0355602805316448,0.9903473004698754,-8.78088478267193,14967.0
34.7,5.300000190734863,290.0,21.20347785949707,29.930477142333984,-79.78276723728534,40.45893343211223,303.20720663452147,0.026883166283369,-0.0600753873586654,0.4151584208011627,0.9073652625083924,0.3474010446002794,-0.0706388425308026,2.135913341528062,0.177731767296791,-0.2918655276298523,0.0993597581982612,0.2080851557850837,0.5966641743108629,-9.593324407339097,14968.0
34.9,5.5,294.0,21.06199645996093,30.495052337646484,-79.7827670733943,40.45893340909828,303.6743582763672,0.010527673177421,-0.0504848286509513,0.4175269603729248,0.9071999788284302,0.2113478713835835,-0.1008499206401716,2.3861906405842115,0.2088028043508529,0.250152051448822,-0.053969994187355,-0.0103142531518824,0.5456742245703936,-10.887307384014132,14968.0
35.0,5.599999904632568,288.0,21.36749649047852,26.88494682312012,-79.78276689154302,40.45893346945737,304.20375433349614,0.0149589497596025,-0.0261192861944437,0.4256584644317627,0.9043831825256348,0.1395197439249097,0.0079872764551224,2.623511723102905,0.0942678675055503,-0.0013676626840606,-0.115034133195877,0.2262075226195157,0.5885909967496992,-10.859032588005066,14969.0
35.2,5.699999809265138,288.0,21.256065368652344,29.453371047973643,-79.78276695438201,40.45893343639243,304.4712409057617,0.0182959008961916,-0.0228389557451009,0.4291200339794159,0.9027733206748962,0.0798885566151813,0.0582130372654168,2.72198654125498,-0.0883940756320953,0.1670548468828201,-0.0772416815161705,0.2609626598283649,0.686755186021328,-10.718486573696136,14969.0
35.3,5.699999809265138,288.0,21.37626266479492,25.50929069519043,-79.78276697714675,40.45893345114821,304.6950949707031,0.0222939774394035,-0.0211538188159465,0.4328567087650299,0.9009387493133544,0.1383274255240073,0.0828165968129479,2.7745885155069763,0.1726991236209869,0.0771664679050445,0.001109855948016,0.4175389985740185,0.6784459271281958,-10.87040425300598,14969.0
35.5,5.599999904632568,277.0,21.637939453125,22.972675323486328,-79.78276721018514,40.45893353629955,305.22336569213866,0.0329410769045352,-0.0191216431558132,0.4355430901050568,0.8993617296218872,0.1962872341131228,0.175864739394398,2.8722435263486967,-0.0745232701301574,-0.0943209901452064,0.1984508484601974,0.3404725866392255,0.5399686942622066,-10.426246243715289,14970.0
35.6,5.5,279.0,21.56532096862793,23.990501403808597,-79.7827672937833,40.45893368653518,305.8032607116699,0.043840579688549,-0.0296328365802764,0.4307456314563751,0.9009208083152772,0.2893301004066106,0.2149123899618955,2.892092913710338,0.0660306513309478,0.0169821344316005,0.0763111859560012,0.5244833303242922,0.4917643580585718,-10.058026024103166,14970.0
35.81,5.300000190734863,276.0,21.534019470214844,23.79170799255371,-79.78276743985924,40.45893390899946,306.05412283325194,0.0407794117927551,-0.0321995317935943,0.4273693263530731,0.9025827646255492,0.2914214278532842,0.2514197466901409,2.891218702958664,-0.0742408260703086,-0.0836816504597663,0.0012864359887316,0.4445664738491178,1.0633399207144976,-10.127045388221742,14971.0
35.9,5.099999904632568,274.0,21.619159698486328,23.950742721557607,-79.78276750772797,40.45893397745464,306.3483008422852,0.0366726592183113,-0.0381216779351234,0.4251158237457275,0.9035920500755308,0.2903166455139278,0.232725311049736,2.936415098218456,-0.1597825437784195,-0.1803971081972122,0.0083296578377485,0.415475369989872,0.7294887576252223,-10.176501138210297,14971.0
36.1,5.0,275.0,21.368749618530277,26.93265914916992,-79.78276761404342,40.45893415476111,306.87596502685545,0.0409304797649383,-0.0448609367012977,0.4242693185806273,0.9034975171089172,0.2831903482032561,0.1754599134074325,2.93704607987384,-0.0243732091039419,0.0946812406182289,-0.1428926289081573,0.2812382455542683,0.9298338809609412,-10.152994161844251,14971.0
36.2,5.0,278.0,21.38502693176269,26.376033782958984,-79.7827677404308,40.458934156628,307.174686340332,0.0431997403502464,-0.0380432307720184,0.4254142642021179,0.9031662940979004,0.258284996253516,0.1947887600393562,3.008263624653471,0.0442598983645439,0.0631018206477165,-0.0831744372844696,0.3708580447733402,0.8555729265511036,-10.441698095798492,14972.0
36.4,5.0,275.0,21.34370803833008,28.44349479675293,-79.78276790943205,40.45893419569294,307.40729513549803,0.0429178364574909,-0.0300014782696962,0.4259508550167084,0.9032297134399414,0.2276567782884078,0.1959733365415574,3.008172428940941,0.2039008885622024,-0.0593926347792148,0.1143151745200157,0.3023803155496716,0.4742541398853064,-10.47944538116455,14972.0
36.6,5.0,275.0,21.202226638793945,28.37988090515137,-79.78276828221237,40.458934083401495,308.27484503173827,0.0348140820860862,-0.0174068082123994,0.4232199192047119,0.9051905274391174,0.1109254054178856,0.1973996963539089,3.1465020260658885,0.0599696449935436,-0.0818022489547729,-0.0466162115335464,0.3940785075724125,0.8937358758598567,-10.259639189243318,14973.0
36.71,5.0,269.0,21.364994049072266,27.44952392578125,-79.78276840071342,40.45893401914115,308.5934142150879,0.0340948514640331,-0.0201622620224952,0.4223390519618988,0.9055721163749696,0.0619762953175382,0.1867627906709313,3.1966216506006457,-0.1908633559942244,0.0645161941647529,-0.0468514747917652,0.3962227911874652,0.7660311511158944,-10.246236201524734,14973.0
36.8,4.900000095367432,262.0,21.24354362487793,28.96831321716309,-79.78276833180537,40.45893409529413,308.8702544250488,0.0351651832461357,-0.0259376969188451,0.4209073483943939,0.9060505628585817,0.09213429012037,0.1752287428404292,3.124789282493404,0.05488146468997,-0.1753410696983337,0.0889318883419036,0.5005635405331851,0.3311652080342174,-9.848777564764024,14973.0
37.0,4.800000190734863,259.0,21.38001823425293,25.843265533447266,-79.78276862430755,40.45893392058024,309.49104681396483,0.0233885962516069,-0.0171385593712329,0.4229402244091034,0.9056935906410216,0.0951476802291786,0.1589925960311211,3.2682060501022456,0.060743685811758,-0.0352764837443828,-0.2358739227056504,0.3265455422177911,0.7554300029575826,-10.801242216825486,14974.0
37.1,4.800000190734863,258.0,21.5991268157959,22.424001693725582,-79.78276876029518,40.45893384554268,309.82389822387694,0.0254405997693538,-0.010012375190854,0.4253672063350677,0.9046078324317932,0.0525362459283452,0.1308710406503156,3.3739208793427684,0.1219779476523399,0.0258702412247657,0.0034081023186445,0.3945867402479053,0.3243295571208,-10.837266912460327,14974.0
37.21,4.800000190734863,250.0,21.832008361816406,20.571239471435547,-79.78276888472301,40.45893377453356,310.1637381591797,0.0339907296001911,-0.0107737639918923,0.4246693253517151,0.904646098613739,0.0092718823361939,0.1554168539621876,3.4018482988285976,-0.1616052538156509,0.161120057106018,0.1012107208371162,0.5194997118785978,0.6323953031748534,-10.250163191556933,14975.0
37.4,4.800000190734863,261.0,21.99853134155273,16.197763442993164,-79.7827691599006,40.458933917162106,310.7986601867676,0.0439806319773197,-0.0213406290858984,0.4221928715705872,0.9051870703697203,0.130317432454477,0.2140810871362461,3.1723100339364705,-0.0964971631765365,-0.0060111805796623,-0.0728296041488647,0.4289058030769229,1.0222629383951427,-8.769247654080392,14975.0
37.6,4.900000095367432,262.0,22.08241844177246,16.818002700805664,-79.7827694572217,40.45893379314601,311.464237121582,0.0395275466144084,-0.026383364573121,0.4223157167434693,0.9052022099494934,0.1529817696043671,0.1594224438736406,2.8341560285821683,-0.0107582760974764,0.005703639704734,-0.0708098411560058,0.2731343518383801,0.7940320781618357,-7.83647817850113,14976.0
37.7,4.900000095367432,262.0,22.297771453857425,14.400662422180176,-79.78276949949547,40.458933746248,311.738220123291,0.0383587963879108,-0.0267955772578716,0.4217002093791961,0.9055272936820984,0.1683006228619526,0.1162137484777833,2.6302364392858983,0.1417887359857559,0.0137931667268276,-0.1295418292284011,0.1660921888612211,0.8836914557218553,-7.797805278897287,14976.0
37.9,4.800000190734863,261.0,22.240177154541016,15.601380348205565,-79.78276958020369,40.45893371326947,312.26366033935545,0.0431857071816921,-0.0299141518771648,0.4190764129161834,0.906429886817932,0.1341065910640026,0.0831461352909894,2.155727919696212,-0.106785774230957,0.1327052563428878,0.0287048034369945,0.4284624014049769,0.6869602771103382,-7.260169587135315,14977.0
38.0,4.699999809265137,263.0,21.912139892578125,21.398223876953125,-79.78276969166133,40.4589336550741,312.7075804748535,0.0411643050611019,-0.0315617732703685,0.4161444902420044,0.9078177809715272,0.1051778376582172,0.0789144610362829,1.7548967564498392,0.2140945494174957,-0.0522659122943878,-0.0708692148327827,0.5272227874025702,0.5151101705431939,-7.251936122775077,14977.0
38.21,4.5,264.0,21.783178329467773,21.175573348999023,-79.78276973602956,40.45893357972575,312.87836065673827,0.037136685103178,-0.0246823392808437,0.416492760181427,0.9080448746681212,0.0569595949479269,0.0467372008328544,1.6678596000971633,0.1863028407096862,-0.0522018671035766,0.0769516602158546,0.212898711618036,0.5411978155374527,-8.669183083176613,14977.0
38.3,4.5,265.0,21.76439666748047,22.14569091796875,-79.78276986334768,40.45893353085619,313.1616820373535,0.0349244885146617,-0.0179307516664266,0.417243242263794,0.9079465866088868,0.0109825401192999,0.0390137487765985,1.6989611794936073,0.0616081021726131,0.0402603112161159,-0.0907777398824691,0.3164873811230063,0.7535372592508793,-9.193180729150772,14978.0
38.51,4.400000095367432,268.0,21.86205673217773,19.720399856567383,-79.78277007218531,40.4589334083103,313.6969908752441,0.0308055728673934,-0.0065933987498283,0.4203726351261139,0.906804621219635,0.0064334372839169,0.0370127298601808,1.7958388258195517,0.1315793842077255,0.0137950992211699,-0.0067970007658004,0.3711375051364303,0.5757397303730251,-9.537199323177338,14978.0
38.61,4.400000095367432,262.0,21.90337562561035,19.80786895751953,-79.78277003134932,40.45893328080146,314.0480879821777,0.02692755125463,0.0012956594582647,0.4221395552158356,0.9061300158500672,0.0365916811872726,0.026902907019437,1.7047917619755548,-0.0444175638258457,-0.0757638439536094,-8.162418089341372e-05,0.4865131564065814,0.7432397277653218,-9.467208736538886,14979.0
38.8,4.300000190734863,261.0,21.79820251464844,20.730274200439453,-79.7827701310827,40.458933284313005,314.39880361938475,0.0239168629050254,-0.0005188168724998,0.4220745265483856,0.9062454700469972,0.0732815558210622,0.0433246242258086,1.7931218816227867,0.003442371962592,0.0199572648853063,-0.0886724293231964,0.5860657670348883,0.624509309604764,-9.324869965910912,14979.0
38.9,4.300000190734863,260.0,21.9309196472168,17.859683990478516,-79.78277004820241,40.45893329674402,314.5766753234863,0.0224880147725343,-0.0018480186117812,0.4225470423698425,0.9060601592063904,0.1125304505268678,0.0326590026215783,1.7633696040821902,-0.1072046533226966,-0.0416943840682506,0.0270261038094759,0.3538753916323185,0.6581852518022061,-9.412629071474075,14979.0
39.1,4.199999809265137,254.0,22.281494140625,14.647167205810549,-79.7827699391031,40.45893334364364,315.10390463256834,0.0296387001872062,-0.0119933364912867,0.4250141382217407,0.904621958732605,0.1959128747706934,0.0429071786986621,1.7633128039297163,-0.1158866956830024,-0.0110886665061116,0.0912567302584648,0.2919470555707813,0.6106085776537657,-9.030069140195849,14980.0
39.2,4.199999809265137,255.0,22.1062068939209,15.816078186035154,-79.7827695663523,40.45893340232158,315.54100408935545,0.0340062864124774,-0.0193580295890569,0.4281467497348785,0.9028616547584534,0.2525521104311165,0.0416492032079998,1.5855449520127634,-0.2001600414514541,0.0601269602775573,0.0361904203891754,0.2146864064410329,0.6450408571958542,-8.547014282941817,14980.0
39.4,4.099999904632568,255.0,22.272729873657227,17.637035369873047,-79.78276940537648,40.458933513323714,315.6866072692871,0.0326260104775428,-0.0185799803584814,0.4305659234523773,0.9017779231071472,0.2763592253008561,0.0345058234839108,1.2682852397458757,0.0541602447628974,0.0029424929525703,0.0532856360077858,0.2777077332884073,0.7950214270502329,-6.9337388330698015,14980.0
39.5,4.099999904632568,256.0,22.06363677978516,18.97293281555176,-79.78276900340431,40.458933586027406,315.79818334960936,0.0320865772664547,-0.0123521760106086,0.4155246019363403,0.9089319109916688,0.2986902215171113,-0.0087247042917325,0.9889293993835812,0.2613654136657715,0.088069349527359,0.6068787574768066,0.114399339845404,0.4954123628139496,-6.98879738509655,14980.0
39.7,4.199999809265137,257.0,22.101198196411133,16.491979598999027,-79.78276865831413,40.45893384745733,315.96573248291014,0.0236170534044504,-0.0105149568989872,0.3517823219299316,0.9357248544692992,0.2595888358862597,0.0170899735696524,0.7291093355639455,-0.1034230589866638,-0.2268480062484741,0.9375081658363342,0.3663485258817673,0.5414368204772473,-8.72416562139988,14980.0
39.8,4.300000190734863,264.0,22.233917236328125,14.830058097839355,-79.78276826807921,40.45893387542621,316.0029715576172,0.0186908692121505,-0.0135676050558686,0.2997782826423645,0.9537293314933776,0.2701543607068749,0.0065138435926497,0.6683352434817341,-0.0790380239486694,-0.1508537679910659,1.1845718622207642,0.1751400059089064,0.5193297406286002,-8.94463313341141,14981.0
40.01,4.5,261.0,22.39668273925781,12.953439712524414,-79.78276770749764,40.45893398105045,316.0930899658203,0.0152420634403824,-0.0238841660320758,0.1720829010009765,0.9846749901771544,0.3025763089748847,0.0615162841033275,0.4839090612475636,-0.2129736840724945,-0.0691701248288154,1.3106406927108765,0.4101040811464191,0.5754444459825755,-8.953909741044045,14981.0
40.2,4.599999904632568,257.0,22.296518325805664,16.35679817199707,-79.78276717572427,40.45893428961188,316.16794958496087,0.029570784419775,-0.0258824024349451,0.0202408879995346,0.9990225434303284,0.2555349090470917,0.1525064891983883,0.2269043832106281,-0.2215102612972259,0.1746165752410888,1.6493539810180664,0.2529642718099057,0.5313984302803875,-8.691645162105559,14981.0
40.3,4.800000190734863,273.0,22.161296844482425,16.181859970092773,-79.78276669925384,40.45893409800642,316.12990560913084,0.0340779088437557,-0.0290178656578064,-0.0629657804965972,0.9970116019248962,0.2242050343311872,0.1636832468321501,0.1036970126811105,-0.1185805648565292,-0.0121680935844779,1.739707589149475,0.6105441121011973,0.2118777694925666,-8.701692432761194,14981.0
40.4,4.800000190734863,286.0,22.10245132446289,18.59124755859375,-79.78276647597734,40.45893425646535,316.1372946777344,0.0319807045161724,-0.030878223478794,-0.1475434154272079,0.9880561232566832,0.1597532248988088,0.2020619515880437,0.0057984633930046,-0.0824861079454422,-0.06154141202569,1.899091482162476,0.6078364492580295,-0.1692582916840911,-8.837599850893023,14981.0
40.6,5.0,278.0,21.823244094848643,21.49364471435547,-79.78276579819514,40.45893427117119,316.0718955078125,0.0412660986185073,-0.0219296049326658,-0.3012010157108307,0.9524149894714355,-0.0192709599557218,0.1796905627699093,-0.0268398570386948,0.1041646972298622,0.1457799673080444,1.333203673362732,0.4807317584753037,-0.3558816078677773,-9.747740017175676,14981.0
40.7,5.099999904632568,273.0,22.054872512817383,18.04257583618164,-79.78276573802088,40.45893442056087,316.0729064025879,0.0557901449501514,-0.0145824579522013,-0.352694422006607,0.9339601397514344,-0.0897609284109613,0.1518707324463111,0.0035658640705757,0.0130241950973868,0.2253586798906326,1.002355456352234,0.7610679613798857,-0.5687801550328732,-10.043671109676364,14981.0
40.9,5.099999904632568,289.0,21.88083839416504,21.827619552612305,-79.78276551675278,40.458934639400624,316.0732268371582,0.0757762268185615,-0.0061881360597908,-0.4101051390171051,0.9088639616966248,-0.1125794171516879,0.0709611319741942,-0.0405879389924731,0.2041139304637909,-0.0422973819077014,0.4111542403697968,1.0065462074428797,-0.6737070512026548,-9.044049248099329,14981.0
41.0,5.199999809265137,296.0,21.78818702697754,22.352436065673828,-79.78276540382362,40.45893509698215,315.9889334716797,0.0674990564584732,0.0317409448325634,-0.4263674020767212,0.9014694690704346,-0.075278948582464,0.0653604042007853,-0.0811898650410573,-0.1650433838367462,-0.6744929552078247,0.0164247807115316,1.2348486229777336,-0.4825620466098189,-9.269961102604867,14980.0
41.21,5.300000190734863,284.0,21.756885528564453,21.30280303955078,-79.7827653694295,40.458935171350376,315.9842146911621,0.0320246294140815,0.0373360551893711,-0.4244568049907684,0.90411114692688,-0.0307753117878967,0.1003960021091337,-0.0464123381318672,-0.4650167822837829,-0.8541190028190613,0.044949222356081,1.12736488558352,-0.8290287601947784,-9.921391797065736,14980.0
41.3,5.300000190734863,278.0,21.666736602783203,24.952667236328125,-79.78276522274359,40.45893531394994,315.86212911987303,-0.0082586677744984,0.0324123911559581,-0.4184432923793793,0.9076268672943116,-0.0156186588126163,0.1881590241767796,-0.0301994516164636,-0.4951286613941193,-0.8286306858062744,-0.072391852736473,0.8325665449351073,-0.4886637623235584,-9.965233050584793,14980.0
41.5,5.099999904632568,255.0,21.602882385253903,24.165441513061523,-79.78276468714493,40.45893539914236,315.70561972045897,-0.0535322576761245,0.02869438752532,-0.3991424441337585,0.914875030517578,0.0228674981220626,0.4518445674090896,0.0829895257949257,-0.0264408085495233,-0.2654657363891601,-0.1627515703439712,0.6701803030818702,-0.1708132490515709,-10.697024953365329,14980.0
41.6,4.900000095367432,241.0,21.58159828186035,23.25893783569336,-79.78276347182243,40.45893615399735,315.727420715332,-0.0642659142613411,0.0389967486262321,-0.3854053616523743,0.91968035697937,0.0594711751804041,0.8513268842521594,0.2913688699241374,0.0532285906374454,-0.0619138181209564,-0.1202667579054832,0.6206855960190296,0.0627117167785763,-10.718294785022737,14980.0
41.8,4.599999904632568,237.0,21.43886375427246,26.447599411010746,-79.78276235300362,40.4589364994117,315.6497954406738,-0.0685774907469749,0.0433636978268623,-0.3830630779266357,0.9201518297195436,0.1057538299980072,1.0537520498101025,0.3737686920860113,0.0647372752428054,-0.057434756308794,-0.0764699578285217,0.6378103365004063,0.0879179579671472,-10.813839458227156,14980.0
41.9,4.5,235.0,21.42509078979492,25.92278289794922,-79.78276123594793,40.45893719824442,315.6750334777832,-0.0739177614450454,0.0436723344027996,-0.3845834136009216,0.9190889596939088,0.1080349172337898,1.2671561660772483,0.5100702028125585,-0.1330344229936599,-0.0622477978467941,0.1395384520292282,0.5316738341376186,-0.3112993294000625,-10.922439794540406,14980.0
42.11,4.300000190734863,223.0,21.31365966796875,27.529041290283203,-79.78275811833893,40.4589387137946,315.65583792114256,-0.0842907130718231,0.0331280268728733,-0.3917415738105774,0.9156070947647096,0.1183959996696811,1.6927657154374498,0.7847304095955687,-0.0575769618153572,0.0908721834421157,0.1751407384872436,0.4399756055697799,-0.2488570961728692,-11.195261521339416,14980.0
42.2,4.199999809265137,223.0,21.3987979888916,25.42182159423828,-79.78275639470033,40.4589398585913,315.7082900085449,-0.0852700546383857,0.0295570343732833,-0.3957690298557281,0.9139050245285034,0.0916481405991808,1.913591362088445,0.9412337200294436,0.0847275629639625,0.0832890719175338,0.0740751698613166,0.4576424560323358,-0.2388769223168493,-11.165157716274262,14980.0
42.41,3.900000095367432,219.0,21.430099487304688,26.137481689453125,-79.78275193360743,40.45894206359416,315.7247466125488,-0.0878975018858909,0.036036629229784,-0.4029449820518493,0.9102807044982908,0.0416451718390546,2.343637429643575,1.1348276188928292,0.1021113842725753,-0.0551417507231235,0.0355085879564285,0.398532697185874,-0.2459198935702443,-10.845793322324752,14980.0
42.5,3.700000047683716,218.0,21.477678298950195,25.21507453918457,-79.782746571628,40.45894438529413,315.7240256347656,-0.0892623513936996,0.0412186682224273,-0.4051201939582825,0.9089614748954772,0.0264666134908123,2.74687438359847,1.2888608509865205,-0.1049748137593269,-0.0796431675553321,-0.0323721021413803,0.332230278365314,-0.0561230559088289,-10.720229043960572,14980.0
42.71,3.400000095367432,212.0,21.589111328125,23.29869842529297,-79.78274387125083,40.45894621016082,315.79896917724614,-0.0932921469211578,0.0394394807517528,-0.40340656042099,0.909397840499878,0.0194088212289127,2.967575873409162,1.3718584662777558,-0.0150651466101408,-0.1798755228519439,0.0164442006498575,0.3885106426477433,-0.328358288705349,-10.45193189263344,14980.0
42.8,3.299999952316284,214.0,21.63543701171875,23.09990310668945,-79.78274003743888,40.458946849765695,315.708434967041,-0.1005586609244346,0.0384189486503601,-0.4014531672000885,0.9095314145088196,0.1291949306353103,3.1680120463110044,1.357574502746408,0.0097087072208523,-0.1282352656126022,-0.0399555973708629,0.3871331117302179,-0.1472684485092759,-10.257094480991364,14980.0
43.0,3.0999999046325684,213.0,21.610395431518555,23.457733154296875,-79.78273253298191,40.45894995212876,315.7309721984863,-0.109232373535633,0.038791574537754,-0.3927775323390961,0.9122989177703856,0.2718171310292796,3.5973200900384628,1.4886665129208418,0.0209757778793573,0.0274892412126064,-0.068353921175003,0.2227686106413603,-0.0636512409942224,-10.224788614511487,14980.0
43.1,2.900000095367432,216.0,21.540281295776367,23.40207099914551,-79.78272925646942,40.458951296891904,315.74778356933587,-0.1072849184274673,0.0410145334899425,-0.3865682780742645,0.9150807857513428,0.3149351387035313,3.764356127865612,1.517683074245955,0.0599685199558734,0.010582092218101,-0.0922602340579032,0.2410124716535211,-0.0697565518319606,-10.15812918663025,14980.0
43.3,2.700000047683716,209.0,21.562816619873047,22.09798049926757,-79.78272001357165,40.45895494301821,315.7804907836914,-0.1048880144953727,0.0405288189649581,-0.3849309682846069,0.9160699248313904,0.5242222661984626,4.241624384523561,1.5702235008388776,0.0372003130614757,0.0332724750041961,-0.0121385306119918,0.225804813914001,-0.130532602686435,-10.071636003255843,14980.0
43.4,2.5999999046325684,204.0,21.63919258117676,22.686410903930664,-79.78270953617051,40.45895892632964,315.83052435302733,-0.1057770401239395,0.0378147363662719,-0.3916251957416534,0.9132420420646667,0.6454806110485951,4.719257493226837,1.6229779767547832,0.0397708639502525,0.0654256790876388,0.0449831672012805,0.2090323499031365,0.0640369790699333,-10.083015854358674,14980.0
43.6,2.5,195.0,21.680509567260746,22.66255569458008,-79.7827047540494,40.45896173141149,315.8835867919922,-0.1010139212012291,0.0341891385614872,-0.3944060504436493,0.912727415561676,0.5449982929892684,4.941140739457304,1.6642048880042353,0.0132280439138412,0.2493225783109665,0.0323318317532539,0.0192115295212715,-0.0894539210200309,-10.052308616638184,14980.0
43.7,2.400000095367432,189.0,21.695533752441406,21.263044357299805,-79.78269981848713,40.45896467452658,315.93587866210936,-0.0857336819171905,0.028465449810028,-0.3978188037872314,0.9130058884620668,0.4957915727651106,5.149395207983486,1.6303552403630417,0.051630362868309,0.3897630274295807,0.0562450662255287,-0.0789648384042084,-0.10935371350497,-9.888091903924945,14980.0
43.91,2.299999952316284,181.0,21.70054244995117,21.6685848236084,-79.7826873794685,40.45896929001939,316.00185385131834,-0.0457472130656242,0.0173183660954237,-0.411598801612854,0.9100515246391296,0.4605784035860364,5.568619977543254,1.1856973003752551,-0.0527204349637031,0.2435564994812012,0.0958980619907379,0.1150566308386624,-0.1822039175033569,-9.463126210570335,14981.0
44.0,2.299999952316284,180.0,21.74812126159668,21.620872497558597,-79.78267474669481,40.45897428134469,316.0831679382324,-0.0291231777518987,0.0140221621841192,-0.4239199757575989,0.9051227569580078,0.4323160499321647,5.822910058330938,0.7808910931410298,0.1230301186442375,0.0006771977059543,0.0576350875198841,0.1760671915858984,-0.1801000893115997,-9.467787610888482,14981.0
44.21,2.299999952316284,166.0,21.71807098388672,21.636775970458984,-79.782669076027,40.458977380034646,316.11497869873045,-0.0287274979054927,0.0194457564502954,-0.4273433387279511,0.9034236669540404,0.3928850269243884,5.906265626825848,0.6666943105132298,0.0876682326197624,-0.0558486357331276,0.0657090619206428,0.1230981512088328,0.0153790633846074,-9.22939428985119,14981.0
44.31,2.299999952316284,156.0,21.58284950256348,23.410022735595703,-79.78266111905509,40.45897947199364,316.1816138305664,-0.0271875411272048,0.0257001593708992,-0.4374248087406158,0.8984764814376831,0.5157943655958174,6.0022623303963005,0.6757605260882572,0.1074638068675994,0.0572210662066936,0.0884004756808281,-0.0198678269446827,-0.1596469126828014,-9.316493829488754,14981.0
44.51,2.299999952316284,135.0,21.592866897583008,23.36231231689453,-79.78264701229257,40.45898488232479,316.31720724487303,-0.0158894956111907,0.0197145957499742,-0.4450886845588684,0.8951284289360046,0.5155327198506608,6.152238519641111,0.7091255173704265,-0.1317179054021835,0.252440482378006,-0.0806867182254791,-0.1146962230838835,-0.0013925052713602,-9.779941803216934,14981.0
44.6,2.200000047683716,127.0,21.54403686523437,23.50544357299805,-79.78264085544095,40.45898794086232,316.3478087463379,-0.0107727786526083,0.0113603351637721,-0.4433337152004242,0.8962199687957764,0.4304845828160517,6.215910408116115,0.6014187343255959,-0.259190022945404,0.0961639359593391,-0.091165967285633,-0.0505594667606055,0.0328952840901911,-9.734096124172211,14981.0
44.8,2.299999952316284,115.0,21.70805549621582,22.12978744506836,-79.78262587617625,40.45899351294118,316.50476065063475,-0.0122748501598835,0.0024707168340682,-0.4418632686138153,0.8969950675964355,0.6518664138492446,6.337161014486848,0.5157494919877581,-0.1238918378949165,-0.1034414321184158,-0.0300901643931865,-0.0530345017835497,-0.1257504939101636,-9.818643354177476,14981.0
44.9,2.400000095367432,109.0,21.5352725982666,24.316524505615234,-79.78261189526314,40.458999448485386,316.60443487548827,-0.0090014208108186,0.002847388619557,-0.4387938678264618,0.8985381722450256,0.7459787540391842,6.371048224954699,0.5875427241778348,0.046403732150793,0.1602988094091415,-0.1170382648706436,-0.2027326145768165,0.1464329179376363,-9.899220324754715,14981.0
45.11,2.5,103.0,21.749372482299805,21.00858688354492,-79.78260542108384,40.45900245540725,316.6476782836914,-0.0012426330940797,0.0036639710888266,-0.4378514885902405,0.8990390300750732,0.7485416581531414,6.3729236845836486,0.5490772176051621,0.0630817338824272,0.1605904102325439,-0.10686507076025,-0.1546830285899341,0.0814697855897247,-9.913331995010378,14981.0
45.2,2.5999999046325684,99.0,21.928415298461918,19.092208862304688,-79.78259894132773,40.45900544795657,316.69069662475584,0.0020470842719078,0.0047742766328156,-0.438174694776535,0.8988748788833618,0.7614094055114028,6.368163904099099,0.4585322215187188,0.0087336180731654,0.0221106298267841,-0.0176285952329635,-0.1512649199087173,0.1050078801065683,-9.7232021766901,14981.0
45.41,2.700000047683716,94.0,21.83701705932617,20.05437469482422,-79.78258486621587,40.45901139890818,316.7723502197265,0.0014632946113124,0.0060502989217638,-0.4408867061138153,0.8975412249565125,0.7932263846642391,6.365044842213909,0.3726275584151287,-0.0299575179815292,0.0083918571472167,0.0491506643593311,-0.2106768062151968,-0.0388323184568435,-9.452777808308602,14981.0
45.6,2.799999952316284,91.0,21.91965103149414,18.57534408569336,-79.7825711180112,40.45901755883024,316.86068334960936,0.0065983766689896,0.0038206381723284,-0.4424513280391693,0.8967601656913757,0.8118179457793945,6.361197124833642,0.2741166273908557,0.0453583933413028,0.0981023088097572,-0.008731928654015,-0.3402981934323907,0.0458742664474994,-9.416465429663658,14981.0
45.7,2.799999952316284,86.0,22.017311096191406,17.11221694946289,-79.78256459025623,40.45902045292335,316.8865241088867,0.008986447006464,0.0044493949972093,-0.4421352744102478,0.8968923687934875,0.8127113894939502,6.337826868403705,0.1825006948765595,-0.0054588201455771,0.0468669384717941,-0.0207714363932609,-0.0802394948713481,-0.0316549457539804,-9.227760577797891,14981.0
45.8,2.799999952316284,86.0,21.96096992492676,18.209562301635746,-79.78255744534094,40.459023577938574,316.9366721191406,0.0080378670245409,0.0014033294282853,-0.4409685432910919,0.8974855542182922,0.8314334791677211,6.343243204561802,0.1236791908936831,-0.0509470216929912,-0.0275294631719589,-0.0884964242577552,-0.1667519740574062,0.0186647737445309,-9.18540685594082,14981.0
46.0,2.900000095367432,83.0,21.872074127197266,19.99871063232422,-79.78254418029556,40.45902957969855,316.9987410583496,0.0032132728956639,-0.0032470829319208,-0.4363449811935425,0.8997678756713867,0.8773893095261263,6.302135547176306,0.0507095751313668,-0.013885878957808,-0.0064796726219356,0.0062447153031826,-0.0601150688063353,-0.0136051186546683,-9.342296422719956,14981.0
46.1,3.0,83.0,21.870820999145508,19.283052444458008,-79.7825376975599,40.45903243610621,317.00938024902337,0.0042077098041772,-0.003231547307223,-0.4336724579334259,0.9010550379753112,0.91973384947125,6.266569936606448,0.0398129164219189,0.0816823467612266,0.050516739487648,-0.0622584372758865,-0.2717402842640877,-0.0961132052913308,-9.54096434533596,14982.0
46.3,3.0999999046325684,83.0,22.002286911010746,17.724504470825195,-79.78252443420106,40.459038371547344,317.0535429992676,0.0071858083829283,0.0001976539788302,-0.4309952557086945,0.9023256301879884,0.9762966352906788,6.242600381627585,0.0222475842256019,0.0304851960390806,-0.0025751963257789,0.0605019778013229,-0.0298624612390995,0.0085586426407098,-9.683252829909325,14982.0
46.4,3.0999999046325684,82.0,21.962221145629886,17.454143524169922,-79.78251139386995,40.45904429929337,317.0772131958008,0.0091159408912062,0.0056450376287102,-0.4330998659133911,0.9012821316719056,0.9695771745552868,6.220898364918653,-0.0085840860132153,0.0098398244008421,0.0698652192950248,-0.0207314435392618,-0.0985111849755048,-0.025576771935448,-9.54952116072178,14982.0
46.6,3.0,83.0,22.04861259460449,17.501853942871097,-79.78250496679004,40.45904711379011,317.0775565185547,0.0130950268357992,0.0064271255396306,-0.4348545372486114,0.9003826379776001,0.9717633004472096,6.193193921328444,-0.0884875096895257,0.0226993840187788,0.1179104000329971,-0.035026729106903,-0.1553574318252504,0.2237800693139434,-9.115148466825486,14982.0
46.7,3.0,84.0,21.97974967956543,18.71052360534668,-79.78249855331485,40.45904989310921,317.07041159057616,0.0213905405253171,0.0036391005851328,-0.4375009536743164,0.8989562392234802,0.9672165312282826,6.157854715020707,-0.1993357929642902,-0.0459867976605892,0.1683234572410583,0.1763834059238433,-0.1964493062719702,-0.0740572520345449,-9.055788702964785,14982.0
46.9,2.900000095367432,88.0,21.89085388183593,18.75823402404785,-79.78249203250842,40.45905295068914,317.07894506835936,0.0304967127740383,0.0001119690787163,-0.4404590129852295,0.8972546458244324,0.9398349468811243,6.142108127480308,-0.3291445508643578,0.0410908050835132,0.2101407945156097,0.1041513010859489,-0.0138983313948847,-0.0932693662773817,-9.133851370811463,14982.0
47.0,2.799999952316284,91.0,21.932172775268555,17.86763572692871,-79.7824729632102,40.45906119742151,317.03465643310545,0.0364470072090625,-0.0055155968293547,-0.4499700963497162,0.8922826051712036,0.8685676346837442,5.97705778076404,-0.6226011016720614,-0.0287785306572914,-0.0111882304772734,-0.0364789217710495,-0.005357675794512,0.088620382156223,-9.480854968428613,14982.0
47.2,2.700000047683716,92.0,21.8282527923584,20.78593635559082,-79.78246671330669,40.45906380235521,317.0132140197754,0.0320745781064033,-0.0062130237929522,-0.4527427852153778,0.8910425305366516,0.847781447192557,5.91773584591797,-0.6212315845202427,-0.0024595402646809,-0.0867470502853393,0.1120477169752121,-0.0545535901375114,-0.1209493634104728,-9.567172150611878,14982.0
47.3,2.5999999046325684,92.0,21.93592834472656,18.42426109313965,-79.78246049711143,40.45906673874567,316.99217596435545,0.0287088640034198,-0.0045344168320298,-0.4547613859176636,0.8901389837265015,0.7920144945603862,5.892680052916776,-0.5614412341670563,0.096663050353527,-0.0818609148263931,0.0364534892141819,0.0287649845425039,0.0052805770584382,-9.777532165646551,14981.0
47.5,2.5999999046325684,93.0,21.88960266113281,19.919193267822266,-79.78244841156297,40.45907217841016,316.9316138305664,0.0239405930042266,-2.6997659006156027e-06,-0.4545406699180603,0.8904042243957521,0.7559953792159855,5.819441372005732,-0.4716310232668864,0.0110586071386933,0.0619471371173858,-0.1805064380168914,-0.1583950055390596,0.1181962932832539,-9.76170843064785,14981.0
47.6,2.5,92.0,22.02607536315918,17.55751609802246,-79.78244232098102,40.45907470960474,316.9093016662597,0.0250110439956188,-0.001632833154872,-0.4528942704200745,0.8912118673324585,0.7691993534216255,5.7761888375646935,-0.4531268425788536,-0.1019637957215309,0.1468663066625595,-0.1239803358912468,-0.0418190944846719,0.1366019120346754,-9.810330952405929,14981.0
