time,wind_speed,wind_angle,battery_voltage,battery_current,position_x,position_y,position_z,orientation_x,orientation_y,orientation_z,orientation_w,velocity_x,velocity_y,velocity_z,angular_x,angular_y,angular_z,linear_acceleration_x,linear_acceleration_y,linear_acceleration_z,node_ids
0.0,0.5,15.0,25.7434139251709,-0.0954212844371795,-79.78283816022278,40.45891730022718,268.9546896915436,0.0130682894960045,-0.0024229444097727,0.8970509171485901,0.4417272806167602,0.0033376986244057,0.0117322347849791,-0.0020194637947983,-0.0013956021284684,-0.0020041354000568,0.0034242512192577,0.0624864664999768,0.2466326326131821,-9.811312115192411,14933.0
0.2,0.6000000238418579,10.0,25.7434139251709,-0.1033730581402778,-79.7828382991808,40.458917304364064,268.95095605659486,0.013064413331449,-0.002424378413707,0.8970506191253662,0.44172802567482,0.0048512449874338,0.0094795733188794,-0.0042924399374025,0.0025953953154385,0.0005423547700047,0.0057280114851892,0.0601862997701391,0.2558134372718632,-9.808779686093333,14933.0
0.3,0.6000000238418579,7.0,25.754682540893555,-0.0715659633278846,-79.78283840388103,40.458917291736576,268.94739950704576,0.0130672678351402,-0.0024268839042633,0.8970504403114319,0.4417282938957214,0.0009459514195389,0.0086550946798673,-0.0058290318340227,-0.0037560448981821,0.002618437865749,-0.0072852871380746,0.0602981551783159,0.256383029166609,-9.809293656349183,14933.0
0.5,0.6000000238418579,359.0,25.752178192138672,-0.0715659633278846,-79.78283842083495,40.45891728491264,268.9462927083969,0.0130654079839587,-0.0024287679698318,0.8970498442649841,0.4417295157909393,0.0007665169907119,0.0072436865344569,-0.0053101956724869,-0.0021500161383301,0.0003440481668803,-0.0042864754796028,0.0634668024536222,0.2449008152447641,-9.810429185628893,14933.0
0.6,0.6000000238418579,354.0,25.754682540893555,-0.0874695107340812,-79.78283854826546,40.45891732955783,268.94643301773067,0.0130539257079362,-0.0024215742014348,0.897050142288208,0.4417293071746826,0.0099921891813539,0.0027764095184818,0.0002476759709368,0.0051074088551104,0.0011120989220216,0.0019550854340195,0.0606207387568429,0.2505222918279469,-9.809949713945391,14933.0
0.8,0.6000000238418579,352.0,25.75092697143555,-0.0874695107340812,-79.78283866897797,40.45891730655085,268.94151748228074,0.0130537813529372,-0.0024212044663727,0.8970568180084229,0.4417157769203186,0.0053318692423673,0.0062777064707703,-0.0018166197002057,-0.0035963752306997,-0.0010306999320164,-0.0055209561251103,0.0619070668146014,0.2459489286504686,-9.81121037364006,14933.0
0.91,0.6000000238418579,354.0,25.74591827392578,-0.1113248318433761,-79.78283867865589,40.45891730716545,268.94137228536607,0.0130618866533041,-0.0024062932934612,0.897052526473999,0.4417243599891663,0.0058557016685187,0.0054305509989782,-0.0014956530927328,0.0041190101765096,0.0007315458497032,0.0067020268179476,0.0630193808209151,0.2455412863567472,-9.81079989910126,14933.0
1.1,0.6000000238418579,353.0,25.758440017700195,-0.0874695107340812,-79.7828388212765,40.458917300817625,268.93526233243944,0.0130484700202941,-0.0023963656276464,0.8970516920089722,0.4417265057563782,0.0083424339719441,0.0079642779741475,-0.004076077986449,0.0034295124933123,0.0038020741194486,0.0034025707282125,0.060453581479378,0.2528663674928248,-9.809935680627824,14933.0
1.21,0.6000000238418579,354.0,25.754682540893555,-0.0795177370309829,-79.78283883432186,40.45891730249127,268.93489159154893,0.0130507312715053,-0.0024006241001188,0.8970553278923035,0.4417191743850708,0.0081318474600044,0.0071954807007579,-0.0039107982571269,-0.0009112902916967,-0.0022391658276319,0.0030983432661741,0.0629139071004465,0.2455409574508667,-9.810840829610823,14933.0
1.4,0.6000000238418579,350.0,25.754682540893555,-0.0318070948123931,-79.78283896633135,40.45891725925296,268.92799068498607,0.0130379330366849,-0.0023885970003902,0.8970639109611511,0.4417021870613098,0.0034044821610509,0.0107236457951753,-0.0056394153847589,0.0057898303493857,-0.0012994280550628,0.0078426096588373,0.0602248320076614,0.2584905666857958,-9.808611871004103,14933.0
1.5,0.6000000238418579,351.0,25.75969123840332,-0.0636141896247863,-79.78283897844491,40.45891725575536,268.9274637799263,0.0130301974713802,-0.0023819082416594,0.8970627188682556,0.4417048692703247,0.0026902083315817,0.0102094615093327,-0.0052618855046556,-0.0048736142925918,0.0013545054243877,-0.0034947106614708,0.0609204907855019,0.2527842506580055,-9.80896562755108,14933.0
1.7,0.6000000238418579,348.0,25.754682540893555,-0.0715659633278846,-79.78283911101235,40.45891722781495,268.91969991731645,0.0130362948402762,-0.002374593866989,0.8970756530761719,0.4416782557964325,0.0018676521178216,0.0108355078321722,-0.0067979432777448,-0.0021859612315893,-0.0021931091323494,0.0038575257640331,0.0622416234808042,0.2504136797972024,-9.809811134934426,14933.0
1.8,0.6000000238418579,346.0,25.74717140197754,-0.0636141896247863,-79.78283920742325,40.45891720579831,268.9130267004967,0.0130300102755427,-0.0023531659971922,0.8970763087272644,0.4416772425174713,-0.0004113696303449,0.0097352329675184,-0.0076338313619335,-0.0011931863846257,0.0004523277748376,-0.0062498901970684,0.0613246612949296,0.2563447116315365,-9.808625904321673,14933.0
2.0,0.5,351.0,25.754682540893555,-0.0636141896247863,-79.78283922426192,40.458917195834815,268.9115467171669,0.0130316633731126,-0.0023633141536265,0.8970935344696045,0.4416421949863434,-0.0005801612626623,0.0080717695639801,-0.0071885235493848,-0.0032848492264747,-0.0015863947337493,-0.0075180195271968,0.0634420796949416,0.2439648952893913,-9.809950298666958,14933.0
2.1,0.5,358.0,25.75593566894531,-0.0636141896247863,-79.78283933952268,40.4589172053501,268.90398092079164,0.0130156446248292,-0.0023545182775706,0.8970943093299866,0.4416411221027374,0.0056186792661405,0.0054613876151429,-0.0084876254161318,0.0006137319141998,-0.0005388790159486,-0.0008448412991128,0.0608574048103764,0.252985449694097,-9.809405922889711,14933.0
2.3,0.5,356.0,25.7434139251709,-0.1590354740619659,-79.78283946268206,40.458917193612045,268.8949693541527,0.0130252130329608,-0.0023499447852373,0.8970925211906433,0.4416444599628449,0.0060173505593711,0.0057954327185407,-0.009168273294828,-0.0075853834860026,-0.0012305662967264,-0.0062633473426103,0.0629894275451079,0.2450204090774059,-9.811669964790346,14933.0
2.4,0.5,354.0,25.74216270446777,-0.1590354740619659,-79.78283947261436,40.45891719519821,268.89406968164445,0.013020422309637,-0.0023630571085959,0.8970959186553955,0.4416377246379852,0.006722512134282,0.0048179940879475,-0.0091888785876119,0.0068401708267629,-0.0024753150064498,0.0036846918519586,0.0630177956772968,0.245670016463846,-9.80945270061493,14933.0
2.6,0.5,357.0,25.73840713500977,-0.1431319266557693,-79.78283960291199,40.4589171780463,268.8841561775208,0.0129807023331522,-0.0023585853632539,0.8970941305160522,0.441642552614212,0.0069919148695048,0.0054675813639061,-0.0097302582699601,0.0033159991726279,0.0026001585647463,0.0006261821254156,0.061696475688368,0.2511159669421613,-9.809942697286608,14933.0
2.7,0.5,359.0,25.74216270446777,-0.1590354740619659,-79.78283961287453,40.458917180226656,268.8832221131325,0.0130051979795098,-0.0023565159644931,0.8970983028411865,0.4416333734989166,0.0068919524455247,0.0047824995699214,-0.0093901537643646,-0.0007529243011958,-0.0020705177448689,0.0011901485268026,0.0618961352622136,0.2464469652436673,-9.811534309387207,14933.0
2.9,0.5,358.0,25.7434139251709,-0.1510837078094482,-79.78283969699478,40.45891717963514,268.8749024372101,0.0129851484671235,-0.0023576654493808,0.8971000909805298,0.4416303336620331,0.00651704937816,-0.0004423532920421,-0.0072321944091958,0.0023490553721785,0.0023565194569528,0.007095112465322,0.0611539774155244,0.2570164470747113,-9.808332374095915,14933.0
3.0,0.4000000059604645,357.0,25.74216270446777,-0.1510837078094482,-79.7828397009441,40.45891718468237,268.87421257305147,0.0129851484671235,-0.0023576654493808,0.8971000909805298,0.4416303336620331,0.0060112348085753,-0.0011725566231147,-0.0068882540357135,-0.0022470345720648,0.0006866559851914,-0.0070545896887779,0.060974614075385,0.2562976232729852,-9.809387796521188,14933.0
3.21,0.5,357.0,25.7333984375,-0.1272283792495727,-79.78283984390342,40.45891711369686,268.86310375738145,0.0129818962886929,-0.0023774355649948,0.8970988988876343,0.4416326880455017,0.0012412174527908,0.0085736582033817,-0.0078117055263001,-0.0019382045138627,-0.0017242250032722,-0.0053114970214664,0.063590334020555,0.2462744175642729,-9.810881760120392,14933.0
3.3,0.5,357.0,25.74091148376465,-0.1351801604032516,-79.78283995775311,40.458917086419895,268.8518419365883,0.0129708526656031,-0.0023768644314259,0.8970947861671448,0.4416413307189941,0.0035886591886851,0.0085613999540082,-0.0092950461263852,0.003870484419167,0.0028045561630278,-0.0004315597761888,0.0614081851160153,0.2527152352407574,-9.809163263440134,14933.0
3.5,0.5,359.0,25.74717140197754,-0.1351801604032516,-79.78283997812507,40.45891708290085,268.8500674467087,0.0129613047465682,-0.0023835757747292,0.8970934748649597,0.4416444003582001,0.0034265029973161,0.0071597425475955,-0.0087184402894861,-0.0033093870151788,-0.0002735863963607,-0.004879904910922,0.0629928901931271,0.2454793789610267,-9.810983501672744,14933.0
3.6,0.6000000238418579,1.0,25.74091148376465,-0.1510837078094482,-79.7828400940232,40.45891703868722,268.8376868467331,0.0129655040800571,-0.0023840514477342,0.8970896005630493,0.4416521489620209,0.0024445578772054,0.0099097693760254,-0.0100399885740482,0.0004798089212272,0.0006838869303464,0.0069222720339894,0.0634917993005365,0.2442143155820668,-9.81014033317566,14933.0
3.8,0.6000000238418579,4.0,25.73715400695801,-0.1431319266557693,-79.78284022909726,40.45891698580103,268.8240994911194,0.0129615198820829,-0.0023923839908093,0.8971108198165894,0.4416090250015259,0.0014414956378601,0.0139505402842831,-0.0104570540499162,0.0052352650091052,8.940858970163391e-05,0.0030388450250029,0.0600325362710282,0.2550702561624348,-9.80836277961731,14933.0
3.9,0.6000000238418579,15.0,25.72588539123535,-0.1510837078094482,-79.78284024307727,40.458916979027,268.8230770330429,0.0129638249054551,-0.0023917632643133,0.8971182703971863,0.4415938258171081,0.0009603883601555,0.0134094369145794,-0.0102758045815859,-0.0032757679000496,-0.003904108190909,-0.0009287535212934,0.0609754911577329,0.2494546816125512,-9.809081402421,14933.0
4.1,0.6000000238418579,14.0,25.73840713500977,-0.1510837078094482,-79.78284036589511,40.45891693077687,268.80859435606004,0.0129591273143887,-0.0023944217246025,0.8971238136291504,0.4415826499462128,0.0008182222564301,0.0132271316776883,-0.0107752920609099,0.0003327660670038,-0.002456039423123,0.0052869538776576,0.0605752218374982,0.2533850520662964,-9.808549305796625,14933.0
4.2,0.6000000238418579,10.0,25.7333984375,-0.1351801604032516,-79.78284037877815,40.45891692443495,268.8075502614975,0.0129521787166595,-0.0023877318017184,0.897124171257019,0.4415821433067322,0.0006077741699022,0.0125549877542068,-0.0103138235322955,-0.0016258754767477,0.0012345055583864,-0.0063694771379232,0.0597286774870008,0.2569708205200732,-9.809686589241029,14933.0
4.4,0.6000000238418579,9.0,25.74216270446777,-0.0874695107340812,-79.7828404804152,40.45891687081122,268.79222191381456,0.0129548236727714,-0.002395198913291,0.89711993932724,0.4415907561779022,-0.0020120807676144,0.0104390032692827,-0.0107409464628686,-0.0035381352063268,-0.0002077144454233,-0.0069459322839975,0.0640335666714236,0.2440988330729306,-9.810955435037611,14933.0
4.5,0.6000000238418579,7.0,25.7434139251709,-0.1431319266557693,-79.78284048888445,40.45891686433512,268.79115493106843,0.0129548236727714,-0.002395198913291,0.89711993932724,0.4415907561779022,-0.0011890185300999,0.0096001078924564,-0.0106708790841478,0.0042299362830817,0.0006918784929439,0.0042003579437732,0.0633113121986389,0.246823562476784,-9.810073674917222,14933.0
4.7,0.6000000238418579,8.0,25.72964286804199,-0.1590354740619659,-79.78284061663892,40.45891683601359,268.77809340763093,0.012949070893228,-0.0023967593442648,0.897119402885437,0.4415920674800873,0.002256249442123,0.0086733991648884,-0.0070838952203436,-0.0010865631047636,0.0021953536197543,-0.0024000010453164,0.0617151136882603,0.2484645104594529,-9.809485445022585,14933.0
4.8,0.6000000238418579,9.0,25.73715400695801,-0.1590354740619659,-79.78284072217541,40.45891678159384,268.7628211479187,0.0129493726417422,-0.00240363413468,0.8971192240715027,0.4415920972824097,-0.0003012473982432,0.0115324802769605,-0.0084752844256583,-0.0001373986015096,-0.002409856300801,0.0002335543977096,0.0629341074032709,0.2456331424601376,-9.811533139944077,14933.0
5.0,0.6000000238418579,12.0,25.7333984375,0.0,-79.7828407425305,40.45891676943872,268.76119769620897,0.0129483500495553,-0.0024051831569522,0.8971185684204102,0.4415935277938843,0.0001082438424424,0.0100946847202857,-0.0079376341634022,0.0014087432064116,0.000652429414913,0.0054398858919739,0.0599143448565155,0.2571312352269888,-9.808869148492814,14933.0
5.1,0.6000000238418579,6.0,25.748422622680664,-0.0715659633278846,-79.78284087273046,40.458916726934696,268.7451970081329,0.0129428273066878,-0.0024136702995747,0.8971177339553833,0.4415953457355499,0.0009815497794712,0.0140665354902736,-0.0093542970332325,-0.004293686710298,-0.0014363848604261,-0.0065712542273104,0.0600891537638381,0.2560223838686943,-9.809500063061712,14933.0
5.3,0.6000000238418579,8.0,25.73965835571289,-0.055662415921688,-79.78284099536491,40.45891669437432,268.72767228889467,0.0129402102902531,-0.0024126505013555,0.8971177339553833,0.4415956735610962,0.0028732729292193,0.0120257964747593,-0.0103821315184804,-0.0036677948664873,-0.0001407662930432,-0.002204000018537,0.0636181128630414,0.2449007969722152,-9.811022093296051,14933.0
5.4,0.6000000238418579,7.0,25.74216270446777,-0.0079517737030982,-79.78284100898651,40.458916690495634,268.72666258621217,0.0129382759332656,-0.0024137364234775,0.8971167802810669,0.4415976107120514,0.003612999064418,0.0111816924287693,-0.0101444614439381,0.0050757587887346,-4.045876994496211e-05,0.0005186549387872,0.0606602485757321,0.2510813952796161,-9.810171908140182,14933.0
5.6,0.6000000238418579,7.0,25.744667053222656,0.0954212844371795,-79.78284116010235,40.45891663881715,268.70854795980455,0.0129439812153577,-0.002423939295113,0.8971166014671326,0.4415975511074066,0.00385436152098,0.0149767867517307,-0.0111252903418852,-0.0045021949335932,0.0026025443803519,-0.004360114224255,0.0617375843552872,0.2451081721298397,-9.811922564506531,14933.0
5.7,0.699999988079071,14.0,25.744667053222656,0.1351801604032516,-79.78284117694734,40.45891663381072,268.7074644665718,0.012947941198945,-0.0024345044512301,0.8971172571182251,0.441596120595932,0.0044310184627533,0.0142690358381479,-0.0109536905563359,0.005124804098159,-0.0012732454342767,0.0052278684452176,0.0633080140035599,0.2437922379747033,-9.811317962408069,14933.0
5.9,0.699999988079071,17.0,25.748422622680664,0.0,-79.78284129813768,40.458916597329775,268.6895212035179,0.0129336565732955,-0.0024322955869138,0.897108793258667,0.4416136145591736,0.0053880614049857,0.0122578707572438,-0.0112489184105579,0.0085578216239809,0.0030748511198908,0.0033164750784635,0.0605230856873095,0.2547822077013552,-9.8104525744915,14933.0
6.0,0.8000000119209291,17.0,25.748422622680664,0.0159035474061965,-79.78284131334674,40.45891659450476,268.68843806791307,0.0129302162677049,-0.0024260601494461,0.897117018699646,0.4415971934795379,0.004886377966375,0.0117996609649191,-0.0109013405756682,-0.0006086360663175,-0.0018933673854917,0.0008325487142428,0.0607597882859408,0.2499528461135924,-9.81166294813156,14933.0
6.2,0.8000000119209291,22.0,25.744667053222656,0.0,-79.7828414384625,40.45891654469693,268.67197770881654,0.0129498718306422,-0.0024217697791755,0.8971226811408997,0.4415850937366485,0.0033293445312477,0.0121898863143647,-0.0079527240075997,-0.0036384786944836,-0.0033784271217882,0.0028365131001919,0.0606470786361023,0.2505903936177492,-9.810868896245958,14933.0
6.31,0.8999999761581421,31.0,25.74717140197754,0.0159035474061965,-79.78284156856269,40.4589165158483,268.65390772628785,0.0129664195701479,-0.0024342923425138,0.8971161842346191,0.4415978789329529,0.0066922321016151,0.0137901525407033,-0.009883688737213,0.0012463661842048,-0.0007245861925184,-0.0051416177302598,0.0599771704478189,0.2561121751740575,-9.809374347925187,14933.0
6.5,0.8999999761581421,30.0,25.7434139251709,-0.0079517737030982,-79.78284160366023,40.458916511126354,268.6520265440941,0.0129626728594303,-0.0024701231159269,0.8971315622329712,0.4415664374828338,0.0065603958484544,0.0126446141471273,-0.0093847708043108,-0.0044830786064267,-0.0009360860567539,-0.0083150444552302,0.0629785919236019,0.2431049891375005,-9.81127469301224,14933.0
6.6,1.0,36.0,25.74591827392578,0.0159035474061965,-79.7828416915562,40.45891646682576,268.63594765472413,0.0129779838025569,-0.0024635638110339,0.8971288800239563,0.441571444272995,0.0028746597303252,0.0108003856448946,-0.0075465855797748,0.0051275980658829,0.0021416656672954,0.0054743811488151,0.0616250071814283,0.2447393407300115,-9.811356554031374,14933.0
6.8,1.0,39.0,25.7434139251709,0.0079517737030982,-79.78284182295926,40.45891643288535,268.61771751451494,0.0129725383594632,-0.0024656853638589,0.8971289396286011,0.4415715336799621,0.0055821293728847,0.0119733927958217,-0.0089069772878869,0.0029635727405548,0.0001533786853542,0.0046955971047282,0.0604810177115723,0.2543709657154977,-9.81021283864975,14933.0
6.9,1.0,44.0,25.734649658203125,-0.0238553211092948,-79.78284183797714,40.4589164301548,268.6168681483269,0.0129725718870759,-0.0024679882917553,0.897128701210022,0.441571980714798,0.0049374624028339,0.0115152679982325,-0.0085630720947102,-0.0029291997198015,0.0003874243993777,0.0001910358696477,0.0618209208827465,0.248904714435339,-9.811002212762832,14933.0
7.1,1.100000023841858,49.0,25.74591827392578,0.0079517737030982,-79.78284193851798,40.45891638634268,268.59996301937105,0.0129749327898025,-0.0024715045001357,0.8971284031867981,0.4415724873542785,0.001642862949781,0.0098299938450263,-0.0068980221147287,-0.0036819532979279,-0.0028611721936613,0.0035366604570299,0.0620347508182749,0.2519976356998086,-9.80934920489788,14933.0
7.2,1.100000023841858,49.0,25.72338104248047,-0.0795177370309829,-79.78284194886417,40.45891638245378,268.59929634141923,0.0129749327898025,-0.0024715045001357,0.8971284031867981,0.4415724873542785,0.0016890747242826,0.009246997522624,-0.006647481077287,0.002364577492699,-0.0025654297787696,-0.0041924156248569,0.0614247080683708,0.2568050154112279,-9.809469072818755,14933.0
7.4,1.0,50.0,25.72713851928711,-0.055662415921688,-79.78284206733007,40.45891635383382,268.58029277133943,0.0129709737375378,-0.0024736952036619,0.8971273303031921,0.4415746927261353,0.0029782911833025,0.0088202375259219,-0.0087407426039822,-0.003577523631975,-0.0025510799605399,-0.0088830851018428,0.0634296360891312,0.2435063274018466,-9.811053668260575,14933.0
7.5,1.0,42.0,25.735902786254893,-0.0715659633278846,-79.78284207783017,40.45891635172378,268.57944030570985,0.0129562877118587,-0.0024784049019217,0.8971274495124817,0.4415748417377472,0.003857537955319,0.007998692833652,-0.0086064608266209,0.0062363776378333,-0.0005172220407985,0.0050062942318618,0.0625484378496185,0.2465888333134353,-9.81068178534508,14933.0
7.7,1.0,44.0,25.71962547302246,-0.0636141896247863,-79.78284219898958,40.45891634841085,268.5631389122009,0.0129269883036613,-0.0024766218848526,0.8971335291862488,0.4415635466575623,0.0081487116374255,0.0056170028709174,-0.0061882375594683,0.0044337324798107,0.0008663033368065,0.0004669253248721,0.060385306100361,0.2532894500903785,-9.811053668260575,14933.0
7.81,1.0,42.0,25.72964286804199,-0.0795177370309829,-79.78284229960137,40.458916322802686,268.5473952393532,0.0129178753122687,-0.0024740460794419,0.8971396684646606,0.4415512681007385,0.0075221618020273,0.0065942174783761,-0.0053485632580336,-0.0010980832157656,-0.0011459520319476,0.0021911202929914,0.061869352273643,0.2458782687038183,-9.8112349319458,14933.0
8.0,1.0,44.0,25.735902786254893,-0.1192766055464744,-79.78284232224244,40.458916327486,268.5464306573868,0.0129152573645114,-0.0024562580510973,0.8971444964408875,0.4415416717529297,0.008152351676069,0.0053608469359566,-0.0048539496307969,0.0027289921417832,-0.000609875540249,0.0069197556003928,0.0595622876565903,0.2552838439866901,-9.809137535691262,14933.0
8.1,1.0,41.0,25.7333984375,-0.1192766055464744,-79.78284246204021,40.45891626362557,268.5288163523674,0.0129007771611213,-0.0024677265901118,0.8971483707427979,0.4415340721607208,0.0041221857177154,0.0162873517850333,-0.0071665251870882,-0.0044515365734696,0.0035772540140897,-0.0076518501155078,0.0602280297037214,0.2580301898159087,-9.810418660640716,14933.0
8.3,1.0,40.0,25.73965835571289,-0.1590354740619659,-79.78284253141942,40.45891622421011,268.5127247672081,0.0129098547622561,-0.0024551099631935,0.8971572518348694,0.4415157735347748,-0.0025204296075966,0.0093036723704649,-0.0050892800567376,-0.0073908404447138,-0.0013079989003017,-0.0090916976332664,0.0639738337090239,0.2442986251227557,-9.811574070453643,14933.0
8.4,1.0,38.0,25.73965835571289,-0.1510837078094482,-79.78284253854926,40.4589162178231,268.5122269492149,0.0129151018336415,-0.0024708316195756,0.8971563577651978,0.4415174126625061,-0.0016744732706501,0.0086481258579209,-0.0049346540029277,0.0049951560795307,0.0006093500996939,0.0079097542911767,0.0631767074670642,0.2440665637515485,-9.810922690629962,14933.0
8.6,1.0,37.0,25.72463417053223,-0.1272283792495727,-79.7828426601022,40.4589162323996,268.49598575639726,0.0128972325474023,-0.0024530366063117,0.8971577882766724,0.441515177488327,0.0077914370749457,0.0038760065013873,-0.0043046133353795,0.004931703209877,0.0044712903909385,0.0018731395248323,0.0609089562389999,0.2545687477849424,-9.809915800094606,14933.0
8.7,0.8999999761581421,28.0,25.73214530944824,-0.1590354740619659,-79.78284266896286,40.458916235747424,268.49558998155595,0.0128972325474023,-0.0024530366063117,0.8971577882766724,0.441515177488327,0.0072038025803501,0.0034895384727014,-0.0040337364257367,-0.0054420307278633,-0.0007626365986652,-0.0034249254968017,0.0613820919161662,0.2522631906531751,-9.810092386007309,14933.0
8.9,0.8000000119209291,29.0,25.7333984375,-0.1510837078094482,-79.78284278124406,40.458916249314775,268.48025317001344,0.0128929624333977,-0.0024523872416466,0.8971566557884216,0.4415175020694733,0.0114930505095449,0.001229289937081,-0.0035886977891319,0.0005838485085405,-0.0038300182204693,0.0005699894973076,0.0622841985197737,0.2485188712924719,-9.81125481247902,14933.0
9.0,0.8000000119209291,27.0,25.735902786254893,-0.1351801604032516,-79.78284279065775,40.45891625734806,268.4799362521172,0.0128929624333977,-0.0024523872416466,0.8971566557884216,0.4415175020694733,0.0121629501081999,0.0005508483527556,-0.003366410071269,0.0016023733187466,0.0013952609151601,-1.96011988009559e-05,0.0617655230825767,0.2530161110311746,-9.809469657540324,14933.0
9.2,0.699999988079071,27.0,25.73089408874512,-0.1510837078094482,-79.78284290756079,40.45891619573347,268.4622837703228,0.0128957536071538,-0.0024683084338903,0.8971564769744873,0.4415178000926971,0.0039925371423684,0.007749639509296,-0.0057686799249156,0.0015967458020895,-0.0009818829130381,-0.0018865186721086,0.0627594035631045,0.246170757394284,-9.811907361745837,14933.0
9.3,0.699999988079071,36.0,25.73214530944824,-0.1351801604032516,-79.78284303334063,40.45891615245435,268.4448640446663,0.0128930276259779,-0.0024789967574179,0.8971565365791321,0.4415176808834076,0.0021100310667482,0.014556318537753,-0.0083084317879694,0.0013215562794357,-0.0010688671609386,0.0045298701152205,0.0630067590577528,0.2444197173044085,-9.811079396009443,14933.0
9.5,0.699999988079071,43.0,25.73965835571289,-0.1590354740619659,-79.78284306328369,40.45891614024125,268.4432828526497,0.0128932297229766,-0.0024673868902027,0.8971617221832275,0.4415070712566376,0.0026561955271837,0.0134772700785899,-0.0078741601903001,0.0047534257173538,-0.000185600030818,0.0053484188392758,0.0600513341557234,0.2576873237080872,-9.809762018322946,14933.0
9.6,0.6000000238418579,49.0,25.73715400695801,-0.1669872552156448,-79.78284314811863,40.45891611358103,268.42765099811555,0.0128996418789029,-0.0024580275639891,0.8971734046936035,0.4414834082126617,-0.0008829458815033,0.0116159462082176,-0.0062637229769296,-0.0065033347345888,-0.0015726980054751,-0.0069606318138539,0.0599497068068012,0.2557630781270564,-9.810577704906462,14933.0
9.8,0.5,47.0,25.7333984375,-0.1590354740619659,-79.782843280516,40.45891610951877,268.4115350048542,0.0128895724192261,-0.0024165755603462,0.89717036485672,0.4414899945259094,0.0059013380714614,0.0108217828209563,-0.0052422683661315,-0.0030886225868016,-0.001543769496493,-0.0014456019271165,0.0625487621873617,0.2455828746780753,-9.812025475502017,14933.0
9.9,0.4000000059604645,44.0,25.73965835571289,-0.1590354740619659,-79.78284329513828,40.45891610832607,268.41104225325586,0.0128792384639382,-0.0024102106690406,0.8971707224845886,0.4414896070957184,0.0066431275130321,0.0101081244192512,-0.0050337679545292,0.0032482575625181,0.003054677741602,0.0013999481452628,0.0612253088783472,0.2531190037541092,-9.81025844693184,14933.0
10.1,0.4000000059604645,51.0,25.7434139251709,-0.1431319266557693,-79.78284339595807,40.45891606701368,268.3948705892563,0.0128902429714798,-0.002386859152466,0.8971845507621765,0.4414613246917725,-5.640087655948055e-06,0.0105597159852732,-0.0041245194230821,-0.0020708623342216,-0.0002397409261902,-0.0075362515635788,0.0624883714132011,0.2445235967449844,-9.81182900905609,14933.0
10.2,0.3000000119209289,59.0,25.73715400695801,-0.1590354740619659,-79.7828434057393,40.45891606171308,268.39447567868234,0.0129079045727849,-0.0023642696905881,0.8971869349479675,0.4414561092853546,0.0007553485909761,0.0097311004077848,-0.0039989347572542,0.0029023343231529,0.0011287571396678,0.0038509471341967,0.0635360234370455,0.2443092049285769,-9.811029109954834,14933.0
10.4,0.3000000119209289,62.0,25.73965835571289,-0.1510837078094482,-79.78284351061448,40.4589159969176,268.3759687345028,0.0129055082798004,-0.0023595774546265,0.8971793651580809,0.4414715766906738,-0.006054433376437,0.0120887979600205,-0.0065553775763519,0.0045022815465927,0.0024121215101331,0.0001072700833901,0.0604597804415971,0.2531985989771783,-9.810714529752731,14933.0
10.5,0.3000000119209289,61.0,25.735902786254893,-0.1510837078094482,-79.7828435172728,40.45891598608775,268.3753239314556,0.0129064861685037,-0.0023478211369365,0.8971830010414124,0.4414642751216888,-0.0062613078830695,0.0114542316767247,-0.006283666315058,-0.0027796728536486,-0.0027026138268411,0.0007325811311602,0.0614382708678022,0.2463581423833966,-9.811974020004271,14933.0
10.7,0.3000000119209289,63.0,25.734649658203125,-0.1351801604032516,-79.78284367628444,40.45891605073509,268.3589958648682,0.0128893665969371,-0.0023369702976197,0.8971819281578064,0.4414668679237366,0.0112503013514981,0.0054192007276168,-0.005299032771063,0.0015352523187175,-6.746374856447801e-05,0.0074573424644768,0.0603568237647414,0.2566791723668576,-9.809541578292848,14933.0
10.81,0.4000000059604645,58.0,25.749675750732425,-0.0715659633278846,-79.78284377979494,40.45891603334271,268.34381035971643,0.0128902476280927,-0.002342659048736,0.897182047367096,0.4414668381214142,0.0078217678104426,0.0077353062937946,-0.0044573434965665,-0.0033744554966688,-0.0008435790077783,-0.004205860197544,0.0596880484744906,0.2546447981335223,-9.810870065689087,14933.0
11.0,0.4000000059604645,53.0,25.74216270446777,-0.0795177370309829,-79.78284380536779,40.45891603778072,268.3429886798859,0.0128892008215188,-0.0023447189014405,0.897181510925293,0.4414677321910858,0.008552038609471,0.0063331445259689,-0.0042172623866954,0.0007383091142401,-0.0026669013313949,-0.0003411860088817,0.0632701532822102,0.247944638170302,-9.81123376250267,14933.0
11.1,0.4000000059604645,42.0,25.75092697143555,-0.0636141896247863,-79.78284391554786,40.45891602067175,268.32725049066545,0.0128897884860634,-0.0023525862488895,0.8971810340881348,0.4414686262607575,0.00660481548841,0.0084065108912658,-0.0038806371037296,0.0021918546408414,-0.0006260132067836,-0.0015425344463437,0.0596555142011493,0.2561578565463424,-9.810136824846268,14933.0
11.3,0.4000000059604645,39.0,25.754682540893555,-0.0636141896247863,-79.7828440389834,40.45891602319457,268.3112783532143,0.0128877321258187,-0.0023538775276392,0.8971810340881348,0.4414686560630798,0.0072307341715896,0.0079823789446609,-0.0036454301927261,-0.0014485014835372,0.0005299612530507,-0.0043996954336762,0.0628583722561597,0.2442301578819752,-9.811001043319704,14933.0
11.4,0.5,38.0,25.749675750732425,-0.0715659633278846,-79.78284405173996,40.45891602454133,268.3109470407963,0.0128869535401463,-0.0023559376131743,0.8971805572509766,0.4414696395397186,0.0081725223204906,0.0070302697994384,-0.0034304416951057,0.0029392782598733,-0.0013726942706853,0.0043505248613655,0.0619766167039051,0.247677036691457,-9.81144543170929,14933.0
11.6,0.5,40.0,25.752178192138672,-0.0715659633278846,-79.78284417591406,40.45891603194658,268.2978373568058,0.0128853740170598,-0.0023605027236044,0.8971801400184631,0.4414706826210022,0.0082433777542055,0.0069055233876327,0.0010097608702005,0.0009594922885298,0.0014815436443313,-0.002444292185828,0.0606588644301518,0.2469022075273097,-9.81203716993332,14933.0
11.7,0.4000000059604645,30.0,25.749675750732425,-0.0636141896247863,-79.78284418810351,40.45891603444847,268.29796598362924,0.0128853740170598,-0.0023605027236044,0.8971801400184631,0.4414706826210022,0.0090546242159046,0.0059857320750579,0.0009868359106395,0.005384562537074,-0.0041783596388995,0.0061284396797418,0.0616296529769897,0.2450095734559,-9.810021049976353,14933.0
11.9,0.4000000059604645,34.0,25.748422622680664,-0.055662415921688,-79.7828442890765,40.458916031920815,268.28177965688707,0.0128866946324706,-0.0023650515358895,0.8971794843673706,0.4414718151092529,0.0059880747180296,0.0052950590450029,-0.0019377734731761,0.0014325134688988,0.0007810163078829,-0.0018628840334713,0.0601054757181555,0.2505022285692393,-9.810230380296709,14933.0
12.0,0.4000000059604645,38.0,25.75092697143555,-0.0715659633278846,-79.78284429814656,40.458916033541854,268.2816162507534,0.0128866946324706,-0.0023650515358895,0.8971794843673706,0.4414718151092529,0.0064411479689995,0.0045758184319377,-0.001736037830233,0.0021006651222705,0.0001972496829694,0.0060697006992995,0.0631514822132885,0.2444397805631161,-9.81193893671036,14933.0
12.21,0.4000000059604645,44.0,25.754682540893555,-0.0318070948123931,-79.78284441985129,40.45891603057621,268.26704905438424,0.0128865083679556,-0.0023731891997158,0.8971786499023438,0.4414734542369842,0.0051452189273552,0.0067250904853735,-0.0016129302742517,0.0036232871934771,0.003479657927528,0.0005719824694097,0.0616418316308409,0.2543581201136112,-9.811052498817444,14933.0
12.3,0.4000000059604645,49.0,25.754682540893555,-0.0159035474061965,-79.78284442955872,40.45891603061378,268.26691592741014,0.0128865083679556,-0.0023731891997158,0.8971786499023438,0.4414734542369842,0.0051826258311382,0.0061378007372382,-0.0014164465935291,-0.0006797359092161,-0.0005963781150057,0.0058649177663028,0.063354558753781,0.2449632890895009,-9.81234590291977,14933.0
12.5,0.4000000059604645,47.0,25.75092697143555,-0.0715659633278846,-79.78284458364708,40.45891604999005,268.24983487534524,0.0128785073757171,-0.002377325668931,0.8971779942512512,0.4414750337600708,0.0091803188381658,0.0083206131438198,-0.0051077858560926,0.0054736193269491,-0.0015481935115531,0.0034686382859945,0.0603196117188781,0.2572546662949025,-9.810254938602448,14933.0
12.6,0.4000000059604645,46.0,25.748422622680664,-0.0715659633278846,-79.78284470344533,40.4589160188038,268.2334446709156,0.0128825809806585,-0.0023920824751257,0.8971773982048035,0.4414759874343872,0.0011470286078723,0.0144940380689021,-0.0077492065368856,-0.0043608071282505,-0.0032698297873139,0.0004504047974478,0.0615588194411248,0.2478187951259315,-9.811554189920423,14933.0
12.8,0.4000000059604645,48.0,25.74717140197754,-0.0715659633278846,-79.78284484850721,40.458916061009376,268.2194116513729,0.0128733236342668,-0.0023850963916629,0.8971775770187378,0.4414759278297424,0.0104291998255865,0.010861275578626,-0.0062948004547177,0.0032718752045184,0.0002155541587853,0.0061989109963178,0.0608891625003889,0.2574885366484523,-9.809519358873366,14933.0
12.9,0.4000000059604645,51.0,25.73715400695801,-0.0715659633278846,-79.78284486600363,40.45891606242591,268.21882859873773,0.0128732798621058,-0.0023870388977229,0.8971768617630005,0.4414774775505066,0.01001015076263,0.0104115787555598,-0.0059961789851775,-0.0044515784829854,0.000757755129598,-0.0044799805618822,0.0610331410495564,0.2539994117058813,-9.811534309387207,14933.0
13.1,0.4000000059604645,51.0,25.7434139251709,-0.0795177370309829,-79.7828449801316,40.4589160771441,268.20491799223424,0.0128771774470806,-0.0023911416064947,0.8971768021583557,0.4414773881435394,0.0063544826721544,0.0086031608997911,-0.0049569927117335,-0.0018535937415435,0.0002153059467673,0.0024968306533992,0.0619161345669999,0.2503828174620867,-9.809857912659645,14933.0
13.2,0.4000000059604645,54.0,25.744667053222656,-0.0715659633278846,-79.78284499262041,40.45891607739853,268.2044537614584,0.0128771774470806,-0.0023911416064947,0.8971768021583557,0.4414773881435394,0.0065498257870199,0.0078553086453909,-0.0047581594779118,-0.0009492641547694,0.0003946758224628,-0.0024403482675552,0.0594282265333458,0.2570625852607191,-9.80921296477318,14933.0
13.4,0.4000000059604645,57.0,25.74717140197754,-0.0795177370309829,-79.78284515111696,40.45891608640604,268.1910870473385,0.012875135987997,-0.0024072125088423,0.8971745371818542,0.4414819478988648,0.0069980215129602,0.0123370773885023,-0.0038060853808074,-0.0028317305259406,-9.59583921940066e-05,-0.0049268272705376,0.0631978716468438,0.2439846479147673,-9.811937767267226,14933.0
13.5,0.4000000059604645,50.0,25.75343132019043,-0.055662415921688,-79.78284516778345,40.45891608526809,268.1907414149046,0.0128745315596461,-0.0024010394699871,0.8971732854843141,0.4414844810962677,0.0079863228607665,0.0115201497802237,-0.003621960472281,0.003698723623529,-0.0004301887820474,0.0014041143003851,0.0613743078103289,0.2486015728488564,-9.811619678735733,14933.0
13.7,0.4000000059604645,45.0,25.75092697143555,-0.0636141896247863,-79.78284527602472,40.458916139395306,268.1773334394693,0.0128828519955277,-0.0023645071778446,0.897174596786499,0.4414817988872528,0.0093411615716228,0.0047004508206146,-0.0032029371792552,-0.0006097338045947,0.0011810946743935,-0.005392150953412,0.061640735277906,0.2466450579464436,-9.811886311769486,14933.0
13.8,0.4000000059604645,42.0,25.749675750732425,-0.0715659633278846,-79.7828453972119,40.4589161445617,268.1631486515999,0.0129093145951628,-0.0023542186245322,0.8971805572509766,0.4414690434932709,0.0060987562142831,0.0081983727973448,-0.005715121412031,0.0021818601526319,0.0021765038836747,0.0060940142720937,0.0624762795539572,0.2445692232996225,-9.811054837703708,14933.0
14.0,0.4000000059604645,42.0,25.749675750732425,-0.0954212844371795,-79.78284542042357,40.45891614485907,268.1621093403101,0.012918435037136,-0.0023304282221943,0.8971796035766602,0.4414709210395813,0.0065275059749489,0.006813302956839,-0.0051273031415777,0.0040289014577865,0.0012761118123307,0.0008402421372011,0.0611525521567091,0.2543345667980612,-9.81135304570198,14933.0
14.11,0.4000000059604645,42.0,25.74591827392578,-0.1033730581402778,-79.78284558836965,40.45891615662719,268.1497086088657,0.012927564792335,-0.0023358417674899,0.8971883058547974,0.4414529502391815,0.0088127071245979,0.014111843802744,-0.0043904247555249,-0.0026107423473149,-0.0008655913406983,0.0018470496870577,0.063460000497289,0.2458848833665252,-9.81219621419907,14933.0
14.3,0.4000000059604645,39.0,25.752178192138672,-0.0795177370309829,-79.78284573060095,40.458916203848325,268.1367999564409,0.0129265952855348,-0.0022997527848929,0.8971984386444092,0.4414325058460236,0.0125630411105817,0.0089061746473325,-0.003766918592188,0.0067360154353082,0.0034392105881124,0.004199197050184,0.0600525355758145,0.2577536530606449,-9.810852524042131,14933.0
14.41,0.5,43.0,25.718374252319336,0.2067461162805557,-79.78284574764413,40.458916207808606,268.1364743064642,0.0129262991249561,-0.0023025346454232,0.8971975445747375,0.4414343535900116,0.0121548710904784,0.008204503235135,-0.00349306659722,-0.0045800940133631,-0.0020362520590424,-0.0045372922904789,0.0608519961358979,0.2527454397641122,-9.810916843414306,14933.0
14.5,0.5,45.0,25.664535522460927,0.8190327286720276,-79.78284576408012,40.45891621267549,268.1361691157818,0.0129349194467067,-0.0022824665065854,0.8971777558326721,0.4414744675159454,0.0132365779333679,0.0073865007702368,-0.0034290364663867,0.0077953129075467,0.0014014353509992,-0.0019479506881907,0.0615872058458626,0.2392266040854156,-9.808632920980454,14933.0
14.7,0.6000000238418579,48.0,25.71586990356445,0.2226496636867523,-79.78284588371534,40.45891626461376,268.1230791460276,0.012929543852806,-0.0022879189345985,0.8971980810165405,0.4414331912994385,0.012159461731542,0.001872636453754,-0.0030550058403872,-0.0062150969170033,-0.0038805052172392,-0.0141849424690008,0.0614384764339774,0.2566575376689434,-9.807468155622482,14933.0
14.9,0.6000000238418579,49.0,25.71086120605469,0.2067461162805557,-79.78284606126623,40.45891629534,268.1104489068985,0.0129212094470858,-0.0023021064698696,0.8972334265708923,0.4413616955280304,0.0148398658307357,0.0063993463279734,-0.0029837019303989,-0.0070915920659899,0.0010365643538534,-0.0067588994279503,0.0656129453005269,0.2451217669062317,-9.809283716082572,14933.0
15.01,0.699999988079071,47.0,25.7046012878418,0.2226496636867523,-79.78284607865584,40.4589163032348,268.1101960490942,0.0129260998219251,-0.0022731034550815,0.8972207307815552,0.4413873255252838,0.0161420500880835,0.0053964182820893,-0.0029649514546975,0.0037401521112769,0.0028720756527036,-0.0005368492566049,0.0573421455547213,0.2472384772449732,-9.807405590415,14933.0
15.2,0.699999988079071,46.0,25.71586990356445,0.2703603208065033,-79.78284619924081,40.45891630150855,268.0974727447629,0.012944065965712,-0.0022973392624408,0.8972228765487671,0.4413822889328003,0.00792288027579,0.0069020135345101,-0.0026746951974522,-0.0013872332638129,0.001462782965973,-0.0083266599103808,0.0587542938161641,0.2454540897533297,-9.810989348888398,14933.0
15.3,0.8000000119209291,45.0,25.71211242675781,0.3101191818714142,-79.7828462874597,40.4589163101371,268.082998613596,0.0129447132349014,-0.002301373751834,0.8972269296646118,0.4413739740848541,0.0022574191934055,0.0039128114239448,-0.0062205315363801,0.0030863757710903,0.0030723987147212,0.0046788430772721,0.0642291697394102,0.2575794608518481,-9.809421125650406,14933.0
15.5,0.8999999761581421,44.0,25.702096939086918,0.3975887000560761,-79.78284629532739,40.45891630935396,268.0818075116277,0.0129495030269026,-0.0022809060756117,0.8972204327583313,0.4413873851299286,0.0025484928678479,0.002688462352957,-0.0058433204663819,0.0007270603091455,-0.000143458993989,-0.0010871748672798,0.0692335914820432,0.2515704600512981,-9.808402540683748,14933.0
15.6,1.0,44.0,23.58613204956055,18.59124755859375,-79.78284648297294,40.458916318614286,268.0672403525114,0.01294179353863,-0.0022096498869359,0.8972313404083252,0.4413657486438751,0.0055280436675603,0.0114344424443108,-0.0079157294436813,-0.0092491758987307,-0.0102309640496969,-0.0051666875369846,0.0924743276741355,0.3060000892169773,-9.809174373149872,14933.0
15.8,1.0,46.0,25.69333267211914,0.3657816052436829,-79.78284651102355,40.458916316913815,268.06568848598005,0.0128549523651599,-0.0021245796233415,0.8972904086112976,0.4412485361099243,0.002554946287737,0.010354779442885,-0.0080111702623983,-0.0311285760253667,-0.0128120137378573,-0.0187211595475673,0.0613860205141827,0.1688149996474385,-9.81521337747574,14933.0
15.9,1.100000023841858,49.0,25.71211242675781,0.1828908026218414,-79.78284662479982,40.4589163366846,268.05088956165315,0.0129144843667745,-0.0021423490252345,0.8972757458686829,0.4412765204906464,0.000784455430942,0.0081348228001198,-0.0100899744506559,-0.0288377273827791,-0.0090420627966523,0.0031789487693458,0.0650643348600715,0.2311565145850181,-9.799577922821047,14933.0
16.1,1.100000023841858,48.0,25.57438850402832,1.3358980417251587,-79.78284674919493,40.45891638421546,268.03789607691766,0.0127805965021252,-0.0020447839051485,0.8972935080528259,0.4412445724010468,0.006320892084004,0.0054035720234057,-0.0073005634478576,-0.0077976249158382,-0.0269448291510343,-0.0060567618347704,0.0553732372960075,0.2022652210481465,-9.817523027658462,14933.0
16.2,1.0,48.0,25.68581962585449,0.3578298389911652,-79.78284675697337,40.45891638657832,268.0370470907092,0.0128610469400882,-0.0021256180480122,0.8972958326339722,0.4412372410297394,0.0099322705758819,7.530094993210166e-05,-0.0091303354764375,0.030177166685462,0.0108901290223002,0.0054508191533386,0.0567076587025076,0.2336782359704375,-9.817054080963135,14933.0
16.4,1.0,47.0,25.71211242675781,0.2385532110929489,-79.78284685550862,40.45891640243768,268.0237352054119,0.0128724928945302,-0.0021588103845715,0.897283136844635,0.4412627220153809,0.0007328310470736,0.0008644242237833,-0.0066803196546491,0.0009126182994805,-0.0164311937987804,-0.0023390266578644,0.0513818867783993,0.2134471073560417,-9.815326813459397,14933.0
16.5,1.0,45.0,25.52180099487305,2.663844347000122,-79.78284685652194,40.45891640341192,268.0231255951822,0.0128726921975612,-0.0021973671391606,0.8972824811935425,0.4412637352943421,0.0019356263007429,-0.001431827765466,-0.0058819611512412,-0.0136711597442626,-0.0045358454808592,0.0165099427103996,0.0418217394361272,0.2441718319058418,-9.811698031425475,14933.0
16.7,1.0,50.0,25.23883819580078,5.07323169708252,-79.78284705669739,40.45891644151229,268.01000521960856,0.0128660118207335,-0.002133086323738,0.89731365442276,0.4412009418010712,0.0110971685873001,0.0049295619224462,-0.0054642129443398,0.013939625583589,0.0155653040856122,0.023420451208949,0.0784072972554713,0.2688613345474005,-9.814366700649265,14933.0
16.8,1.0,52.0,25.1436824798584,6.297804832458496,-79.78284706910961,40.45891644539152,268.00956218200923,0.0127784302458167,-0.0020574580412358,0.8973203897476196,0.4411900341510773,0.0094566227772896,0.0045028242795654,-0.0046265201991138,0.0270858518779277,0.023380184546113,-0.0012208706466481,0.0718963403999805,0.2670837078988552,-9.840406690835954,14933.0
17.0,0.8999999761581421,52.0,24.899532318115234,8.723095893859862,-79.7828471847618,40.45891648052624,267.99652942153807,0.0119450790807604,-0.0016884243814274,0.8973768353462219,0.4411000907421112,0.0076360447432228,0.0098244951777624,0.0039847077981109,-0.0743826180696487,-0.0040332386270165,0.0161707401275634,0.0561903217295184,0.1503789022844285,-9.831752811670304,14932.0
17.1,0.8999999761581421,54.0,24.77683067321777,10.4088716506958,-79.782847295101,40.45891653575329,267.9842093584612,0.0113516440615057,-0.0013865183573216,0.8974438309669495,0.4409805834293365,0.0226578402578545,-0.0019818444154992,-0.0032795922900247,0.1026497185230255,0.0828475132584571,0.0299598295241594,0.047956290920265,0.3512112905457616,-9.811665287017822,14932.0
17.3,1.0,56.0,24.49637222290039,13.613436698913574,-79.78284745535156,40.45891655892881,267.97246367542726,0.0099421013146638,-0.0004866376402787,0.8974853157997131,0.4409320950508117,0.0138609897625173,0.00406765359209,-0.0052085847317847,0.1196851953864097,-0.1433205306529998,-0.0330347493290901,0.0357186578493565,0.2650127520225942,-9.778041458129882,14932.0
17.41,1.100000023841858,60.0,24.32358932495117,15.625235557556152,-79.78284746793666,40.45891656374255,267.97228004579847,0.009278455749154,-8.091745257843286e-05,0.8975207209587097,0.4408748745918274,0.0176525021934771,0.0080098224141625,-0.0015834524304243,0.0682150870561599,0.0142144234851002,-0.0516854710876941,0.1536588704958558,0.3552190086990595,-9.820603340864182,14932.0
17.61,1.100000023841858,62.0,24.01683616638184,19.15582275390625,-79.78284760299279,40.45891661367921,267.95741459797324,0.0077766440808773,0.0003607780381571,0.8977112174034119,0.4405157566070557,0.0071343529307794,0.0071722244761265,0.0041989266868365,-0.0737063214182853,0.0089143076911568,-0.0211609434336423,-0.0389444114081561,0.2804995960369706,-9.793255328536034,14932.0
17.7,1.2000000476837158,60.0,23.911664962768555,20.4837703704834,-79.78284761377328,40.45891661001737,267.95820166613163,0.0082381442189216,-0.001326639088802,0.8977412581443787,0.4404441714286804,-0.0005797294148887,0.009593733425066,0.0146142600698705,0.0029510909225791,0.0433329604566097,0.0103081297129392,0.2383781548216939,-0.0465840087924152,-10.013304179906845,14932.0
17.9,1.2999999523162842,59.0,23.58613204956055,24.39604187011719,-79.78284778305138,40.45891657750959,267.945573351115,0.0129286991432309,-0.012216854840517,0.8975481390953064,0.4405576288700104,-0.0537442297969154,0.0597038828863233,0.0476430016049944,-0.0725529193878173,-0.1450643837451934,-0.0409447029232978,0.1208935042284429,-0.1275246944557875,-9.834903291463853,14932.0
18.0,1.399999976158142,58.0,23.42962455749512,26.24880599975586,-79.78284780788142,40.45891648879839,267.9529258839339,0.0116613190621137,-0.0180015936493873,0.8968899846076965,0.4417335689067841,-0.0856911418310661,0.0988077945589423,0.1039695330464686,-0.0935868695378303,-0.2433257400989532,0.1473293453454971,0.1562077448889613,-0.2240348982810974,-10.323211287260056,14932.0
18.2,1.399999976158142,57.0,23.73011779785156,21.827619552612305,-79.78284797464798,40.45891624537812,267.97260617334,0.0089035918936133,-0.0224825702607631,0.8951899409294128,0.4450285434722901,-0.1167212512084265,0.1673683492640884,0.3347255583162878,0.0357243940234184,0.1488547474145889,0.0447133816778659,0.1959684276022017,-0.0923060283623635,-10.873348910808566,14932.0
18.3,1.5,61.0,23.756410598754893,21.978702545166016,-79.78284818988034,40.45891599330944,267.9818245617226,0.0056436485610902,-0.0123307397589087,0.8946592807769775,0.4465434551239013,-0.1312260156328175,0.2113492451254806,0.3355445432901952,0.0424313582479953,0.0707305520772934,-0.0495486818253994,0.16201335394755,0.2601734501682222,-10.238927181959152,14932.0
18.5,1.5,63.0,23.71384048461914,21.461837768554688,-79.78284842330059,40.458915554167774,268.045104498744,-0.0005782750085927,0.0135454526171088,0.8943729400634766,0.4471167922019959,-0.1327807363451586,0.2437182695558308,0.2866802072921799,0.0949772298336029,0.1356670260429382,-0.0075163347646594,0.1607017138414085,0.1476048004534095,-9.842899943590163,14933.0
18.6,1.600000023841858,62.0,23.72385597229004,21.581113815307614,-79.7828483884093,40.45891511360636,268.04136275011297,0.0005217168945819,0.0224821995943784,0.8944393992424011,0.4466234147548676,-0.1289399117059401,0.2111662975382854,0.1960889578401043,0.1712081283330917,0.0046686767600476,0.0416609048843383,0.3500213456153869,-0.3010700276121497,-9.462252636551858,14933.0
18.8,1.600000023841858,65.0,23.62744903564453,22.630748748779297,-79.78284881515224,40.45891462716572,268.0604361693859,0.0023215624969452,0.0260074455291032,0.8951525688171387,0.4449946284294128,-0.0930771942389936,0.2125394217477104,0.1180717602220195,0.0726992338895797,0.0066603538580238,-0.0229277219623327,0.4236352690681816,-0.1090564465429634,-9.373500673770906,14933.0
18.9,1.5,62.0,23.5147647857666,23.91098403930664,-79.78284893515867,40.458914458044966,268.0725552390814,0.0027753964532166,0.0239343158900737,0.8955346345901489,0.4443392157554626,-0.0855202731685178,0.1808746864139024,0.1009483080635934,-0.0769388377666473,0.0943179801106453,0.0020249851513654,0.203674125932157,0.1441097643412649,-9.53920784175396,14933.0
19.1,1.5,62.0,23.55858612060547,23.4179744720459,-79.78284917035629,40.45891395981635,268.0962459321618,0.0041470141150057,0.0156755540519952,0.8966354727745056,0.4424725174903869,-0.0667983398714867,0.1527523948420844,0.0738105419765633,0.0236832685768604,-0.1963457912206649,0.0523696541786193,0.2029704866185784,0.2413731717690825,-9.493851574659349,14933.0
19.2,1.5,65.0,23.59239196777344,23.39411926269531,-79.7828492588164,40.45891382886308,268.1028065930605,0.0039584427140653,0.0110442219302058,0.8969205617904663,0.4420361816883087,-0.0556311303003598,0.1497624197536769,0.0371863651467927,0.0905599594116211,-0.1956017762422561,0.1115115955471992,0.2755064758658409,-0.2961413181759417,-9.46501252233982,14933.0
19.4,1.5,64.0,23.38329887390137,25.382062911987305,-79.7828494961099,40.458913686397175,268.1089554976225,0.0076504619792103,0.007682763505727,0.8966201543807983,0.4426678419113159,-0.0325732931284666,0.1284849028407097,0.0473365527224201,0.1255693286657333,0.1110923215746879,0.06128566339612,0.2331428137421608,-0.0761940621770918,-9.553700165748596,14933.0
19.5,1.399999976158142,66.0,23.430877685546875,24.9924259185791,-79.78284959132424,40.4589135807536,268.1139415602684,0.0083963368088006,0.0109426658600568,0.8964269757270813,0.4429768621921539,-0.0562699541701318,0.1355422221559854,0.0446697954778897,-0.1279417872428894,0.1842282414436341,-0.0995190665125846,0.2295468857511878,0.3226290406286716,-9.713280621170998,14933.0
19.7,1.399999976158142,63.0,23.348241806030277,24.9924259185791,-79.78284995771664,40.4589133026044,268.1212076048851,0.0077223717235028,0.0189916174858808,0.8957726955413818,0.4440394937992096,-0.0311957978387701,0.1399293094793746,0.0896419232788909,0.2445447444915771,-0.0222314056009054,0.0713515281677246,0.1242010548524558,0.1303657194972038,-9.764961821436884,14933.0
19.8,1.399999976158142,60.0,24.63284492492676,11.617541313171388,-79.78285018106159,40.458913146635545,268.11516259121896,0.0052610514685511,0.0239054299890995,0.8954816460609436,0.444425106048584,-0.0603418835163101,0.1480728549760002,0.0779001175012025,0.0102959433570504,0.1316631138324737,-0.0150170736014843,0.320459467805922,-0.0019677890650928,-9.48498953461647,14933.0
20.0,1.399999976158142,59.0,23.18672752380371,28.37988090515137,-79.78285036797911,40.45891294179391,268.1063349198103,0.0019232421182096,0.0249363258481025,0.8948145508766174,0.4457370936870575,-0.0233432543646809,0.1090410524420566,-0.1143907049706646,0.0919428914785385,-0.0633065104484558,0.0628780797123909,0.3418896593526006,-0.0897221072204411,-8.769291508197785,14933.0
20.1,1.2999999523162842,61.0,23.000171661376957,29.97818756103516,-79.7828507132112,40.458912868168575,268.10457787919046,0.0019744890742003,0.0226654578000307,0.8942793607711792,0.4469305574893952,-0.0315116000379377,0.1010419996701041,-0.031332940533362,-0.1476244181394577,0.0156937427818775,-0.0187797620892524,0.1927498094737529,0.0244482410419732,-10.022536933422089,14933.0
20.3,1.2999999523162842,63.0,22.814868927001957,31.783241271972656,-79.78285093282685,40.45891278566081,268.0979819621444,0.0039505851455032,0.0170921087265014,0.893527626991272,0.4486655592918396,0.0086690237962844,0.0783356014578737,0.1650800777718277,0.1124486774206161,-0.0823415368795394,0.1029164344072342,0.2947560579702258,-0.0065812239423394,-10.548973453044892,14933.0
20.4,1.399999976158142,62.0,22.39668273925781,37.15068817138672,-79.78285099792217,40.45891274358889,268.121582726717,0.0035251642111688,0.0121061988174915,0.8932462930679321,0.4493908882141113,0.0039538019791699,0.0699808809047183,0.3152361882996832,0.060117419809103,-0.0200546998530626,0.0137636819854378,0.1680166537128389,-0.0605084539437666,-11.243777039051055,14933.0
20.6,1.399999976158142,61.0,22.253950119018555,39.53622055053711,-79.78285105324295,40.458912710221206,268.16404950129987,0.0046037244610488,0.0114612411707639,0.8929705619812012,0.4499457478523254,0.0040664014172184,0.0598897430704824,0.5465385083912842,0.0300216060131788,0.0833444073796272,0.0063990135677158,0.1766094477474689,0.0527730490174144,-11.948995685577396,14933.0
20.7,1.5,58.0,22.26521682739257,38.5979118347168,-79.78285126972315,40.45891269700488,268.29020077991487,0.0009001059806905,0.0168991014361381,0.8934317827224731,0.4488800466060638,-0.0016186257389,0.0886518543551583,1.0743442744644058,-0.0328443981707096,0.0383521653711795,-0.0750792995095253,0.3184325304999948,-0.1380214241333306,-12.483141174316405,14933.0
20.9,1.600000023841858,55.0,22.04861259460449,40.51428985595703,-79.78285159007399,40.45891271238117,268.5288446645737,0.0039131212979555,0.0127082159742712,0.8938990235328674,0.4480713009834289,-0.0086307778841391,0.1161489641129789,1.6256670013522558,-0.1142260953783989,-0.0293896943330764,0.0140964426100254,0.3792004866153002,-0.2029561609402299,-12.549429888725284,14933.0
21.0,1.7999999523162842,55.0,22.19635581970215,39.85429000854492,-79.78285166845305,40.4589126923436,268.7061548333168,0.0072054010815918,0.0091399420052766,0.8941629528999329,0.4475905001163482,0.0008258078003926,0.1162127678737484,1.9128162968131008,-0.1292712986469268,-0.0506517328321933,-0.0470425710082054,0.3226423795893789,-0.2060997702553868,-12.707785352468491,14933.0
21.1,1.8999999761581416,53.0,22.08617401123047,40.76079177856445,-79.78285195596298,40.45891277769946,268.8675702314377,0.0079161338508129,0.012143200263381,0.8947187066078186,0.4463947713375092,0.0226948639705729,0.1102783293520602,2.139160890270747,-0.1185111403465271,0.1182694062590599,0.0050532654859125,0.1956617959588766,-0.1024900325015187,-12.535177885293963,14933.0
21.3,2.0999999046325684,54.0,22.20887565612793,39.56007385253906,-79.78285230154623,40.45891285288464,269.266330192566,0.0049686152487993,0.0221280567348003,0.8956572413444519,0.4441664814949036,0.0285278152209764,0.1575223469963784,2.577387707448941,0.0242879334837198,0.0124691957607865,0.066454030573368,0.2834901179373264,-0.1500307828187942,-12.415967191457751,14934.0
21.41,2.200000047683716,56.0,22.21138000488281,38.97164535522461,-79.78285238866745,40.45891287637685,269.5361859302521,0.001995975151658,0.0250181071460247,0.895910382270813,0.443525493144989,0.0379453030883898,0.14700355124896,2.8083010219592266,0.0253950878977775,0.0976096093654632,-0.0210804846137762,0.1688090976141393,0.0126526506221853,-12.213163533210755,14934.0
21.6,2.400000095367432,58.0,22.59450721740723,33.381546020507805,-79.78285282213676,40.45891308122063,269.9892832736969,0.0038636834360659,0.024696359410882,0.8976628184318542,0.4399735033512116,0.076875955272042,0.144173080996696,3.0017943104269564,-0.0049352888017892,-0.0316476188600063,-0.0036380516830831,0.1686880602501332,0.0010960971191525,-11.203200870752337,14934.0
21.8,2.5999999046325684,59.0,22.70969581604004,32.196731567382805,-79.78285313006843,40.45891333813525,270.49369211006166,0.0170429330319166,0.0174525082111358,0.8985806107521057,0.4381299316883087,0.1791356997729608,0.0977926593853785,3.049564214809452,0.042534802109003,0.0281508844345808,-0.0191166661679744,0.1923689364641904,0.1799336629360914,-10.796350436210632,14935.0
21.9,2.700000047683716,58.0,22.50561141967773,33.492870330810554,-79.78285320038721,40.45891347793986,270.8008117179871,0.0198672953993082,0.0170937776565551,0.8985653519630432,0.4380564391613007,0.2209009448098378,0.0802656779770074,3.091134018761061,0.1110221892595291,0.021101027727127,0.0431061871349811,0.2541733115538955,0.2599082789383829,-10.336103228330613,14935.0
22.0,2.799999952316284,52.0,22.75602149963379,29.81120109558105,-79.78285324599484,40.4589136263596,271.1130580406189,0.0218946859240531,0.0180026143789291,0.8980671763420105,0.4389441907405853,0.2291520797119367,0.0664348490231135,3.1438208324472288,0.0879562348127365,0.0303090196102857,0.0481970943510532,0.2540288305096328,0.2138994260318577,-10.285975048542024,14936.0
22.2,3.0,54.0,22.973878860473643,27.25072860717773,-79.7828534842237,40.458913965449206,271.6359004478455,0.0181288868188858,0.020556453615427,0.8968471884727478,0.4414907991886139,0.2176186932212898,0.0598986633037133,3.0577045573987696,0.1587935388088226,-0.0329502113163471,0.0490404032170772,0.4031085088849068,0.1276406794600189,-9.695940703153608,14936.0
22.4,3.0,58.0,22.926300048828125,28.849035263061523,-79.78285382926477,40.4589142719913,272.15795082855226,0.0102843968197703,0.0225539710372686,0.8964173197746277,0.4425174295902252,0.1676621171655924,0.0249422221109091,2.8935912600741096,0.0532029457390308,-0.0337855406105518,0.0584432817995548,0.3033484317362309,0.1464643832668662,-9.341435127854346,14937.0
22.5,3.0999999046325684,72.0,22.82738876342773,29.413612365722656,-79.78285382106644,40.45891445745345,272.4455093841553,0.0117398472502827,0.0217011179774999,0.89654940366745,0.4422561824321747,0.1519578391825489,0.0050010553254038,2.864960011144818,-0.1039672344923019,-0.1007968187332153,-0.0074519575573503,0.3635471614077688,0.0270111144916154,-9.462700533270835,14937.0
22.7,3.0,76.0,22.92254447937012,27.84711265563965,-79.78285435863296,40.45891493523064,272.8208813171387,0.0212426465004682,0.0128532256931066,0.8963736891746521,0.4426034688949585,0.2273045275677323,-0.0147352961173601,2.6972071387802723,-0.1127104461193084,0.0076685990206897,0.0159777235239744,0.3190665879473089,0.126901308177039,-9.535580813884737,14937.0
22.8,3.0,79.0,22.85243034362793,29.469274520874023,-79.78285486521814,40.45891514542279,273.29365868377687,0.023551033809781,0.0105752814561128,0.8960041403770447,0.4432945847511292,0.2753058084042434,-0.0170781686019647,2.7408915743404183,-0.0239920746535062,-0.1032600328326225,0.0277856905013322,0.2952247671224177,0.202633760087192,-9.56321358561516,14938.0
22.9,3.0999999046325684,79.0,22.972625732421875,27.64831733703613,-79.78285488541336,40.45891535602609,273.5671562652588,0.0241564679890871,0.0100663052871823,0.8953325748443604,0.4446287453174591,0.2834673111707581,-0.0260329003695972,2.721274147307511,0.0342056863009929,-0.0339102819561958,0.0062851510010659,0.2867948363162577,0.2912703499943018,-9.572266829609871,14938.0
23.1,3.0,79.0,22.886234283447266,28.268556594848643,-79.78285527437627,40.45891583198363,274.3291878204346,0.0196535643190145,0.0079040955752134,0.8939994573593141,0.4475671648979187,0.2709700163327894,-0.0075691594504932,2.7847019956455314,0.0246226843446493,0.0008310316479764,-0.0828983932733535,0.371394526809454,0.3961355945840478,-9.764204607009887,14939.0
23.3,3.0,76.0,22.89875602722168,28.23674964904785,-79.78285530115112,40.45891601583117,274.6085562210083,0.0163285657763481,0.0068353181704878,0.8937183022499084,0.4482792615890503,0.2556401054634378,-0.0156069461137257,2.7897217412227007,0.0543167442083358,-0.017361344769597,-0.0260749366134405,0.4219377492740751,0.2224573925882578,-9.820273557901382,14939.0
23.4,2.900000095367432,75.0,22.91127586364746,28.45939826965332,-79.78285550201558,40.4589163420539,275.3291935424805,0.0148465242236852,0.0041806967929005,0.8934229612350464,0.4489518404006958,0.225283668581244,-0.0139169477152306,2.846381128746464,0.0511841587722301,-0.1055360436439514,0.0714607238769531,0.3445607040077448,-0.0235906372312456,-9.71099377512932,14940.0
23.6,2.799999952316284,77.0,22.927553176879893,27.68807601928711,-79.78285526068194,40.45891670899589,276.0348896484375,0.017036709934473,-0.0007245941087603,0.8938506841659546,0.4480405151844025,0.1880371775045699,-0.0261320241865264,2.9053015113236,-0.1586066335439682,-0.0077932453714311,-0.076872169971466,0.2749694091081619,0.1081801590509712,-9.736713337898257,14941.0
23.7,2.700000047683716,90.0,23.03022003173828,26.447599411010746,-79.78285526968489,40.45891683773716,276.32633728790285,0.018803471699357,1.7153239241451956e-05,0.8938934803009033,0.4478850662708282,0.2079973390236646,-0.0403463165918185,2.9156956236783325,0.0487704798579216,0.0051118158735334,0.0185234434902668,0.2282250130176544,0.0608335362933576,-9.92118948340416,14941.0
23.9,2.700000047683716,89.0,22.98765182495117,27.266632080078125,-79.78285564132672,40.45891690978385,276.69457669067384,0.0177986808121204,0.0061477557756006,0.8942945599555969,0.4470824003219605,0.2144638622064048,0.0145289717972521,2.9302187849185275,0.1237495243549346,0.0781740471720695,0.0155110172927379,0.2025954242795705,0.2247874532081187,-9.67262902379036,14941.0
24.0,2.700000047683716,92.0,23.13414001464844,23.990501403808597,-79.78285575031461,40.45891712221646,277.2770580749512,0.0102222738787531,0.0083860671147704,0.8952947854995728,0.4452779591083527,0.1748308482972475,0.0562105189406862,2.889863579887909,-0.0365655049681663,-0.1389180719852447,-0.0800324007868766,0.2386555869318545,0.2527807057835162,-9.60968082368374,14942.0
24.2,2.5999999046325684,93.0,22.98389434814453,26.00230026245117,-79.78285636346085,40.45891722805649,277.93970055389406,0.0138017870485782,-0.0042183040641248,0.8986295461654663,0.4384709596633911,0.1963931577310543,0.0285197342121839,2.871317217354898,-0.1326638609170913,0.0835344865918159,-0.1697730720043182,0.1920116715878248,0.1852652089856565,-9.599938777685166,14942.0
24.3,2.5999999046325684,101.0,22.847421646118164,27.94253349304199,-79.78285709630272,40.45891716390621,278.31170506286617,0.0168909169733524,-0.0074218418449163,0.9011698961257936,0.4330733716487885,0.2329965681812294,0.0521740622021247,2.8774693391675696,-0.1032816618680954,-0.1446893811225891,-0.0592801459133625,0.0940213456191122,0.1435693171620369,-9.678869172334672,14943.0
24.4,2.5,101.0,22.98765182495117,26.19314384460449,-79.78285723998866,40.458917243003896,278.6002821426392,0.0204132702201604,-0.0081367101520299,0.9026832580566406,0.4297442138195038,0.2570674149694926,0.0466608181371725,2.87756800339803,0.131137266755104,0.0546375066041946,0.0167992617934942,0.2333165856823325,0.220028130300343,-9.787939040064812,14943.0
24.6,2.5,109.0,22.76854133605957,28.80927658081055,-79.78285885831808,40.45891696166522,279.3301577072144,0.0142120998352766,-0.0031498973257839,0.901907444000244,0.4316839277744293,0.2626019135318376,0.1717474758008068,2.9536021981709,0.012557528913021,-0.0903304666280746,0.0098922019824385,0.0893666513264179,0.2623800066299737,-9.870460209846495,14944.0
24.7,2.400000095367432,112.0,22.97638320922852,25.294591903686523,-79.78285911343706,40.4589169775015,279.6276268463135,0.0086316699162125,-0.0023752967827022,0.9000993371009827,0.4355927109718323,0.2286186360832317,0.1813852872312732,2.980752382811209,0.0765575990080833,-0.0039891172200441,0.0544997230172157,0.1706876070052385,0.2627546487003565,-9.996640784740446,14944.0
24.9,2.400000095367432,116.0,22.84867286682129,28.10951995849609,-79.78285965147545,40.45891688426748,280.3236422042847,0.0064049288630485,-0.0057119457051157,0.8966503143310547,0.442656397819519,0.1601604088026592,0.1665742044653082,3.012402623732509,-0.1200640872120857,0.0928466767072677,0.0279821287840604,0.1115457067452371,0.336286601498723,-9.684031094312669,14945.0
25.1,2.400000095367432,120.0,22.856185913085927,27.886871337890625,-79.78286032990542,40.45891654335071,281.0492205123901,0.0080981440842151,-0.0096606696024537,0.8959378004074097,0.4440008401870728,0.1594719263797687,0.1977212260845244,3.0987115859910777,-0.0890783295035362,0.0618637204170227,-0.0671956092119216,0.2099647432565689,0.0134574307780712,-9.839347175359729,14946.0
25.2,2.400000095367432,120.0,22.96135711669922,26.25675773620605,-79.78286061630473,40.45891648628362,281.3598970870972,0.0087409764528274,-0.0104151237756013,0.8969489336013794,0.4419252872467041,0.1721499136962016,0.2111085513381633,3.1138539320405085,0.0619927383959293,-0.0383806973695755,0.0043921619653701,0.2178508830070496,-0.0018670627812389,-9.961701332330705,14946.0
25.3,2.299999952316284,117.0,22.861194610595703,27.98229217529297,-79.78286126752805,40.45891653459547,281.7636427383423,0.0096898097544908,-0.0074590742588043,0.8984619975090027,0.438880980014801,0.2008061659197305,0.2270292983226143,3.1705834467238128,0.1333552747964859,0.2018138766288757,-0.068733349442482,0.1549584507197141,0.2855661170370877,-9.900972150564192,14946.0
25.5,2.200000047683716,108.0,23.07028579711914,25.37411117553711,-79.78286198714396,40.45891638498036,282.3969845275879,0.0091911256313323,0.0023018668871372,0.8995257019996643,0.4367652833461761,0.1707834667222091,0.3328871613671512,3.129394174952734,-0.1065728366374969,-0.0477325655519962,0.0099654905498027,0.1897807030007244,0.0835030086524784,-9.500629667043686,14947.0
25.7,2.200000047683716,106.0,22.89750289916992,26.670249938964844,-79.78286232180493,40.45891635553215,283.0619472961426,0.0188181027770042,0.0063051553443074,0.8977327346801758,0.4400933086872101,0.1691979450086649,0.33013539028645,3.1006219279189686,0.0730059891939163,0.1221931800246238,0.1424768716096878,0.272503236271441,-0.1010617587156593,-9.598177011609078,14948.0
25.8,2.200000047683716,107.0,22.97137451171875,26.36808204650879,-79.782862478499,40.45891608481239,283.4402183990478,0.0206400882452726,0.0067057581618428,0.8961474299430847,0.4432255029678345,0.1407607269985927,0.3555679508466598,3.119524807695728,-0.1863837838172913,-0.0253834966570138,-0.0063050664030015,0.2472521633841097,0.3440767007321119,-9.604357518553734,14948.0
25.9,2.200000047683716,108.0,22.946332931518555,26.344226837158203,-79.78286277079417,40.45891598681293,283.75247235107423,0.0167188644409179,0.0056384820491075,0.8946441411972046,0.4464310109615326,0.1655760381897369,0.3537064601379468,3.1041378701984974,0.2036867588758468,-0.1016400381922722,0.1257490366697311,0.3172033726796508,0.0828426295984536,-9.709912624955177,14948.0
26.1,2.0999999046325684,104.0,22.900007247924805,26.471454620361328,-79.78286317147537,40.45891602193584,284.40395588684083,0.013231243006885,0.0013277856633067,0.891631543636322,0.452566534280777,0.1001085182895562,0.2753516566093809,3.1429409212618773,-0.1096282228827476,0.0302953254431486,0.0175069235265254,0.1115319018345326,0.1969110170379281,-9.825072952508927,14949.0
26.3,2.0999999046325684,107.0,22.9638614654541,25.54109764099121,-79.78286339927031,40.45891593828368,284.71906132507326,0.0147790405899286,-6.727163417963311e-05,0.8906092643737793,0.4545293152332306,0.1088109427260307,0.2531618510293748,3.1459277285943568,0.012544922530651,-0.01835872605443,0.0278970841318368,0.1684618826396763,0.0989482278004288,-9.845100835561754,14949.0
26.4,2.200000047683716,106.0,22.847421646118164,27.831209182739247,-79.78286371206255,40.458916038520925,285.3625606994629,0.0154254660010337,6.77426578477025e-05,0.8923486471176147,0.4510832726955414,0.1049422632406228,0.2228571381106293,3.1075948047231687,-0.0528611987829208,0.0734151154756546,-0.1215252950787544,0.1753315022215247,0.2818073989078403,-9.508066740632056,14950.0
26.6,2.0999999046325684,107.0,22.873714447021484,26.9724178314209,-79.78286389051081,40.4589159583717,285.672613571167,0.0149049740284681,-0.0004737089620903,0.8944031000137329,0.4470133185386657,0.0992841596302424,0.2197400452474462,3.0873734131172115,0.055206011980772,-0.120325393974781,-0.021507054567337,0.1925671205297112,-0.0339327080547809,-9.65792795419693,14950.0
26.7,2.0999999046325684,118.0,22.847421646118164,27.17121124267578,-79.78286477126271,40.45891586628637,286.3351501922608,0.0135808521881699,0.003147346433252,0.8978009223937988,0.4401809275150299,0.0913856878256936,0.2332709049426316,3.084618337923652,-0.0291897654533386,-0.0745737105607986,-0.0665610060095787,0.0496264201635494,-0.0017211279273033,-9.63962909281254,14951.0
26.91,2.0999999046325684,128.0,23.01644897460937,25.24688148498535,-79.7828655533578,40.45891588545813,286.993112991333,0.0100540956482291,0.0074336077086627,0.8988625407218933,0.4380522966384888,0.0771799384079383,0.2588090966915483,3.0883905400455074,-0.061870988458395,0.0746985450387001,-0.0502094775438308,0.1898708780296147,-0.037327729370445,-9.74696701526642,14951.0
27.0,2.200000047683716,163.0,22.66837882995605,30.23264503479004,-79.78286575287095,40.4589158016444,287.3005871276856,0.005972905550152,0.0091470051556825,0.8985605835914612,0.4387136101722717,0.0755645458175513,0.2531647665934726,3.052483289499184,0.2056071013212204,-0.1238798201084137,0.0675549507141113,0.1489288202114403,-0.1953008217550814,-9.609423546195028,14952.0
27.1,2.200000047683716,184.0,22.826135635375977,27.012176513671875,-79.782866361902,40.45891566200029,287.6382278900146,0.0036096081603318,0.0100942272692918,0.8976274728775024,0.4406246542930603,0.0320852476535625,0.2654963505701459,3.0680439671511586,-0.0623070113360881,0.1249444112181663,-0.0200576372444629,0.0552837886009365,0.1275763783603906,-9.70348244190216,14952.0
27.3,2.299999952316284,213.0,22.57948303222656,30.980112075805664,-79.78286713826849,40.45891543159989,288.28224797058107,0.0015965031925588,0.0114378919824957,0.8956663012504578,0.4445769190788269,0.0270183987158769,0.2825313687055254,3.0864827138237945,-0.0154591472819447,0.0135331647470593,0.010221580043435,0.0410355493146926,0.1509298927243799,-9.800588906407356,14953.0
27.5,2.299999952316284,225.0,22.77980995178223,27.94253349304199,-79.7828673718047,40.45891535961761,288.5929607849121,-0.002023565582931,0.011358056217432,0.8949460983276367,0.4460252225399017,0.0406409832902484,0.2721399921164759,3.1169378404526604,0.0377683341503143,-0.0333617888391017,0.0202522557228803,0.1098027157131582,0.0298205577163025,-10.036355073451997,14953.0
27.6,2.200000047683716,234.0,22.56946563720703,29.89071846008301,-79.78286805164363,40.45891504458436,289.2411579589844,-0.0066046193242073,0.0079870242625474,0.894546627998352,0.4468545317649841,0.0035463796005247,0.2466864423807694,3.1530332118138067,-0.0071959639899432,-0.1087932959198951,0.01201843470335,0.0928738660924136,-0.1475078737176954,-9.921315783262251,14954.0
27.8,2.299999952316284,240.0,22.644588470458984,29.42951583862305,-79.78286855407852,40.45891476894885,289.89311642456056,-0.0010618767701089,0.0052192411385476,0.8951440453529358,0.4457452595233917,0.0140625335059099,0.2404033967813893,3.1907585122948103,-0.1260717064142227,0.0706863328814506,-0.0426612980663776,0.0605722114350646,0.0070728240301832,-10.00636236548424,14954.0
27.91,2.200000047683716,253.0,22.75727462768555,27.298439025878903,-79.78286879929679,40.4589146948662,290.21310848999025,0.0018176728626713,0.0042679328471422,0.8956205248832703,0.4447949528694153,0.0508690674335557,0.2362488739994948,3.208029696404743,0.0046589346602559,0.0953952670097351,-0.0511042177677154,0.1428656230308115,0.133852551234886,-10.033556596040729,14955.0
28.1,2.200000047683716,255.0,22.75226593017578,28.69795227050781,-79.7828690522268,40.458914631272,290.53478855896,0.0019318640697747,0.0050358003936707,0.8964426517486572,0.4431270360946655,0.0801461915299915,0.2405456860270315,3.2199759882897383,0.0865634381771087,-0.000933118048124,-0.0148993004113435,0.0958871647249907,-0.0123969011753797,-9.944828606843949,14955.0
28.2,2.299999952316284,257.0,22.65460586547852,29.59650230407715,-79.78286930356582,40.45891469783453,291.1666664581299,-0.0005464569549076,0.0047876224853098,0.8989943265914917,0.4379339516162872,0.0356721833373742,0.2102426577544519,3.1867573589865548,-0.0154299661517143,-0.1013475805521011,-0.0929396748542785,0.0966926552262157,-0.1185155329853296,-9.808361025452614,14956.0
28.4,2.299999952316284,260.0,22.59575843811035,29.222768783569336,-79.78286958387955,40.45891432721943,291.78938526916505,-0.0051006749272346,0.0088256122544407,0.9003416895866394,0.4350645244121552,-0.025756801773769,0.2084789795690861,3.1840909921591534,-0.0586134828627109,0.0207002535462379,-0.0873084962368011,0.0934389355313033,-0.0775874171219766,-9.864170944690704,14956.0
28.5,2.400000095367432,268.0,22.751012802124023,27.48133087158203,-79.7828697599723,40.45891424473742,292.10868496704103,-0.0092952754348516,0.011272937990725,0.900165319442749,0.4353033602237701,-0.0226658269814572,0.202790492206893,3.1958551229932017,0.1760154813528061,-0.0009814178338274,0.1168773546814918,0.1300499424431473,-0.2700845355167985,-9.968837274312971,14957.0
28.6,2.400000095367432,271.0,22.773550033569336,27.58470344543457,-79.7828700494116,40.45891386285985,292.4104713897705,-0.0106485178694129,0.013085912913084,0.8996368646621704,0.4363128840923309,-0.0906323429657951,0.2347018191407401,3.1820400291543325,-0.0380665473639965,0.0978592038154602,0.0140572367236018,0.0246420351276174,-0.0742889662273228,-9.82719081401825,14957.0
28.9,2.400000095367432,277.0,22.81987571716309,26.272661209106445,-79.78287028451206,40.45891381609012,293.03385586547853,-0.0102981617674231,0.0103035923093557,0.8980746865272522,0.4396016597747803,-0.0770630616684086,0.1973208943357139,3.123276230566137,-0.0614795945584774,0.0352208092808723,0.0202028583735227,0.0902918361593038,-0.0365323527250439,-9.549418249726296,14958.0
29.0,2.400000095367432,282.0,22.684654235839844,28.01409912109375,-79.7828706219713,40.45891369240146,293.6522049407958,-0.0120462048798799,0.0046897586435079,0.8961182832717896,0.4436271488666534,-0.0302616087920705,0.1548526024603539,3.0669892738617714,0.0628326013684272,0.006600905675441,0.0908649265766143,0.0737570706009864,-0.1957534693367779,-9.63241421341896,14958.0
29.1,2.400000095367432,285.0,22.68214988708496,28.093616485595703,-79.78287057201044,40.45891371030913,293.95194668579103,-0.010120028629899,0.0048530464991927,0.8954546451568604,0.4450112879276276,-0.0415766500347768,0.1213069540344542,3.0706882693951174,-0.0968410521745681,0.0246456135064363,-0.0532318577170372,-0.0623004473838955,-0.0303028890537098,-9.747182192802429,14958.0
29.3,2.5,295.0,22.678394317626957,28.093616485595703,-79.78287066313827,40.45891376520231,294.558958480835,-0.0087076565250754,0.0080564012750983,0.8959603309631348,0.4439756572246552,-0.0178710872042559,0.1055734192392022,3.1045872654996773,0.0578716360032558,-0.0363548770546913,0.0468749552965164,0.043945671999827,-0.2640155642107129,-10.076403822898865,14959.0
29.4,2.5,296.0,22.55068588256836,30.025897979736328,-79.7828707861318,40.45891374851632,294.87038655090333,-0.0067977765575051,0.0094217369332909,0.896748960018158,0.4423872530460357,-0.0236763055697066,0.1166920187644696,3.1242106446170803,-0.0631870552897453,0.1175037622451782,-0.0286619421094656,-0.018357265018858,-0.1690799516066909,-9.958415197134018,14959.0
29.61,2.700000047683716,299.0,22.633319854736328,28.05385780334473,-79.78287138695084,40.45891370885234,295.47533840942384,-0.0016605134587734,0.0104730930179357,0.8977668285369873,0.44034343957901,0.0150188066502367,0.1723518985792199,3.1373296896012235,-0.0530380792915821,-0.0308668296784162,-0.0372404120862484,0.0747954630106687,-0.0275480350689031,-9.968520355224609,14960.0
29.8,2.700000047683716,301.0,22.545677185058597,29.38975715637207,-79.78287188120463,40.45891363712073,296.09332890319826,-0.0087721105664968,0.0102097671478986,0.8968379497528076,0.442154586315155,0.0213783599060288,0.1810815844177006,3.1282655908936747,0.0589107573032379,-0.1060488298535347,-0.0579455643892288,0.1681875203177333,-0.1160234496742487,-9.921528621912003,14961.0
29.9,2.799999952316284,295.0,22.71345138549805,27.56879997253418,-79.78287205408594,40.45891361521736,296.4064297180176,-0.0120864966884255,0.0093605415895581,0.8962637782096863,0.443257987499237,-0.0095868453833187,0.1577945293015157,3.131107195552544,-0.0244100112468004,0.0368535965681076,0.0055015715770423,0.1333018074743449,-0.212222974486649,-9.869102486371997,14961.0
30.01,2.900000095367432,299.0,22.734737396240234,26.59868431091309,-79.78287221721062,40.45891359103808,296.7196640472412,-0.0108603909611701,0.0073247901163995,0.8961375951766968,0.4435829818248749,-0.0300507484274511,0.1503705784499841,3.1307331774341325,-0.0451246500015258,-0.1427367925643921,0.0202031638473272,0.0389416385488584,-0.3245389605313539,-9.740097121596335,14961.0
30.2,2.900000095367432,302.0,22.571969985961918,29.15915489196777,-79.78287252961634,40.45891357524634,297.3385815124512,-0.0083307661116123,0.0101790484040975,0.8968276381492615,0.4421847462654114,-0.0307147110883227,0.1267401723897763,3.0964535523579424,-0.1032599285244941,0.1470840275287628,-0.14449143409729,0.0015437745675444,0.0164591994322836,-9.666788824796678,14962.0
30.4,2.900000095367432,302.0,22.67964744567871,27.823257446289062,-79.78287246452021,40.45891360032204,297.6478695373536,-0.0075632841326296,0.0146215045824646,0.8969492316246033,0.4418269693851471,-0.0296541937023099,0.1190578487601604,3.087498176535311,0.0695961639285087,-0.0597323887050151,0.0161783248186111,0.1939185582473874,-0.3331792449206114,-9.72517678141594,14962.0
30.5,3.0999999046325684,302.0,22.62330436706543,29.02397537231445,-79.78287269297435,40.45891359411054,298.2619995574952,-0.0147474547848105,0.0189916808158159,0.8955501317977905,0.4443105161190033,-0.0556946869356538,0.1379845472746842,3.053088424540959,-0.0602704882621765,-0.0830843895673751,-0.0273705944418907,0.1028416694328188,-0.3183218719437719,-9.630023286938668,14963.0
30.7,3.2000000476837163,303.0,22.55444145202637,28.729759216308597,-79.78287253699635,40.45891365273319,298.87040562438966,-0.0071904729120433,0.0152652570977807,0.8951746225357056,0.4453961551189423,-0.0670844356657312,0.072393747965327,3.088329335188462,-0.0696869492530822,-0.1542094200849533,-0.013918193988502,0.0534447935968637,-0.3870541377738118,-9.818863209486008,14963.0
30.8,3.299999952316284,301.0,22.6859073638916,27.099645614624023,-79.7828725018995,40.4589137003918,299.1729244689941,-0.0062646940350532,0.0106762424111366,0.8950870633125305,0.4457195997238159,-0.0414964477503184,0.0489031968452341,3.1024970670936463,-0.0707534104585647,-0.1387692838907241,-0.014208479784429,0.0516372319450602,-0.1426633367780596,-9.990779535770416,14964.0
30.9,3.299999952316284,300.0,22.551937103271484,29.008071899414062,-79.78287250785158,40.45891375053886,299.4832481842041,-0.0085450764745473,0.0064703002572059,0.8947985768318176,0.4463414251804352,-0.017717018242548,0.0051358803973158,3.102708972394021,-0.0068916683085262,-0.0350012518465518,0.0658474788069725,0.0716677279723808,-0.1706151380762458,-9.93477724313736,14964.0
31.1,3.299999952316284,297.0,22.6959228515625,27.71193122863769,-79.78287236627942,40.45891388245082,300.091278503418,-0.0126533433794975,0.0026924537960439,0.894799530506134,0.446280837059021,-0.0489743456952186,-0.0629688835817165,3.1085100466017344,-0.0894894003868103,-0.0132438689470291,-0.0532833561301231,-0.2025903627835214,-0.1331797742564231,-9.771662145853044,14965.0
31.3,3.299999952316284,300.0,22.55694580078125,28.825180053710927,-79.7828723350307,40.45891393599457,300.40165371704103,-0.01379478815943,0.0022229531314224,0.8952963352203369,0.4452518820762634,-0.038341420531057,-0.0774308909201764,3.0978989286238447,0.0921542048454284,-0.0547874569892883,0.0021916378755122,-0.0573767217854037,-0.3519520962238312,-9.773480045199396,14965.0
31.4,3.299999952316284,297.0,22.551937103271484,29.071685791015625,-79.78287243104667,40.45891411226186,301.0069698791504,-0.0144081758335232,0.0027016182430088,0.8965862393379211,0.4426266849040985,-0.0270428441896222,-0.0694440760432344,3.1075752121927263,0.1200675666332244,-0.0196664296090602,-0.0250756163150072,0.0273078035842627,-0.3122068172693252,-9.969671087265016,14966.0
31.6,3.299999952316284,296.0,22.79608726501465,25.62856674194336,-79.78287238201622,40.45891427066013,301.6130604248047,-0.0175047162920236,0.0023155224043875,0.8973199725151062,0.4410274028778076,-0.0412292754127538,-0.0818358841031149,3.089273955878194,0.0822245776653289,0.01145133189857,0.0552293136715889,-0.1470239161234349,-0.1264200366474688,-9.91614099740982,14966.0
31.7,3.299999952316284,292.0,22.61704444885254,28.8887939453125,-79.78287237404874,40.458914326965,301.9202923278809,-0.0149382753297686,0.0035538573283702,0.8975841999053955,0.4405756294727325,-0.0678604491243189,-0.0738003050256504,3.0524090215358064,-0.2004270553588867,0.1092333570122718,-0.0837288424372673,-0.1215061371121555,-0.1121279432438314,-9.443940326571465,14966.0
31.9,3.299999952316284,291.0,22.58949851989746,27.71193122863769,-79.78287276486158,40.458914637535024,302.23242993164064,-0.0130817582830786,0.0046219886280596,0.8976752758026123,0.4404392540454865,0.0246868108627701,-0.0299836096344351,3.0453016675516538,0.0906731113791465,-0.0816672295331955,0.0315374471247196,0.0192277189996093,-0.4686433344706893,-9.620091791152957,14967.0
32.0,3.2000000476837163,291.0,22.62330436706543,28.61843490600586,-79.78287291490014,40.45891480936592,302.83977169799806,-0.0136384097859263,0.0062013752758502,0.8972341418266296,0.4413010478019713,0.0386358416826445,-0.0044418476541813,3.0244135359034567,0.028918569907546,-0.0892967656254768,0.0049957474693655,0.075538461394608,-0.2449389683268965,-9.673923597335817,14967.0
32.2,3.2000000476837163,290.0,22.57572555541992,28.14132881164551,-79.782873022497,40.45891495904116,303.4419559936524,-0.0131555497646331,0.0050273030065,0.8962736129760742,0.4432781338691712,0.0396647176659155,-0.0132553569717192,3.0296971498255374,0.0302680134773254,-0.1364406794309616,0.072398655116558,-0.0286688252538442,-0.0738703147228807,-9.718753615021706,14968.0
32.3,3.0999999046325684,289.0,22.513124465942383,29.278430938720703,-79.78287302628891,40.4589150510492,303.74637646484376,-0.0108780916780233,0.0051323105581104,0.895896315574646,0.4441003799438477,0.028273834407376,-0.0277307131883897,3.05898101689481,-0.0772140473127365,0.1495406776666641,-0.0489036589860916,-0.0830652714706957,-0.1095158275589347,-9.980605380535128,14968.0
32.4,3.0,290.0,22.511871337890625,28.149280548095703,-79.78287308967178,40.458915147616025,304.0539020996094,-0.0088079134002327,0.0056449412368237,0.8958362936973572,0.4442612528800965,0.0553894740852336,-0.0284645340338954,3.096730765232416,0.0666857436299324,-0.0629787296056747,-0.0147963650524616,-0.0565430641500279,-0.1939643309824169,-10.13166819691658,14969.0
32.6,2.900000095367432,289.0,22.73223304748535,25.326400756835927,-79.78287342146284,40.45891519199122,304.66310543823244,-0.0149685917422175,0.0035739126615226,0.8964598774909973,0.4428578019142151,0.043656289317749,0.005190045072223,3.1229114653158945,-0.0150666097179055,-0.009546099230647,-0.1158735379576683,-0.0185354611999355,-0.031105624968186,-9.990254455804823,14969.0
32.7,2.799999952316284,287.0,22.648345947265625,26.837236404418945,-79.78287351914004,40.45891527653602,304.9754299621582,-0.0175668448209762,0.0007690851343795,0.8971920013427734,0.4412907361984253,0.034828527550074,-0.0068838346055064,3.129704509870108,-0.0313402637839317,-0.1030720397830009,-0.0853208228945732,-0.0876195032894611,-0.2540307125821709,-9.852343196868896,14969.0
32.9,2.900000095367432,288.0,22.58574295043945,26.447599411010746,-79.78287364613206,40.458915533075455,305.58657498168947,-0.0147621165961027,-0.0015294110635295,0.8988919854164124,0.4379189312458038,0.0329382089176802,-0.0417632163639014,3.151811182307827,-0.095594622194767,-0.0046512456610798,-0.0474901087582111,-0.1562456787005067,-0.227633256521076,-9.957284345626832,14970.0
33.1,2.900000095367432,287.0,22.63958168029785,26.87699508666992,-79.78287375448225,40.45891561814845,305.90219921875,-0.0126555161550641,-0.0018472931114956,0.8998640179634094,0.4359830319881439,0.0612201694811677,-0.0341617543307586,3.1671189256750507,0.0598015040159225,0.0535315200686454,-0.0413375869393348,0.0688114773295819,-0.2457025233283639,-10.070074796676638,14970.0
33.2,2.900000095367432,285.0,22.8962516784668,23.82351493835449,-79.78287377312411,40.45891580630355,306.5213474731445,-0.0107316263020038,8.917167724575847e-05,0.9007133245468141,0.4342815577983856,0.0437360682265766,-0.0189146894084793,3.1810963468413966,-0.0486351698637008,-0.102201409637928,0.0743269100785255,-0.0778391763009131,-0.24793676270172,-9.85384476184845,14971.0
33.31,2.900000095367432,284.0,22.73849296569824,26.08976936340332,-79.78287387554893,40.45891586068948,306.8222431640625,-0.0119990278035402,0.0006175823509693,0.9000186324119568,0.4356858134269713,0.0518096145537987,-0.004882690538189,3.122651828595578,0.094165064394474,-0.0333785004913806,0.0205243285745382,0.044401508141309,-0.3059185571037233,-9.554433406591416,14971.0
33.5,3.0,277.0,22.42047119140625,28.95240974426269,-79.78287406623585,40.458915974946045,307.44197125244136,-0.0116208791732788,0.0011345817474648,0.8985415101051331,0.4387333989143372,0.0225227333258956,-0.0061525280243005,3.1015938308696627,-0.0122876111418008,0.1236981675028801,-0.0329890809953212,0.0207199512748047,-0.1906967058777809,-9.818788365125656,14972.0
33.6,3.0,277.0,22.465545654296875,28.499156951904297,-79.78287442615975,40.45891590721176,307.75473446655275,-0.0095720868557691,0.0012792666675522,0.8978714346885681,0.4401519894599914,0.0192988028852038,0.0422682509271697,3.147700171145269,-0.0915166139602661,-0.0914142727851867,-0.0162052940577268,-0.1341759662143886,-0.2002204314619302,-10.05877095937729,14972.0
33.8,3.0,276.0,22.71595573425293,26.137481689453125,-79.78287461553539,40.45891598880864,308.38211865234376,-0.008303340524435,-2.641625178512185e-05,0.8959336876869202,0.4441104233264923,0.0265344500363718,0.035361213094851,3.1743727562917714,-0.007006156258285,-0.1276432871818542,0.0424135886132717,-0.0514154534507542,-0.2269667652994394,-9.857126219272612,14973.0
34.0,3.0,277.0,22.77980995178223,24.96857070922852,-79.78287479088887,40.45891604675389,309.01576657104494,-0.0149817653000354,-0.0011455657659098,0.8950802683830261,0.4456518590450287,-0.0084428352093829,-0.0072569611207393,3.159867105224824,-0.054035048931837,0.0374749861657619,-0.1019415631890297,0.0090511517878621,-0.1837382817082107,-9.856032789945605,14974.0
34.1,3.2000000476837163,277.0,22.66587448120117,26.638442993164062,-79.78287471900725,40.458916096789295,309.322536895752,-0.0166419595479965,-0.0005403057439252,0.8953184485435486,0.4451153874397278,-0.0250749335013118,-0.0377491944253391,3.128245741876549,0.1377224028110504,-0.0748177543282508,0.0148279415443539,-0.1842929266579449,-0.5330321788787842,-9.648587027192116,14974.0
34.21,3.299999952316284,279.0,22.645841598510746,25.23892974853516,-79.782874759137,40.45891612068838,309.6347813110352,-0.015809467062354,-0.0016454092692583,0.8956574201583862,0.4444605708122253,-0.059292286428804,-0.0434028545591482,3.1170976387019844,-0.0882349759340286,0.1238304674625396,-0.1022856160998344,-0.1762924921140075,-0.1780513528548181,-9.732631396651268,14974.0
34.4,3.299999952316284,279.0,22.693418502807607,25.668325424194336,-79.78287494890336,40.45891606350642,310.26745266723634,-0.0137509582564234,-0.0043151802383363,0.8970255851745605,0.4417436718940735,-0.0301112109736528,-0.0406594283056734,3.10814056401326,0.1371895968914032,-0.0274510458111763,0.0559074468910694,-0.1525739561766386,-0.3827474807202816,-9.746895094513894,14975.0
34.6,3.299999952316284,279.0,22.6571102142334,26.38398551940918,-79.7828749865553,40.45891607096053,310.5778278808594,-0.0167274121195077,-0.00572031410411,0.8975865840911865,0.4404836893081665,-0.0608860933846773,-0.0414070937824326,3.0972735402253497,-0.1167457401752472,0.0144960237666964,-0.133082628250122,-0.216547100096941,-0.0344951553829014,-9.678879697322849,14975.0
34.7,3.400000095367432,280.0,22.66963005065918,26.344226837158203,-79.78287514819303,40.45891611227989,311.204803894043,-0.0207462646067142,-0.0049537559971213,0.8985405564308167,0.4383720755577088,-0.0468488539546283,-0.0710419043849645,3.091469260388201,0.2038873881101608,0.0064590601250529,0.1511619985103607,-0.1936953042447567,-0.6087019468098879,-9.734139978289605,14976.0
34.9,3.5999999046325684,280.0,22.83990859985352,24.07001876831055,-79.78287528743074,40.45891621151124,311.83079571533204,-0.0210185721516609,-0.0047130356542766,0.8976679444313049,0.4401458203792572,-0.0546530162204992,-0.0512250500803795,3.041876035756069,-0.0949740186333656,-0.0962333381175994,0.0429706312716007,-0.2002795614302158,-0.1466974770370871,-9.536105309128764,14976.0
35.0,3.700000047683716,278.0,22.68214988708496,26.702056884765625,-79.78287534331696,40.45891624336631,312.13253063964845,-0.0208902694284915,-0.0043909791857004,0.8966643214225769,0.4421960711479187,-0.023920356094001,-0.0658315507417608,2.9915103262847835,0.1337046772241592,-0.096132107079029,0.1712709218263626,-0.210595438554883,-0.523263126052916,-9.398151950240136,14977.0
35.11,3.700000047683716,276.0,22.65335273742676,25.85121726989746,-79.78287547420909,40.458916334995926,312.4456638793945,-0.0175294671207666,-0.0049709198065102,0.8958934545516968,0.4438952207565308,-0.0526953042134858,-0.070885249638979,2.9967374058743674,-0.2009238600730896,0.1005233228206634,-0.0821507200598716,-0.3621347664669156,-0.1036934168916195,-9.511152901053428,14977.0
35.3,3.900000095367432,274.0,22.44050407409668,30.04180145263672,-79.78287573429282,40.45891648039795,313.05921978759767,-0.0114589566364884,-0.0103645035997033,0.8963334560394287,0.4431112110614777,0.0128084584808777,-0.0541179946872601,3.0038128368042645,-0.1585132926702499,0.0108883054926991,-0.1016660928726196,-0.4057975702732802,-0.0130504737049341,-9.603951137065886,14978.0
35.4,3.900000095367432,273.0,22.412960052490234,29.342044830322266,-79.78287580519766,40.45891651987943,313.35961575317384,-0.0123055446892976,-0.0131114982068538,0.8976807594299316,0.440279483795166,0.0396620816896577,-0.0676451290665456,3.0072982511598494,0.0737047046422958,-0.0649078264832496,0.0314447917044162,-0.2514438495598733,-0.3405226168781519,-9.858813725709917,14978.0
35.62,4.0,274.0,22.603271484375,26.781574249267567,-79.78287597456253,40.45891657210165,313.9717716674805,-0.0121607696637511,-0.0124871646985411,0.899790346622467,0.4359743893146515,-0.0029782721179093,-0.0535098366704855,3.022208348901824,0.0357742011547088,-0.0010183671256527,-0.0269193686544895,-0.150519683137536,-0.5127673374116422,-9.828708751201631,14978.0
35.8,4.0,275.0,22.714704513549805,24.984474182128903,-79.7828761028518,40.45891665316928,314.582977722168,-0.0157196316868066,-0.002141517587006,0.900981903076172,0.4335665106773377,-0.0405054674110512,-0.0134457611157808,3.0184315196902047,0.2804430723190308,0.0064600873738527,0.1564629077911377,-0.1162167366966605,-0.4845131893828512,-9.704230885505677,14979.0
35.9,4.099999904632568,277.0,22.69467163085937,25.5649528503418,-79.78287615200594,40.4589166120893,314.88390774536134,-0.0234357956796884,0.0033196010626852,0.8992637991905212,0.4367659091949463,-0.0933750389372038,0.0052670067207011,2.996142105864973,0.1937711536884308,0.0797152742743492,0.0653502196073532,-0.1084881702717393,-0.3061509656533599,-9.568004209399223,14979.0
36.0,4.199999809265137,276.0,22.41546440124512,29.00012016296387,-79.78287618913222,40.45891657438721,315.1821331481934,-0.0280300807207822,0.0091593991965055,0.8974106907844543,0.4402096271514893,-0.1608299433344091,0.0031495239718162,2.9715242592512627,-0.0960667952895164,0.0833876281976699,0.0571120046079158,-0.3088101331517101,-0.2870131384581327,-9.528175899982454,14980.0
36.2,4.199999809265137,275.0,22.46805000305176,28.7218074798584,-79.78287630449982,40.45891656597711,315.7782406311036,-0.0244506541639566,0.0093856500461697,0.8949249386787415,0.4454476833343506,-0.1656814843657785,0.006591138245198,2.9695403271116234,-0.1483828425407409,-0.0522175803780555,0.0676781684160232,-0.1430034894123673,-0.4399941704794765,-9.828145079612732,14980.0
36.41,4.199999809265137,276.0,22.45803451538086,28.97626495361328,-79.78287663385805,40.45891662940115,316.3666195373536,-0.0218365844339132,-0.0015227388357743,0.8944872617721558,0.4465573728084564,-0.0710949196991748,-0.015578436749595,2.991807488031881,-0.0906778872013092,-0.0284771341830492,-0.0151570085436105,-0.3418683535605669,-0.2644401817023754,-9.794361037015916,14981.0
36.5,4.0,279.0,22.445512771606445,29.19891357421875,-79.78287670004337,40.45891666530829,316.66563458251954,-0.0196026768535375,-0.005076044704765,0.8950536847114563,0.4454986155033112,-0.0460808103555926,-0.0489200700012446,2.98305926550724,-0.0486027747392654,-0.0711848735809326,0.0369532480835914,-0.2186094496026635,-0.3587624944746495,-9.809915800094606,14981.0
36.7,4.0,281.0,22.380407333374023,29.30228614807129,-79.78287676105104,40.45891669565397,317.2469372253418,-0.0149398660287261,-0.0006703584222123,0.8969034552574158,0.4419736266136169,-0.0045835455487533,-0.0533701549537123,2.9809352736630976,0.0152767114341259,0.145494282245636,-0.0894036814570427,-0.3263820029050112,-0.092753057135269,-9.758759095072747,14982.0
36.8,4.0,282.0,22.392927169799805,30.38372802734375,-79.78287671246753,40.45891656300825,317.52599377441413,-0.0128430612385272,0.002042818814516,0.8978712558746338,0.4400661289691925,-0.0537350742109783,-0.0277232652835508,2.9810926246324225,-0.0126947779208421,0.0415249466896057,-0.0786554738879203,-0.1003684068471193,-0.1109133851900696,-9.89745329618454,14982.0
36.9,4.099999904632568,282.0,22.30904006958008,30.61433029174805,-79.78287674060459,40.45891657218056,317.8252682189941,-0.0100023010745644,0.0007835560827516,0.8987718224525452,0.4383021295070648,-0.0483774936809328,-0.0116495808487403,3.0031791374791807,-0.0457654185593128,-0.0742355734109878,0.0406005531549453,-0.1632694272324442,-0.3328452227264643,-10.010934888124469,14982.0
37.1,4.0,273.0,22.435497283935547,29.1114444732666,-79.78287696741573,40.4589165243373,318.4136127929688,-0.011869759298861,-0.0076537542045116,0.8985822200775146,0.4385778605937958,-0.0189927366666272,-0.0289271172385064,3.051355954039161,0.0628040507435798,-0.033803716301918,-0.0497432276606559,-0.1377735204622149,0.130107117248699,-10.06685999751091,14983.0
37.3,4.0,272.0,22.395431518554688,29.008071899414062,-79.78287699961736,40.45891652976081,318.7201961975098,-0.0160559900104999,-0.0086164530366659,0.8975130915641785,0.4406113624572754,-0.0179863627367548,-0.0584649310570936,3.078222275981873,0.1045594215393066,-0.0904971733689308,0.1760747879743576,-0.2704494565911591,-0.345059069506824,-10.10247772693634,14983.0
37.4,4.0,269.0,22.256452560424805,30.83697891235352,-79.78287704809969,40.45891655604422,319.30970806884767,-0.0178893450647592,-0.0086196428164839,0.8960405588150024,0.4435280561447144,-0.0604823512858408,-0.0687341764210369,3.0914824727816623,-0.0884056687355041,0.0804755911231041,0.0123543236404657,-0.2807727340981364,-0.2021831590309739,-10.010006350278855,14984.0
37.6,3.900000095367432,268.0,22.57948303222656,25.89097595214844,-79.78287714331312,40.45891658687728,319.90280575561525,-0.0145748956128954,-0.0086357332766056,0.8959710001945496,0.4437895715236664,-0.0275871634268254,-0.0585633603934357,3.1025263679089856,-0.0310270078480243,0.0772375389933586,-0.0688946992158889,-0.3560894398391247,-0.1211712652444839,-10.134134552478791,14984.0
37.7,3.900000095367432,271.0,22.52313995361328,28.006147384643555,-79.78287720353376,40.45891659519558,320.2119297485352,-0.0146070346236228,-0.0078829992562532,0.8962017893791199,0.4433362782001496,-0.0111963440940831,-0.0572394329747136,3.0739732135658016,0.0639639347791671,0.0209962259978055,-0.0191485621035099,-0.2089403841644525,-0.0886357859149575,-9.64500209927559,14985.0
37.81,3.900000095367432,269.0,22.515628814697266,27.79940223693848,-79.78287732142833,40.45891661656273,320.4970821838379,-0.0125415688380599,-0.0066230469383299,0.8964316248893738,0.4429552555084229,-0.0166165394518979,-0.0506285604293021,3.034966595746192,-0.0828377082943916,0.0329452864825725,-0.0154569456353783,-0.3138617254793644,-0.0605364429205656,-9.577297773957254,14985.0
38.0,3.900000095367432,265.0,22.568214416503903,26.89289855957031,-79.78287743740306,40.4589166626776,321.09987301635744,-0.0082470923662185,-0.0071981381624937,0.8968430161476135,0.4422136545181273,0.0163276286231916,-0.048175401315404,2.994940784331113,-0.0861655622720718,0.0116909211501479,-0.1235063597559928,-0.2396008076146245,0.0735288373287767,-9.62459473192692,14986.0
38.2,3.900000095367432,263.0,22.461790084838867,27.37795829772949,-79.7828775964154,40.45891671556326,321.3948215942383,-0.0071511096321046,-0.0080800577998161,0.8974550366401672,0.4409739673137665,0.0325912217472604,-0.0489909251732491,2.974749562241645,-0.0200149174779653,-0.0886195078492164,-0.0355398133397102,-0.1865312956273556,-0.1329687354527414,-9.601468994021417,14986.0
38.3,3.900000095367432,257.0,22.319055557250977,29.509033203125,-79.7828777279372,40.458916766188594,321.9879383544922,-0.0083893118426203,-0.0121990609914064,0.8983796238899231,0.4389702677726745,0.0338482054856235,-0.0725080481583004,2.976430173026808,0.0028262403793632,0.0129751060158014,-0.0690830871462822,-0.3309184189885855,-0.0145214550057426,-9.774965822696686,14986.0
38.5,3.900000095367432,256.0,22.27898979187012,30.10541534423828,-79.78287778929624,40.45891682963087,322.5830807189941,-0.0117934728041291,-0.0101907346397638,0.8986313939094543,0.4384276568889618,0.017529002090868,-0.095526018036794,2.967074470314057,0.037381924688816,-0.0290476996451616,-0.0296141002327203,-0.3326437861472368,-0.0859398540481925,-9.74030820608139,14987.0
38.6,4.0,254.0,22.37790298461914,28.30831527709961,-79.7828779815952,40.45891693359275,322.8812946777344,-0.0122458953410387,-0.0097038559615612,0.8983357548713684,0.4390316605567932,0.0268235016359321,-0.087734556399268,2.9858564480466883,0.0454231686890125,-0.0653675198554992,0.1033980697393417,-0.3396054445579648,-0.3886980459094048,-9.827062175273896,14987.0
38.8,4.0,254.0,22.24768829345703,31.14709854125977,-79.78287802033495,40.45891697420896,323.17947430419923,-0.0107660675421357,-0.0118484795093536,0.8979424834251404,0.4398215711116791,0.0145447843764829,-0.0824925534926647,2.9730646173011306,-0.0307185631245374,-0.0979828014969825,0.0214038994163274,-0.3283503949642181,-0.1465347782615572,-9.676037365794182,14988.0
38.9,4.099999904632568,252.0,22.45427703857422,27.51313781738281,-79.782878095057,40.458917023998005,323.7713055114746,-0.0083766663447022,-0.0131671065464615,0.8976137042045593,0.4405068755149841,0.03497505367942,-0.1013862459791747,2.960315288106784,-0.0127951130270957,0.0638743191957473,0.0444976724684238,-0.3014495119079947,-0.0269526035059243,-9.746640740633012,14988.0
39.1,4.099999904632568,253.0,22.277738571166992,30.200838088989247,-79.78287823839298,40.45891711358145,324.3607983093262,-0.0074741588905453,-0.0099935214966535,0.8979865908622742,0.4398459196090698,0.0128202963362016,-0.0889162603459219,2.9524614923224632,0.010129022412002,-0.0573845990002155,-0.0891148895025253,-0.2269183430448174,-0.1123175848927348,-9.731738526821136,14989.0
39.2,4.199999809265137,254.0,22.426733016967773,27.56879997253418,-79.7828782483042,40.45891713350096,324.6567158203125,-0.0064105605706572,-0.0143152419477701,0.8984267711639404,0.4388433694839477,0.0059274234162304,-0.0778279917571681,2.965784431810744,-0.0013417700538411,-0.1969206482172013,0.10931246727705,-0.3398068080469966,-0.2921996552869678,-9.850182065963743,14989.0
39.3,4.199999809265137,254.0,22.39918708801269,29.310237884521484,-79.78287834052686,40.45891719673014,324.94477886962886,-0.008875336498022,-0.0199453346431255,0.8987199664115906,0.4379794299602509,0.0172779012623669,-0.1035064389837129,2.9624253851660978,-0.0243728514760732,-0.072789542376995,-0.1621811538934707,-0.3664358321204781,0.126764976689592,-9.695777565836908,14989.0
39.5,4.199999809265137,254.0,22.299022674560547,30.3042106628418,-79.7828783661538,40.458917232396274,325.53385586547853,-0.018147949129343,-0.0200391709804534,0.8982037901878357,0.4387471973896026,8.087951281387368e-06,-0.1472778485523335,2.9166928280492934,0.0961471498012542,0.0057084108702838,0.0419306606054306,-0.3351463213562966,-0.1035503336973488,-9.653197556734083,14990.0
39.6,4.199999809265137,257.0,22.14877700805664,31.29818153381348,-79.7828784231222,40.45891728419336,325.82053036499025,-0.0173281114548444,-0.0162115730345249,0.8980200290679932,0.4393143355846405,-0.0165463783315752,-0.1403580581502435,2.9240249409839127,0.055636215955019,0.0673738270998001,0.0402598492801189,-0.4294216371327639,-0.1917169353738427,-9.714220268726349,14990.0
39.8,4.199999809265137,257.0,22.186338424682614,31.250471115112305,-79.78287850508792,40.45891730674408,326.4046482543945,-0.0109629146754741,-0.0132362013682723,0.8985006213188171,0.4386356770992279,-0.0194692731199775,-0.0745243196261388,2.9344156666340133,-0.0329137817025184,0.0713404342532157,0.0989115536212921,-0.3215314451605082,-0.3002813478559256,-9.74841361641884,14991.0
40.0,4.199999809265137,255.0,22.232664108276367,30.70975112915039,-79.78287863318886,40.4589173162524,326.99260372924806,-0.0086599336937069,-0.0089974412694573,0.8963033556938171,0.4432656168937683,0.0497271022819985,-0.0410980945154823,2.936869567163393,0.043809525668621,0.0438961684703826,0.1210279613733291,-0.4119542132690549,0.0029611396417021,-9.794561596512796,14991.0
40.1,4.300000190734863,248.0,22.193851470947266,30.61433029174805,-79.78287886399991,40.45891735128353,327.27651638793947,-0.0090043377131223,-0.0076040257699787,0.8943757414817809,0.4471613168716431,0.0573579652252082,-0.0337413800272662,2.9587426139226167,0.0379759036004543,0.0233700554817914,0.1183216869831085,-0.3059763349033892,-0.0025513320509344,-9.986743787527084,14992.0
40.3,4.300000190734863,243.0,22.253950119018555,30.21674156188965,-79.78287895319524,40.45891738619389,327.57332653808595,-0.0050652995705604,-0.0083500482141971,0.8936224579811096,0.4487133026123047,0.0486502921241982,-0.0325580098680803,2.980392666297601,-0.1548792570829391,0.0123756676912307,-0.1180296242237091,-0.2610129276104272,0.2293333710171282,-9.989206634759904,14992.0
40.4,4.400000095367432,240.0,22.41170692443848,28.419639587402344,-79.78287916635671,40.45891748456157,328.1553844909668,0.0010061585344374,-0.0191658046096563,0.894271731376648,0.4471125900745392,0.106529893407984,-0.0694252134949497,2.9576285753358365,-0.0466302260756492,-0.0656198114156723,-0.0628309696912765,-0.410987522341311,0.0934010656736791,-9.64964946627617,14993.0
40.6,4.400000095367432,239.0,22.07490539550781,32.880584716796875,-79.78287940358781,40.45891758460879,328.7287373046875,0.0051193116232752,-0.0219869334250688,0.8964084982872009,0.4426536858081817,0.1256698638234507,-0.0921353353072966,2.868203123797608,-0.0774880424141883,-0.0504991151392459,0.040763471275568,-0.3485642194747925,0.1731887900456786,-9.380690410137175,14993.0
40.7,4.5,239.0,22.197607040405277,29.83505630493164,-79.78287942680018,40.45891761889596,329.0156597595215,0.0060013439506292,-0.0223722383379936,0.8977931141853333,0.4398080408573151,0.1107766617741788,-0.1175159014285379,2.862308056213525,-0.0283094197511672,-0.0157724507153034,-0.0189114045351743,-0.5248403393849731,-0.0752904480881989,-9.685373615026474,14994.0
40.8,4.599999904632568,238.0,22.24894142150879,29.723730087280277,-79.78287951018821,40.45891767067481,329.3014797668457,0.0054814517498016,-0.0206523276865482,0.8993153572082521,0.436778575181961,0.0836039671280717,-0.1335373512648631,2.8671573251728057,0.0052542644552886,-0.0375185571610927,-0.1341326981782913,-0.4941701949387789,0.0672477308660745,-9.601162599921226,14994.0
41.0,4.900000095367432,237.0,21.884593963623047,34.932144165039055,-79.7828793980925,40.45891770270701,329.8748669128418,-0.0074279676191508,-0.0216977000236511,0.9005936980247498,0.4340566396713257,0.0257636844882305,-0.1518589985463101,2.8842023566350874,0.2494498789310456,-0.1831228733062744,0.14551642537117,-0.3951248668134213,-0.3317557768151164,-10.061301634311675,14994.0
41.1,5.0,237.0,22.18508720397949,30.463245391845703,-79.78287946187453,40.458917735008136,330.1615871887207,-0.0174637045711278,-0.0258786436170339,0.9005795121192932,0.4335688054561615,-0.0272899587909524,-0.1944766737400154,2.9324920930229217,0.1788187026977539,-0.1775363981723785,-0.1567170768976211,-0.4739636063575745,0.0880131122656166,-10.126253675222396,14995.0
41.3,5.199999809265137,243.0,22.07991409301757,30.94830322265625,-79.78287942251076,40.45891767350304,330.7344631652832,-0.0263280812650918,-0.0266334507614374,0.8998237848281859,0.4346432387828827,-0.1033201902428722,-0.244873790776876,2.968720817646997,-0.0261806100606918,-0.0109989717602729,0.0181113220751285,-0.5698004210740328,-0.1232988386135548,-10.100330629348756,14995.0
41.5,5.300000190734863,248.0,21.914644241333008,33.508773803710945,-79.78287935448147,40.458917660981854,331.0337147216797,-0.0258292965590953,-0.0246095731854438,0.8995864391326904,0.4352833330631256,-0.115899950599435,-0.2322129102341397,2.9873497978437005,-0.0489973425865173,-0.0120174838230013,0.0033882362768054,-0.4538084001839161,-0.1783487934060394,-9.937399134635928,14996.0
41.6,5.400000095367432,252.0,22.203866958618164,30.145174026489247,-79.78287923070368,40.45891762100761,331.6139149169922,-0.0246797781437635,-0.0215824469923973,0.8988884091377258,0.4369494915008545,-0.1152857051005265,-0.2123513963651006,3.0480505384225016,0.0158303510397672,-0.0154044656082987,-0.0025620332453399,-0.3728960917890072,-0.1078083583619445,-10.318558073043825,14996.0
41.7,5.5,255.0,22.133752822875977,31.14709854125977,-79.78287919044885,40.45891760404304,331.9211658935547,-0.0241765864193439,-0.0210709515959024,0.8982640504837036,0.4382843971252441,-0.1035297308423508,-0.2010732933686206,3.0751046725846534,0.0694446638226509,0.0609462074935436,0.0602196231484413,-0.3862267567589879,-0.2441514397412538,-10.075755951404572,14996.0
41.9,5.599999904632568,260.0,22.16880989074707,30.200838088989247,-79.78287908454557,40.45891759047889,332.50316662597663,-0.0215225759893655,-0.0202863458544015,0.897541880607605,0.4399362802505493,-0.1179018088388243,-0.2008975686618582,3.090725876226524,-0.0329578034579753,0.0343875959515571,-0.04299096763134,-0.5076651301234961,-0.0753346128389239,-10.056906867027283,14997.0
42.0,5.599999904632568,262.0,22.38791847229004,27.79940223693848,-79.78287903438795,40.45891756904948,332.81395764160163,-0.0218599904328584,-0.0210455749183893,0.8969801068305969,0.4410282373428345,-0.1055209926447886,-0.1949174661056196,3.099926728362256,0.0206923671066761,-0.0082590356469154,0.0706971138715744,-0.5202731523290277,-0.2713585158996284,-9.928534755706789,14997.0
42.21,5.699999809265138,264.0,22.13249969482422,30.654088973999023,-79.78287886296829,40.45891756669683,333.3846973876953,-0.0293387603014707,-0.0199271254241466,0.8962658047676086,0.4420970678329468,-0.1186544938481993,-0.220777065871976,2.9903453842451264,0.0276481006294488,-0.0595890544354915,0.033596895635128,-0.4884692693129182,-0.3497129049897194,-9.65518736422062,14998.0
42.4,5.699999809265138,264.0,22.197607040405277,29.604454040527344,-79.78287885030522,40.45891751647622,333.9727863769532,-0.028538804501295,-0.0202574711292982,0.8974586129188538,0.4397082030773163,-0.1098793435562514,-0.1867852677346632,3.006649142280808,-0.0679661929607391,0.0419663228094577,-0.0040010069496929,-0.5488933726027608,-0.1307187816873193,-9.71819228231907,14998.0
42.5,5.599999904632568,267.0,22.34785270690918,28.04590606689453,-79.7828788471795,40.45891751959538,334.27449841308595,-0.0284010134637355,-0.019024197012186,0.8982033729553223,0.4382489621639252,-0.0930149709812405,-0.1896130317081354,3.00882270323761,-0.052865270525217,0.082170620560646,0.0424514971673488,-0.6352586846798659,-0.2470872901752592,-9.79416866362095,14999.0
42.6,5.5,265.0,22.266469955444336,28.11747169494629,-79.78287904080524,40.45891731486808,334.55731243896486,-0.0255101770162582,-0.0205673072487115,0.8988845944404602,0.4369584918022156,-0.1069548887556322,-0.1240853868012717,2.9992738560231404,-0.1127098351716995,-0.0549600832164287,0.0020413645543158,-0.5494043461605906,-0.0213611487206071,-9.64015007972717,14999.0
42.8,5.400000095367432,265.0,22.12874412536621,31.0914363861084,-79.78287919220287,40.45891719272477,335.15213818359376,-0.0192397646605968,-0.0281788781285285,0.8992010354995728,0.4362033009529114,-0.0400266823986927,-0.142438616321149,2.9611384271116337,2.4103253963403407e-05,0.0044346419163048,0.0707267746329307,-0.5885135942324996,-0.1995586728304624,-9.53388512134552,15000.0
43.0,5.400000095367432,265.0,21.932172775268555,34.065399169921875,-79.78287926783281,40.45891716060669,335.4478001098633,-0.0173485539853572,-0.025426547974348,0.8991514444351196,0.4365537464618683,-0.0146717943026473,-0.1188074156889004,2.9459792975040813,0.0511672869324684,0.100083090364933,-0.0111239794641733,-0.541316038928926,-0.0232084714388474,-9.556965250968933,15000.0
43.1,5.400000095367432,264.0,22.058629989624023,32.47504425048828,-79.78287940160332,40.458917257490725,336.04854626464845,-0.0162992123514413,-0.0182798784226179,0.8992177844047546,0.4368152618408203,-0.0045191066457607,-0.0871036335821979,2.9966450223764904,0.0536031499505043,0.1240678578615188,-0.0197815354913473,-0.4032102869823575,-0.1782575951144099,-9.988174016475677,15001.0
43.2,5.300000190734863,259.0,22.10245132446289,30.025897979736328,-79.78287948921894,40.45891723553476,336.3495335083008,-0.0173454508185386,-0.016027258709073,0.8987780213356018,0.4377674758434296,-0.0157616295659254,-0.069307299450918,3.0255578901122155,0.0378859266638755,-0.0075997775420546,0.0767865404486656,-0.6016357328742743,-0.3327400093898177,-10.008712946176528,15001.0
43.4,5.199999809265137,257.0,22.2276554107666,29.13529968261719,-79.78287966416904,40.45891719478221,336.94376416015626,-0.0204248670488596,-0.0210572518408298,0.8982783555984497,0.4384468197822571,-0.0380327371539527,-0.0547297436962586,2.9991209812648463,-0.0263423845171928,-0.0499876923859119,0.0028663566336035,-0.4209747128561139,-0.1437712927814573,-9.590059906840326,15001.0
43.51,5.099999904632568,256.0,22.014806747436523,31.560590744018555,-79.78287975967203,40.458917162774696,337.24180645751954,-0.0200269352644682,-0.0220211558043956,0.8980284929275513,0.4389293193817138,-0.0292979128509984,-0.0758813902632563,2.9706485550460107,-0.0041571869514882,0.1104851514101028,-0.0210077222436666,-0.4417224977910519,-0.1035141175054013,-9.525396718382837,15002.0
43.7,5.0,258.0,22.34660148620605,26.773622512817383,-79.78288004890192,40.45891704455249,337.84060711669923,-0.0135176824405789,-0.0134973311796784,0.8992952108383179,0.4369248747825623,-0.0359197242960529,-0.0487348291812848,2.9931573719848394,-0.0963321030139923,0.0889059901237487,-0.0596228092908859,-0.5857607616484165,-0.1586985308490693,-9.673396178483962,15002.0
43.9,5.0,258.0,22.648345947265625,22.67845916748047,-79.78288023521931,40.45891699894379,338.43338055419923,-0.0145992329344153,-0.0096338940784335,0.9014198780059814,0.4325926601886749,-0.0301682755254699,0.0070977126125411,2.9263576787636016,0.0135588543489575,-0.1260063052177429,-0.0326245613396167,-0.293517946600914,-0.0949571742117405,-9.577529908418656,15003.0
44.0,4.900000095367432,259.0,22.698427200317383,24.02230834960937,-79.78288032040629,40.45891695566951,338.7210010986328,-0.0189877301454544,-0.013369919732213,0.9010593295097352,0.4330738186836242,-0.0354697812166252,-0.0059023340473896,2.8261682662008547,0.1324933171272277,-0.123100496828556,0.1486942619085312,-0.3054258926399052,-0.5037547315657139,-8.984027579426765,15003.0
44.1,4.900000095367432,259.0,22.927553176879893,20.261119842529297,-79.7828806067747,40.45891696070064,339.01631970214845,-0.020946342498064,-0.0170560758560895,0.9000037312507629,0.4350445568561554,-0.0576575816732319,-0.0402696433284294,2.7755104761731952,-0.0181214474141597,0.0183330904692411,-0.0215891320258378,-0.3443731545656919,-0.0414640679955482,-8.768389282822609,15004.0
44.3,4.800000190734863,256.0,22.8424129486084,22.225208282470703,-79.78288075099049,40.45891684528358,339.53883404541017,-0.0215057078748941,-0.0257519613951444,0.8966498970985413,0.4414671659469605,-0.0416479505436115,-0.0681047979777065,2.4896754355013533,-0.0238020494580268,-0.0460302233695983,0.2306501120328903,-0.4927991325035692,-0.3349139310792089,-8.239064823389054,15004.0
44.5,4.800000190734863,262.0,22.841161727905277,22.96472358703613,-79.78288082462751,40.45891680244946,339.78053326416017,-0.0182616617530584,-0.0283574629575014,0.8957319259643555,0.4433134794235229,-0.0448957295093065,-0.0732597320701113,2.3432420957693987,-0.0480272732675075,-0.0232366267591714,0.1328660398721695,-0.5524406956136227,-0.26659553848207,-8.330836288332941,15004.0
44.6,4.800000190734863,263.0,22.67588996887207,24.57893371582031,-79.78288089807059,40.45891669379568,340.21865887451173,-0.0162005107849836,-0.0186779554933309,0.8954479694366455,0.4444792568683624,-0.0220311509937766,-0.0304693610035133,2.0861814733836788,0.154365137219429,0.0911793857812881,0.0188747011125087,-0.3416661860793829,-0.2258585717529058,-8.478597182035447,15005.0
44.7,4.800000190734863,263.0,22.677143096923828,23.34640884399414,-79.78288096498957,40.458916629837546,340.42202801513673,-0.0157666038721799,-0.0111336521804332,0.8957980275154114,0.4440421462059021,-0.037540054231747,-0.0136283698847959,1.9851468933378669,0.1906382888555526,0.2826710939407349,0.0485284477472305,-0.2959016554243863,-0.2266684659384191,-8.743636849522591,15005.0
44.9,4.699999809265137,264.0,22.78481864929199,23.529298782348643,-79.78288096534656,40.45891651300987,340.80489392089845,-0.0127986101433634,-0.008428793400526,0.897216796875,0.4413244426250458,-0.087802965758904,0.0316298621190809,1.803762941052096,-0.1825319230556488,-0.1600133329629898,0.0682725086808204,-0.3861223108693957,-0.261742641851306,-8.713029014468193,15005.0
45.0,4.699999809265137,260.0,22.77229881286621,23.46568489074707,-79.78288099258133,40.458916443808576,340.98024029541017,-0.014104719273746,-0.011678310111165,0.8977338075637817,0.440157800912857,-0.0849587053697769,0.0153089291724875,1.7031880125541172,-0.0931626856327056,-0.1286187916994094,-0.0398640930652618,-0.4964320806786418,0.0229474206687882,-8.699203273057938,15005.0
45.2,4.599999904632568,261.0,22.64959716796875,23.767852783203125,-79.78288095939027,40.458916337166094,341.3193745117188,-0.0178649239242076,-0.0122446129098534,0.8981301188468933,0.4391961395740509,-0.090207248974659,-0.013144279908777,1.5781361511325889,0.0448248870670795,-0.0487672388553619,0.1165070831775665,-0.4091208352893591,-0.3769372487068177,-9.102085202336312,15006.0
45.4,4.599999904632568,262.0,22.45427703857422,27.24277687072754,-79.78288093521655,40.45891629402331,341.49295849609376,-0.02055499330163,-0.0103991497308015,0.8979637622833252,0.4394660890102386,-0.073451806191185,-0.0115439091548373,1.5355173496426326,0.2380659282207489,0.009875594638288,0.0337435007095336,-0.2796877101436257,-0.457371218316257,-9.00555644273758,15006.0
45.5,4.5,266.0,22.71846008300781,22.956771850585927,-79.78288091134925,40.458916164633095,341.7838596801758,-0.0169278103858232,-0.0033836546353995,0.8979731798171997,0.4397114813327789,-0.1240215160051209,-0.0193038161706329,1.3907430840119162,-0.1397595256567001,0.1576528549194336,-0.0157786011695861,-0.3180033448711037,-0.2638718688860536,-9.158048318624497,15006.0
45.7,4.5,264.0,22.799842834472656,22.757976531982425,-79.78288085223332,40.45891606828742,342.0804371337892,-0.0164063293486833,-0.0028032588306814,0.8983208537101746,0.4390246868133545,-0.0917650664817013,0.0038921202640086,1.2705253259559357,-0.0212241876870393,-0.1352834254503249,0.0520496107637882,-0.2266501020267605,0.1078621162008494,-9.052424215078354,15007.0
45.8,4.400000095367432,266.0,24.32358932495117,3.6896231174468994,-79.78288089466659,40.45891602690256,342.2195744018555,-0.0215156842023134,-0.0028421836905181,0.8982258439064026,0.4389981627464294,-0.0952056099277564,-0.0015157102003626,1.1521704298206783,0.0141216842457652,-0.1194091960787773,-0.0090472577139735,-0.2669046369194984,-0.0075747024267911,-8.184362951517105,15007.0
46.0,4.400000095367432,267.0,22.799842834472656,22.670507431030277,-79.78288085545742,40.45891597027831,342.3187107543945,-0.0254339184612035,-0.0040192306041717,0.9030081629753112,0.4288511872291565,-0.112204200554933,-0.0124730286443656,0.8289692894942426,0.1262700855731964,-0.0972224771976471,-0.5882420539855957,-0.2324160413816571,-0.5666743534058333,-7.093999904394151,15007.0
46.1,4.400000095367432,270.0,22.86995887756348,22.018461227416992,-79.78288077473131,40.45891590294874,342.3953327636719,-0.024428816512227,-0.00702831055969,0.9373928904533386,0.3473450243473053,-0.1247880697235783,-0.031151929314207,0.4460513917388408,-0.040067832916975,-0.0867149382829666,-1.0976438522338867,-0.3226949679851532,-0.5332549943402409,-8.190176253318787,15007.0
46.3,4.300000190734863,258.0,22.77229881286621,23.13966178894043,-79.78288060607197,40.45891576889346,342.4014286499024,-0.0214383192360401,-0.0067533943802118,0.973456084728241,0.2277677208185196,-0.1353751770487368,-0.0321269822797851,0.2298057957615468,0.0839706733822822,-0.0002141421718988,-1.3401612043380735,-0.5217648135870695,-0.3996376382187009,-8.491317799687385,15007.0
46.4,4.300000190734863,262.0,22.79358291625977,23.489540100097656,-79.78288045107077,40.4589157210078,342.42215771484376,-0.0232790280133485,-0.0049348575994372,0.9871170520782472,0.1582202464342117,-0.1699299898801339,-0.018491435475352,0.1710622178285819,-0.0653075724840164,-0.0370589718222618,-1.5017452239990234,-0.4780087466910482,-0.4107700424641371,-8.998771333694457,15007.0
46.6,4.300000190734863,265.0,22.927553176879893,21.71629524230957,-79.78288027573555,40.45891567679793,342.4365391235352,-0.0275352597236633,-0.0038901539519429,0.9959831833839417,0.0851130113005638,-0.1539544487002669,0.0008113152241367,0.1049504519054716,0.2425140291452408,-0.1014739498496055,-1.4398287534713743,-0.1131925019435584,-0.962225116789341,-9.230893515944482,15007.0
46.7,4.400000095367432,235.0,22.831144332885746,21.74015045166016,-79.78288005132771,40.45891547650863,342.3423542480469,0.0362286083400249,0.002316229045391,-0.9970104098320008,0.0682082995772361,-0.1495963998125163,0.051618823301482,-0.0960676477052595,0.0997351631522178,-0.0191905871033668,-1.5324275493621826,-0.0696861020196229,-0.6292051354050636,-8.94961613059044,15007.0
46.8,4.400000095367432,224.0,22.799842834472656,22.59099006652832,-79.78287996498825,40.458915228019656,342.22633404541017,0.0394951105117797,0.0005282196216285,-0.988605797290802,0.1452536284923553,-0.1082870404562228,0.0880574880061327,-0.2022740846201745,0.1186609417200088,-0.030135553330183,-1.5574268102645874,0.0875471165869385,-0.4582163602486253,-8.966975344419481,15007.0
47.0,4.400000095367432,233.0,22.59951591491699,26.050010681152344,-79.78287968316789,40.45891505771479,342.17544598388673,0.0426499545574188,0.0004004544171039,-0.9547771215438844,0.2942474484443665,-0.004889778793823,0.1451980723618475,-0.3117219865578554,0.1285551488399505,-0.0134020438417792,-1.3857842683792114,0.3708511012047529,-0.6934706401079893,-9.247428857088089,15007.0
47.2,4.400000095367432,240.0,22.449268341064453,27.218921661376957,-79.78287960723719,40.45891467898321,342.0874638061524,0.0441498793661594,-0.0031928631942719,-0.9304538369178772,0.3637258112430573,0.0568055053292045,0.1612910323007758,-0.3211639082904864,0.119893841445446,0.0805049240589141,-1.4375362396240234,0.4070828613638878,-0.6772642048448324,-9.691806721687318,15007.0
47.3,4.400000095367432,226.0,22.34660148620605,28.30036354064941,-79.78287938531417,40.45891411954366,342.0423817138672,0.0434065982699394,-0.0175316073000431,-0.8687377572059631,0.4930551648139954,0.1367906793777511,0.1404171808122699,-0.2254304743940213,-0.0786212459206581,-0.0442226901650428,-1.3525415658950806,0.4417579830810428,-0.4679891406744719,-10.03190885066986,15007.0
47.4,4.400000095367432,220.0,22.422975540161133,26.89289855957031,-79.78287935162841,40.4589139360214,342.0208210449219,0.044833667576313,-0.021127475425601,-0.8317761421203613,0.5528942942619324,0.1940039065887897,0.0981214085314398,-0.2021542371872629,0.2059015780687332,0.1422262340784073,-1.3806781768798828,0.6169404543936253,-0.3170575942844153,-10.05696650862694,15007.0
47.6,4.400000095367432,236.0,22.60953140258789,24.920860290527344,-79.7828788879656,40.45891307592487,342.0107960205078,0.0507157556712627,-0.0211800932884216,-0.7441416382789612,0.6657571792602539,0.2718062828796809,0.0230967108336027,-0.1317275753888189,0.2191181033849716,-0.0403124764561653,-1.2917400598526,0.7204291547834873,-0.6198428660631179,-9.885589295625689,15007.0
