time,wind_speed,wind_angle,battery_voltage,battery_current,position_x,position_y,position_z,orientation_x,orientation_y,orientation_z,orientation_w,velocity_x,velocity_y,velocity_z,angular_x,angular_y,angular_z,linear_acceleration_x,linear_acceleration_y,linear_acceleration_z,node_ids
0.0,3.900000095367432,193.0,24.40246772766113,-0.0079517737030982,-79.78283266711851,40.45890154260386,269.4833064050674,0.0148187093436718,-0.0077636116184294,0.7495728731155396,0.6617104411125183,-0.0025175045019523,-0.0130446031541897,0.048703972232661,-0.0038349828682839,-0.0018784607527777,-0.0023122462444007,0.0680746048176661,0.3228209754824638,-9.802313835024837,14934.0
0.2,3.5999999046325684,191.0,24.40246772766113,-0.0079517737030982,-79.78283265019553,40.45890154074008,269.48814785194395,0.014814636670053,-0.0077656898647546,0.749556303024292,0.6617293357849121,-0.0017723935341349,-0.0149696626719215,0.048640553355985,0.0050006941892206,0.0005449671298265,0.0071858777664601,0.0614615455269813,0.3102719005197287,-9.805621020197869,14934.0
0.3,3.5,191.0,24.392452239990234,0.0159035474061965,-79.78283273327644,40.45890156380985,269.49475335788725,0.0148101197555661,-0.0077798166312277,0.7495669722557068,0.6617171168327332,0.0023636716201905,-0.0024814514002254,0.0459538515676438,0.0026655765250325,0.0023876295890659,0.0048201074823737,0.0664482154883444,0.3038878556527197,-9.805347370505334,14934.0
0.5,3.299999952316284,192.0,24.404972076416016,0.0,-79.78283272921995,40.458901565175466,269.49936103534696,0.0148165030404925,-0.0077783004380762,0.7495729327201843,0.6617102026939392,0.0021359211323424,-0.0037548021221737,0.0462000526662535,0.0020610932260751,0.0005519087426364,-0.0036892646457999,0.0651844129152596,0.3162946422770619,-9.80367857515812,14934.0
0.61,3.0,194.0,24.40121650695801,0.0,-79.78283275626183,40.45890157788386,269.50334739398954,0.0148234041407704,-0.0077466396614909,0.7495787739753723,0.661703884601593,0.0012951770147509,-0.004786525903847,0.0402679011163743,0.0058789886534214,0.0019564765971153,-0.0007921507349237,0.0662474732659757,0.3146314383298159,-9.803622441887857,14934.0
0.8,2.900000095367432,195.0,24.4074764251709,0.0238553211092948,-79.78283283494122,40.458901588521385,269.50240730953215,0.0148031534627079,-0.0077642346732318,0.7495905160903931,0.6616907119750977,0.0010989608709097,0.0036804169169196,0.03312476846488,-0.0059424452483654,-0.0016313507221639,-0.0009358619572594,0.0661249786661937,0.312351060770452,-9.803298506140711,14934.0
0.9,2.5999999046325684,196.0,24.4074764251709,0.0318070948123931,-79.78283283776581,40.458901588732594,269.5057241888046,0.0148156350478529,-0.0077628190629184,0.7495958805084229,0.661684513092041,0.0020272408787906,0.0018207842097988,0.0330303959469862,0.0057159927673637,-0.00163333886303,0.0018920034635812,0.066608529696241,0.3117455084994435,-9.803885566592216,14934.0
1.1,2.400000095367432,192.0,24.40622520446777,-0.0079517737030982,-79.78283284977323,40.45890160384398,269.5096940965652,0.0147951235994696,-0.0077418601140379,0.7496109604835509,0.661668062210083,0.0009003344631003,-0.0030299197369506,0.0299076294672521,0.0024516081903129,0.0002714198781177,0.0060165440663695,0.0671280959201976,0.3072805380821228,-9.80479071557522,14934.0
1.2,2.5,185.0,24.4074764251709,0.0159035474061965,-79.78283290057068,40.458901604443504,269.513340470314,0.0147899482399225,-0.0077702244743704,0.7496355772018433,0.661639928817749,-0.0032824481034166,0.0005378452218708,0.0266714260118659,-0.0027689873240888,0.0002065419976133,0.0025137069169431,0.0675210379483178,0.310512440353632,-9.804514142274858,14934.0
1.4,2.700000047683716,180.0,24.40622520446777,0.0238553211092948,-79.78283289989501,40.45890160077926,269.5159977645874,0.0147745357826352,-0.0077738142572343,0.7496305108070374,0.6616460680961609,-0.0030330003538908,-0.0012920537966412,0.0267573090529061,0.006586099974811,0.0047091175802052,0.0022355222608894,0.060077655762434,0.3121555444970727,-9.805231010913849,14934.0
1.5,2.900000095367432,178.0,24.40622520446777,0.0397588685154914,-79.78283292940061,40.45890161994628,269.51999544811247,0.0147834392264485,-0.0077691441401839,0.7496398091316223,0.6616353392601013,-0.0028386917669419,-0.0020188423659489,0.0246703679561179,0.0024748062714934,-0.0004169676394667,0.0024215823505073,0.0685348355071619,0.3001070094667375,-9.805872450470924,14934.0
1.7,3.2000000476837163,178.0,24.404972076416016,0.0,-79.78283292547944,40.458901617354286,269.52245735836027,0.0147696174681186,-0.0077542192302644,0.7496619820594788,0.6616107225418091,-0.0024180463940103,-0.003735122449287,0.0247285529965335,0.0058758966624736,-0.0002606642374303,0.0017408502753823,0.0637854757066816,0.31547109849751,-9.803576248884204,14934.0
1.81,3.5,177.0,24.39996337890625,0.0079517737030982,-79.78283298780433,40.45890161792405,269.52341234397886,0.0147682400420308,-0.0077496189624071,0.7496710419654846,0.6616005897521973,-0.0046748761304695,0.0003507084808731,0.0192437551971324,0.0066648707725107,0.0014562910655513,0.0036892802454531,0.0643371285265311,0.3088712365552783,-9.805884144902231,14934.0
2.0,3.799999952316284,175.0,24.40372085571289,0.0079517737030982,-79.78283298662024,40.4589016124234,269.5253190965652,0.0147604309022426,-0.0077498694881796,0.7496766448020935,0.6615943908691406,-0.0054861525940549,-0.0004637574583681,0.0194366924854876,0.0074497107416391,0.0041673309169709,-0.0016684996662661,0.0653386834776029,0.3163478153944015,-9.806760057806969,14934.0
2.11,3.900000095367432,176.0,24.40121650695801,0.0,-79.78283301704677,40.45890163370635,269.5275396080017,0.0147581072524189,-0.0077274967916309,0.7497091889381409,0.6615577936172485,-0.0046159051482617,-0.0039483949923051,0.0178039743400539,-0.004942643456161,-9.846203465713188e-05,-0.000193995409063,0.05407629288733,0.3163279348611832,-9.803948716521264,14934.0
2.3,3.799999952316284,171.0,24.408727645874023,0.0238553211092948,-79.78283307285953,40.45890166900779,269.52829754066465,0.0147492131218314,-0.0077025610953569,0.749699592590332,0.6615691184997559,0.000563504966489,-0.0010051090752939,0.0150702273580874,0.0059683392755687,0.0016821784665808,0.0082709342241287,0.0594668227247893,0.3017898564040661,-9.805444434285164,14934.0
2.4,3.799999952316284,172.0,24.408727645874023,0.0397588685154914,-79.78283307130089,40.45890166899883,269.529822227478,0.0147433308884501,-0.0077252984046936,0.7497190833091736,0.6615468859672546,-0.0002639309573184,-0.0010824498223981,0.0152742886604071,0.004645625129342,0.0072994832880795,0.0013269969495013,0.0689583931909874,0.3041012424789369,-9.80481761276722,14934.0
2.6,3.700000047683716,170.0,24.404972076416016,0.0079517737030982,-79.78283310354325,40.458901661562365,269.5303046674728,0.0147704258561134,-0.0077236937358975,0.7497119307518005,0.6615543961524963,-0.0061183629166084,-0.0021476257804107,0.0109738304188823,-0.0024929153732955,-0.0004977493081241,-0.0023242072202265,0.0626029448630288,0.3244554184377193,-9.805006477832793,14934.0
2.7,3.700000047683716,169.0,24.40372085571289,0.0397588685154914,-79.78283318097567,40.45890170198896,269.5329015226364,0.0147602409124374,-0.0077075958251953,0.749714195728302,0.6615522503852844,0.0005739202365766,0.0034318799029304,0.0104359747577336,0.0067852977663278,-0.0011422879761084,0.0023003078531473,0.0707560556894168,0.3195368502661586,-9.802481065392495,14934.0
2.9,3.5999999046325684,167.0,24.40622520446777,0.0079517737030982,-79.78283318433117,40.4589017015287,269.5339693994522,0.0147610874846577,-0.007725547067821,0.7497023940086365,0.6615654230117798,-0.0002838139759868,0.0020031375466071,0.0108436373606791,-0.0050803530029952,-0.0050862710922956,-0.0078592989593744,0.0590918608848005,0.327139107696712,-9.80278804421425,14934.0
3.01,3.5,171.0,24.4074764251709,0.0079517737030982,-79.78283325964065,40.4589017106514,269.5367404193878,0.0147628579288721,-0.0077583664096891,0.7496885657310486,0.6615806221961975,-0.0026670378670139,0.0066991863817263,0.010759500048948,0.0030648473184555,0.0030384277924895,-0.0030363837722688,0.0666774080693721,0.3114641112461686,-9.804574953317642,14934.0
3.2,3.5,171.0,24.408727645874023,0.0238553211092948,-79.78283326589455,40.45890170709532,269.53782343578337,0.0147577188909053,-0.0077516180463135,0.749708354473114,0.6615584492683411,-0.0038165851837079,0.0058267160603205,0.0110050073788203,-0.0098063498735427,-0.0036320707295089,-0.0048191319219768,0.0690683939354494,0.3244485845044255,-9.801392313838006,14934.0
3.31,3.5,172.0,24.404972076416016,0.0238553211092948,-79.7828332800056,40.458901705474645,269.5390931339264,0.014778166078031,-0.0077506778761744,0.7497197389602661,0.6615450382232666,-0.0087762227259998,-0.0007928990841444,0.0083179802829659,0.0022941541392356,-0.0004130156885366,0.0027760185766965,0.0620415299339219,0.31733562938869,-9.8051965123415,14934.0
3.51,3.299999952316284,175.0,24.40246772766113,0.0,-79.78283327730995,40.45890169734309,269.5399062604904,0.0147631578147411,-0.0077572148293256,0.7497238516807556,0.6615407466888428,-0.0099543535739931,-0.0016618789977697,0.0084734798206997,-0.0045224172063171,-0.0009425731841474,-0.0093414597213268,0.0637986913276836,0.313688099719584,-9.801609830260276,14934.0
3.61,3.400000095367432,177.0,24.404972076416016,0.0079517737030982,-79.7828333683738,40.45890175514449,269.54341721248625,0.0147795900702476,-0.0077812769450247,0.7497276067733765,0.6615357398986816,-0.0004729266583497,0.0031772740871406,0.0091214579520545,0.0096009643748402,0.0013783861650153,0.0027272806037217,0.063856478263624,0.31689094863832,-9.806082950234414,14934.0
3.8,3.400000095367432,181.0,24.41749382019043,0.0795177370309829,-79.78283343002687,40.45890181148647,269.54548310947416,0.0147753180935978,-0.0077975066378712,0.7497374415397644,0.6615245342254639,0.0031878790610762,0.0049809472321906,0.0094222410019392,-0.005859462544322,0.0010266625322401,-0.0025413145776838,0.0692652943544089,0.3284104385599494,-9.798501450419426,14934.0
3.9,3.5999999046325684,183.0,24.408727645874023,0.0477106422185897,-79.7828334383907,40.45890181541706,269.54743504238127,0.0147914858534932,-0.0078195016831159,0.7497382760047913,0.6615229845046997,0.0030180786407595,0.0017237431843303,0.009493244416912,0.0050167720764875,0.0001026404861477,0.0025579566136002,0.0583728132443502,0.3125824643298984,-9.80659867465496,14934.0
4.1,3.700000047683716,182.0,24.40121650695801,0.0,-79.78283351416503,40.45890184777285,269.5477893323898,0.0147971250116825,-0.0078052571043372,0.7497243285179138,0.66153883934021,0.0020468215617643,0.0067237691921365,0.0068981428578656,0.0039539420977234,-0.0003924313641618,-0.0022783058229833,0.0719289660360664,0.312889187335968,-9.80141745686531,14934.0
4.2,3.700000047683716,180.0,24.404972076416016,0.0079517737030982,-79.78283358055872,40.45890186518631,269.5486907930374,0.0148043418303132,-0.0078021688386797,0.749745786190033,0.6615143418312073,-0.0019495439806067,0.0057190370319621,0.0044271507920775,0.0044494159519672,-0.0043991301208734,0.0041506849229335,0.0598398248339071,0.3029660238325596,-9.805074890255929,14934.0
4.4,3.5999999046325684,177.0,24.38994789123535,0.0159035474061965,-79.78283358689166,40.45890186230967,269.5491507024765,0.0148160131648182,-0.0077963122166693,0.7497495412826538,0.6615099310874939,-0.0027595107688147,0.0051742079875236,0.0045865878448665,-0.0042946673929691,0.0006380282575264,-0.0002567741903476,0.0617759201629087,0.3199819695577026,-9.799928171038626,14934.0
4.51,3.700000047683716,176.0,24.39996337890625,0.0954212844371795,-79.78283367243526,40.458901914088365,269.5518956155777,0.0148053281009197,-0.0077915196307003,0.7497605085372925,0.6614977717399597,0.0021450277832562,0.0076975497290853,0.0062404818108707,0.004626921378076,-0.001961076632142,0.0006220581126399,0.0658326818374916,0.3115236797556281,-9.803781486153603,14934.0
4.7,3.5999999046325684,169.0,24.40121650695801,0.0477106422185897,-79.78283368122773,40.45890191453962,269.55254256439207,0.0148204220458865,-0.0078010004945099,0.7497462034225464,0.6615135669708252,0.0020475014907876,0.0065090221138158,0.0064233271247656,-0.0065879649482667,-0.0018842403078451,0.0014168136985972,0.0614090256532654,0.3185777607187629,-9.801565976142884,14934.0
4.81,3.5,168.0,24.398712158203125,0.0954212844371795,-79.78283370019426,40.45890193975993,269.55547368240354,0.0148501470685005,-0.0078131332993507,0.7497550249099731,0.6615027189254761,-0.003166245701069,0.0001914267389474,0.0081276987974464,-0.0057119019329547,0.0001819291792344,-0.0010422589257359,0.0674101783940568,0.3180069628357887,-9.803813645839693,14934.0
5.0,3.400000095367432,157.0,24.40121650695801,0.0874695107340812,-79.78283369841917,40.45890193696653,269.5562623710632,0.0148463994264602,-0.0078233340755105,0.7497680783271791,0.6614879965782166,-0.0027315839562922,-0.0012125500484329,0.0078212125351353,0.0059460923075675,-0.0023361430503427,0.0002403464459348,0.0731024702405557,0.3138963336870074,-9.803461643457414,14934.0
5.1,3.299999952316284,157.0,24.3974609375,0.1272283792495727,-79.78283373992483,40.45890199218904,269.55896007728575,0.0148261310532689,-0.0078331036493182,0.7497644424438477,0.6614923477172852,-0.0005715137942666,-0.0040584641541282,0.0086160978013175,0.006121911574155,0.0009683916578069,0.0043404577299952,0.0625761573063209,0.3066021879762411,-9.80499829173088,14934.0
5.31,3.0,154.0,24.392452239990234,0.0874695107340812,-79.78283379147945,40.45890201714622,269.56043970298765,0.0148053159937262,-0.0078191263601183,0.7497487664222717,0.6615107655525208,-0.004608350533224,-0.0025121001246202,0.0094280411147585,-0.0048785442486405,-0.0003895989211741,-0.0028365170583128,0.0625117465713992,0.3211013824492693,-9.80210158109665,14934.0
5.4,2.900000095367432,153.0,24.39495658874512,0.0954212844371795,-79.7828337813293,40.458902009721214,269.5622781486511,0.0148140219971537,-0.0078142629936337,0.749751091003418,0.6615080237388611,-0.0051442807486054,-0.0048487303753801,0.0094796504672367,-0.0018928038189187,-0.0014142422005534,-0.0025568888522684,0.0630363057693466,0.3184880425035953,-9.801346705555916,14934.0
5.6,2.5999999046325684,153.0,24.38994789123535,0.0397588685154914,-79.7828338647707,40.458902079641646,269.56496178817747,0.0147955538704991,-0.0078151561319828,0.7497531771659851,0.6615061163902283,0.0013308690840469,-0.0004915682483169,0.0128720181314118,-0.0019429193343967,-0.0002497742243576,0.000864008674398,0.0708820175053551,0.3045117901079357,-9.804471457600592,14934.0
5.7,2.5999999046325684,152.0,24.392452239990234,0.0636141896247863,-79.78283393035309,40.45890213499111,269.5682435007095,0.0147885652258992,-0.0078163258731365,0.7497549057006836,0.6615042090415955,0.0020209384324443,-0.0018635780781142,0.0154753517841957,0.0025562497321516,-7.487972470698878e-05,0.005518632940948,0.065652733775787,0.3098528744280338,-9.804598926901818,14934.0
5.9,2.400000095367432,152.0,24.398712158203125,0.0795177370309829,-79.78283392785559,40.4589021358268,269.56980049324034,0.0147885652258992,-0.0078163258731365,0.7497549057006836,0.6615042090415955,0.0009037353859512,-0.0025280165243306,0.0156781743425213,-0.0056277844123542,0.001071365433745,-0.0081376582384109,0.0633217366877943,0.3253403579816222,-9.801609245538712,14934.0
6.01,2.400000095367432,158.0,24.398712158203125,0.0954212844371795,-79.78283400443631,40.45890218390842,269.5725411148071,0.0147719141095876,-0.0078375907614827,0.7497643828392029,0.6614935994148254,0.000794411947131,-0.0008339719343888,0.016970339815798,-0.0087655121460556,-0.0006925167399458,-0.0018926116172224,0.0646514666173607,0.3181884823367,-9.802640109658242,14934.0
6.2,2.299999952316284,165.0,24.39620780944824,0.0795177370309829,-79.782834002676,40.458902184282415,269.57423591327665,0.0147787434980273,-0.0078435912728309,0.7497661113739014,0.6614913940429688,0.0010882512594045,-0.0021580052772675,0.0169192747909374,0.0063805785030126,2.656549622770399e-05,0.0002097673568641,0.0640444159973412,0.3190630796179176,-9.803958072066306,14934.0
6.31,2.200000047683716,169.0,24.38869667053223,0.1033730581402778,-79.78283406650438,40.45890223606542,269.57467412662504,0.0147752463817596,-0.007850051857531,0.7497761249542236,0.6614800095558167,-7.752824810229864e-05,-0.0030925797152261,0.0148772663500978,0.0011258638696745,0.0004060376668348,-0.002882529515773,0.0622268821019679,0.3200345579534769,-9.801788755059242,14934.0
6.5,2.0,169.0,24.39996337890625,0.0795177370309829,-79.78283406224658,40.45890223610346,269.5761625738144,0.014793025329709,-0.0078458078205585,0.7497777938842773,0.6614778637886047,1.701990424064564e-05,-0.0040083288544046,0.0149293100628856,0.0040000397711992,-0.000173225736944,0.0027954613324254,0.0669457678589969,0.3057836326025426,-9.80453343808651,14934.0
6.6,1.8999999761581416,175.0,24.3974609375,0.0715659633278846,-79.78283413736985,40.4589022489792,269.57790362548826,0.0148320943117141,-0.0078490227460861,0.7497841715812683,0.6614696383476257,-0.0077373631893549,-0.0031334181434613,0.0169568634357153,0.0088760303333401,-0.0004767356149386,0.0005450882599689,0.0681917044473812,0.3079984299838543,-9.803756343126295,14934.0
6.8,1.7999999523162842,166.0,24.40121650695801,0.0954212844371795,-79.7828342045207,40.458902331271936,269.57710492324827,0.0148186264559626,-0.0078622000291943,0.7497949600219727,0.6614575982093811,-0.0017343790250275,-0.0061973823063584,0.0179141309074213,-0.008364075794816,-0.0041901967488229,-0.003224842948839,0.0626720607792958,0.3154175599291921,-9.802273489236832,14934.0
6.9,1.7000000476837158,166.0,24.398712158203125,0.1033730581402778,-79.78283418621686,40.45890232864371,269.5806616516113,0.0148505549877882,-0.0078697418794035,0.7498084306716919,0.6614415049552917,-0.0026114403506214,-0.0084468099529047,0.0180284508901738,-0.0029892202001065,-0.0038697335403412,0.0033328018616884,0.0637756816204637,0.3107927047088743,-9.80336633384228,14934.0
7.1,1.600000023841858,161.0,24.39620780944824,0.0954212844371795,-79.7828342755014,40.45890238838485,269.58073401165007,0.0148477740585804,-0.0078807035461068,0.7498042583465576,0.661446213722229,-0.0013336190394729,-0.006688744067679,0.0210033096734882,0.0021306204143911,0.001926350640133,-0.0006648346898145,0.0643757749674841,0.3193880751729012,-9.802530182003975,14934.0
7.21,1.600000023841858,157.0,24.3974609375,0.1033730581402778,-79.78283434889035,40.45890248005339,269.58208381843565,0.014834520407021,-0.0078744953498244,0.7498061656951904,0.6614444255828857,0.005221534024266,-0.0096264974652837,0.0236180144730654,-0.0023673423565924,-0.0009821391431614,-0.0033664677757769,0.0631850671581924,0.3227445596829057,-9.802284598946573,14934.0
7.4,1.600000023841858,163.0,24.40121650695801,0.055662415921688,-79.78283433753434,40.458902485078006,269.58445119571684,0.014834520407021,-0.0078744953498244,0.7498061656951904,0.6614444255828857,0.0054016288273244,-0.0105690929377492,0.0235605406127935,0.0062353750690817,-0.0003772577620111,0.0009470248478464,0.0674016040004789,0.311737980209291,-9.80350257396698,14934.0
7.51,1.600000023841858,159.0,24.40246772766113,0.0477106422185897,-79.78283443316869,40.45890257091046,269.58746051502226,0.0148199163377285,-0.0078762061893939,0.7498087882995605,0.6614417433738708,0.0073916357099984,-0.0086346208870387,0.028912744622356,0.0075424774549901,0.0023631046060472,0.0024392872583121,0.0643386086029931,0.3108827518299222,-9.804776682257652,14934.0
7.7,1.7999999523162842,162.0,24.40121650695801,0.0159035474061965,-79.78283442378523,40.45890257710772,269.59037792396543,0.0148199163377285,-0.0078762061893939,0.7498087882995605,0.6614417433738708,0.0059190269453272,-0.009511957829884,0.0291664434502897,-0.0068584703840315,-0.0018334273481741,-0.0024153187405318,0.0592433631559833,0.314863938242197,-9.800523417592052,14934.0
7.8,1.7999999523162842,160.0,24.392452239990234,0.0318070948123931,-79.78283453208057,40.458902648185074,269.5929683418274,0.0148245282471179,-0.0078749516978859,0.7498235702514648,0.6614248156547546,0.0043740190152083,-0.0063400973437573,0.032557052387195,-0.0023682604078203,-0.0020031051244586,-0.0053303497843444,0.0709652124205604,0.3208602213487029,-9.80209164083004,14934.0
8.0,2.0,158.0,24.40622520446777,0.0159035474061965,-79.78283452385588,40.45890265200687,269.59624957752226,0.0148465074598789,-0.0078792721033096,0.7498081922531128,0.6614418029785156,0.0042484559161952,-0.008431820487003,0.0327869739801331,-0.0071463412605226,-0.0037454322446137,9.527101065032184e-05,0.0601465661125257,0.3127203124389052,-9.801085919737815,14934.0
8.1,2.5,166.0,24.40372085571289,0.0079517737030982,-79.78283461464005,40.458902730872936,269.59463655662535,0.0148332193493843,-0.007898318581283,0.7498196363449097,0.6614288687705994,0.0069442995286844,-0.0095722394752039,0.0343231662384591,0.0058163050562143,0.0021001193672418,-0.0006096892757341,0.0609423584584146,0.3185165842249989,-9.805070212483406,14934.0
8.2,2.5999999046325684,173.0,24.40372085571289,0.0079517737030982,-79.78283474116472,40.458902802250144,269.59577941608427,0.0148223126307129,-0.0079424390569329,0.7498037815093994,0.6614465117454529,0.0047782015220979,-0.0033370887891365,0.0359259890575469,0.00478185294196,0.0008507075253874,0.0042473040521144,0.0638549707783386,0.3083145450800657,-9.804358606338502,14934.0
8.4,3.0,180.0,24.40246772766113,0.0318070948123931,-79.78283473683453,40.458902805394814,269.59938478183744,0.0148179531097412,-0.0079398872330784,0.7497965097427368,0.661454975605011,0.0036989480361579,-0.003545713963932,0.0360618502412465,-0.0017080358229577,-0.0034245578572154,-0.0067045204341411,0.0696672675898298,0.3247362675145268,-9.80252608895302,14934.0
8.5,3.2000000476837163,180.0,24.40121650695801,0.0079517737030982,-79.78283484907847,40.45890290959904,269.59800326538084,0.0148565806448459,-0.0078996308147907,0.7497965693473816,0.661454439163208,0.0090999307409265,-0.0050122647288152,0.0333125140755248,0.0040451986715197,0.0017985271988436,-0.0009187527466565,0.0613195130042731,0.3132851169258356,-9.80289972603321,14934.0
8.7,3.5999999046325684,176.0,24.404972076416016,0.0079517737030982,-79.78283484409194,40.45890291754335,269.60137068939207,0.0148629797622561,-0.007897101342678,0.7498085498809814,0.6614407300949097,0.0086558862994986,-0.0053606040310007,0.0335338563860298,-0.0048705111257731,-0.0042326240800321,0.0039483630098402,0.0660432501230389,0.3092841596156359,-9.80379318058491,14934.0
8.8,3.5999999046325684,180.0,24.40121650695801,0.0159035474061965,-79.78283494211978,40.45890298692981,269.59644233894346,0.014852151274681,-0.0079249488189816,0.7498002052307129,0.6614501476287842,0.0053620620497206,-0.0083299689125365,0.0281575760107483,-0.0055592972785234,-0.002050275215879,-0.000995231908746,0.0556296194298192,0.3183131742104888,-9.80288276910782,14934.0
9.0,4.0,170.0,24.40246772766113,-0.0079517737030982,-79.78283493243133,40.45890299156172,269.5992565126419,0.0148750757798552,-0.0079195722937583,0.7498127818107605,0.6614354848861694,0.0054467807822901,-0.0088583988165455,0.0279937479298887,0.0049361609853804,0.0029502480756491,0.0006410692003555,0.0671645587915554,0.3106624945253134,-9.804600681066514,14934.0
9.11,4.099999904632568,173.0,24.40246772766113,0.0159035474061965,-79.78283508918015,40.45890305182071,269.5945297451019,0.0148564176633954,-0.0079650823026895,0.7498149871826172,0.6614327430725098,0.003564304831773,-0.0019177196133878,0.0252454126865958,0.0014891664031893,-0.0016103755915537,0.0064714858308434,0.0672479501366615,0.3073799407482147,-9.803361071348188,14934.0
9.3,4.300000190734863,176.0,24.40372085571289,0.0079517737030982,-79.78283520800859,40.45890309612773,269.58664369297026,0.0148669593036174,-0.0079409852623939,0.7498267889022827,0.6614194512367249,-0.0002068500923515,-0.0012285068780412,0.0229767133409889,0.0076190298423171,0.0027070483192801,-0.000277790997643,0.0645204752823337,0.3206304623186588,-9.803125428557395,14934.0
9.4,4.199999809265137,176.0,24.40372085571289,0.1113248318433761,-79.78283520225892,40.45890309230071,269.5912477941513,0.0148780355229973,-0.0079360483214259,0.7498298287391663,0.6614158749580383,-0.0024602096629363,-0.0031441780641391,0.0231143432684222,0.0067232293076813,0.0026306891813874,0.0045590363442897,0.0580260824924334,0.3183884936571121,-9.802203322649005,14934.0
9.61,4.099999904632568,176.0,24.39996337890625,0.0,-79.78283531060484,40.45890315751018,269.58617484283445,0.0148755842819809,-0.0079258838668465,0.7498205304145813,0.6614266037940979,-0.0020145227671354,-0.0045907042126654,0.028185829055481,-0.0046692164614796,-0.0004781902825925,-0.0055533247068524,0.0699999147746712,0.3180981063097715,-9.80103504896164,14934.0
9.72,3.900000095367432,176.0,24.40246772766113,0.0079517737030982,-79.78283546813509,40.45890324938349,269.58440065097807,0.0148588372394442,-0.0078792059794068,0.7498307228088379,0.6614160537719727,0.0073695852312761,-0.0010694528977787,0.0348689489657738,0.0005872776964679,-0.0011574134696274,-0.0019385814666748,0.0637597753666341,0.3190593154728413,-9.801954231262208,14934.0
9.9,3.5999999046325684,173.0,24.40246772766113,0.0238553211092948,-79.7828354668421,40.458903254781774,269.5879116029739,0.0148666063323616,-0.007903492078185,0.7498325705528259,0.6614134311676025,0.0068142617069306,-0.0017441225920847,0.0350087208460135,-0.0016036676242947,-0.0015110331587493,0.0037903958000242,0.0694632545812055,0.3097487208992243,-9.804087880253793,14934.0
10.0,3.400000095367432,169.0,24.40246772766113,0.0079517737030982,-79.78283559810242,40.45890332875332,269.5825850934982,0.0148174008354544,-0.00789644010365,0.7498419880867004,0.6614038944244385,0.0078766728538536,-0.0029454764461656,0.0328522369864338,-0.0025860094465315,0.0002891209442168,0.0041520711965858,0.0598024163581431,0.3122555318847299,-9.803445855975152,14934.0
10.2,3.299999952316284,174.0,24.40622520446777,0.0079517737030982,-79.78283559473499,40.45890333475185,269.58588838291166,0.0148142511025071,-0.0078760422766208,0.7498475313186646,0.6613979935646057,0.0072735140298956,-0.0035612533534081,0.0329523616863239,0.0006909174262546,0.0030430196784436,-0.0037677364889532,0.0660299751162529,0.3247968958318233,-9.802740681767462,14934.0
10.31,3.299999952316284,173.0,24.40121650695801,0.0318070948123931,-79.7828357333486,40.45890339032443,269.5796943874359,0.0148270158097147,-0.0078676901757717,0.7498568892478943,0.6613872051239014,0.0045268771242462,-0.00311529683433,0.0312204707606379,-0.0051176417618989,-0.0020386211108416,-0.0031023472547531,0.0662964985147118,0.3226786688715219,-9.801716249585152,14934.0
10.51,3.0999999046325684,178.0,24.39370346069336,0.0079517737030982,-79.78283589513526,40.45890344337664,269.5706338853836,0.0148156126961112,-0.0078772390261292,0.7498570680618286,0.6613871455192566,0.0028099219023611,0.0008295454925004,0.0259729576929482,-0.0046842568553984,0.0002732163411565,-0.0023993579670786,0.0681165311811491,0.3076544309780001,-9.804874915480614,14934.0
10.61,3.0,175.0,24.40121650695801,0.0,-79.78283589590052,40.4589034453306,269.57324444961546,0.0148156126961112,-0.0078772390261292,0.7498570680618286,0.6613871455192566,0.0028473210929932,3.2808726771030125e-05,0.0258730000792576,0.006369408685714,0.003222482278943,0.002658785553649,0.06688762917649,0.3031990171037614,-9.802659990191463,14934.0
10.8,2.799999952316284,172.0,24.40372085571289,0.0159035474061965,-79.78283606817463,40.45890347871801,269.5610679359436,0.0148075958713889,-0.0078900968655943,0.7498565912246704,0.6613876223564148,-0.0016265318451418,0.0049805490774699,0.0227430533114525,-0.0002306462702108,0.0035476039629429,-0.0055266222916543,0.0629166525509208,0.3236981674656272,-9.803061693906782,14934.0
10.9,2.799999952316284,171.0,24.4074764251709,0.055662415921688,-79.78283607670849,40.458903473149576,269.5656024188995,0.0148075958713889,-0.0078900968655943,0.7498565912246704,0.6613876223564148,-0.0023492483238253,0.0034896928100259,0.0225953507091555,-0.0004077010962646,-0.0049903849139809,-0.0044658118858933,0.0654070365149527,0.3231924929469824,-9.799974364042283,14934.0
11.11,2.900000095367432,169.0,24.39996337890625,0.0238553211092948,-79.78283623158245,40.45890353253174,269.55380248737333,0.0147931212559342,-0.0078888544812798,0.7498574256896973,0.661387026309967,0.0013594203158942,0.0044766822781258,0.0213687070590971,0.0023363984655588,-0.0007599450182169,0.0030572381801903,0.0668589915242046,0.3124852543696761,-9.80555436193943,14934.0
11.22,2.799999952316284,172.0,24.40372085571289,0.0079517737030982,-79.78283639592141,40.458903577106746,269.543875333786,0.0147835807874798,-0.0078942710533738,0.7498586177825928,0.6613858342170715,0.000888722905068,0.0059054136618436,0.0199807317340539,-0.0061893449164927,-0.0009051925153471,-0.0016104262322187,0.0651229394925758,0.3163340378925205,-9.801716249585152,14934.0
11.4,2.900000095367432,172.0,24.40372085571289,0.0238553211092948,-79.78283640201329,40.45890357673719,269.545878288269,0.0147835807874798,-0.0078942710533738,0.7498586177825928,0.6613858342170715,0.001240534505467,0.0044537868478674,0.0199256144798442,0.0059429905377328,0.0022185144480317,0.0020399214699864,0.0639632858801633,0.3137547214329243,-9.804091388583185,14934.0
11.52,3.0,174.0,24.39996337890625,-0.0159035474061965,-79.78283657341674,40.45890360269317,269.53517436695097,0.0147764766588807,-0.0079029640182852,0.7498593926429749,0.6613849997520447,-0.0026072942260742,0.0069158928847906,0.019058772375345,0.006566674914211,0.0013138593640178,-8.920237451093271e-05,0.067289885636419,0.3104063864797354,-9.80449777007103,14934.0
11.72,3.0,165.0,24.3974609375,-0.0079517737030982,-79.78283675303571,40.4589036434684,269.52204453659056,0.0147635554894804,-0.0079003293067216,0.749862790107727,0.6613814830780029,-0.0011697477099866,0.0079738511568385,0.0145895407297465,0.005503780208528,0.0015044950414448,0.0037344563752412,0.067311136610806,0.3230353490263224,-9.80337568938732,14934.0
11.81,3.0,168.0,24.3974609375,0.0159035474061965,-79.78283676120064,40.45890364084372,269.52351176452635,0.014756572432816,-0.0079051358625292,0.7498667240142822,0.6613771319389343,-0.0023036112464946,0.0069503570808122,0.0147720604259499,-0.004694078117609,-0.0012665669200941,-0.0088133513927459,0.0646319698076695,0.318463484197855,-9.802096318602562,14934.0
12.0,2.799999952316284,169.0,24.392452239990234,0.0159035474061965,-79.78283676834452,40.45890363789191,269.5249814958572,0.0147575484588742,-0.0078788474202156,0.7498571276664734,0.6613883376121521,-0.0017321527320659,0.0055438916594549,0.0146451330387395,0.0072514871135354,0.002025662921369,0.0013240927364677,0.0637321472726762,0.3132611067965626,-9.803902523517609,14934.0
12.11,2.799999952316284,168.0,24.40246772766113,0.0079517737030982,-79.78283690189082,40.45890367957709,269.51192855548857,0.014752528630197,-0.0078708156943321,0.7498506903648376,0.661395788192749,-0.00208060776718,0.0013474890667547,0.0128118873730964,0.0051149977371096,0.0040610288269817,-0.0012512886896729,0.0673388103861361,0.315195658095181,-9.803975613713265,14934.0
12.3,2.5999999046325684,166.0,24.40622520446777,0.0159035474061965,-79.78283705510566,40.45890370954528,269.495796916008,0.0147446952760219,-0.0078727276995778,0.7498545646667479,0.66139155626297,-0.0046786420236826,0.0018251188082871,0.007699541094827,-0.0052201356738805,-0.001602717093192,0.0071060024201869,0.0690629943972453,0.3086457533016801,-9.803400247693062,14934.0
12.4,2.5999999046325684,165.0,24.39119911193848,0.1033730581402778,-79.7828370548597,40.458903700302,269.4973090858459,0.014762201346457,-0.0078689120709896,0.7498536705970764,0.6613921523094177,-0.0046976969886775,-0.0005638118931554,0.0077189838424215,0.0031644194386899,0.0017232502577826,0.0018123185727745,0.0660606729984283,0.3109670613706112,-9.804494261741636,14934.0
12.6,2.400000095367432,162.0,24.398712158203125,-0.0079517737030982,-79.78283727907912,40.45890378649308,269.4824703903198,0.0147265484556555,-0.0078713931143283,0.7498618960380554,0.6613836884498596,0.0048254682406425,0.0098566015369532,0.0070419305379713,-0.0076734842732548,0.0014274462591856,-0.0054740868508815,0.0623546620365232,0.3214362086355686,-9.803093853592872,14934.0
12.7,2.299999952316284,161.0,24.39996337890625,0.0079517737030982,-79.78283742928909,40.458903820357,269.4680647821426,0.0147274537011981,-0.007868499495089,0.7498669028282166,0.661378026008606,-0.0004087377171258,0.0036147757461456,0.0068830599792115,-0.0090885628014802,-0.0021053592208772,0.0002781810471788,0.0654485882911831,0.3160207367688417,-9.803482108712195,14934.0
12.9,2.299999952316284,155.0,24.39370346069336,-0.0079517737030982,-79.78283743258065,40.45890381936224,269.4687448711395,0.0147274537011981,-0.007868499495089,0.7498669028282166,0.661378026008606,-0.0003939937622406,0.002464987021579,0.0067861445448453,0.0054182237945497,0.0027575145941227,-0.000507264630869,0.0653450331883505,0.3186852763965726,-9.80339556992054,14934.0
13.0,2.299999952316284,151.0,24.39495658874512,0.0159035474061965,-79.78283764257837,40.458903866787466,269.453040596962,0.014711276628077,-0.0078786592930555,0.7498676776885986,0.6613773107528687,9.26209126769512e-05,0.0101260365504642,0.0035940582643044,-0.0041141640394926,1.905821722658629e-09,-0.0069789923727512,0.066788226510398,0.3213228457421065,-9.801785246729851,14934.0
13.2,2.299999952316284,146.0,24.40246772766113,-0.0079517737030982,-79.78283765389503,40.458903865778886,269.45340692710874,0.014711276628077,-0.0078786592930555,0.7498676776885986,0.6613773107528687,0.0004437180607662,0.0089547419641332,0.0035626429801322,0.007254731375724,0.0015304171247407,0.0047854948788881,0.0655877748643979,0.3088174056261778,-9.804349835515024,14934.0
13.3,2.200000047683716,143.0,24.39996337890625,0.0,-79.78283779085375,40.458903912460855,269.4386665792465,0.0147103611379861,-0.0078745828941464,0.7498680949211121,0.6613768935203552,0.0001274262326523,0.0026890673110362,0.0043825456851221,0.0052980119362473,0.0028835276607424,0.0029217787086963,0.06779680268839,0.3097729502990842,-9.804042271971705,14934.0
13.5,2.200000047683716,141.0,24.39495658874512,-0.0159035474061965,-79.78283779323317,40.458903911760906,269.43911659431456,0.0147103611379861,-0.0078745828941464,0.7498680949211121,0.6613768935203552,-0.0009753991069387,0.0019029246837084,0.0046251209487657,-0.0093136020004749,-0.0009928906802088,-0.0004393878334667,0.0663316960120573,0.3158407156169415,-9.802912005186082,14934.0
13.61,2.0999999046325684,136.0,24.398712158203125,-0.0238553211092948,-79.78283793019962,40.45890396232209,269.42604589176176,0.014705647714436,-0.0078718354925513,0.749869167804718,0.6613759398460388,-0.0005908758141736,-0.0023485734787495,0.008385646159477,-0.0039756232872605,-0.0001460158819099,0.000452404783573,0.0642990987841039,0.3165998303890228,-9.802533690333368,14934.0
13.8,2.200000047683716,128.0,24.36741065979004,0.6202383637428284,-79.78283810162975,40.45890403216186,269.4112142295837,0.0146932704374194,-0.0078720916062593,0.7498701214790344,0.6613751053810121,0.0045630539294433,-0.0011580729962002,0.0106593259343896,0.0068967039696872,0.0022194944322109,0.0021110859233886,0.0672302760137245,0.3163823870569468,-9.802930716276167,14934.0
13.9,2.200000047683716,123.0,24.37867927551269,0.3180709481239319,-79.78283809832905,40.45890403894474,269.41337918949125,0.0146981552243232,-0.0078503731638193,0.7498937249183655,0.6613485217094421,0.0047817741743198,-0.0028628367152344,0.0106889236149257,0.0111727314069867,0.0050097135826945,-0.002127839718014,0.0643443324789404,0.3164462313428521,-9.804621731042864,14934.0
14.1,2.200000047683716,115.0,24.381183624267567,0.2862638533115387,-79.78283825790494,40.458904101589646,269.3966352910995,0.0147006539627909,-0.0078351618722081,0.749876856803894,0.6613677740097046,0.0051890026142711,-0.0014095336432838,0.0092221865798305,-0.0081954589113593,-0.0004322229360695,0.0017064558342099,0.0637707206234336,0.312360416315496,-9.801292326450348,14934.0
14.2,2.200000047683716,109.0,24.384939193725582,0.3180709481239319,-79.78283844163414,40.4589041427268,269.3804957838058,0.0146873472258448,-0.0078407954424619,0.7499002814292908,0.6613414287567139,0.0012228923367095,0.0030661086558657,0.0083725218379369,-0.0083396909758448,0.0002404460683465,0.0123542798683047,0.0620793358376249,0.3241984333097935,-9.800141594409943,14934.0
14.4,2.0999999046325684,104.0,24.37617492675781,0.3101191818714142,-79.7828384446425,40.45890414253007,269.3813166589737,0.0146833313629031,-0.0078348666429519,0.7499291896820068,0.6613087058067322,-0.0002891745387523,0.0022006902794127,0.0080453333627727,0.0063475081697106,-0.0020226277410984,-0.0061442325823009,0.0691034772293642,0.2959698668494821,-9.80463810324669,14934.0
14.51,2.200000047683716,104.0,24.37742805480957,0.3419262766838074,-79.78283844651527,40.45890414238328,269.38212573242185,0.014668233692646,-0.0078299734741449,0.7498781681060791,0.6613670587539673,0.0005931217892307,0.0011771140339108,0.0080380046118837,-0.0081093255430459,-0.0044301715679466,0.0110873924568295,0.0582566455146297,0.3298201657086611,-9.802938902378084,14934.0
14.7,2.200000047683716,107.0,24.37742805480957,0.3737333714962005,-79.78283864335377,40.458904200092334,269.3673207731247,0.0146541753783822,-0.0077999006025493,0.7498815655708313,0.6613637804985046,0.0011301086340042,0.0043889491237504,0.0107749453450676,-0.0038307823706418,-0.0001641043636482,0.0015519980806857,0.062378050899133,0.3152818314358592,-9.803044152259828,14934.0
14.8,2.200000047683716,105.0,24.37617492675781,0.4452993273735046,-79.78283883784306,40.45890425540446,269.3495060176849,0.0146613484248518,-0.0078019411303102,0.7498994469642639,0.6613433957099915,0.0026469944399555,0.0059692771992928,0.0085976761139832,0.0058811595663428,0.008548704907298,-0.002387557644397,0.0686747758230194,0.3109313568100333,-9.8009145963192,14934.0
15.0,2.299999952316284,109.0,24.139537811279297,3.538539409637451,-79.78283884477473,40.458904255780745,269.3503755302429,0.0146575728431344,-0.0077972053550183,0.7499410510063171,0.6612963080406189,0.0017966588341124,0.005013766211118,0.0089750499175559,-0.0054601659066975,0.0024928839411586,0.0051537258550524,0.0777849525120109,0.3401059662178159,-9.81270141363144,14934.0
15.1,2.400000095367432,110.0,24.358646392822266,0.5804795026779175,-79.78283906803914,40.45890434083871,269.3313635559082,0.0144213307648897,-0.0078334538266062,0.749918520450592,0.6613266468048096,0.007739552244715,0.0110108598072699,0.0036527782776999,0.0202269796282053,-0.0500602126121521,-0.000533205398824,0.0752100671455264,0.1941442059539258,-9.797817910909654,14934.0
15.3,2.400000095367432,113.0,24.36741065979004,11.156338691711426,-79.78283922661014,40.458904359152974,269.30924534511564,0.0144669339060783,-0.0077924425713717,0.7499082088470459,0.6613378524780273,0.0015015501848629,0.007740175199638,0.0008926127633484,0.0260822791606187,-0.004064864013344,0.0012447490589693,0.0537553447019308,0.2560008770786225,-9.796353183388712,14934.0
15.41,2.299999952316284,116.0,24.26975059509277,2.329869747161865,-79.7828392432682,40.45890435247611,269.3095532627105,0.0144221559166908,-0.0077866036444902,0.7498571872711182,0.6613967418670654,-0.002330131751125,0.0063808010161132,0.0014766726145814,0.0295707136392593,0.0466190502047538,0.0087756561115384,0.0431188620021566,0.2529978750273585,-9.7878349596262,14934.0
15.6,2.299999952316284,122.0,24.372419357299805,0.2465049922466278,-79.78283945480206,40.45890439428555,269.2859634132385,0.0144424000754952,-0.0078026051633059,0.7499176263809204,0.6613275408744812,-0.0052243495980941,0.0135700399098017,-0.0052025046373602,-0.0077050728723406,-0.0360226668417453,-0.0058507579378783,0.0846106448862701,0.3175425477325917,-9.806657146811483,14934.0
15.71,2.299999952316284,123.0,24.372419357299805,0.2544567584991455,-79.78283962653083,40.45890449096832,269.2609530658722,0.0145209077745676,-0.0077637806534767,0.7499407529830933,0.6613000631332397,0.0053391419873208,0.0059219852977009,-0.0092706237559918,-0.0015331131871789,0.0401700548827648,-0.0001113040270865,0.0720632464298978,0.3021612825058401,-9.80965442955494,14934.0
15.9,2.400000095367432,126.0,24.20464515686035,3.6657676696777344,-79.78283963550602,40.458904495667454,269.26005994987486,0.0145950568839907,-0.0077142221853137,0.7499377131462097,0.6613024473190308,0.0061603542506403,0.0063758459477906,-0.0100391381420638,-0.0053894612938165,-0.0004931025905534,0.0138353835791349,0.1097787147201597,0.3230857081711292,-9.79676424264908,14934.0
16.01,2.5,126.0,24.149553298950195,4.365523815155028,-79.78283979583382,40.45890455353648,269.238322016716,0.0144607350230216,-0.0077932178974151,0.7499390840530396,0.661302924156189,0.0070770794922435,0.0041481828453778,-0.0080362699598388,-0.0007360602612607,0.0043214932084083,0.0066567044705152,0.0611972833564505,0.3137345485389233,-9.80131220698357,14934.0
16.2,2.400000095367432,130.0,24.02560043334961,6.9816575050354,-79.7828398019433,40.458904558162615,269.2375138969421,0.0143588613718748,-0.0077520385384559,0.7499433159828186,0.661300778388977,0.005413876115772,0.0046868887123594,-0.0080115354677085,0.0016117427730932,0.043958194553852,0.0073136761784553,0.0686868402734398,0.2774594641663134,-9.8088878595829,14934.0
16.3,2.5,132.0,23.98678779602051,7.848401069641112,-79.78284002543049,40.45890459351447,269.2119926185608,0.0137947490438818,-0.0077632330358028,0.7499749064445496,0.6612769365310669,0.0047294995093117,0.0133744987634017,-0.0155703223690935,0.0117994425818324,0.0065532312728464,0.0421229749917984,0.0551709053618833,0.340691857226193,-9.7749605602026,14934.0
16.5,2.799999952316284,135.0,23.78520774841309,10.71899127960205,-79.78284004253057,40.45890459484861,269.2106118173599,0.0135476030409336,-0.0078655509278178,0.7499052286148071,0.6613597869873047,0.0016389396963964,0.0123525418585359,-0.0139817032650513,0.0276829954236745,0.0873594433069229,-0.1323960125446319,0.1261987926252186,0.2728876907005906,-9.840815995931626,14934.0
16.6,3.0999999046325684,137.0,23.71759605407715,11.752721786499023,-79.78284024654809,40.45890461711241,269.1816982002258,0.0127821564674377,-0.0072402241639792,0.7498647570610046,0.6614280343055725,0.000755895211697,0.0215294458663829,-0.0177082121035984,0.021092502400279,-0.0348844341933727,-0.043313194066286,0.1571858927048743,0.1187316606938839,-9.877732976675034,14934.0
16.8,3.299999952316284,141.0,23.539804458618164,15.5457181930542,-79.78284038605278,40.45890472309202,269.1515184612274,0.0121444789692759,-0.0066428193822503,0.7500531673431396,0.6612327098846436,0.0183769622347188,0.0133430955500089,-0.0279162919876809,0.1189900860190391,0.0188506171107292,-0.1351746916770935,0.0322630356252193,0.5069773513823748,-9.78043940126896,14934.0
16.91,3.5,147.0,23.43588447570801,17.064506530761722,-79.78284042569061,40.45890474034376,269.146476146698,0.0109426565468311,-0.0050362874753773,0.7500082850456238,0.6613187193870544,0.0049753672745534,0.0129348331240287,-0.0241961564385856,-0.0096485121175646,0.0147391064092516,0.0721026808023452,0.1250012463144958,0.2129541688039899,-9.844303275346755,14934.0
17.1,3.700000047683716,153.0,23.23806190490723,20.746177673339844,-79.78284060644519,40.45890478888885,269.11984789085386,0.0110916690900921,-0.0040990598499774,0.7501332759857178,0.6611810326576233,-0.000746634718436,0.0092488287341337,-0.0258111090969899,-0.0538917481899261,0.0506528802216053,-0.0657861903309822,0.0630480367457494,0.4349584752693773,-9.816106832027437,14934.0
17.21,3.799999952316284,156.0,23.125375747680664,22.614845275878903,-79.78284077283747,40.45890479781611,269.09075987052915,0.0118141155689954,-0.0009170103585347,0.7500047087669373,0.6613264679908752,-0.0086333472370106,-0.0002547347164012,-0.0206978517921038,-0.1052370145916938,0.0504478737711906,-0.0468661040067672,-0.0383011605846695,0.296765380539,-9.773516882658006,14934.0
17.4,4.0,164.0,22.87621879577637,26.73386383056641,-79.78284078226379,40.4589047983706,269.0881705255508,0.0135766994208097,-0.0015940914163365,0.7499482035636902,0.6613553166389465,0.0014362085089335,0.013038905016592,-0.0252486607370506,-0.0725243538618087,-0.0259099286049604,0.0151029219850897,0.1519874621741473,0.3358279239758849,-9.805476009249688,14934.0
17.5,4.099999904632568,168.0,22.773550033569336,28.42759132385254,-79.7828409385931,40.45890485159845,269.0702477664948,0.0171567611396312,-0.0045560882426798,0.7476070523262024,0.663904070854187,0.0251721758758739,0.0152821376265357,0.0978973448461991,0.1094423756003379,0.0302784536033868,0.1472905576229095,0.1689606866799295,0.320072126314044,-10.207015417814253,14934.0
17.7,4.199999809265137,169.0,23.046497344970703,22.78183174133301,-79.78284096048434,40.45890485592158,269.0859174699783,0.0205988269299268,-0.0035088071599602,0.7453623414039612,0.6663320660591125,0.0166720279696216,0.0370287283996501,0.2109106521275352,0.0040509174577891,-0.0560380741953849,0.1064557507634162,0.3451296380907297,0.5348354967311025,-10.742518630027767,14934.0
17.81,4.199999809265137,169.0,22.9788875579834,24.23700714111328,-79.78284129179183,40.458905052833,269.0855219335556,0.0053965048864483,-0.0041294167749583,0.7421486377716064,0.6702009439468384,0.0521170761913848,0.075344720851802,0.2254661396956301,0.1800630390644073,-0.18433278799057,0.0559173710644245,0.3186762863025069,0.1697866241633892,-10.091845149993896,14934.0
18.0,4.199999809265137,170.0,22.92379570007324,24.75387191772461,-79.78284138680428,40.45890508603535,269.10916042041777,0.0013695752713829,-0.0011804898967966,0.7435141801834106,0.6687178015708923,0.0544240530276482,0.0834984922694898,0.2416986909554772,0.0569001846015453,0.1650476902723312,-0.0824101567268371,0.1718714306317269,0.290218472443521,-9.928295019865038,14934.0
18.11,4.099999904632568,172.0,22.94257736206055,24.141586303710927,-79.78284163985224,40.458905123605135,269.0996831626892,0.0059078736230731,-0.0018217047909274,0.7475256323814392,0.6642042994499207,0.0986270346268684,0.1249800610284583,0.2079322091009994,-0.0757189095020294,0.1280114203691482,0.0121291037648916,0.3429508924484253,0.049136108290404,-9.999150409698489,14934.0
18.3,3.900000095367432,178.0,22.847421646118164,24.730016708374023,-79.78284209717631,40.4589053768123,269.1315431566238,0.0153529532253742,-0.0049747396260499,0.7500128149986267,0.6612265110015869,0.1111011282548725,0.1828705958012157,0.173156898008316,-0.18914133310318,-0.165194496512413,-0.030156560242176,0.3570142135396599,0.5778117643296719,-9.784838846325874,14934.0
18.4,3.900000095367432,180.0,22.893747329711918,24.276765823364247,-79.7828423331509,40.45890546349962,269.1497102947235,0.018835611641407,-0.0072215618565678,0.7500182986259459,0.6611093878746033,0.1439053855509472,0.1965969500131978,0.1745968989279988,0.1348653733730316,-0.0404589474201202,0.1249289512634277,0.318508727028966,0.0822456014715135,-9.8952734541893,14934.0
18.6,3.900000095367432,181.0,22.856185913085927,25.15146064758301,-79.78284301304582,40.45890561427873,269.1319143743515,0.021826222538948,-0.0041640293784439,0.7496631741523743,0.6614465713500977,0.1764752313380704,0.2195657563715106,0.1705281392201624,0.1779883950948715,0.2106859683990478,-0.0419167093932628,0.3735532822832465,0.4771005644649268,-9.987273545265198,14934.0
18.71,4.0,181.0,22.92254447937012,23.91098403930664,-79.78284400318056,40.458906110610926,269.13662504863737,0.0297531727701425,0.0025578667409718,0.7496282458305359,0.661185085773468,0.2103963524566716,0.2697836810193729,0.1806456506670398,-0.1744738817214965,0.0120876478031277,-0.0732253417372703,0.1568172074854374,0.4705031875893474,-9.851096570491787,14934.0
18.9,4.099999904632568,173.0,22.996416091918945,22.75002479553223,-79.7828443372624,40.458906265346286,269.1561492652893,0.0346092246472835,0.0026913718320429,0.7490906715393066,0.6615573763847351,0.234505740597292,0.2586181356785717,0.1756515691710286,0.1663905531167984,0.0115067902952432,0.179654449224472,0.4432659434527159,0.1984661388583481,-9.890559428930285,14934.0
19.0,4.099999904632568,171.0,22.966365814208984,22.654603958129893,-79.78284486771331,40.45890659488625,269.1879669399261,0.0387424975633621,0.005511644296348,0.7474535703659058,0.663160502910614,0.1896984366129468,0.2197694308106704,0.1473970246795972,-0.1770102530717849,0.1117167770862579,-0.0784698873758316,0.4035888576507569,0.8330935252457857,-9.466031692028048,14934.0
19.2,4.300000190734863,172.0,22.962610244750977,23.75990104675293,-79.78284513149609,40.45890674954914,269.20249402236936,0.0399028435349464,0.0056291036307811,0.7471058964729309,0.6634824872016907,0.1924169793572866,0.2066668011349756,0.102273732950878,-0.2269256412982941,-0.0081367325037717,-0.1097625344991684,0.3436059633269906,0.6545596857368946,-9.358282710313796,14934.0
19.31,4.300000190734863,174.0,22.93381309509277,22.877254486083984,-79.78284595301652,40.458907214189466,269.21408629131315,0.0473587661981582,0.0039786514826118,0.7463844418525696,0.663815975189209,0.1910263979385078,0.1551832602023848,0.0507414288702677,0.1678559929132461,0.0479696281254291,0.0303536560386419,0.7240531128644944,0.3565213298052549,-9.50121438860893,14934.0
19.5,4.400000095367432,173.0,23.589887619018555,14.68692684173584,-79.78284614995059,40.45890734491999,269.2201673955917,0.0505783855915069,0.0011410940205678,0.7467197775840759,0.6632120013237,0.1447283657041745,0.1462356167239796,0.0300494779251858,-0.235257014632225,0.0720422193408012,0.1026026830077171,0.5282895022630691,0.6532156301289798,-9.475268538594246,14934.0
19.61,4.400000095367432,173.0,22.77980995178223,25.978445053100582,-79.7828467222529,40.45890763038052,269.20003473472593,0.0493180081248283,0.0020763257052749,0.7491710186004639,0.6605347990989685,0.1881665537478944,0.1184051213885874,-0.1966931211437152,0.2480427473783493,-0.2461454421281814,0.1070426926016807,0.5662428654357792,0.4200546900182962,-8.360699772834778,14934.0
19.81,4.400000095367432,175.0,22.605775833129893,28.538917541503903,-79.78284717902466,40.45890791705735,269.17711710643766,0.0379410833120346,0.0001713839446892,0.7501342296600342,0.6601964235305786,0.1846011249389402,0.134703222645689,-0.2344460630539817,0.1611293852329254,-0.3273325562477112,0.0561826899647712,0.6391402857005597,0.4676441549509764,-9.06568920850754,14934.0
19.9,4.300000190734863,175.0,22.488082885742188,31.00396728515625,-79.78284754221191,40.45890821804981,269.1400917739868,0.0322756133973598,-0.0085730459541082,0.7491196393966675,0.6615924239158629,0.1684572348054377,0.1325593382693771,-0.1424913333127454,-0.1297602206468582,-0.1046476289629936,-0.0020393724553287,0.38923803627491,0.7452268309146166,-10.261951178312303,14934.0
20.1,4.300000190734863,190.0,22.29526710510254,32.69769287109375,-79.7828481689472,40.45890842880985,269.1524620027542,0.0367098487913608,-0.0085074072703719,0.7484157085418701,0.6621586680412292,0.193162073639712,0.1456525985705551,0.0171403068953841,-0.0741294175386428,0.1160562708973884,0.0414440147578716,0.3088673627749085,0.7834057869762182,-10.806556166410449,14934.0
20.21,4.300000190734863,181.0,22.15754127502441,37.651649475097656,-79.78284867688144,40.45890873859028,269.1681340904236,0.041893184185028,0.0005003517144359,0.7466646432876587,0.6638800501823425,0.1902755183072807,0.153715988486224,0.3721267111977629,0.057240042835474,0.0751267671585083,-0.0427369885146617,0.502312990911305,0.7389138114452363,-11.607587288618088,14934.0
20.4,4.199999809265137,182.0,22.0423526763916,38.74104309082031,-79.7828488563978,40.458908863950974,269.2178628416061,0.0450965575873851,0.0027574149426072,0.7457146048545837,0.6647318601608276,0.1965537008317398,0.1560661152414769,0.5944177652247911,0.0443552508950233,0.0973853766918182,0.0821197181940078,0.5564926698803901,0.4627078624069691,-11.98671724319458,14934.0
20.52,4.199999809265137,181.0,22.04986572265625,38.69333267211914,-79.78284927593081,40.45890920029233,269.35321354579924,0.0502410903573036,-0.0027226177044212,0.7445363998413086,0.6656831502914429,0.1977656919981221,0.1617734876459042,1.0941061217088095,0.0073991101235151,-0.1139898225665092,-0.0404463894665241,0.5793569276109338,0.7368888475745917,-12.450202639102937,14934.0
20.6,4.199999809265137,177.0,21.924659729003903,40.15645980834961,-79.78284937624741,40.45890929344797,269.477894780159,0.0457008518278598,-0.0042610974051058,0.7443075776100159,0.6662578582763672,0.2139622521924444,0.1604561449154761,1.3562409956010943,-0.0309868901968002,-0.1552009880542755,-0.0024683417286723,0.6175516346096993,0.6051026932150125,-12.365230901241302,14934.0
20.8,4.300000190734863,186.0,22.0423526763916,36.75309753417969,-79.78284954864519,40.45890941852957,269.5888231964111,0.0381119884550571,-0.0045197736471891,0.7445632219314575,0.6664478778839111,0.2162184619476984,0.1514638422130595,1.5974979398475126,-0.0413482673466205,-0.1297915279865265,-0.1010443940758705,0.64442463375628,0.8492707244306803,-12.37919288277626,14934.0
21.0,4.199999809265137,190.0,21.98350715637207,38.1923713684082,-79.7828496830214,40.45890961915112,269.96364605140684,0.0315187387168407,-0.0095950625836849,0.7479149103164673,0.6629765629768372,0.2431140709250381,0.1090827043909113,2.100708337698769,-0.0890590250492096,-0.043870098888874,0.0776577591896057,0.3121585046499968,0.7528816401958466,-12.191932293176654,14934.0
21.1,4.099999904632568,191.0,21.72182846069336,30.87673759460449,-79.78284989666062,40.458909845230544,270.3585540027618,0.036763921380043,-0.0129413651302456,0.7488348484039307,0.6616097092628479,0.3152033164612472,0.0923065587677691,2.4789003108135224,-0.0358697474002838,0.0239293351769447,-0.1054135411977768,0.2641482960060239,1.2125482926517726,-11.788341096639636,14935.0
21.3,4.300000190734863,197.0,21.564069747924805,33.61214828491211,-79.78285008022327,40.45891002239638,270.53638636779783,0.0351723171770572,-0.0148376198485493,0.7478068470954895,0.6628180742263794,0.3372184081032047,0.1009923728896716,2.5244780236460542,0.0521849021315574,0.0173856932669878,0.1294834166765213,0.1716063324920833,0.8737352554500103,-11.14082628250122,14935.0
21.41,4.400000095367432,198.0,21.733097076416016,29.62830924987793,-79.78285015032839,40.45891015774365,270.7960509033203,0.0310116987675428,-0.0156312584877014,0.7462718486785889,0.6647348403930664,0.3641759955567652,0.0932427090813125,2.640629532556229,0.1924067586660385,0.0580290928483009,0.1069427728652954,0.1723773792386055,0.8392314206063748,-11.03894907474518,14935.0
21.51,4.599999904632568,200.0,21.683013916015625,32.07745742797852,-79.78285053505691,40.45891070008499,271.2350338668823,0.0285159815102815,-0.0130906179547309,0.7437054514884949,0.6677706837654114,0.3496176822876125,0.0783948015520817,2.6725544922138496,-0.0992987155914306,0.25655597448349,-0.0161383599042892,0.0355135142267681,0.8770735770463944,-10.055985345840456,14936.0
21.71,4.599999904632568,200.0,22.26146125793457,32.80902099609375,-79.78285096329527,40.458911515993655,271.6564136714935,0.0422727093100547,-0.0080470005050301,0.7445297837257385,0.6662009358406067,0.3989207937788749,0.1349437077771156,2.585288384468357,-0.0944839566946029,-0.0074229901656508,-0.0315984301269054,0.2336913922056556,0.602613716237247,-9.75225406765938,14936.0
21.9,4.699999809265137,208.0,22.32781982421875,30.8608341217041,-79.78285103447412,40.45891171333986,271.9177221031189,0.0389491207897663,-0.0091653186827898,0.7448065876960754,0.6660796999931335,0.4094445131653814,0.1443660003886443,2.5915625829140336,0.0364030487835407,-0.131566509604454,-0.0308062303811311,0.3498288260400295,0.6219293718785048,-9.866546083688736,14936.0
22.01,4.800000190734863,201.0,22.43048858642578,29.413612365722656,-79.78285107872183,40.45891191018256,272.1802343101501,0.0332552082836628,-0.0102831684052944,0.7452405691146851,0.6658865809440613,0.4042556511014017,0.1078055759890136,2.603513492566155,0.0365392081439495,-0.1477324813604354,-0.0692344382405281,0.158260921575129,0.5485042038559914,-9.82958349466324,14937.0
22.2,4.800000190734863,203.0,22.402942657470703,30.391679763793945,-79.78285165214007,40.45891281296832,272.5794595451355,0.025540979579091,-0.0172502063214778,0.7443780303001404,0.6670469045639038,0.4126729088557093,0.0694676632112836,2.535225520354758,-0.1677300781011581,-0.1228994503617286,-0.0331751108169555,0.2052043788135052,0.9213602422177792,-9.860740967988969,14937.0
22.31,4.900000095367432,204.0,22.24894142150879,31.55263900756836,-79.78285191631356,40.45891319168325,273.16962134552,0.0371591821312904,-0.0295198317617178,0.7421671748161316,0.6685324907302856,0.4459528053944463,0.045469759948036,2.4905147645397485,-0.2085946202278136,-0.0521109700202941,0.0631344094872474,0.1886692934855819,0.8405704329907895,-9.329889215826988,14938.0
22.5,5.099999904632568,213.0,22.33157730102539,31.55263900756836,-79.78285199538402,40.45891342673851,273.41809212875364,0.0408543311059474,-0.0337768904864788,0.7411033511161804,0.6692951321601868,0.5054581009302435,0.066127063127712,2.416125878476045,-0.009929159656167,-0.0001291823864448,-0.022745382040739,0.191191270686686,1.078505259230733,-9.117787315249442,14938.0
22.6,5.099999904632568,222.0,22.21638870239257,32.78516387939453,-79.7828534045163,40.45891333340948,273.865816947937,0.0433974862098693,-0.0341354832053184,0.7416790723800659,0.6684786081314087,0.4933561856114349,0.1345472969193545,2.4416066869636404,0.1130386739969253,0.1247084960341453,-0.1125283688306808,0.1773397832550108,1.0519578038156032,-9.23049765944481,14938.0
22.81,5.300000190734863,224.0,21.869569778442383,37.94586563110352,-79.78285477888065,40.45891376478571,274.5747417182922,0.0513091497123241,-0.0295539442449808,0.7481263279914856,0.6609091758728027,0.4219319984618435,0.1853786454253302,2.455082776657691,-0.0076643773354589,0.1572377532720565,-0.0830214098095893,0.0309381045238114,0.81776431851089,-9.348900268077848,14939.0
22.9,5.400000095367432,226.0,21.765649795532227,38.68537902832031,-79.782854964692,40.4589138761244,274.8230293960571,0.0520558692514896,-0.0196277163922786,0.7507492899894714,0.6582403779029846,0.4159422515685616,0.1940023578228623,2.4453957945912017,0.128234788775444,0.0970974788069725,-0.1046907156705856,0.143273786092177,0.9168999130278828,-9.60859090268612,14939.0
23.01,5.599999904632568,221.0,21.90087127685547,37.88225173950195,-79.78285626634131,40.45891445664286,275.6466616363525,0.0470088869333267,-0.0218850001692771,0.7485054135322571,0.661098301410675,0.3510175890330018,0.2109677381321169,2.643745019558367,0.0728321895003318,-0.1577866375446319,0.0282179657369852,0.1601473612524569,0.9475305522233248,-9.997529561519622,14940.0
23.2,5.699999809265138,214.0,21.832008361816406,39.957664489746094,-79.78285661680083,40.458914831418994,276.3886574478149,0.0366052351891994,-0.028835417702794,0.7450885176658629,0.6653357744216919,0.3167271459846039,0.0421748518498854,2.8050628862917817,0.1105062887072563,-0.1172048896551132,0.0184525735676288,-0.1024859577231109,0.8668339329957963,-10.040641082525251,14941.0
23.3,5.9000000953674325,217.0,21.739356994628903,41.42874145507813,-79.7828566127728,40.45891486796649,276.672644493103,0.0305624045431613,-0.0315409004688262,0.7438206076622009,0.6669347882270813,0.2968381245321923,-0.0015450878448649,2.85013836593768,0.0916851833462715,-0.0846741870045661,-0.0174598898738622,-0.1259689056873321,0.7942367307096719,-10.18918959617615,14941.0
23.51,6.099999904632568,218.0,21.70304679870605,40.5620002746582,-79.7828565881353,40.45891489804593,276.96273219299314,0.0232308413833379,-0.0290746856480836,0.7428082823753357,0.6684691309928894,0.2899305324697858,-0.0484976219104338,2.9280197400592463,0.1881662309169769,-0.0184175595641136,0.0246639773249626,-0.1612564136087894,0.7378618973493576,-10.489555217027664,14941.0
23.7,6.4000000953674325,236.0,21.711811065673828,41.11862182617188,-79.78285748280648,40.4589154263454,277.6514157028198,0.0160078629851341,-0.0289044398814439,0.7409954667091371,0.6706966757774353,0.2665402704278599,-0.0470961825028676,3.042383333617713,0.0004988877917639,0.0786980390548706,-0.0717556774616241,-0.4314796377718449,0.8088091615587474,-10.11675194978714,14942.0
23.81,6.599999904632568,239.0,21.632932662963867,35.9976806640625,-79.78285790679054,40.45891579106678,278.0048245162964,0.0160658676177263,-0.0262173675000667,0.7403814792633057,0.6714832782745361,0.3066673745625629,-0.0452375226654394,3.0463884417212364,0.0288487337529659,0.1077043414115905,0.128085047006607,-0.2353270959667861,0.7925379683822393,-9.957764986753462,14943.0
23.9,6.699999809265138,245.0,21.183446884155277,36.18852233886719,-79.78285797425201,40.45891604715908,278.6204146118164,0.0227414052933454,-0.0161183457821607,0.7394736409187317,0.6726081967353821,0.3601221834005239,-0.0567433620092013,3.0899592968349103,0.0253215860575437,0.2464616596698761,0.0963934436440467,-0.440601623095572,0.9547526675462724,-10.133790736198426,14943.0
24.1,6.800000190734862,249.0,21.18094253540039,38.33550262451172,-79.78285859882712,40.4589170922164,279.30540644836424,0.0253038387745618,-0.0179256964474916,0.7356770038604736,0.6766223311424255,0.4148907862786309,0.027143961205582,3.033683187802372,-0.1642890125513076,-0.3070628941059112,0.0791764855384826,0.0535002279421314,0.5235498954355717,-9.491020352840424,14944.0
24.3,7.0,246.0,21.095802307128903,40.01332473754883,-79.78285848252075,40.45891712395768,279.6721256942749,0.0226309802383184,-0.0399947874248027,0.7343215346336365,0.6772446036338806,0.3839742195635167,-0.044626398182655,2.9981800065540134,-0.1246831491589546,-0.3811625242233277,-0.0468480959534645,-0.1138828936591744,0.5223136478662491,-9.394185199141504,14944.0
24.4,7.199999809265138,268.0,21.04822540283203,40.87211608886719,-79.78285843385855,40.45891730988252,279.9719618530273,0.0083820568397641,-0.0554378777742385,0.7325098514556885,0.6784436702728271,0.4705385873123746,-0.1380207765293129,2.961965019717527,0.1221211701631546,-0.3675920665264129,-0.0123647935688495,-0.3816140710562468,0.8865983258932829,-9.52549085855484,14944.0
24.6,7.199999809265138,270.0,21.1020622253418,39.58393096923828,-79.78285833591573,40.458917656411735,280.6283777923584,-0.0140141109004616,-0.0647331625223159,0.7283528447151184,0.6819936633110046,0.3701258589335608,-0.2997335868120446,2.966813728655356,0.0645493865013122,0.0074752387590706,0.0932565852999687,-0.5891934061422944,0.6701697050035,-9.621568797826768,14945.0
24.7,7.199999809265138,271.0,21.20097541809082,38.152610778808594,-79.78285837851485,40.458917772151935,280.92679679107664,-0.0109766675159335,-0.0599496662616729,0.7273327112197876,0.6835734844207764,0.3251953853138204,-0.2889336739842729,2.932073474007629,-0.0084259007126092,0.2499243915081024,-0.0336646921932697,-0.7067004771530628,0.5717293444275856,-9.4375159907341,14945.0
24.8,7.300000190734862,279.0,21.37876510620117,35.83069229125977,-79.78285849093656,40.45891819109767,281.5930851669312,0.0074515966698527,-0.0270116720348596,0.7277387380599976,0.6852819323539734,0.3099206472113842,-0.1047811729871634,2.952933680110665,0.239347368478775,0.2291835099458694,-0.0281341914087534,-0.3714474806562065,0.4581500308960677,-9.595862098932267,14946.0
25.01,7.300000190734862,267.0,21.249805450439453,39.13068008422852,-79.78285905452371,40.45891857558824,282.257210609436,-0.0003010994696523,-0.0211414955556392,0.7248644232749939,0.6885671019554138,0.2427590200724145,0.0488648377986566,2.967322969855708,-0.0205745734274387,-0.2953490316867828,0.0680438503623008,-0.18994683701545,0.4317415199428797,-9.655711859464644,14947.0
25.1,7.199999809265138,270.0,21.202226638793945,39.73501586914063,-79.78285917200785,40.45891870635796,282.5540083618164,-0.0124582406133413,-0.0320446565747261,0.7235069870948792,0.6894603371620178,0.2401303543291441,0.0029002959642429,2.9602627771278804,-0.062726579606533,-0.2878059148788452,-0.0772680267691612,-0.5278484029322863,0.3555235755443573,-9.64086753308773,14947.0
25.31,7.099999904632568,271.0,21.24855232238769,39.25790786743164,-79.78285981066837,40.45891895222268,282.93219268035887,-0.0159216653555631,-0.0413449592888355,0.7224161624908447,0.6900377869606018,0.242329152038755,-0.063629829489099,2.9906912985216243,-0.0904715657234192,-0.090974286198616,0.1064150556921958,-0.5126101204007865,0.2068651342391968,-9.790338737368584,14947.0
25.5,7.0,283.0,21.214746475219727,38.27188873291016,-79.78286017115151,40.45891924498593,283.5293596954345,-0.0057274461723864,-0.0429434329271316,0.7215621471405029,0.6909928917884827,0.3052621277479452,-0.0804380043576196,2.9730104312467094,-0.045418307185173,0.1351137906312942,0.044604480266571,-0.5222896011918784,0.5242354083806277,-9.698389517068865,14948.0
25.62,7.099999904632568,282.0,21.23978805541992,37.17454147338867,-79.78286107730517,40.45891947028488,284.2564409942627,-0.0037496683653444,-0.0353938303887844,0.7217744588851929,0.6912125945091248,0.3381957976888142,0.0467112016150437,3.0362223585314023,0.0084018176421523,-0.0910420939326286,-0.0672562941908836,-0.5169949839636684,0.5008420872688294,-9.730105984210969,14949.0
25.7,7.0,280.0,21.113330841064453,40.43476867675781,-79.78286119877515,40.458919840412605,284.6695631713867,-0.0109684187918901,-0.0367422476410865,0.7203987836837769,0.6924993395805359,0.3549379447878235,0.0438124975690279,3.1124413711519674,0.0302428137511014,-0.1364392042160034,0.0291133243590593,-0.4096715333685279,0.5523542664572597,-9.835106774568557,14949.0
25.9,7.099999904632568,280.0,21.09830665588379,39.81453323364258,-79.78286180260869,40.458920249531175,285.3008707733154,-0.011615764349699,-0.0432809479534626,0.7178071141242981,0.694798469543457,0.3537272161434036,0.0197576522840404,3.1962710392341616,-0.1168839335441589,0.0731943398714065,0.1391651183366775,-0.4344380365312101,0.3582385108619929,-10.176953712701795,14950.0
26.1,7.0,280.0,21.29362678527832,37.08707427978516,-79.78286279108501,40.45892040982103,285.7092589111328,0.0005403565010055,-0.0416595861315727,0.7177083492279053,0.6950964331626892,0.372224468002971,0.0738757424156748,3.2610274316262595,-0.1775557398796081,0.2868630290031433,0.0093767521902918,-0.6260776790231467,0.4320312129333616,-10.01967179775238,14950.0
26.21,7.0,283.0,21.226015090942383,39.01935577392578,-79.78286318644292,40.4589205994399,286.03629481506346,0.0153370080515742,-0.0356049016118049,0.7181586027145386,0.6947987675666809,0.4027020134231095,0.1329777698307568,3.2763718797616805,-0.197476014494896,0.3082115948200226,-0.060780368745327,-0.4895597750321031,0.6013056940957904,-9.97881262421608,14951.0
26.3,6.9000000953674325,282.0,21.152145385742188,40.02922821044922,-79.78286363436739,40.458921002093646,286.73816287231443,0.0184086058288812,-0.0334056429564952,0.7200191020965576,0.6929052472114563,0.4351828798992458,0.2235983874520767,3.314949017215351,0.0941839218139648,-0.1052005887031555,-0.0143945412710309,-0.3048653273843229,0.5621524457260967,-10.159355932474137,14951.0
26.5,6.800000190734862,281.0,21.16216087341309,39.3374252319336,-79.78286395494989,40.45892119825896,287.4081362457275,-0.0032885749824345,-0.0348122343420982,0.7207756042480469,0.69228595495224,0.3495578930216767,0.12484214170643,3.4045619599097727,0.220051497220993,-0.1118262633681297,0.0266403425484895,-0.3683903735876083,0.6234826847165823,-10.274384697675703,14952.0
26.6,6.800000190734862,277.0,21.123348236083984,40.02922821044922,-79.78286429152641,40.45892131844144,287.7521532745361,-0.0104969292879104,-0.0325910672545433,0.7202228307723999,0.6928973197937012,0.2959858878400293,0.0982407721297534,3.4737401822148484,0.1010869443416595,-0.0580416843295097,0.0475813597440719,-0.529188255853951,0.2385941728949547,-10.39734345674515,14952.0
26.8,6.800000190734862,276.0,21.09830665588379,39.92585754394531,-79.78286502223807,40.4589216338252,288.1234720916748,-0.0104534942656755,-0.0309819672256708,0.7190687656402588,0.694169282913208,0.2939430000331973,0.1220885770376041,3.5114906049284285,-0.0280176661908626,0.0850093960762023,0.0571956634521484,-0.4560705417394638,0.4000189132243395,-10.389726873636246,14953.0
27.0,6.699999809265138,276.0,21.05949211120605,40.48248291015625,-79.78286590084214,40.4589219813614,288.83566844177244,-0.0024081103038042,-0.0253229588270187,0.717137336730957,0.6964675784111023,0.3215632633144109,0.2095251766221776,3.622098456814869,-0.0964342281222343,0.0289386361837387,0.037241943180561,-0.3098095684871078,0.4282755463197828,-10.340719020366668,14953.0
27.11,6.599999904632568,276.0,21.079524993896484,39.34537887573242,-79.78286670416765,40.458922524743,289.22971713256834,0.0030151319224387,-0.024084135890007,0.7159348130226135,0.697745144367218,0.3723811474822461,0.269663089882908,3.664217493200873,-0.1310724914073944,0.0581385903060436,-0.0362332202494144,-0.4384114388376473,0.3436590998992324,-10.288329137563704,14954.0
27.2,6.5,272.0,21.100811004638672,39.89405059814453,-79.78286806287812,40.45892336722922,289.99654566955564,0.0099058281630277,-0.0197157431393861,0.7126641273498535,0.701158344745636,0.4664155631725844,0.3521599766983274,3.7355533629714817,0.0912128910422325,-0.0491783320903778,0.0019779668655246,-0.1968083435855806,0.6207191444188357,-10.201324907541276,14954.0
27.41,6.4000000953674325,269.0,21.113330841064453,38.836463928222656,-79.78286906322765,40.45892391371118,290.75251567077635,0.0041609536856412,-0.0202698037028312,0.7082952260971069,0.7056130170822144,0.450211040749256,0.3347146393275441,3.80312777910004,0.0281833000481128,-0.0166450552642345,0.0680548772215843,-0.3754975545778871,0.4685467457771301,-10.095546437501907,14955.0
27.6,6.300000190734862,269.0,21.11458396911621,39.17839050292969,-79.78286942974019,40.45892411182604,291.143968460083,0.0030727684497833,-0.019897986203432,0.7065140604972839,0.707412600517273,0.4364746982396722,0.2900081793694112,3.8131591242618192,-0.0140714831650257,0.0109703233465552,0.1276906281709671,-0.4645851109921933,0.4764680053666234,-10.161846846342089,14956.0
27.71,6.4000000953674325,269.0,21.152145385742188,38.16056442260742,-79.78286987144976,40.45892439157264,291.5271719665527,0.003600503783673,-0.0201596394181251,0.7049967646598816,0.7089148759841919,0.4371892802015475,0.276350723275712,3.839946997762997,-0.104499839246273,-0.0335223861038684,0.0332793183624744,-0.3162051798775792,0.4747714722901583,-10.133434056043628,14956.0
27.8,6.300000190734862,273.0,21.12459945678711,37.7470703125,-79.78287107891724,40.4589247233987,292.3304823608398,0.0042846482247114,-0.0235286615788936,0.702242374420166,0.7115362286567688,0.4400913786709841,0.2634503447174353,3.8846059420508072,-0.0197189636528492,-0.0254611540585756,0.1133603155612945,-0.5064131681621075,0.4317630450055003,-10.083310554027555,14957.0
28.01,6.300000190734862,276.0,21.14087677001953,38.57405471801758,-79.78287191005373,40.45892588071045,293.1083067626953,0.0032461308874189,-0.0349610485136508,0.7015280723571777,0.7117764353752136,0.5248625635025274,0.2229131486235187,3.911923370671807,-0.0510778799653053,-0.0994948521256446,-0.1371098756790161,-0.2787122483924032,0.5285953847318888,-10.160278623104096,14958.0
28.1,6.300000190734862,276.0,21.14087677001953,37.73116683959961,-79.78287232949259,40.45892618775712,293.5025004119873,0.0028172200545668,-0.0416603833436965,0.7033202648162842,0.7096458673477173,0.5443479758344388,0.1953097312590232,3.9530154009979865,-0.1005187481641769,-0.1421614289283752,-0.1117508336901664,-0.3754138297587633,0.3855278317630291,-10.23503878355026,14958.0
28.32,6.300000190734862,277.0,21.301137924194336,36.02153396606445,-79.78287254209741,40.45892639719349,293.9210032196045,0.0037005224730819,-0.0446378663182258,0.7068249583244324,0.7059690952301025,0.5463995690466266,0.1471048829917326,3.980695171055346,0.0177881810814142,-0.0283853188157081,-0.1345574557781219,-0.4208961043506861,0.5757023081928492,-10.151192049980164,14958.0
28.5,6.300000190734862,287.0,21.35247230529785,34.35961532592773,-79.78287343530971,40.458926902790864,294.7229460449218,0.00145044317469,-0.0351478345692157,0.7176477909088135,0.6955172419548035,0.5115727005903584,0.1526642795731535,3.9980859272831055,0.0643569529056549,0.1559347659349441,-0.1698006391525268,-0.3898010865971446,0.4203638980910182,-9.8109472489357,14959.0
28.61,6.300000190734862,281.0,21.46515655517578,31.74348068237305,-79.78287360068867,40.45892695659655,295.14598262023924,0.0057506514713168,-0.0251822173595428,0.7232938408851624,0.690057098865509,0.4421020448612864,0.154257509000297,3.9848331444996585,0.0742409601807594,0.1671127527952194,-0.118464358150959,-0.4807785727456213,0.3194753448665142,-9.721582497954367,14960.0
28.7,6.199999809265138,282.0,21.54654121398925,30.980112075805664,-79.78287380259522,40.45892697067492,295.9493025512695,0.0051961443386971,-0.0108848856762051,0.733970046043396,0.6790748238563538,0.3507642839726692,0.204391484673978,3.8657869161440312,0.1236362531781196,0.0647705569863319,-0.1725982427597046,-0.3775851202011109,0.3982155222818256,-9.182710120081902,14960.0
28.91,6.300000190734862,282.0,21.908382415771484,30.45529365539551,-79.78287439023798,40.458927363329735,296.70837962341307,-0.0015644686063751,-0.0132055999711155,0.7419884204864502,0.6702808737754822,0.3234673025367637,0.1529546531761364,3.7332901995211474,0.0589536130428314,-0.0885039567947387,-0.0166824962943792,-0.4223971576988697,0.3224053846299648,-9.246328411102295,14961.0
29.0,6.199999809265138,267.0,21.90963554382324,32.73745346069336,-79.7828737589083,40.45892694212957,297.115871307373,-0.0058424081653356,-0.0167632289230823,0.7441177964210509,0.6678125858306885,0.272787672805318,0.0503358214779117,3.6867156075192615,-0.0257194060832262,-0.0471438616514205,0.0146384984254837,-0.4848442879691721,0.4195535105466842,-9.13786314547062,14962.0
29.21,6.199999809265138,270.0,21.96722984313965,30.375776290893555,-79.78287393372345,40.45892712974951,297.4815634460449,-0.0048348838463425,-0.0199936963617801,0.7467169761657715,0.6648238897323608,0.2849269473393557,-0.0038895133825315,3.6268978341339,-0.0303263273090124,0.0185084920376539,-0.0764187425374984,-0.5629233645647764,0.147820772845298,-9.188253280520438,14962.0
29.4,6.199999809265138,269.0,22.09619140625,28.992168426513672,-79.7828743003737,40.4589273232825,298.2793787689209,-0.0018733447650447,-0.0285689085721969,0.75069260597229,0.6600310802459717,0.3578693289899055,-0.029020077620965,3.5383558868309413,-0.0500156469643116,-0.0669992417097091,-0.0140389231964945,-0.3140808864310384,0.479641837477684,-9.120948904752732,14963.0
29.51,6.199999809265138,269.0,22.01981544494629,29.516984939575195,-79.78287471453369,40.45892756553906,299.0314100952148,-0.0021449299529194,-0.0351364240050315,0.7504958510398865,0.6599369645118713,0.4074564476342004,-0.0353303839993199,3.367037150216228,0.0091978330165147,0.0127053800970315,0.0347591042518615,-0.370116727463901,0.5265409655123949,-8.817959053516386,14964.0
29.6,6.4000000953674325,272.0,22.12123107910156,28.936504364013672,-79.78287492145206,40.45892781050307,299.36451708984373,0.0001648864854359,-0.0315939486026763,0.7496510148048401,0.6610788106918335,0.4547026394067919,-0.0376711367429078,3.2686221095563948,0.062085635960102,0.1261099576950073,0.1097973510622978,-0.2921803229302168,0.5419958508387208,-8.809395221471787,14964.0
29.81,6.5,271.0,22.21138000488281,27.7039794921875,-79.78287501380119,40.458927821502535,299.74205386352537,0.0028503958601504,-0.0255702938884496,0.7483764886856079,0.6627750396728516,0.453131512753587,-0.0056198106111652,3.236795375246865,-0.0609688386321067,0.1763023287057876,-0.014923108741641,-0.4174297652766109,0.8999445956200361,-9.105475417971611,14964.0
30.0,6.699999809265138,269.0,22.302780151367188,25.21507453918457,-79.78287543723431,40.45892843064257,300.3898123474121,0.0147080710157752,-0.0200388263911008,0.747909665107727,0.6633350253105164,0.5192550881010836,0.0369141856648331,3.2376245031277584,-0.1569302082061767,0.0823938325047493,-0.0105452928692102,-0.6651691661775112,0.7227765195071698,-9.904431363344194,14965.0
30.11,6.699999809265138,267.0,22.22640419006348,25.93073463439941,-79.7828753840522,40.45892837489593,300.8080557556152,0.0220800545066595,-0.0294050015509128,0.747226357460022,0.6635515093803406,0.5607181258981774,0.0291778028973313,3.2902723046847213,-0.2794927954673767,-0.0385244786739349,0.1150000914931297,-0.5551302320882678,0.8992028763145209,-9.701639399528505,14965.0
30.3,6.9000000953674325,264.0,22.21012687683105,25.652421951293945,-79.782875788405,40.45892857921153,301.5452307434082,0.0267470329999923,-0.0574603453278541,0.7434654235839844,0.6657643914222717,0.7114710494054659,-0.0443341794101125,3.2107128990664515,-0.1631056815385818,-0.1980672031641006,-0.0227885879576206,-0.3933148612082005,1.0744437832385303,-9.227717893123629,14966.0
30.41,7.0,277.0,22.21388435363769,26.79747772216797,-79.78287589701796,40.45892893434408,301.86794268798826,0.0240603405982256,-0.0671504661440849,0.7417382001876831,0.6668855547904968,0.7629548223877024,-0.0975940929577922,3.1163174904582567,-0.0930502340197563,-0.2604133784770965,-0.0238698329776525,-0.3084514795616269,1.0298679001629354,-9.081108900904656,14966.0
30.5,7.0,275.0,22.101198196411133,28.363977432250977,-79.78287600827315,40.45892928150883,302.1827276916504,0.0233664754778146,-0.0717946514487266,0.7408322691917419,0.6674332022666931,0.7722367920473822,-0.1479711419802214,3.0341549630771536,0.0006971567054279,-0.0566221512854099,-0.0960458144545555,-0.4993493662029505,1.0831636628508567,-9.034292584061625,14967.0
30.71,7.0,274.0,22.379154205322266,23.77580451965332,-79.78287525764065,40.4589296334272,303.2643583984375,0.0272781457751989,-0.0565612912178039,0.7378987669944763,0.6719837188720703,0.682523808917218,-0.1326303097919149,3.126822847979414,0.0520310886204242,0.0825425237417221,-0.075395181775093,-0.3981319436430931,0.9834983105957508,-9.636527144908904,14968.0
30.9,6.9000000953674325,279.0,22.561954498291016,19.94304847717285,-79.78287534166391,40.45892987312659,303.5818251342773,0.0316379219293594,-0.0555509887635707,0.7371980547904968,0.6726457476615906,0.6336506093061895,-0.0933968171947036,3.096203098556725,-0.016870304942131,7.141939568100497e-05,0.1334536671638488,-0.2891402276046574,0.7671614909917116,-9.40120945930481,14968.0
31.0,6.800000190734862,279.0,22.326568603515625,24.89700508117676,-79.78287544364316,40.45893009786731,303.8927954406738,0.035172551870346,-0.0583822168409824,0.7355377674102783,0.674046516418457,0.6290176277607855,-0.0457681058646547,3.0097681362810644,-0.0212384089827537,-0.019441645592451,0.0036534366663545,-0.2752354208752513,0.9898942874372006,-8.982644712924957,14968.0
31.2,6.599999904632568,278.0,22.26146125793457,26.98036956787109,-79.78287577142719,40.45893059281305,304.4933165283203,0.0368643514811992,-0.0601358339190483,0.7333031892776489,0.6762330532073975,0.5946465043055179,0.0009184134913982,2.844025956889132,-0.0715878680348396,-0.0070411092601716,-0.0409925132989883,-0.1268599482625723,0.8278654566407204,-8.986883944272995,14969.0
31.31,6.4000000953674325,278.0,22.07740974426269,28.69795227050781,-79.78287595298848,40.45893082053605,305.08084475708006,0.0402722395956516,-0.0536987036466598,0.7373805642127991,0.672134280204773,0.4929456496749549,0.028167503241314,2.736500992989267,-0.027362834662199,0.1399568617343902,-0.1527710258960724,-0.1565965116396546,0.7209918031096458,-9.148867605328562,14970.0
31.5,6.099999904632568,273.0,21.92340850830078,31.31408500671387,-79.78287610895376,40.45893089516407,305.3564108581543,0.0446171835064888,-0.04734393581748,0.7417750954627991,0.6674860715866089,0.4306229386065957,0.0496959203152418,2.7132092645597767,0.1161819323897361,0.1489638686180114,-0.0912849605083465,-0.2894586998596788,0.6303860536962748,-9.439826225638392,14970.0
31.6,5.9000000953674325,263.0,21.778169631958008,33.946121215820305,-79.782876094101,40.45893093669493,305.9277838439941,0.0312375612556934,-0.0325975492596626,0.7475759387016296,0.6626401543617249,0.3143213331710654,0.0836465819096038,2.8003315957666364,0.2074938118457794,-0.0423689410090446,-0.074394516646862,-0.1465984489582479,0.8392580254375935,-10.053453501462934,14970.0
31.8,5.800000190734862,263.0,21.67424964904785,36.54635238647461,-79.78287613647242,40.458930814292366,306.1894835205078,0.0216412283480167,-0.0292062386870384,0.7482151389122009,0.662459671497345,0.2399440806851776,0.0658834839170262,2.874048690195964,0.185819610953331,-0.0098608592525124,-0.0596439242362976,-0.2046570428833365,0.5335995415225625,-10.372144296169283,14971.0
31.9,5.699999809265138,262.0,21.71932411193848,34.59021759033203,-79.78287623298165,40.45893078160101,306.4828528137207,0.0158687140792608,-0.02675711363554,0.7479437589645386,0.6630327701568604,0.1846074215616564,0.0417703239934479,2.986699124116164,0.0976925939321518,-0.0298989098519086,0.0690658539533615,-0.1685859715193509,0.4169050873070955,-10.751414583921433,14971.0
32.0,5.599999904632568,255.0,21.92340850830078,31.34589195251465,-79.78287632904117,40.45893074432136,306.7880209655761,0.0141562260687351,-0.0292990580201149,0.7463130354881287,0.6647993326187134,0.1447136275114206,0.0347074381280859,3.105616487530924,-0.1340743452310562,-0.0797369182109832,0.1330319195985794,-0.186850188151002,0.3432148576900363,-10.783646775484083,14971.0
32.2,5.599999904632568,259.0,21.72933959960937,34.669734954833984,-79.78287639073469,40.458930292428754,307.6095350952148,0.0140339359641075,-0.0302214156836271,0.7462181448936462,0.6648671627044678,0.1714199576793831,-0.0380383488483265,3.2181609919666214,0.0153278829529881,0.2092465758323669,0.0444952733814716,-0.5118557199463248,0.7800142557173968,-10.418748943805696,14972.0
32.3,5.5,259.0,21.988513946533203,29.61240577697754,-79.78287649938137,40.458930278824894,307.9366301269531,0.0141810197383165,-0.0210792943835258,0.7450677156448364,0.6665049195289612,0.2106450081696925,0.0034097353734326,3.3185143627742573,0.083686962723732,0.0922310054302215,-0.1780035942792892,-0.3397520634904504,0.9823314987123012,-10.70561685204506,14972.0
32.5,5.5,260.0,21.99978256225586,29.24662399291992,-79.7828766135318,40.45893028212495,308.27260577392576,0.0137015748769044,-0.024210900068283,0.7433078289031982,0.6683709621429443,0.1879022763416908,0.0399368654859264,3.3889566833543365,-0.1850845217704773,-0.0236047934740781,-0.0068697584792971,-0.3161908176541329,1.0217069412767887,-10.537523435354233,14973.0
32.7,5.800000190734862,253.0,21.869569778442383,32.435287475585945,-79.78287654776811,40.4589300490042,308.87621295166014,0.0202687662094831,-0.0402124486863613,0.7420116066932678,0.6688729524612427,0.2945990437473982,-0.0817199561414764,3.3693671184146385,-0.0196122843772172,0.1437728255987167,0.0347583331167697,-0.6450258737057448,1.0060168882459402,-9.854386214017866,14973.0
32.81,5.9000000953674325,265.0,21.8670654296875,32.47504425048828,-79.7828763381878,40.45892976434722,309.0991057128906,0.0236266329884529,-0.0398640520870685,0.7436910271644592,0.6669155955314636,0.3067840222338517,-0.1098304378196563,3.2968481807150294,0.0057242289185524,0.0406307950615882,0.0505667030811309,-0.3922443822026253,0.8458775120973587,-9.912881759405137,14974.0
32.9,6.199999809265138,266.0,21.888351440429688,33.17480087280273,-79.78287630546902,40.45892979465104,309.7679938049316,0.0200800374150276,-0.0440658256411552,0.7462232112884521,0.663932204246521,0.301691826030857,-0.1081695200784528,3.3778525649043463,-0.0196386128664016,-0.3504912257194519,0.1364445835351944,-0.2555401164852083,0.8056407746672629,-10.201183404922483,14974.0
33.1,6.199999809265138,265.0,22.03609275817871,29.64421272277832,-79.78287586026832,40.45892945667575,310.2777327270508,0.0053151254542171,-0.05623459815979,0.7446302175521851,0.6650829315185547,0.2759776260906344,-0.20374517862613,3.3221468723447884,-0.0496717914938926,-0.1728705018758773,-0.0594408437609672,-0.3135602284222841,0.7925184532999993,-9.834119764566422,14975.0
33.2,6.300000190734862,267.0,22.02983283996582,28.03000259399414,-79.78287576927966,40.45892911177616,310.4773787231445,0.0015396632952615,-0.0561573058366775,0.7430397272109985,0.666885256767273,0.2306104773102504,-0.2257938487396591,3.2337162066004987,-0.0407565608620643,-0.1180641949176788,-0.0835591256618499,-0.4308146266266704,0.8573148851841689,-9.850327076911928,14975.0
33.4,6.4000000953674325,272.0,22.02231979370117,29.071685791015625,-79.78287579786084,40.45892909744444,310.80291354370115,0.0008924267021939,-0.0515325516462326,0.7419579029083252,0.6684624552726746,0.2391281780080413,-0.2203802096377928,3.2329432768094244,-0.0117655061185359,0.0480585917830467,-0.0368963740766048,-0.5581888740509748,0.92944811090827,-9.718437865376472,14975.0
33.6,6.599999904632568,273.0,22.145021438598643,27.67217254638672,-79.78287580866592,40.45892873283041,311.3112333984375,0.0084870317950844,-0.04041313752532,0.7419208884239197,0.66921466588974,0.2322194046432307,-0.1334130410281569,3.095760187297921,-0.0089368047192692,0.1299301087856292,-0.1404397040605545,-0.5265416598692536,1.0819430565834045,-9.485353231430055,14976.0
33.71,6.800000190734862,274.0,22.15253257751465,28.14132881164551,-79.7828757111335,40.458928611954406,311.9008330078125,0.0214265044778585,-0.0348236225545406,0.7438074350357056,0.6671422123908997,0.2890838289318891,-0.0959425015091297,3.0261827970040445,-0.0165064986795187,0.0641820877790451,-0.0008681371691636,-0.5501547266542912,0.9971403763443232,-9.419546327590943,14976.0
33.8,6.9000000953674325,268.0,22.10871124267578,28.14132881164551,-79.78287570190814,40.45892867149709,312.2021139831543,0.0235980059951543,-0.0422000996768474,0.7449929118156433,0.6653179526329039,0.3060096026921333,-0.1098449975836552,2.9693375167720912,-0.0901500061154365,-0.0780330002307891,0.0359935089945793,-0.6336627602577211,0.7301739051192999,-9.233986108303071,14977.0
34.0,7.0,265.0,21.882089614868164,30.773365020751957,-79.7828756562817,40.45892873291415,312.4979666442871,0.0214959923177957,-0.0528094582259655,0.7454476952552795,0.6641210913658142,0.3385018689092516,-0.1549641644249993,2.925389431056065,0.0262273736298084,-0.2086376547813415,0.0421341247856617,-0.50132360547781,0.8040582988411189,-9.455086289048197,14977.0
34.2,6.9000000953674325,268.0,21.63543701171875,33.962024688720696,-79.78287557660408,40.45892875132531,313.1197699279785,0.0145043786615133,-0.0663570389151573,0.7451371550559998,0.663443386554718,0.2957642699005113,-0.2585142091896703,2.9838392193084418,-0.1919044554233551,-0.287045419216156,0.1872971057891845,-0.5942497858777642,0.4775450624898076,-9.787939040064812,14978.0
34.31,6.9000000953674325,269.0,21.711811065673828,34.85262680053711,-79.78287535782094,40.4589285927381,313.4140585632324,0.0122202346101403,-0.0720855221152305,0.7450838088989258,0.6629514098167419,0.2903214380825562,-0.2777258050556219,3.00637916631502,0.0366261564195156,-0.1900339275598526,-0.0554422996938228,-0.6777161946147681,0.5117942510917783,-9.981312893629074,14978.0
34.5,7.0,287.0,21.634183883666992,37.11092758178711,-79.78287526321749,40.458928428036025,314.0238035888672,0.0114419255405664,-0.062404166907072,0.7473050355911255,0.6614453792572021,0.1822408813850362,-0.2841718453252746,3.0076740950940914,0.1380730420351028,0.1001355350017547,0.0696033388376236,-0.6605557130277158,0.6979485840350389,-9.556703295707702,14979.0
34.61,7.099999904632568,289.0,21.6917781829834,34.256240844726555,-79.78287496231685,40.458928199894345,314.3164366455078,0.0052371961064636,-0.0512038171291351,0.7487162947654724,0.6608893871307373,0.1400926070497308,-0.2722303181250888,2.9864106297095847,0.2428824156522751,0.0647474154829979,-0.0399717614054679,-0.7269892191141845,0.6825731842964888,-9.574226816296578,14979.0
34.7,7.300000190734862,291.0,21.61289978027344,36.721290588378906,-79.78287475980315,40.45892775321482,314.91096484375,-0.0061575751751661,-0.0395609550178051,0.7513638138771057,0.6586725115776062,-0.027843341777617,-0.2649332491352853,2.9922091057425404,0.0290696527808904,0.0431259386241436,0.0224819257855415,-0.9196228151768446,0.4085184258967639,-9.713208115696908,14979.0
34.9,7.400000095367432,293.0,21.63167953491211,36.522499084472656,-79.78287450063306,40.458927442951854,315.5148428649902,-0.0105558540672063,-0.0461046174168586,0.7537101507186891,0.6555029153823853,-0.057563601021674,-0.3487278982593794,3.0398623411251298,-0.0717481672763824,-0.0517392791807651,0.04326793551445,-1.1501831330358985,0.4948771233111621,-10.045717635154723,14980.0
35.1,7.5,283.0,21.46265411376953,38.03333282470703,-79.78287432433095,40.45892703507428,315.8072928161621,-0.0119162714108824,-0.0501187331974506,0.7539801597595215,0.6548740267753601,-0.0437660126069207,-0.3691051722716002,3.0688424062801727,0.0464891232550144,-0.0783122777938842,0.186812937259674,-1.0995001255720855,0.6443003804236651,-10.224538353681565,14980.0
35.21,7.5,286.0,21.59161376953125,36.41912460327149,-79.78287418070829,40.45892689674471,316.1178282470703,-0.0161773934960365,-0.0522447451949119,0.7533565759658813,0.6553339958190918,-0.012380894752422,-0.3926271152132525,3.1133018650400066,0.1039255484938621,0.0654171407222747,0.1359314322471618,-0.9963551683723928,0.8055794519931079,-10.285051188468934,14981.0
35.4,7.599999904632567,287.0,21.01191520690918,35.6637077331543,-79.7828738301926,40.458926500207966,316.7249067993164,-0.0301416348665952,-0.0491298995912075,0.7489703893661499,0.6600918173789978,-0.0007621780112492,-0.3933833961645829,3.1244273898714647,0.1140733286738395,-0.0844467505812645,0.0253296475857496,-1.1234859889000657,0.5207902289181948,-9.820154274702071,14981.0
35.51,7.800000190734862,289.0,21.013166427612305,36.25213623046875,-79.78287342763315,40.45892620528369,317.3325575561523,-0.0173458848148584,-0.0362260825932025,0.7432060837745667,0.667855978012085,0.0169827387116749,-0.4761512495399098,3.12973900829594,-0.0746484398841857,0.3033278286457062,0.1893521696329116,-1.4005324020981789,0.3520689674466849,-9.787346132397651,14982.0
35.7,7.900000095367432,290.0,21.10707092285156,35.266117095947266,-79.78287322328394,40.45892619518385,317.6513098449707,-0.0047661615535616,-0.0259743947535753,0.7394184470176697,0.6727281212806702,0.0600518476327514,-0.4253986160650144,3.1800712353373024,-0.0156195815652608,0.1563197672367096,0.2895158529281616,-1.063146377876401,0.3983020976185799,-10.066086995601657,14982.0
35.8,8.0,282.0,20.99814224243164,37.84249114990234,-79.78287309356678,40.458926150091,317.95215975952146,0.0006621088832616,-0.0248616505414247,0.7350766658782959,0.677527666091919,0.079617645378891,-0.3572609931487752,3.1974210186481176,-0.1182238906621933,-0.0797600522637367,0.1568589210510254,-0.6757347194105388,0.5215008483454585,-10.030561652183533,14982.0
36.0,8.100000381469728,283.0,20.851652145385746,39.05911254882813,-79.78287258288908,40.45892621207275,318.5894659729004,-0.0250337850302457,-0.0583662241697311,0.7272118926048279,0.6834688782691956,0.164724580539633,-0.4224133118107077,3.128904603688214,0.0440156608819961,-0.5921519994735718,0.1611564010381698,-0.7673164422065021,0.3918881405889988,-9.530725870728494,14983.0
36.11,8.100000381469728,283.0,20.930532455444336,38.53429794311523,-79.78287227594504,40.45892622936528,318.9082640380858,-0.0379591733217239,-0.0763546749949455,0.7234452366828918,0.6850956678390503,0.1588648590147341,-0.5542952924645703,3.118292057988361,-0.0583290085196495,-0.3063957393169403,0.0893062502145767,-1.0387034084647897,0.3024137177690864,-9.916155030727388,14983.0
36.2,8.0,305.0,20.945556640625,38.65357208251953,-79.78287193453663,40.45892628094659,319.55420291137693,-0.0292050298303365,-0.0850058495998382,0.7215683460235596,0.6864839196205139,0.2039222739003108,-0.6292853141273876,3.1988838017690644,-0.1355321109294891,0.1546613872051239,0.0595858171582222,-1.1642694409936667,0.4918146806582809,-10.264292403459551,14984.0
36.41,8.0,311.0,20.970598220825195,36.64972686767578,-79.78287188475007,40.45892622658481,320.2167319030761,0.003850512439385,-0.0663520917296409,0.7250907421112059,0.6854386329650879,0.2118968271290084,-0.4397126073562778,3.320043940359206,-0.0420735254883766,0.3938257098197937,0.0534238666296005,-1.1375140439718965,0.6545121040195226,-10.172044390439988,14985.0
36.5,8.100000381469728,312.0,21.05824089050293,36.522499084472656,-79.78287173281561,40.45892612711086,320.5602110595703,0.0128124486654996,-0.0548615418374538,0.727809488773346,0.6834613680839539,0.2310949817604861,-0.331201949371785,3.3439097743146715,0.1394224613904953,0.1991894245147705,-0.0567137040197849,-0.9211628986895084,0.8446588792651892,-10.061757717132569,14985.0
36.71,8.100000381469728,312.0,21.055736541748047,36.466835021972656,-79.78287158500473,40.45892590148553,321.23672854614256,-0.004337066784501,-0.04595298320055,0.7326561212539673,0.6790320873260498,0.1478360709746288,-0.2492677955777917,3.376528914480621,0.1853287518024444,-0.2372718006372452,-0.1361952722072601,-0.9186440643668176,0.4003977397084236,-9.904080530405045,14986.0
36.9,8.100000381469728,299.0,21.03445243835449,36.9677963256836,-79.78287150418026,40.45892579964122,321.5749052734375,-0.0219927728176116,-0.0536316968500614,0.7341099381446838,0.6765519976615906,0.0776415180978439,-0.3044349283708857,3.3648661460487186,0.118012398481369,-0.3822136521339417,-0.1224980503320694,-0.9205928682535888,0.5896931603550911,-9.706483817696572,14986.0
37.01,8.100000381469728,300.0,21.103315353393555,36.29984664916992,-79.78287142563825,40.4589256985226,321.91224658203123,-0.0356214605271816,-0.0662553459405899,0.7361484169960022,0.6726269125938416,0.0183228160157088,-0.4156042395612463,3.3504304376310485,0.0119304126128554,-0.3791502118110657,0.0670899599790573,-1.0277013605833054,0.2992450750619173,-9.807049494981769,14986.0
37.1,8.0,298.0,21.115835189819336,34.86057662963867,-79.78287139701209,40.45892550980121,322.59702288818363,-0.0379937142133712,-0.0776737183332443,0.7421274185180664,0.6646579504013062,0.0669699289266114,-0.5223185399183532,3.3467896898848264,-0.0213878955692052,0.1570730358362198,-0.1411049515008926,-1.2955875988304617,0.5757542753219604,-9.780142362713814,14987.0
37.3,8.0,298.0,21.24354362487793,33.85070037841797,-79.78287157940261,40.4589253300374,323.293361541748,-0.0227677207440137,-0.0544125586748123,0.7487431168556213,0.660230815410614,0.1120875249047475,-0.3833664531275207,3.360345549229661,-0.0110857309773564,0.3385678827762604,-0.1044008880853653,-1.104890600591898,0.6884713438153267,-9.693440433740616,14988.0
37.4,8.100000381469728,296.0,21.24730110168457,33.437210083007805,-79.78287171185758,40.45892530166596,323.63006198120115,-0.0157526526600122,-0.0439066439867019,0.7515194416046143,0.65805983543396,0.1159381805388319,-0.266125983286276,3.3420424753566493,-0.0109526310116052,0.1921719163656234,-0.0231844205409288,-1.0619765692949297,0.5859359588474036,-9.527496453523636,14988.0
37.6,8.199999809265138,288.0,21.38001823425293,30.566619873046875,-79.78287183779408,40.45892532772929,324.3324049682617,-0.0089425975456833,-0.0400073006749153,0.7546444535255432,0.654852032661438,0.1660237464173212,-0.1678452285219512,3.323337895082767,-0.049792218953371,-0.096853606402874,-0.058143924921751,-0.7237519081681967,0.5915711398422718,-9.58571191728115,14989.0
37.8,8.300000190734862,288.0,21.537776947021484,34.948047637939446,-79.78287202372069,40.45892535452264,324.7048987121582,-0.0088331494480371,-0.0460277907550334,0.7552620172500609,0.6537452340126038,0.1999013669333542,-0.1755774780122599,3.314074861760188,-0.1212908625602722,-0.1256290078163147,0.1896598041057586,-0.908231854364276,0.3250837017595768,-9.441416668295863,14989.0
37.9,8.399999618530272,288.0,21.68802261352539,31.727577209472656,-79.78287215281101,40.45892549023277,325.360801574707,-0.0109790144488215,-0.0637329444289207,0.7560271620750427,0.6513376235961914,0.2801122380237853,-0.2729491622197575,3.2174726829099805,0.0148160196840763,-0.2115030288696289,0.0283623859286308,-0.8469674330949784,0.6808601693809033,-9.40321096122265,14990.0
38.0,8.399999618530272,294.0,21.811975479125977,31.4890251159668,-79.7828723802714,40.45892554498101,325.7393454284668,-0.0131305940449237,-0.0678657740354538,0.7564977407455444,0.6503331065177917,0.3219011712267664,-0.3161491839372866,3.2069507569518647,-0.0266478899866342,-0.1218629702925682,0.1561381518840789,-1.1309821924567225,0.5085607042908669,-9.2265759319067,14990.0
38.21,8.399999618530272,297.0,21.72182846069336,31.838903427124023,-79.78287243637124,40.45892563271048,326.0601195068358,-0.0142414206638932,-0.0691508278250694,0.7571129798889159,0.6494577527046204,0.3235006209129503,-0.3516757604342054,3.1442835896303727,0.0178569220006465,0.0203984919935464,0.0863621085882186,-1.3099311111867429,0.7079784592241051,-9.132698299884796,14991.0
38.4,8.399999618530272,297.0,21.72182846069336,31.75938415527344,-79.78287263328282,40.4589258862864,326.7487868041992,-0.013152016326785,-0.0677995756268501,0.7573966979980469,0.6492924094200134,0.3214235914485805,-0.3334528836940413,3.105997844814365,0.0316688455641269,0.0124849369749426,-0.1113533601164817,-1.0531849151104689,0.7529114609956742,-9.20774906694889,14991.0
38.51,8.399999618530272,297.0,21.680509567260746,33.33383560180664,-79.78287270728524,40.45892596349734,327.0605848999023,-0.0149286380037665,-0.0669300705194473,0.7566850781440735,0.6501732468605042,0.2949335867573303,-0.3137346065184119,3.068862121801621,-0.0047311154194176,-0.0386756546795368,-0.0507419668138027,-0.9609693541377784,0.4080252132564784,-9.296690479516984,14992.0
38.6,8.5,297.0,21.66924095153809,33.28612518310547,-79.78287285502584,40.45892613517741,327.72549807739256,-0.0147442677989602,-0.0656665861606597,0.7551128268241882,0.6521313190460205,0.2685414322030796,-0.2958932649955743,3.0406531907900223,-0.1229672655463218,0.0121380956843495,-0.155455857515335,-0.974480296075344,0.7717747248709202,-9.287494563460353,14992.0
38.8,8.5,296.0,21.7205753326416,33.214561462402344,-79.78287286644931,40.45892619872008,328.083759185791,-0.0131761357188224,-0.0647311061620712,0.7543393969535828,0.6531527638435364,0.2705326322454808,-0.30346141559952,3.0494657884880594,0.0046659102663397,0.030080085620284,0.0651996880769729,-1.0395323243737222,0.4795578933879733,-9.306721962690354,14993.0
38.9,8.600000381469728,296.0,21.56532096862793,33.747329711914055,-79.78287300013265,40.45892630872972,328.6902121276855,-0.0118122603744268,-0.0625011250376701,0.7523506283760071,0.6556848883628845,0.2646105682806253,-0.3050979997339392,2.9780311354932363,0.0405014008283615,0.0394977144896984,0.0848384797573089,-1.2962433640658857,0.3997785195708275,-9.487821925878526,14993.0
39.11,8.600000381469728,296.0,21.67675399780273,33.771183013916016,-79.78287297791253,40.45892639442592,329.0485266418457,-0.0132264466956257,-0.0620509795844554,0.7510051727294922,0.6572412252426147,0.2680491743890004,-0.3129443334589928,3.0230658635861207,0.0021110300440341,0.0904924795031547,-0.0761038288474083,-1.2598524865508078,0.6246834104508162,-9.52782565176487,14994.0
39.3,8.699999809265138,297.0,21.57283401489257,34.66178131103516,-79.78287305888036,40.45892646594711,329.6878889770508,-0.0125890783965587,-0.0649913996458053,0.7486530542373657,0.6596486568450928,0.2502346364267261,-0.326773715251668,3.03235199460016,-0.1010908856987953,-0.0087462570518255,0.050240971148014,-1.2055670826137066,0.7122597905248403,-9.59456635594368,14994.0
39.41,8.699999809265138,300.0,21.584102630615234,33.98588180541992,-79.78287309562998,40.45892651900133,329.9932936401367,-0.0121823791414499,-0.0666283816099166,0.7473701238632202,0.6609464287757874,0.2647476863944966,-0.3309283571366123,3.024001985323884,-0.0015815960941836,0.0038689593784511,0.069336786866188,-1.1917965973913671,0.7088735217601061,-9.65318586230278,14994.0
39.5,8.699999809265138,300.0,21.70054244995117,33.0634765625,-79.78287315108051,40.45892659248279,330.6178663940429,-0.0123211191967129,-0.0621621236205101,0.7452058196067809,0.6638165712356567,0.266518760249144,-0.3314922024680874,3.0160675123794096,-0.0273846052587032,0.0543211549520492,-0.0028788552153855,-1.1070333127677443,0.6780091401189566,-9.564926235079763,14995.0
39.71,8.699999809265138,300.0,21.64545249938965,33.0634765625,-79.78287315211772,40.45892667747904,331.23070132446287,-0.007557894103229,-0.0641796737909317,0.7443683743476868,0.6646349430084229,0.2669398082573718,-0.3135911967018735,2.9805862498227014,-0.0877536907792091,-0.0012940315064042,-0.0311141982674598,-1.0675211184471851,0.5592829977348447,-9.43182314157486,14996.0
39.8,8.800000190734863,297.0,21.596622467041016,33.78708648681641,-79.7828731595722,40.45892673253002,331.529933807373,-0.0074291601777076,-0.0678021684288978,0.7440804243087769,0.6645991802215576,0.2825116594677246,-0.3119711861838815,2.9458118761398864,-0.0003071293176617,-0.120998166501522,-0.0123927136883139,-1.1741817140579225,0.5986078984290362,-9.422413802146911,14996.0
40.0,8.800000190734863,305.0,21.51899528503418,35.18659973144531,-79.78287315967901,40.458926783173055,331.82660662841795,-0.008770702406764,-0.070822574198246,0.7438253164291382,0.6645534038543701,0.2909878234040353,-0.3336644040068509,2.9252938647830464,2.594146280898713e-05,0.0015517816646024,-0.1234988570213318,-1.0293455245345828,0.7835717017203571,-9.556378190517426,14996.0
40.2,8.800000190734863,304.0,21.56156539916992,35.71936798095703,-79.78287314839889,40.45892674238079,332.42174517822264,-0.0101840775460004,-0.0731330886483192,0.743768036365509,0.6643470525741577,0.2599484572568133,-0.3444587746473822,2.9055304096953227,0.0017598830163478,-0.0429109595715999,-0.0607141852378845,-1.0735370993614195,0.6386616910994053,-9.49353524029255,14997.0
40.3,8.800000190734863,304.0,21.632932662963867,33.826847076416016,-79.78287309037641,40.458926706002906,332.7095335693358,-0.0098764579743146,-0.0711168050765991,0.7441290616989136,0.664166271686554,0.2523599182447837,-0.3476853290097699,2.9027300477355897,0.0845011845231056,0.043208435177803,0.115446425974369,-1.1260341323912144,0.7316759817302227,-9.666132182478906,14997.0
40.4,8.800000190734863,303.0,21.53902816772461,36.78490447998047,-79.78287310819468,40.45892669674903,333.29896533203123,-0.0092928931117057,-0.064268834888935,0.7442140579223633,0.6647771596908569,0.2086879786705947,-0.32291112358921,2.93013064889788,0.0318419635295867,0.0723203718662262,-0.0099008064717054,-0.9995897018909456,0.702774071842432,-9.804770835042,14998.0
40.61,8.800000190734863,299.0,21.51899528503418,36.32370376586914,-79.78287306714721,40.45892660496588,333.8780821533203,-0.013439156115055,-0.0630787312984466,0.7434715032577515,0.665650486946106,0.1953441083288422,-0.3237916309409319,2.9648269145001085,0.0736188516020774,-0.0916226282715797,-0.0152983227744698,-1.0702455554902557,0.6248589731007814,-9.90343032002449,14998.0
40.8,8.899999618530273,298.0,21.15464973449707,31.011919021606445,-79.78287300182201,40.458926547269705,334.1530302734375,-0.0168331358581781,-0.064404472708702,0.7430976033210754,0.6658638119697571,0.1880845045399876,-0.3293462519312795,2.9625554880872778,0.0179863553494215,-0.0611681751906871,0.0325869098305702,-1.142498429864645,0.6794351298362017,-9.86963809132576,14999.0
40.91,8.899999618530273,298.0,21.079524993896484,34.311904907226555,-79.78287302360361,40.45892655291221,334.7502974243164,-0.0168610755354166,-0.0692473202943801,0.7426226735115051,0.6659070253372192,0.19827370030727,-0.3576174790789195,2.9413246013904613,-0.0095606828108429,0.015279933810234,0.1691960245370865,-1.1948034549504518,0.6414807799458504,-9.510047192573548,14999.0
41.0,8.800000190734863,298.0,21.03069496154785,35.63190078735352,-79.78287300803407,40.458926486294935,335.01245104980467,-0.0147087210789322,-0.069958321750164,0.7424686551094055,0.6660553812980652,0.2128312972846409,-0.3390132503065595,2.889792817149106,-0.0302753783762455,0.0504981689155101,0.0068976026959717,-1.128142126724124,0.6898730675876141,-9.53325888454914,15000.0
41.21,8.800000190734863,300.0,20.988126754760746,35.70346450805664,-79.78287297629626,40.45892639468786,335.5712431640625,-0.0081316344439983,-0.0658948719501495,0.7433199286460876,0.665632963180542,0.2265999341320757,-0.3218933453298257,2.8689795946893053,0.0207142457365989,0.1832587867975235,-0.0905717089772224,-1.0364508417248726,0.9050700455904008,-9.785037066936493,15000.0
41.3,8.899999618530273,300.0,20.95181655883789,36.49864196777344,-79.78287299896613,40.45892639700885,335.8605498046875,-0.0053318431600928,-0.0614930279552936,0.7439097762107849,0.665423572063446,0.2177688515833212,-0.3027460295089794,2.8658201005976256,0.0935122296214103,0.0419047847390174,0.0278637483716011,-1.1156848530471326,0.6708740021288395,-9.750689937472345,15000.0
41.5,8.800000190734863,301.0,20.93804359436035,36.7928581237793,-79.78287300358724,40.4589263914651,336.14930712890623,-0.0051473593339324,-0.0585212297737598,0.7445593476295471,0.6649662852287292,0.2029906523570135,-0.2941316181350096,2.8648275692411898,0.0946979597210884,0.0182244926691055,0.0594136156141758,-1.0843229464441542,0.5099860361963511,-9.760262414216996,15001.0
41.7,8.899999618530273,297.0,20.93553924560547,37.09502410888672,-79.78287278834581,40.4589262384474,336.70241534423826,-0.0098394118249416,-0.0604131817817688,0.7453018426895142,0.6639116406440735,0.1668414011505654,-0.3226320058089037,2.8622218709334164,0.0871753841638565,-0.0659994781017303,-0.1531360745429992,-0.9668999657034876,0.6639203470945358,-9.839239586591724,15001.0
41.8,8.899999618530273,299.0,20.906742095947266,38.34345245361328,-79.7828727028581,40.45892606662992,337.2565077514648,-0.0164359454065561,-0.068462073802948,0.7455193400382996,0.6627546548843384,0.1414504696035943,-0.3664841679080794,2.868648850735311,-0.0037832641974091,-0.0436888188123703,-0.1669802963733673,-1.1550439964979888,0.5704840336740017,-9.871577028036118,15002.0
42.0,8.899999618530273,298.0,21.00565528869629,35.83069229125977,-79.78287240962837,40.45892582388814,337.8071440429688,-0.0133674927055835,-0.0660858824849128,0.7463170289993286,0.6621668338775635,0.1135336098406458,-0.400602847658653,2.885623189499172,0.0307755209505558,0.0565860234200954,-0.0788432583212852,-1.043039922863245,0.5079829262942076,-9.82370353460312,15002.0
42.1,9.0,299.0,20.95807647705078,36.7371940612793,-79.78287234887091,40.45892574378293,338.09765612792967,-0.0144361266866326,-0.0690452679991722,0.7470227479934692,0.6610457301139832,0.086956196588604,-0.3749803503882829,2.862179077152041,-0.0451435931026935,-0.1770583242177963,0.0244002528488636,-1.1661249087005854,0.3032100719958544,-9.520718361139297,15003.0
42.3,8.899999618530273,299.0,21.03069496154785,35.09117889404297,-79.7828721695527,40.458925632107146,338.35571276855467,-0.020919406786561,-0.0777736604213714,0.7474019527435303,0.6594725847244263,0.0979488811108409,-0.3743453452324716,2.7480482277662177,0.1009633839130401,-0.3111084103584289,0.1114996001124382,-1.208428344503045,0.5733063750341535,-8.922041246294976,15003.0
42.5,9.0,299.0,21.041963577270508,36.69743728637695,-79.78287215249055,40.4589255414684,338.88795458984373,-0.0428309887647628,-0.0782108604907989,0.7414941191673279,0.6650076508522034,0.1279394649285801,-0.4071496402877607,2.5357363331895586,0.1038193553686142,0.1738500893115997,0.2692289054393768,-1.4170440620183946,0.7877373312413692,-8.971265446543693,15003.0
42.61,9.100000381469728,299.0,21.019428253173828,34.90033721923828,-79.78287226888972,40.458925567746455,339.1582869262695,-0.0333844125270843,-0.0697439387440681,0.7369410991668701,0.6715200543403625,0.1306432086221057,-0.4054834339791058,2.55685171935972,-0.113664872944355,0.3442948758602142,0.1213910356163978,-1.5407362081110478,1.0969088588654996,-9.219910690784452,15004.0
42.71,9.199999809265137,299.0,20.980613708496094,36.37141418457031,-79.7828720301492,40.45892534282967,339.6875380249023,0.0054074036888778,-0.0618001520633697,0.7274684906005859,0.6833308935165405,0.2204255749525768,-0.2391633836292949,2.51522634392868,-0.2223605364561081,0.033404491841793,0.3030303418636322,-1.1061300641298295,0.7357628931105137,-9.155452739596369,15004.0
42.9,9.199999809265137,298.0,21.04572105407715,35.51262283325195,-79.78287206043099,40.45892538989139,339.93955218505863,0.0154226031154394,-0.0651030465960502,0.7232389450073242,0.6873494386672974,0.2820934538646845,-0.1902099462787539,2.4774888499604657,-0.1270109862089157,-0.0757401585578918,0.2684586048126221,-0.937108840495348,0.8305882126092912,-9.323968909978868,15004.0
43.1,9.300000190734863,306.0,20.989377975463867,36.57815933227539,-79.78287195268095,40.45892533236053,340.44723498535154,0.0110916150733828,-0.0761677622795105,0.7149446606636047,0.6949314475059509,0.3309996945930592,-0.2488119924429015,2.467162641233699,-0.0233750939369201,-0.1292851865291595,-0.0658081695437431,-1.0803061285614968,1.1249946436285974,-9.492625998258587,15005.0
43.2,9.399999618530272,311.0,20.89046669006348,38.16056442260742,-79.78287188023296,40.458925355355696,340.69610583496086,0.0048247217200696,-0.0830652043223381,0.7114769816398621,0.6977660655975342,0.3185443502686287,-0.3022848967161583,2.438949671526836,0.0553499311208725,-0.2372170090675354,0.1628508865833282,-1.4063112053275109,0.8421094932407142,-9.376414341330529,15005.0
43.3,9.5,309.0,21.06324958801269,34.073352813720696,-79.78287173105036,40.45892536260853,341.1890181274414,-0.0067006503231823,-0.0922743380069732,0.7035130262374878,0.7046347260475159,0.345676515453491,-0.3764074535360694,2.40362218546168,0.2461180984973907,0.0402427278459072,0.1943473219871521,-1.3593566018342973,1.2466430416703225,-9.533640123009684,15006.0
43.51,9.600000381469728,308.0,21.0281925201416,35.60009002685547,-79.7828716022889,40.45892549374323,341.6746901245117,-0.012368164025247,-0.0813852250576019,0.6960189938545227,0.7132889628410339,0.3155416735978859,-0.3242636792125483,2.4592222592785795,-0.1413843929767608,0.1476016193628311,-0.0365100316703319,-1.0367505115270614,1.1947279527783394,-9.9290645134449,15006.0
43.6,9.899999618530272,301.0,21.19095802307129,32.586368560791016,-79.78287161809456,40.45892555723008,341.9249800415039,-0.0064573902636766,-0.0802426189184188,0.6911836862564087,0.7181814312934875,0.3399993861374355,-0.3193532065480845,2.4695042791138166,-0.0886665806174278,0.1591570079326629,0.1285226494073867,-1.354098200798035,1.354050399810076,-9.714305638074878,15006.0
43.8,10.0,303.0,21.129608154296875,33.59624481201172,-79.78287146207026,40.45892557389137,342.149375793457,-0.000332944560796,-0.0794531255960464,0.6844457983970642,0.7247214317321777,0.3951105117573216,-0.2930046451243656,2.4458467785924056,-0.0981684923171997,-0.0024076185654848,0.4088185131549835,-1.1703895023465156,1.2609481085836889,-9.596087801456452,15007.0
44.0,10.100000381469728,301.0,21.10456657409668,35.234310150146484,-79.78287148487505,40.458925876158645,342.6370390625,0.0143221365287899,-0.0924293920397758,0.6675038337707521,0.7387086749076843,0.5215505956766526,-0.2046382730141178,2.3177585832037053,-0.0546216107904911,-0.1309840083122253,0.2990884780883789,-0.8089800464361906,1.215791377723217,-9.104329363703728,15007.0
44.11,10.0,301.0,21.0281925201416,37.82658767700195,-79.78287127816469,40.45892581571851,342.8518904418945,0.0192150566726923,-0.0973889529705047,0.6585386395454407,0.7459712624549866,0.5336494346986025,-0.1918001003630332,2.2769182516436146,-0.0308045707643032,-0.0460811741650104,0.2498563975095749,-0.7369419841468334,1.4322317661345003,-9.193653184175492,15007.0
44.2,9.800000190734863,317.0,21.016923904418945,36.88827896118164,-79.78287112298364,40.45892600478988,343.3020857543945,0.0304340999573469,-0.0922372564673423,0.6426175236701965,0.7600057125091553,0.4821283791364171,-0.151918848121396,2.320903113283042,-0.0452213175594806,0.2295462489128113,0.3266078233718872,-0.6653192934393883,1.1693735486268997,-9.925235756635669,15008.0
44.4,9.800000190734863,316.0,21.1020622253418,35.29792404174805,-79.78287122944062,40.4589260261318,343.7874754638672,0.0378262773156166,-0.0687468349933624,0.625349760055542,0.7763896584510803,0.369430058650769,-0.085642248046879,2.4207095336432847,0.1939155012369156,-0.062428742647171,0.1146784275770187,-0.6170895583927631,1.0736715853214265,-9.92292376756668,15008.0
44.51,9.800000190734863,315.0,21.099557876586918,34.44708633422852,-79.78287105550811,40.45892595760147,343.99611651611326,0.0265202019363641,-0.0601301454007625,0.6131288409233093,0.7872446179389954,0.3000761460264601,-0.0842483118788035,2.415747981864893,0.1447938680648803,-0.1697128564119339,0.3416236042976379,-0.7868664615601302,0.8333803311735392,-9.797852994203568,15008.0
44.71,9.699999809265137,314.0,20.906742095947266,38.03333282470703,-79.78287101936282,40.45892588021233,344.2402876586914,0.0126311117783188,-0.0590425096452236,0.59809410572052,0.7991482019424438,0.2346977713662275,-0.1488181506504727,2.4364482982468383,0.1111459583044052,-0.2573581635951996,0.3859986066818237,-0.7953217546641828,1.1343457301706077,-9.799407184123991,15009.0
44.9,9.600000381469728,305.0,20.850400924682614,39.41694259643555,-79.78287077817122,40.45892568185271,344.6895827026367,-0.006876531522721,-0.0770659074187278,0.5585247874259949,0.8258715271949768,0.2160926548797236,-0.2634846537973789,2.46384746445058,-0.0353475138545036,-0.2215764075517654,0.4125637710094452,-0.8741011449694633,1.3978859522938731,-10.197719514369965,15009.0
45.0,9.600000381469728,308.0,20.86417388916016,37.71526336669922,-79.78287058681114,40.4589254459193,345.13942706298826,0.0044345315545797,-0.088938295841217,0.5102392435073853,0.8554099798202515,0.3045872174099201,-0.3032048858218584,2.5881104838094946,-0.1152966096997261,0.1483171582221985,0.7781788110733032,-0.8347163468599319,1.540926827341318,-10.641412085294723,15010.0
45.1,9.300000190734863,305.0,20.761505126953125,40.95958709716797,-79.7828705911821,40.4589253892623,345.40554034423826,0.0129609312862157,-0.089341215789318,0.4791480898857117,0.8730792999267578,0.3649014823218349,-0.2325216876394009,2.6655938133141164,-0.0191302560269832,0.1181959882378578,0.6801037192344666,-0.3885598323494196,1.80403705984354,-10.541431714296342,15010.0
45.31,9.100000381469728,303.0,20.801570892333984,39.38513565063477,-79.78287051214254,40.458925118855454,345.9050368041992,0.0299686808139085,-0.0807833448052406,0.4050424993038177,0.9102288484573364,0.4066338692796032,-0.0865794837236349,2.8165106600222907,0.0853416621685028,0.0452433638274669,0.9057686924934388,-0.189023890569806,1.5528167018294334,-10.603683511018753,15010.0
45.5,8.699999809265138,320.0,20.74272346496582,40.60175704956055,-79.78287062117433,40.45892506130742,346.1945189208984,0.03160947188735,-0.0742615759372711,0.3632307946681976,0.928196907043457,0.3855626492667331,-0.0013903897910663,2.9276122519383563,0.0701117664575576,-0.1097644194960594,1.0545531511306765,-0.1198272461816668,1.440458360016346,-10.689362761974335,15011.0
45.61,8.5,326.0,20.870433807373047,38.47863388061523,-79.78287049111142,40.4589247849768,346.4474943847656,0.0289569776505231,-0.0689570531249046,0.3201076984405517,0.9444244503974916,0.3596497027336931,0.0306449336016557,3.0191459284562376,0.0667128786444664,-0.0401503928005695,0.8313069939613342,0.1206896556727588,1.6588490872085095,-10.802654904127124,15011.0
45.8,8.399999618530272,319.0,21.09830665588379,34.121063232421875,-79.78287045599211,40.4589244169253,347.01967608642576,0.0297051146626472,-0.0633440241217613,0.2340895533561706,0.9696944952011108,0.256824473309673,0.0295209580538037,3.171819494271538,-0.1629902869462967,0.0213676858693361,0.7856411933898926,0.3740926513820887,1.3226824267208577,-10.570354381799696,15012.0
45.9,8.399999618530272,315.0,21.22476387023925,32.40348052978516,-79.78287062219188,40.45892432268162,347.34093463134764,0.0323481298983097,-0.0679840520024299,0.1971426755189896,0.9774796962738036,0.2655844896291505,0.0696215596840352,3.2382725323278505,-0.1060552299022674,-0.0491857975721359,0.8920027613639832,0.4863246202468872,1.2990519279241564,-10.40298835873604,15012.0
46.01,8.300000190734862,322.0,21.282358169555664,31.576494216918945,-79.78287079822131,40.45892422474926,347.66760241699217,0.0358000099658966,-0.0696287974715232,0.1668172627687454,0.9828745722770692,0.3023035357071094,0.0674009846058358,3.266369106126757,-0.0001606853329576,0.1336627155542373,0.5296676754951477,0.1833573356084525,1.5070061060786248,-9.998439388275148,15012.0
46.2,8.300000190734862,323.0,21.165916442871094,33.86660385131836,-79.78287051720497,40.4589232471734,348.32770526123045,0.0545247644186019,-0.0558922290802002,0.1083453744649887,0.9910420775413512,0.2620607605502126,0.1028785029099416,2.7881697525329017,-0.0659442543983459,0.1082866862416267,0.2775218188762665,0.6678610780835152,1.4864714156091214,-8.538045823574066,15013.0
46.3,8.300000190734862,316.0,21.25105667114257,36.66563034057617,-79.78287054836373,40.458923097533045,348.60317218017576,0.0594162791967392,-0.0560008585453033,0.0951543301343917,0.9921085834503174,0.2871944754683009,0.09602269074189,2.7092711037933888,-0.1098676770925522,0.0580256357789039,0.2185220420360564,0.6160314316302539,1.3021699556708335,-8.813439740538596,15013.0
46.51,8.300000190734862,311.0,21.269838333129886,36.26008987426758,-79.78287053725508,40.45892293123355,348.87255847167967,0.0636187121272087,-0.0634033605456352,0.0854852348566055,0.9922827482223512,0.3088405963880228,0.1097184395761694,2.6510238195130285,-0.2512986958026886,-0.0952913463115692,0.0448534153401851,1.0120718993246556,1.5221859164536002,-9.03827746152878,15013.0
46.7,8.300000190734862,315.0,21.183446884155277,39.766822814941406,-79.78287037262942,40.4589223449298,349.4420851440429,0.0612713918089866,-0.076163537800312,0.0796131789684295,0.9920215606689452,0.4097611444652963,0.1012144197350729,2.690177723002704,-0.1175135448575019,-0.195801630616188,0.0982676744461059,1.1437338003516198,1.3898572866618637,-9.856989394426346,15014.0
46.81,8.399999618530272,313.0,21.129608154296875,40.11669921875,-79.78287018646671,40.45892180986383,349.7498625488281,0.0623272694647312,-0.0782098621129989,0.0820938423275947,0.9915942549705504,0.4386062967975314,0.0741792384663061,2.8010006775015537,-0.1941699981689453,-0.0385806113481521,-0.0010794410482048,1.0239697406440973,1.7442586353421212,-10.18954978466034,15014.0
46.91,8.600000381469728,308.0,21.17718505859375,39.00345230102539,-79.78287009837327,40.458921314930976,350.3327025146484,0.0632232800126075,-0.0814198479056358,0.092808723449707,0.9903334379196168,0.4920554334634528,0.062573411251522,2.9804559577304035,-0.0414355508983135,-0.1969189792871475,-0.0639562159776687,0.9661109570413828,1.7414532874524595,-10.513403670787811,15015.0
47.11,8.699999809265138,307.0,21.322423934936523,36.99165344238281,-79.78286965556183,40.45892047565247,350.9368742675781,0.0515763834118843,-0.0823616087436676,0.1035319566726684,0.9898675084114076,0.5246617331099445,0.0042174287363943,3.196485187863984,0.1335458010435104,-0.1370704174041748,-0.174240380525589,0.8637028221040964,2.026514552235604,-10.768186737298969,15015.0
47.2,9.100000381469728,304.0,21.562816619873047,30.44734191894531,-79.7828693949638,40.458919799042775,351.2121123046875,0.0449973531067371,-0.0831122770905494,0.1104868352413177,0.989373743534088,0.5273046423305314,-0.0650134831398054,3.2639703306484265,-0.05293570458889,0.0590931922197341,-0.1300460249185562,0.7774528829008341,2.212465511709452,-10.69369437932968,15016.0
47.41,9.100000381469728,299.0,21.736852645874023,29.683971405029297,-79.78286934930081,40.45891949519524,351.54144274902336,0.0467413254082202,-0.0863256677985191,0.1147895008325576,0.988527536392212,0.5659417545532981,-0.1046485020457377,3.2461385705367207,0.050914641469717,0.0869697779417038,-0.0586909800767898,0.7821809414774179,2.1531938946247102,-9.665769655108454,15016.0
47.5,9.300000190734863,297.0,21.341203689575195,36.18852233886719,-79.78286893702132,40.45891870240519,352.1577681274414,0.0468747168779373,-0.0973525866866111,0.1166875958442688,0.987273633480072,0.5664704674433694,-0.0660698858528776,3.0135891786076754,-0.0350472182035446,0.0019713705405592,0.0566036105155944,0.8804859390109778,1.8229343837499616,-8.854290727972984,15017.0
