time,wind_speed,wind_angle,battery_voltage,battery_current,position_x,position_y,position_z,orientation_x,orientation_y,orientation_z,orientation_w,velocity_x,velocity_y,velocity_z,angular_x,angular_y,angular_z,linear_acceleration_x,linear_acceleration_y,linear_acceleration_z,node_ids
0.0,1.0,35.0,23.45216178894043,0.0397588685154914,-79.78271056140903,40.45898338682908,267.84147786951064,0.0251275692135095,-0.0166913941502571,-0.6868976354598999,0.7261278033256531,0.0089162355887396,-0.0083859483542411,0.0016421501802634,-0.003915418870747,-0.002753683598712,-0.0041644056327641,0.5865344579145313,-0.0973259178176522,-9.796930888295174,14932.0
0.1,1.0,30.0,23.44965744018555,0.0,-79.78271058237341,40.45898334124831,267.8295227870941,0.0251206383109092,-0.0166937075555324,-0.6868970394134521,0.7261286377906799,0.003852594567401,-0.0047651708404605,0.0015599433154699,0.0021329310256987,-0.0018427651375532,0.0048415521159768,0.5852011831104755,-0.0970882833190262,-9.795709404945374,14932.0
0.3,1.0,26.0,23.44464874267578,0.0159035474061965,-79.78271058768601,40.4589833373476,267.82967978572844,0.0251227766275405,-0.016693465411663,-0.6869006752967834,0.7261251211166382,0.0038158141718069,-0.0043154628539911,0.0022703628766274,-0.0033906253520399,-0.0014698178274556,-0.0052163884975016,0.5842568577826024,-0.0909939223062247,-9.79592633664608,14932.0
0.4,1.0,18.0,23.44590187072754,0.0238553211092948,-79.78271060320077,40.45898323232991,267.81465077257155,0.0251289904117584,-0.0166861619800329,-0.6869023442268372,0.7261235117912292,0.0112746494581227,-0.0027102129589256,-0.0018941360681241,-0.0031411331146955,-0.0024261188227683,-0.0088158324360847,0.5860909831523896,-0.1066833357978612,-9.796657823324203,14932.0
0.6,1.0,15.0,23.45216178894043,0.0318070948123931,-79.78271063791536,40.45898317705831,267.8027746067047,0.0251296460628509,-0.0166903100907802,-0.6869017481803894,0.7261239290237427,0.009499900242744,-0.0046533589741924,-0.0012569765209016,0.008345847018063,0.0022911916021257,0.0015440445858985,0.5844996268674731,-0.102991358153522,-9.796739684343338,14932.0
0.7,0.8999999761581421,12.0,23.447153091430664,0.0159035474061965,-79.78271064657714,40.45898315983877,267.8025902495384,0.0251161586493253,-0.0166807305067777,-0.6868858933448792,0.7261396646499634,0.0099967174977471,-0.0038734115972911,-4.382180959337356e-05,0.0008227658690884,0.001789555652067,0.0008480688557028,0.5851697908714414,-0.0961674930341542,-9.797015672922134,14932.0
0.9,0.8999999761581421,10.0,23.448406219482425,0.0159035474061965,-79.78271068010272,40.45898310191714,267.7904190406799,0.0251210127025842,-0.0166867282241582,-0.6868902444839478,0.7261351943016052,0.0075353908077463,-0.0052485179828932,8.967569673151205e-05,-0.0042108711786568,0.0021756330970674,-0.0002781696966849,0.5853622373566032,-0.1020884018763899,-9.797057188153268,14932.0
1.0,0.8999999761581421,6.0,23.44464874267578,0.0079517737030982,-79.78271070097715,40.458983021837184,267.77798908805846,0.0251302700489759,-0.0166914667934179,-0.6868788003921509,0.7261456251144409,0.0096637941080803,-0.0031973734467535,0.0001234564817327,0.0003238401550333,-0.0007042473298497,0.0021432908251881,0.5847154622152448,-0.0941357591841369,-9.79512936115265,14932.0
1.2,0.8999999761581421,6.0,23.447153091430664,0.0318070948123931,-79.78271070382249,40.458983012795855,267.7780020222664,0.0251311436295509,-0.0166948251426219,-0.6868751049041748,0.7261490225791931,0.0098977718584525,-0.0027012191511082,0.0006267061053839,-0.0021587028168141,-0.003629342187196,-0.0027912030927836,0.58500274322927,-0.0908996085450053,-9.794116623401644,14932.0
1.3,0.8999999761581421,7.0,23.44590187072754,0.0318070948123931,-79.78271076826796,40.45898294970299,267.76550888872146,0.0251143518835306,-0.0167007111012935,-0.686880886554718,0.7261438965797424,0.0064642520967753,-0.0089985291599369,0.0008898910518133,-0.0034195720218122,0.0009456127299927,-0.0035951221361756,0.5872267682477832,-0.1079375726915896,-9.79747994184494,14932.0
1.5,0.8999999761581421,10.0,23.44214630126953,0.055662415921688,-79.78271077837313,40.45898294303364,267.765561817646,0.0251049697399139,-0.016689084470272,-0.6868806481361389,0.7261447906494141,0.0072484250046909,-0.0086956502296653,0.0013890393156349,0.0042431470938026,-0.0011882195249199,0.0047744358889758,0.5871341629698873,-0.107216300368309,-9.797596301436425,14932.0
1.6,1.0,12.0,23.450910568237305,0.0397588685154914,-79.78271075627876,40.458982877703,267.7534285173416,0.025101400911808,-0.0166750904172658,-0.6868772506713867,0.7261484265327454,0.0058647643811985,0.0002656889264082,0.0007801043978825,0.0080291600897908,0.0022935229353606,0.0022639969829469,0.5832509905099869,-0.0902857605367899,-9.794827644824982,14932.0
1.81,0.8999999761581421,8.0,23.44089317321777,0.0397588685154914,-79.7827107554109,40.45898287271911,267.7535397992134,0.0251249354332685,-0.0166679620742797,-0.68687903881073,0.7261461019515991,0.0051555777808103,0.0008968071303218,0.001480647801966,-0.0023505582939833,-0.0046387142501771,-0.0055689685977995,0.5839575168862939,-0.091475915601477,-9.79522876381874,14932.0
1.9,0.8999999761581421,7.0,23.448406219482425,0.0318070948123931,-79.78271076643665,40.45898277355969,267.74203514909743,0.0251327939331531,-0.0166754871606826,-0.6868738532066345,0.7261505722999573,0.0101185336674768,0.0010823193574473,0.001712539184957,-0.0062207984738051,-0.0015022906009107,-0.0059994300827384,0.5853268617019057,-0.105486282845959,-9.79668296635151,14932.0
2.1,0.8999999761581421,7.0,23.450910568237305,0.0397588685154914,-79.78271078051363,40.4589827133364,267.73274373865127,0.0251359082758426,-0.0166746992617845,-0.6868793964385986,0.7261452078819275,0.0078083261227282,0.0010728521418199,0.0048531944500925,0.0051468964666128,0.0024459166452288,0.0027819871902465,0.5860212916508317,-0.1016775892954319,-9.796895220279694,14932.0
2.21,1.0,8.0,23.44464874267578,0.0397588685154914,-79.78271077672805,40.4589826995495,267.733851729393,0.02513437718153,-0.0166694913059473,-0.6868971586227417,0.7261286377906799,0.0080518628598706,0.001886073383203,0.0061419932260852,-0.0008574954117648,-0.0008309180266223,0.0016154062468558,0.5853715563565492,-0.1022741057910025,-9.797450705766678,14932.0
2.4,1.0,8.0,23.44965744018555,0.0318070948123931,-79.78271081558592,40.4589826533858,267.72247248744964,0.0251186657696962,-0.0166742615401744,-0.6868841052055359,0.7261413335800171,0.0028371338817132,-0.0016255632142594,0.004124050746375,-0.0003808159381151,-0.0009874465176835,0.0001628680620342,0.5852406152710319,-0.1062664110492914,-9.797669976353646,14932.0
2.5,0.8999999761581421,12.0,23.448406219482425,0.0397588685154914,-79.78271083226225,40.45898257845504,267.7125084385872,0.0251338109374046,-0.0166582446545362,-0.6868875622749329,0.7261379957199097,0.0060127211872485,-0.0007825788140831,0.003596110448874,0.0022926062811166,0.0022801065351814,0.0039440277032554,0.5844379387423396,-0.0918420426640659,-9.79512936115265,14932.0
2.7,0.8999999761581421,13.0,23.447153091430664,0.0318070948123931,-79.78271083278648,40.45898257299933,267.7128899679184,0.0251506343483924,-0.0166364144533872,-0.6868924498558044,0.7261332273483276,0.0058013179624,-0.0003390519593153,0.0042288365433244,-0.000440932722995,-0.001774750649929,-0.0031584231182932,0.583623677417636,-0.0908610991481691,-9.79491535305977,14932.0
2.81,1.0,14.0,23.43964195251465,0.0397588685154914,-79.78271086344566,40.45898252387212,267.7028914079666,0.0251680929213762,-0.0166321657598018,-0.6868746280670166,0.7261495590209961,0.0016612200179584,-0.0025350356344128,0.0037402095320399,-0.004324359819293,-0.0009750716853886,-0.0043560825288295,0.5863532307744026,-0.1073384432215243,-9.798055307865145,14932.0
3.0,1.0,15.0,23.45216178894043,0.055662415921688,-79.78271086652008,40.45898252169607,267.7032709107399,0.0251853913068771,-0.0166409984230995,-0.6868730783462524,0.7261502146720886,0.002712107738244,-0.0022255011441419,0.0041797862259977,0.0049451333470642,0.0040938672609627,0.005891493987292,0.5871354055032134,-0.1083727608527988,-9.797166531085969,14932.0
3.1,1.0,18.0,23.447153091430664,0.0477106422185897,-79.78271087779248,40.458982430438965,267.69299816942214,0.0252013653516769,-0.0166075713932514,-0.6868611574172974,0.726161777973175,0.0080014215952578,-0.0008298709669736,0.0029105232835478,0.0056815557181835,0.0002961731515824,0.0058160005137324,0.5846585249528289,-0.0896366739179939,-9.79604094207287,14932.0
3.3,1.0,17.0,23.448406219482425,0.055662415921688,-79.78271087834412,40.45898242347332,267.69331484889983,0.0252022854983806,-0.0166111923754215,-0.686861515045166,0.7261613011360168,0.0075360989621789,-0.0003381782140001,0.003668084104947,-0.0039779236540198,0.0005466662114486,-0.0056861951015889,0.5852942634746433,-0.091030376041308,-9.79604678928852,14932.0
3.4,1.0,20.0,23.44965744018555,0.0477106422185897,-79.78271089071347,40.45898235039228,267.6835072622299,0.0252024382352828,-0.0166126936674118,-0.6868630051612854,0.7261598706245422,0.0066889654842937,0.0003562290489519,0.0031584456922139,-0.0061870259232819,-0.0035633689258247,-0.0030380957759916,0.5853224397450686,-0.1058132518362254,-9.79844707131386,14932.0
3.6,1.0,20.0,23.453413009643555,0.0397588685154914,-79.78271091996157,40.45898228731284,267.6739208087921,0.0252052042633295,-0.016616890206933,-0.6868624091148376,0.7261602282524109,0.0061000045942717,-0.0031754265699549,0.0023494114057654,0.0046864273026585,0.001794820651412,0.0043418677523732,0.5851541861146689,-0.1028152655996382,-9.797437841892243,14932.0
3.7,0.8999999761581421,21.0,23.44965744018555,0.0238553211092948,-79.78271092598533,40.45898227596286,267.67447972154616,0.0252063013613224,-0.0166173987090587,-0.6868651509284973,0.726157546043396,0.0070537656716082,-0.0024169697030904,0.0035504685424593,0.0044286712072789,0.0018023661104962,-0.002764874137938,0.585216385871172,-0.0954257920011878,-9.796371309757234,14932.0
3.9,0.8999999761581421,21.0,23.447153091430664,0.0238553211092948,-79.78271093361762,40.4589821961137,267.6652277097702,0.0252086725085973,-0.0166140031069517,-0.6868648529052734,0.7261578440666199,0.008644398681967,-0.0012927624033049,0.0026247885219345,-3.909684892278165e-05,-0.0004980591475032,-0.0027235490269958,0.5855930561944843,-0.0994827364012599,-9.7963987916708,14932.0
4.0,0.8999999761581421,23.0,23.45216178894043,0.0477106422185897,-79.78271094358367,40.45898213107345,267.656545399189,0.0252055879682302,-0.0166184958070516,-0.6868675947189331,0.7261552214622498,0.0045607009207536,-0.000306701272147,0.0021051109405594,-0.0013549249852076,-0.0011716056615114,-0.0010300002759322,0.5846618871018291,-0.0978012964501977,-9.797244299054148,14932.0
4.21,1.0,26.0,23.44089317321777,0.0238553211092948,-79.78271094356609,40.45898212657587,267.6567760095596,0.0252055879682302,-0.0166184958070516,-0.6868675947189331,0.7261552214622498,0.0052557828070847,7.534733794965644e-05,0.0026887054119661,0.0001260513963643,-0.0004398258461151,-0.0038764281198382,0.5847303360700608,-0.0940129128377884,-9.796210511326793,14932.0
4.31,1.0,29.0,23.45216178894043,0.0477106422185897,-79.78271095226161,40.45898205067196,267.6484195575714,0.0252057220786809,-0.0166205707937479,-0.6868706345558167,0.7261523008346558,0.004909781889271,0.0005532188660472,0.0021925480585308,-0.0013114731991663,-0.0010100109502673,-0.0027634380385279,0.587013600692153,-0.1067454533278942,-9.798745279312136,14932.0
4.5,0.8999999761581421,30.0,23.450910568237305,0.1033730581402778,-79.78271095131082,40.45898204584534,267.64865952587127,0.0252072568982839,-0.0166207831352949,-0.6868734359741211,0.7261496782302856,0.00586797758514,0.0009496123468145,0.0026101908852905,0.0047012856230139,0.003831613343209,0.0035141864791512,0.588777486383915,-0.1073058267217129,-9.797085839509965,14932.0
4.6,0.8999999761581421,32.0,23.44965744018555,0.0318070948123931,-79.78271099595209,40.45898193914433,267.6435998067856,0.0252167601138353,-0.0166219267994165,-0.6868739724159241,0.7261488437652588,0.0099064685321684,-0.0041902586857217,0.0074502088654906,0.0054560890421271,0.0011396898189559,0.0039387266151607,0.5838859615847468,-0.0911433003935962,-9.795887160301213,14932.0
4.81,0.8999999761581421,32.0,23.44590187072754,0.0397588685154914,-79.78271100055845,40.45898193023557,267.64434045410155,0.0252169203013181,-0.0166231729090213,-0.6868759393692017,0.7261468768119812,0.0093422774309697,-0.0037169665041825,0.0080355241228292,-0.0053572631441056,-0.0032346579246222,-0.005283058155328,0.5836829901114107,-0.0932803298067301,-9.79536792755127,14932.0
4.9,0.8999999761581421,31.0,23.447153091430664,0.0238553211092948,-79.78271102074424,40.45898185993983,267.63968884801864,0.0252155419439077,-0.0166286118328571,-0.6868771910667419,0.7261456251144409,0.0062917075578691,-0.004157247470029,0.0095174369388487,-0.0045886831358075,-0.0018829280743375,-0.0047668716870248,0.5860199394822121,-0.1022509179264307,-9.796416918039322,14932.0
5.1,0.8999999761581421,29.0,23.44965744018555,0.0477106422185897,-79.78271105394585,40.458981809232384,267.63440787649154,0.0252142250537872,-0.0166381988674402,-0.6868767142295837,0.7261459231376648,7.344134406383189e-05,-0.0082388891955001,0.0100398673747197,0.0045648487284779,0.0013271187199279,0.0014264347264543,0.5865092052519322,-0.1022726348508149,-9.79690048277378,14932.0
5.2,1.0,27.0,23.447153091430664,0.0238553211092948,-79.78271107403323,40.45898180828552,267.63643115615844,0.0252147521823644,-0.0166393723338842,-0.6868796944618225,0.7261430621147156,0.0007302325206396,-0.0075892021358613,0.0111551869332879,0.0051099839620292,0.0005505614099092,0.0013527383562177,0.5864703212678433,-0.0981897342950105,-9.796147946119309,14932.0
5.4,1.0,26.0,23.44590187072754,0.0318070948123931,-79.78271106369544,40.45898167947608,267.6298721418381,0.0252238810062408,-0.0166256632655859,-0.6868796944618225,0.7261430621147156,0.0118749916125703,-0.0051674004235729,0.00790020525334,-0.0038135142531245,-0.0041988072916865,0.0002141784352716,0.5855842122808099,-0.101330474819988,-9.797726109623907,14932.0
5.5,1.0,25.0,23.44965744018555,0.0477106422185897,-79.78271106164209,40.458981577332246,267.624414978981,0.0252246875315904,-0.0166226178407669,-0.6868818998336792,0.7261409759521484,0.0129500086288121,-0.0027141927269719,0.0053669151610303,-0.0039115715771913,0.001238071359694,0.0002412564936093,0.5848174595832825,-0.0975945060141384,-9.797194012999537,14932.0
5.7,1.0,23.0,23.448406219482425,0.0318070948123931,-79.78271106409038,40.458981565018775,267.62495016908645,0.0252246875315904,-0.0166226178407669,-0.6868818998336792,0.7261409759521484,0.013936185195603,-0.0023794417826508,0.0059315483478104,0.002945841057226,-0.0008342823712155,-0.0012773559428751,0.5853100144118071,-0.0952271419856697,-9.797067128419878,14932.0
5.8,0.8999999761581421,18.0,23.44965744018555,0.0318070948123931,-79.7827110630883,40.45898146645946,267.62079113578795,0.0252245813608169,-0.0166234727948904,-0.6868850588798523,0.7261379361152649,0.014408243951702,-0.0012578976570031,0.0053242865911988,0.0031834132969379,0.0011082394048571,0.0015138671733438,0.5848845563828945,-0.1038344992417842,-9.79791672885418,14932.0
6.0,0.8999999761581421,17.0,23.448406219482425,0.0318070948123931,-79.78271106382685,40.45898145338163,267.62133383607863,0.0252251513302326,-0.0166242383420467,-0.686886727809906,0.726136326789856,0.0144278893806241,-0.0008722199603584,0.0059014964252285,-0.002332679927349,0.0003958175657317,0.0017265731003135,0.5844579654559493,-0.1039193386863917,-9.797615012526512,14932.0
6.1,0.8999999761581421,16.0,23.447153091430664,0.0318070948123931,-79.78271108424381,40.4589813565196,267.6175978765488,0.0252288524061441,-0.0166279766708612,-0.6868864297866821,0.7261364459991455,0.0135508497391439,-0.0046062349251977,0.0046936168744844,-0.0028879439923912,-0.0020829527638852,0.0010669215116649,0.585102547891438,-0.0975435712840408,-9.79714314222336,14932.0
6.31,0.8999999761581421,16.0,23.44464874267578,0.0159035474061965,-79.78271108909613,40.45898134344928,267.61804580545424,0.025229962542653,-0.0166280977427959,-0.6868889927864075,0.7261339426040649,0.0148324063985419,-0.0044443856615379,0.0051620798853071,0.0059334323741495,0.0008195075788535,0.0022735055536031,0.5862302199751139,-0.1015878345351666,-9.797437257170678,14932.0
6.4,0.8000000119209291,19.0,23.43838882446289,0.0,-79.78271107650963,40.45898124176277,267.61558258390426,0.0252220369875431,-0.0166207384318113,-0.6868968605995178,0.7261269688606262,0.0154850981435385,-0.0025534556064889,0.0047789846771119,0.0042260931804776,0.0018495559925213,0.0057638045400381,0.5847866155207158,-0.0945073040574789,-9.796512812376024,14932.0
6.6,0.8000000119209291,21.0,23.448406219482425,0.0238553211092948,-79.7827110621895,40.45898116916481,267.6132072792053,0.0252309162169694,-0.0166130606085062,-0.686903178691864,0.7261208891868591,0.0104190523379165,-0.0011901351109494,0.0036848769284703,-0.0059123896062374,-0.0046410178765654,-0.0053335926495492,0.5844476962834597,-0.089497327459976,-9.79799917459488,14932.0
6.7,0.699999988079071,29.0,23.44590187072754,0.0159035474061965,-79.78271106334829,40.45898114846487,267.6140159950256,0.0252411998808384,-0.0165983736515045,-0.6869224905967712,0.7261025309562683,0.0117354717312785,-0.0004844279265271,0.0048517534561497,0.0003410344070289,-0.0001201364430016,-0.0044312607496976,0.5873253669217229,-0.1084086938202381,-9.798439469933513,14932.0
6.9,0.8000000119209291,28.0,23.44965744018555,0.0159035474061965,-79.78271105240971,40.45898107963503,267.6122394785881,0.0252351872622966,-0.0166009999811649,-0.6869284510612488,0.7260971069335938,0.0099189565249888,9.141789314298134e-05,0.0040704103786105,0.000389980879845,0.0022303152363747,0.0053989537991583,0.5874792217835785,-0.1077194898203015,-9.798797904253007,14932.0
7.1,0.699999988079071,27.0,23.44965744018555,0.0238553211092948,-79.78271106517326,40.45898098873327,267.6111274347305,0.0252535082399845,-0.0165958609431982,-0.6869465708732605,0.7260794639587402,0.0110594819016053,-0.0044372723662526,0.0032870900375976,-0.0014616396510973,0.0023138960823416,0.0048334999009966,0.585143332220614,-0.1056827675644308,-9.797705644369126,14932.0
7.2,0.699999988079071,29.0,23.44464874267578,0.0159035474061965,-79.78271106970867,40.45898097815034,267.6114462599754,0.0252586547285318,-0.0165805649012327,-0.6869535446166992,0.7260730266571045,0.0119683735700748,-0.0040672655417113,0.0038701671704803,0.0017633307725191,-0.0008875599014572,-0.0023809541016817,0.5855038496106864,-0.095089257331565,-9.796395283341408,14932.0
7.31,0.8000000119209291,32.0,23.44464874267578,-0.0159035474061965,-79.78271105723812,40.45898090219329,267.6106268749237,0.0252222344279289,-0.0165517423301935,-0.6869490146636963,0.7260791659355164,0.0087784788034931,-0.0016542182871631,0.0033752890526095,0.0022518865298479,-0.0009770006872713,-0.0006679923972114,0.5864997766166926,-0.1035425587277859,-9.797767040133476,14932.0
7.51,0.8000000119209291,31.0,23.45216178894043,0.0318070948123931,-79.78271105869204,40.458980894212615,267.6109712705612,0.0252254642546176,-0.0165624283254146,-0.6869542598724365,0.7260738611221313,0.0087869559190423,-0.0011742377760773,0.0038945550681001,-0.0059980666264891,-0.0019136437913402,0.0002288507821504,0.5856647942215204,-0.0999421813711524,-9.797546015381814,14932.0
7.6,0.8000000119209291,30.0,23.448406219482425,0.0397588685154914,-79.78271102749319,40.458980768852456,267.60874944782256,0.0252304356545209,-0.0165510885417461,-0.6869540214538574,0.7260741591453552,0.0177742932725006,0.0025841605866485,0.0005715742822934,-0.0065409569069743,-0.002016190206632,-0.0017621229635551,0.5857684726640583,-0.1005041170679032,-9.797757684588433,14932.0
7.8,0.8999999761581421,30.0,23.45216178894043,0.0397588685154914,-79.78271102319252,40.458980752335016,267.6088321790695,0.0252312775701284,-0.0165520962327718,-0.6869574189186096,0.7260708808898926,0.019326577547934,0.0029070733595309,0.001191553229743,0.0065202615223824,-0.0008047844166867,0.0030840912368148,0.5863334233313799,-0.1022337325941771,-9.79875463485718,14932.0
7.9,0.8999999761581421,27.0,23.44965744018555,0.0477106422185897,-79.78271103993845,40.45898070086535,267.60860991334914,0.0252285916358232,-0.016564967110753,-0.6869600415229797,0.7260681986808777,0.0107216106023763,-0.0005390734147699,0.0022879115210089,0.0022181989625096,0.002335381694138,0.0027172639966011,0.5855914482101798,-0.0941298206057399,-9.79756238758564,14932.0
8.1,0.8999999761581421,28.0,23.43212890625,-0.0397588685154914,-79.78271103352891,40.458980595798266,267.6082210526466,0.0252369940280914,-0.0165566802024841,-0.6869604587554932,0.7260676622390747,0.0184153491554161,-0.0003701147487828,0.0022784889375907,-0.0061030429787933,0.0010848614620044,-0.0084013389423489,0.5847842400893569,-0.0918593193590641,-9.796302312612534,14932.0
8.2,1.0,29.0,23.434633255004893,-0.0397588685154914,-79.78271103150153,40.45898056062919,267.6087279305458,0.0252366494387388,-0.0165585689246654,-0.686962902545929,0.7260653376579285,0.019729828096344,0.0003932918735464,0.0033654711755268,-0.0036649166140705,-0.0011426750570535,-0.0075247478671371,0.5859110716357827,-0.1059367925394326,-9.797886908054352,14932.0
8.41,1.0,28.0,23.43713760375977,-0.0159035474061965,-79.78271104762834,40.45898052098775,267.6106837377548,0.0252325665205717,-0.0165686197578907,-0.6869627237319946,0.7260653972625732,0.0118740226837857,-0.002372969184536,0.0063958749961669,0.0046161338686943,0.0016088113188743,0.0028054148424416,0.5866354320198298,-0.1068247835990041,-9.797655358314517,14932.0
8.5,1.0,26.0,23.443397521972656,-0.0318070948123931,-79.78271104169525,40.45898044023413,267.610937415123,0.0252323597669601,-0.0165688581764698,-0.6869652271270752,0.7260631322860718,0.0130007243423484,-0.0010161462314534,0.0048293288082097,0.0028996339533478,0.0019680666737258,0.0038518833462148,0.5853827391564846,-0.0897959557268768,-9.796292957067491,14932.0
8.7,1.0,25.0,23.44590187072754,0.055662415921688,-79.78271104211056,40.45898042854117,267.6114342198372,0.0252323597669601,-0.0165688581764698,-0.6869652271270752,0.7260631322860718,0.0128169630483122,-0.0005653203643624,0.0054574241081694,-0.0044966205023229,-0.0004941337974742,-0.0091282902285456,0.5838875330239535,-0.0888296485226601,-9.795834535360337,14932.0
8.8,1.0,25.0,23.448406219482425,0.0397588685154914,-79.78271105360993,40.45898035886217,267.6123868808746,0.025233156979084,-0.0165734943002462,-0.6869672536849976,0.7260611057281494,0.0115081358367655,-0.0020002215796613,0.0055036084993325,-0.00310465763323,-0.0021469807252287,-0.0039770216681063,0.5857086483389139,-0.1066938516497612,-9.798359947800636,14932.0
9.0,0.8999999761581421,25.0,23.44965744018555,0.0477106422185897,-79.78271105546725,40.45898034782728,267.61293566083907,0.0252340119332075,-0.0165742374956607,-0.6869691014289856,0.7260591983795166,0.0126000232272491,-0.0016665628133891,0.0059949524173913,0.0025238685775548,-0.0014550365740433,0.0055065685883164,0.5877085422724486,-0.1085560527909547,-9.797917313575743,14932.0
9.1,0.8999999761581421,31.0,23.447153091430664,0.0477106422185897,-79.78271105306743,40.45898027033829,267.61399137830733,0.025232832878828,-0.016563843935728,-0.6869446635246277,0.7260826826095581,0.0135072380871094,-0.0004142773959975,0.0050604296386966,0.0016510827699676,0.0029957110527902,0.004216001369059,0.5849030116572976,-0.0892027556989342,-9.796826223134994,14932.0
9.3,1.0,31.0,23.447153091430664,0.0397588685154914,-79.78271105289247,40.45898025802912,267.614511428833,0.0252450946718454,-0.0165308807045221,-0.6869503855705261,0.7260775566101074,0.0137184275240511,6.27199009623821e-05,0.0057308007989614,-0.0049692089669406,0.0007986440905369,-0.0030504455789923,0.5849721184372902,-0.0901717763766646,-9.796991114616397,14932.0
9.41,1.0,34.0,23.44089317321777,0.0318070948123931,-79.78271108781084,40.45898021203878,267.61890524482726,0.0252457130700349,-0.0165237449109554,-0.6869338154792786,0.7260933518409729,0.008535880414468,-0.003746630877245,0.0097474537601011,-0.002577255712822,-0.0008887558360584,-0.0046160612255334,0.5881478874385357,-0.1071368330530822,-9.799246385693552,14932.0
9.6,0.8999999761581421,36.0,23.447153091430664,0.0397588685154914,-79.78271108334785,40.45898015049289,267.62023520326613,0.0252475794404745,-0.0165118928998708,-0.6869327425956726,0.7260946035385132,0.0107067202843387,-0.0022524057024586,0.0074933363367904,0.0030979274306446,-0.000490620790515,0.0041437088511884,0.5870490128919482,-0.1067264590132981,-9.798816030621529,14932.0
9.7,0.8999999761581421,39.0,23.450910568237305,0.0238553211092948,-79.78271108723601,40.45898013020626,267.62180018281936,0.0252365227788686,-0.0165084619075059,-0.6869393587112427,0.72608882188797,0.011891831029494,-0.0013173817943318,0.008603618631762,0.0020955065265297,0.0032000208739191,0.0032300173770636,0.5845640193298459,-0.0896932914108038,-9.795600646734238,14932.0
9.91,0.8999999761581421,39.0,23.443397521972656,0.0477106422185897,-79.78271108188406,40.45898008546445,267.6249573216438,0.0252364184707403,-0.0165043715387582,-0.6869468688964844,0.7260817885398865,0.0096076726069443,-0.0001990921690373,0.009886616060223,0.0003612521977629,-0.0010763637255877,-0.0018906706245616,0.5840295838192106,-0.0915078194718808,-9.7958082228899,14932.0
10.01,0.8000000119209291,42.0,23.45216178894043,0.0477106422185897,-79.78271110216821,40.45898001909946,267.6295224413872,0.0252184681594371,-0.0164754204452037,-0.6869460940361023,0.7260838150978088,0.0110038569755183,-0.0041467631913899,0.0114986944432461,0.0002416705829091,-0.0016109925927594,-0.0012143506901338,0.5871072292327881,-0.1068401508126408,-9.79897449016571,14932.0
10.21,0.8000000119209291,44.0,23.44965744018555,0.0318070948123931,-79.78271110685047,40.45898000853264,267.6306626186371,0.0252264942973852,-0.0164622105658054,-0.686939001083374,0.7260904908180237,0.0117301851048358,-0.0037142091553504,0.012130885839425,0.0009777818340808,0.0002182032039854,0.0024892217479646,0.585265648663044,-0.1064259669464081,-9.799126517772676,14932.0
10.3,0.8000000119209291,47.0,23.450910568237305,0.0715659633278846,-79.78271112962787,40.45897994392287,267.632870136261,0.0252258107066154,-0.0164238549768924,-0.6869428753852844,0.7260878086090088,0.0124087149863134,-0.0063171196215068,0.0072504252188627,-0.0027028818149119,-0.0021122174803167,0.0026237946003675,0.5836871927976609,-0.0942285745963454,-9.796645544171335,14932.0
10.5,0.8000000119209291,49.0,23.44464874267578,0.0397588685154914,-79.78271113650473,40.4589799320313,267.6335740671159,0.0252388808876276,-0.0164171382784843,-0.6869491338729858,0.7260816097259521,0.0133190789596041,-0.0058082632300376,0.0078523524289837,-0.0008675394929014,0.0017499052919447,-0.0032620371785014,0.5834944174066187,-0.0940373889170587,-9.79660169005394,14932.0
10.6,0.8000000119209291,51.0,23.44965744018555,0.0477106422185897,-79.78271113387443,40.45897988731848,267.6365345702171,0.0252250432968139,-0.0164154954254627,-0.6869311928749084,0.7260990142822266,0.0100055450954399,-0.0020629262190383,0.0061659096210907,0.003577432828024,-0.0012445960892364,-0.0001301152369705,0.5854592645913362,-0.1054395051207393,-9.798346499204635,14932.0
10.8,0.8000000119209291,52.0,23.448406219482425,0.0397588685154914,-79.78271113580622,40.45897987799051,267.6371592268944,0.0252243131399154,-0.0164187382906675,-0.6869339942932129,0.7260963916778564,0.010616761850838,-0.0014116036024032,0.0067696598220641,-0.0021785655990242,-0.0001795392308849,0.0010722260922193,0.5858106822520495,-0.1048584380652755,-9.799015420675278,14932.0
10.9,0.699999988079071,52.0,23.448406219482425,0.0238553211092948,-79.78271112886824,40.458979841875646,267.6421175584793,0.0252210777252912,-0.0164234340190887,-0.6869357824325562,0.726094663143158,0.0074311165513863,0.0005096410905942,0.0088800486999519,-0.0027945430483669,-0.0011660725576803,0.0032008939888328,0.5853266789764167,-0.0933252163231372,-9.796725066304209,14932.0
11.11,0.699999988079071,52.0,23.44214630126953,0.0397588685154914,-79.78271114858809,40.45897978995296,267.64440184688567,0.0252276360988616,-0.0164260100573301,-0.68693608045578,0.726094126701355,0.0096572343867307,-0.0044146266636755,0.0056462289241881,-0.0011280266335234,-0.0027868784964084,-0.0026005699764937,0.5841900167986751,-0.0935139900259673,-9.797487543225287,14932.0
11.2,0.699999988079071,54.0,23.448406219482425,0.0318070948123931,-79.78271115738339,40.458979770643225,267.6455739722252,0.0252286586910486,-0.0164276622235775,-0.6869388222694397,0.7260914444923401,0.0111454973971991,-0.0033353152646817,0.006808540261915,-0.004498257767409,-0.0048859007656574,0.0006671144510619,0.5854993180185557,-0.1058389704488218,-9.798411988019945,14932.0
11.4,0.699999988079071,53.0,23.44965744018555,0.0318070948123931,-79.78271115569473,40.458979723218654,267.6483550653457,0.0252286698669195,-0.0164259392768144,-0.6869387030601501,0.7260916233062744,0.012278169607607,-0.0019239493849704,0.0057930017466606,0.0007733616512268,-0.0018356955843046,0.0018740778323262,0.5858402106910944,-0.1069095864985138,-9.797540168166162,14932.0
11.5,0.699999988079071,51.0,23.44590187072754,0.0715659633278846,-79.78271117543991,40.4589796700689,267.65112328386306,0.02523123472929,-0.0164323300123214,-0.6869412660598755,0.7260888814926147,0.0126540100968015,-0.0048164905729052,0.0046888100260099,0.0015653887530788,-0.0023415200412273,0.0027126409113407,0.5843628751114011,-0.0906219297554344,-9.796034510135652,14932.0
11.71,0.699999988079071,52.0,23.44590187072754,0.0318070948123931,-79.78271118019944,40.45897965814298,267.6515768752098,0.02523123472929,-0.0164323300123214,-0.6869412660598755,0.7260888814926147,0.0131718141077685,-0.0041572851516168,0.0053239132203203,-0.0032308229710906,-0.0009557231678627,-0.0050867698155343,0.5854133639484644,-0.0911333327181637,-9.796905160546306,14932.0
11.8,0.699999988079071,52.0,23.460926055908203,0.1033730581402778,-79.78271117874341,40.45897962489445,267.6545652732849,0.025225831195712,-0.0164384823292493,-0.6869431138038635,0.7260872125625609,0.0091476701732962,-0.0017034560342942,0.0054308144565697,-0.0031052166596055,-0.0013103418750688,-0.0004883466754108,0.5880183350667357,-0.1070378506556153,-9.799362160563469,14932.0
12.0,0.699999988079071,52.0,23.448406219482425,0.0477106422185897,-79.78271118037864,40.4589796160732,267.6551133379936,0.0252269450575113,-0.0164400581270456,-0.6869452595710754,0.7260851263999939,0.0102433759383035,-0.0012500230129661,0.0059608698510595,-0.0001315441768383,0.0009421905851922,0.0065142512321472,0.5873596462234855,-0.1074083265848457,-9.798776854276658,14932.0
12.1,0.699999988079071,49.0,23.448406219482425,0.0318070948123931,-79.78271120120247,40.45897956161803,267.65793645238875,0.025231122970581,-0.0164425931870937,-0.686945378780365,0.72608482837677,0.0120317397811791,-0.0040670376410991,0.0049836222422062,0.0007130036246962,0.0020552973728626,0.0050638085231184,0.5845274376869202,-0.0909803366661071,-9.795998842120172,14932.0
12.3,0.699999988079071,49.0,23.44965744018555,0.0715659633278846,-79.78271120537806,40.45897955044465,267.6584296212196,0.0252319071441888,-0.0164445005357265,-0.6869472861289978,0.726082980632782,0.0123483014780923,-0.0034511831662441,0.0056924362547384,-0.0020553786307573,-0.0015935023548081,-0.0023274081759154,0.5854062741994858,-0.090958281699568,-9.797391648888588,14932.0
12.41,0.699999988079071,48.0,23.44965744018555,0.0397588685154914,-79.78271117450738,40.45897951910595,267.6615967736244,0.0252229925245046,-0.0164453238248825,-0.6869481801986694,0.7260823249816895,0.0096762346413029,0.0035281729095062,0.0045437632443564,-0.0009757427033036,-0.0022623231634497,-0.0031582077499479,0.5867696621641517,-0.1073069048020988,-9.798451164364815,14932.0
12.6,0.699999988079071,49.0,23.450910568237305,0.0318070948123931,-79.78271119653357,40.45897947988429,267.6623969659805,0.0252284109592437,-0.0164489019662141,-0.6869481801986694,0.7260821461677551,0.0109272924087068,-0.0015107640655586,0.0001337871907742,0.0009821894345805,-0.0007206851732917,0.0033727257978171,0.5857839312404395,-0.1072081690840423,-9.797821419239042,14932.0
12.7,0.699999988079071,49.0,23.447153091430664,0.055662415921688,-79.78271119747593,40.458979459039405,267.66250216817855,0.0252056345343589,-0.0164530258625745,-0.6869488358497621,0.7260822057723999,0.0123852966393369,-0.0004760203500369,0.0012100006852718,0.0025255945511162,-0.0015328816371038,0.0003374947118572,0.5832465685531497,-0.0905222621373832,-9.795790681242943,14932.0
12.9,0.699999988079071,51.0,23.44590187072754,0.0318070948123931,-79.78271121627944,40.458979407955134,267.66535293912887,0.0252134092152118,-0.0164388045668602,-0.6869348287582397,0.72609543800354,0.0154715234178992,-0.0031054542916115,0.0020453945345626,-0.0003993355494458,0.0004093603929504,-0.0040641734376549,0.584879366979003,-0.0908930304273963,-9.796419841647149,14932.0
13.0,0.8000000119209291,51.0,23.44590187072754,0.055662415921688,-79.78271121909525,40.45897936858423,267.6682645664215,0.0252265855669975,-0.0164380930364131,-0.6869528889656067,0.7260779738426208,0.0115398218841889,-0.0009984319634542,0.0024011107203251,-0.0021789562888443,-0.0006416705437004,-0.0044071921147406,0.5873293137922884,-0.1068056339677423,-9.79805823147297,14932.0
13.2,0.8000000119209291,52.0,23.443397521972656,0.0159035474061965,-79.7827112193602,40.458979357616975,267.6685171709061,0.0252356249839067,-0.0164274871349334,-0.6869531869888306,0.7260775566101074,0.0127576223423052,-0.0004846170087888,0.0030104714078779,0.0019943970255553,0.0010312614031136,0.0028790535870939,0.5883568523079157,-0.1072804918326437,-9.799003141522409,14932.0
13.3,0.8000000119209291,50.0,23.44965744018555,0.0318070948123931,-79.78271121875866,40.458979295253066,267.67150193309783,0.0252582170069217,-0.0163739062845706,-0.6869606375694275,0.7260710000991821,0.0174979562975664,0.000317936309888,0.0033609845075223,0.0018815525108948,0.0017667526844888,0.0058886250481009,0.5848605462536216,-0.0905102753452956,-9.796244425177576,14932.0
13.51,0.8000000119209291,51.0,23.448406219482425,0.0159035474061965,-79.78271121721195,40.4589792794055,267.6718552098274,0.0252508427947759,-0.0163747314363718,-0.6869713664054871,0.7260610461235046,0.0180093639290472,0.000960320786109,0.0040636897266838,-0.0015009897761046,-0.0004429798573255,-0.0047479742206633,0.5845262682437897,-0.0913857953902334,-9.79713203251362,14932.0
13.6,0.8999999761581421,54.0,23.44214630126953,0.0079517737030982,-79.78271126426638,40.458979268866585,267.6748399720192,0.0252604316920042,-0.0163793005049228,-0.6869593858718872,0.7260719537734985,0.0099556003094532,-0.0050549005765785,0.0046584081213375,-0.0021796140354126,-3.59498371835798e-05,-0.0002873484627343,0.5870095441862941,-0.1071251751668751,-9.799215395450592,14932.0
13.8,0.8999999761581421,57.0,23.450910568237305,0.0318070948123931,-79.78271126962888,40.4589792593486,267.6752930269241,0.0252598375082016,-0.0163821354508399,-0.6869632005691528,0.7260682582855225,0.0108998587624445,-0.0044213562626972,0.0052006332780829,-0.0016457870369777,-0.0004203641728963,0.0012588370591402,0.5855542453005911,-0.1065792553592473,-9.798591497540476,14932.0
13.9,1.0,57.0,23.447153091430664,0.0397588685154914,-79.78271128959047,40.458979248231046,267.6781883225441,0.0252571273595094,-0.0163902081549167,-0.6869692802429199,0.7260624170303345,0.0073434226713745,-0.0044041874380702,0.0053820257043125,-0.0006878213025629,-0.0016827617073431,0.0046963957138359,0.5839786399528385,-0.0922607124410569,-9.79683674812317,14932.0
14.1,1.0,61.0,23.450910568237305,0.0318070948123931,-79.78271130927449,40.458979236669066,267.6801714286804,0.0252687633037567,-0.0163843892514705,-0.6869713664054871,0.7260602712631226,0.0047782745284216,-0.0062343662961334,0.0038778531399382,0.0002574706159066,-7.454022124875337e-05,9.286290151067078e-05,0.5849776002019644,-0.092443227795884,-9.796025739312173,14932.0
14.2,1.100000023841858,63.0,23.448406219482425,0.0238553211092948,-79.7827113227921,40.45897922583385,267.6809756741524,0.0252515412867069,-0.0163747165352106,-0.6869832277297974,0.7260498404502869,0.0064904208249791,-0.0051538567892788,0.0050248091513591,-0.0025222422555089,0.0017119551775977,-0.0020202905870974,0.5871868610009552,-0.1074449813179671,-9.79832661867142,14932.0
14.41,1.100000023841858,65.0,23.447153091430664,0.0079517737030982,-79.78271131973734,40.45897922524984,267.68326091623305,0.0252531226724386,-0.016372000798583,-0.6869862079620361,0.7260470390319824,0.0024881648982512,-0.0024252857626878,0.0040861336754446,0.0025889214593917,-0.0009174499427899,0.0040367748588323,0.5870291323587299,-0.1064202567748725,-9.79826112985611,14932.0
14.5,1.100000023841858,66.0,23.44464874267578,0.0318070948123931,-79.78271132038736,40.458979190854784,267.68545180416106,0.0252649970352649,-0.016366733238101,-0.6870006322860718,0.726033091545105,0.0072817868397245,-0.0005366997874861,0.0036276315547998,-0.00043156882748,0.0034567911643534,0.0018565075006335,0.5839523640275002,-0.0922293384745717,-9.796515151262284,14932.0
14.7,1.2000000476837158,69.0,23.450910568237305,0.055662415921688,-79.78271132040423,40.45897918378125,267.68583088970183,0.0252732224762439,-0.0163657460361719,-0.6870105266571045,0.7260234355926514,0.0082752299053267,9.977681630016742e-05,0.0041753521011044,-0.0017557613318786,-0.0004592355398926,0.0009253182797692,0.5839537892863155,-0.0933760962355882,-9.796730328798295,14932.0
14.8,1.2000000476837158,72.0,23.453413009643555,0.055662415921688,-79.78271131195538,40.4589791519906,267.68818473672866,0.025272399187088,-0.0163273438811302,-0.687031626701355,0.7260043025016785,0.0109446085887084,0.0032510760983892,0.00447136795038,0.0034464655909687,0.0009852143703028,0.0008432136382907,0.5842342363670469,-0.1039057165011763,-9.797667637467384,14932.0
15.0,1.2000000476837158,73.0,23.44965744018555,0.055662415921688,-79.78271130749168,40.45897914215055,267.6886730775833,0.0252679921686649,-0.0163116622716188,-0.6870241165161133,0.7260119318962097,0.0113980582328684,0.0039378509619475,0.0051337986591353,-0.0035474235191941,-0.0015208212425932,-0.0003618698683567,0.5841429467126728,-0.101571389241144,-9.799219488501551,14932.0
15.1,1.2000000476837158,72.0,23.44590187072754,0.055662415921688,-79.78271137784002,40.45897911445649,267.69015997505187,0.025282297283411,-0.0163047816604375,-0.6870143413543701,0.7260209321975708,0.0121182706840795,-0.0067658929664971,0.0047661554708911,-0.0061839777044951,-0.0020126330200582,-0.0033972854726016,0.5852124024555088,-0.1008752051275223,-9.798186285495758,14932.0
15.3,1.2000000476837158,72.0,23.450910568237305,0.0397588685154914,-79.78271138525939,40.45897910239747,267.69060724830626,0.0252931509166956,-0.0163104049861431,-0.6870119571685791,0.7260227203369141,0.0141607596623213,-0.0063874278786827,0.0052748988175602,0.0056717647239565,0.001760744373314,0.003787524299696,0.5856366910412908,-0.1035103990416973,-9.799245800971985,14932.0
15.4,1.2000000476837158,71.0,23.450910568237305,0.0397588685154914,-79.7827114196156,40.45897909635453,267.6919246301651,0.0252939965575933,-0.0163127928972244,-0.6869871020317078,0.7260459661483765,0.0105528262924563,-0.0065015645474509,0.0048896280564151,0.0070480033755302,0.0021971729584038,0.0066609517671167,0.5841343951597809,-0.0928977757226675,-9.798250604867937,14932.0
15.6,1.2000000476837158,72.0,23.44089317321777,0.0477106422185897,-79.78271145020518,40.4589790634753,267.6925625190735,0.0253002550452947,-0.0163147263228893,-0.6869966983795166,0.7260366678237915,0.0151885475368055,-0.0079748945563457,0.0038666349916076,-0.0078650778159499,4.0137383621186025e-05,-0.0083587253466248,0.5841180960461497,-0.0915091350954026,-9.79733960866928,14932.0
15.7,1.2999999523162842,74.0,23.43713760375977,0.0318070948123931,-79.7827114660994,40.458979032560656,267.6933119878769,0.0252977255731821,-0.0163238383829593,-0.6870027184486389,0.7260308861732483,0.0174205313164232,-0.0067498805784527,0.0049626539701068,-0.0055858669802546,-0.0013732636580243,-0.0045709474943578,0.5856296378374101,-0.106039484264329,-9.798719551563265,14932.0
15.9,1.2999999523162842,76.0,23.447153091430664,0.0397588685154914,-79.78271149540866,40.458979020085074,267.6941459760666,0.0253047458827495,-0.0163195244967937,-0.687018096446991,0.7260162234306335,0.0173779596824359,-0.0072720650194503,0.0043833844108007,0.0055167274549603,-0.0002535768435336,0.0032747681252658,0.584955380782485,-0.1051353037264198,-9.79790035665035,14932.0
16.0,1.2999999523162842,76.0,23.450910568237305,0.0397588685154914,-79.78271150608725,40.4589789932649,267.6954835639,0.0253123771399259,-0.0163036324083805,-0.6870141625404358,0.7260199785232544,0.0173786915151498,-0.001478658890952,0.0041644392835786,0.0071972720324993,0.0033342170063406,0.0035076348576694,0.5829203670099378,-0.0913568334002047,-9.797001639604568,14932.0
16.2,1.399999976158142,75.0,23.448406219482425,0.0238553211092948,-79.78271150657143,40.45897897754188,267.6959021077156,0.0253123752772808,-0.0163039341568946,-0.6870129704475403,0.7260211110115051,0.0174015359324755,-0.0007345761056918,0.004725749920421,-0.0053783087059855,0.0017542775021865,-0.0032246455084532,0.5863414267078042,-0.0960699633043259,-9.796076610088347,14932.0
16.3,1.2999999523162842,72.0,23.447153091430664,0.055662415921688,-79.78271154459586,40.45897896981885,267.696883975029,0.025310780853033,-0.0163152962923049,-0.6870164275169373,0.7260177135467529,0.012973446028901,-0.0029257258725162,0.0044451006069031,-0.0031810887157917,-0.0017998188268393,0.0017378353513777,0.5853385561332107,-0.1010859607066959,-9.797638986110687,14932.0
16.5,1.2999999523162842,72.0,23.44965744018555,0.0477106422185897,-79.78271154727605,40.45897895732824,267.6973219499588,0.0253105014562606,-0.0163182076066732,-0.6870191097259521,0.7260150313377379,0.0143294286021069,-0.0023489869763084,0.0049751140023268,0.0005810531438328,0.0002675853320397,0.0004149911401327,0.5849813278019429,-0.0922757142037153,-9.796652560830118,14932.0
16.6,1.399999976158142,69.0,23.448406219482425,0.0238553211092948,-79.78271159821303,40.4589789650459,267.69794142103194,0.0253080278635025,-0.0163281019777059,-0.687018632888794,0.7260153293609619,0.0087346513846304,-0.0049580266970603,0.0041462309869926,-0.0065650613978505,-0.0007420241599902,-0.0040770792402327,0.5868424599990248,-0.1061080885492265,-9.797909127473831,14932.0
16.8,1.2999999523162842,69.0,23.45216178894043,0.0318070948123931,-79.7827116036205,40.45897895623216,267.69833600378035,0.0253071598708629,-0.0163314510136842,-0.6870222091674805,0.7260119318962097,0.0106224422200705,-0.0045293197040891,0.0045367290529984,0.0064780507236719,-6.876322913740297e-06,0.0021685385145246,0.5845357334241271,-0.1018934977333992,-9.797153082489968,14932.0
16.9,1.2999999523162842,70.0,23.448406219482425,0.0318070948123931,-79.78271162947584,40.45897892511461,267.69952207660674,0.0253086611628532,-0.0163317713886499,-0.6870255470275879,0.7260087132453918,0.0147673333502755,-0.0026447297740248,0.0049512970046584,-0.0010983967222273,0.0014889747835695,0.0003481405437923,0.5854088323563338,-0.0997282006870955,-9.797990988492966,14932.0
17.1,1.2999999523162842,71.0,23.448406219482425,0.0397588685154914,-79.78271166799568,40.45897894234166,267.6998498425484,0.0253048781305551,-0.016340022906661,-0.6870250701904297,0.7260091304779053,0.0082854362119652,-0.004091259134987,0.004453972396348,-0.0022839719895273,0.0015686573460698,0.004739667288959,0.5865052218362691,-0.1054991284478455,-9.79980479478836,14932.0
17.2,1.2000000476837158,70.0,23.443397521972656,0.0318070948123931,-79.78271167578328,40.45897892521874,267.700784681797,0.0253038685768842,-0.0163434222340583,-0.6870272755622864,0.7260069847106934,0.0104044919968004,-0.0028589756411494,0.0055625961904441,-0.0005351830623112,0.0016780563164502,0.0051687671802937,0.5840313379839063,-0.0937185420747846,-9.797444858551025,14932.0
17.4,1.2000000476837158,70.0,23.447153091430664,0.0397588685154914,-79.7827117024601,40.45897891749142,267.7005270705223,0.0253034085035324,-0.0163430906832218,-0.6870269179344177,0.726007342338562,0.0112913265018256,-0.0014037323013064,0.0041904058927789,-0.0029716142453253,0.0010653865756466,-0.0043733064085245,0.583890822082758,-0.0899639809504151,-9.796122803092004,14932.0
17.5,1.100000023841858,70.0,23.453413009643555,0.055662415921688,-79.78271173338914,40.45897890103517,267.7006921157837,0.0253037028014659,-0.0163463987410068,-0.6870301365852356,0.7260043025016785,0.0122917847827763,-0.0003852977207992,0.0038162418016945,-0.0044183954596519,0.0008975645760074,-0.0022153090685606,0.5873566129803658,-0.1069857464823872,-9.797539583444596,14932.0
17.7,1.100000023841858,70.0,23.443397521972656,0.0238553211092948,-79.78271173301738,40.458978889212304,267.7010848507881,0.0253037028014659,-0.0163463987410068,-0.6870301365852356,0.7260043025016785,0.0139327726342289,0.0001453809231437,0.0043370005623803,0.0047164415009319,0.0028589826542884,0.0035335954744368,0.5877386554330588,-0.1078985790722072,-9.799105467796329,14932.0
17.8,1.0,70.0,23.44965744018555,0.055662415921688,-79.7827117851483,40.45897887976518,267.6995795354843,0.0253038089722394,-0.0163546111434698,-0.6870325803756714,0.7260017991065979,0.0124087568550691,-0.0017466436194083,0.0020080743737614,0.0055703176185488,0.0024297423660755,0.0041374308057129,0.5851262656599283,-0.0907928054966032,-9.796915685534476,14932.0
18.01,1.0,73.0,23.44089317321777,0.0636141896247863,-79.78271178630568,40.45897886854564,267.69979059553145,0.0253027081489563,-0.0163579415529966,-0.6870356798171997,0.7259988188743591,0.0128107397391028,-0.0010767904322181,0.0026493339010436,-0.0049243164248764,0.0015536561841145,-0.005770934280008,0.5840287798270584,-0.0897352725919336,-9.797039061784744,14932.0
18.1,1.0,77.0,23.44965744018555,0.0397588685154914,-79.78271182529424,40.45897888451988,267.6992404446602,0.0252967439591884,-0.0163648910820484,-0.6870348453521729,0.725999653339386,0.0069975009382099,0.0001406102862822,0.0027905494304745,-0.0008402939420193,-0.0050113601610064,-0.0036206592340022,0.5868223601952195,-0.1075744057819247,-9.79820441186428,14932.0
18.3,1.0,77.0,23.448406219482425,0.0397588685154914,-79.7827118247707,40.45897887765568,267.6995354280472,0.0252964198589324,-0.0163674876093864,-0.6870380640029907,0.7259965538978577,0.0085769589368709,0.0006111257202041,0.0032649934470884,0.003571048611775,0.0006263656541705,0.0024366099387407,0.5868813074380159,-0.1083677907194942,-9.798886781930925,14932.0
18.4,1.0,78.0,23.448406219482425,0.0397588685154914,-79.78271193608579,40.45897886154618,267.69822960948943,0.0253065880388021,-0.0163776185363531,-0.6870419979095459,0.7259922623634338,0.010947907586577,-0.0085099583800725,0.0035456165450737,0.0042977626435458,0.0029113220516592,0.0049628531560301,0.5841489401087165,-0.0901436001062393,-9.796419841647149,14932.0
18.6,1.100000023841858,77.0,23.447153091430664,0.0238553211092948,-79.78271195202078,40.45897885771151,267.69427519893645,0.0253014117479324,-0.0163727607578039,-0.6870407462120056,0.7259936928749084,0.0112045710795063,-0.0014337911959684,-0.0012894120823466,-0.005951477214694,-0.0061076497659087,-0.0035380634944885,0.5837349937856198,-0.0908316894806921,-9.796361369490624,14932.0
18.7,1.0,78.0,23.448406219482425,0.0238553211092948,-79.78271195277058,40.45897883508457,267.6940727219581,0.025300495326519,-0.0163757242262363,-0.6870438456535339,0.7259907126426697,0.0131475046642318,-0.0004256600268238,-0.0001978395403386,-0.0084101734682917,-0.001931331702508,-0.0052918354049324,0.5853203201293946,-0.1051235544774681,-9.797896848320963,14932.0
18.9,1.100000023841858,80.0,23.44965744018555,0.0874695107340812,-79.78271201595116,40.45897881821929,267.692060051918,0.0253055766224861,-0.0163775105029344,-0.6870443820953369,0.7259899973869324,0.0169842238450651,-0.0034133387201334,0.0006033907786713,0.0027313136961311,0.000296267127851,0.00202253065072,0.5853206855803729,-0.0996395240072161,-9.797801538705826,14932.0
19.0,1.100000023841858,84.0,23.448406219482425,0.0477106422185897,-79.78271207945811,40.45897882239535,267.68970256900786,0.0253005307167768,-0.0163898821920156,-0.6870469450950623,0.7259874939918518,0.0106601882387095,-0.0046739796379939,0.0013993607343676,0.0006760659161955,-0.0040553901344537,-0.0003344566212035,0.5847015385329724,-0.1020084594748914,-9.798138923048974,14932.0
19.2,1.2000000476837158,84.0,23.44590187072754,0.0238553211092948,-79.78271208402934,40.45897881225043,267.6898278579712,0.0253005307167768,-0.0163898821920156,-0.6870469450950623,0.7259874939918518,0.0116485756657675,-0.004245003872172,0.0018269161750668,0.0019771852530539,0.0030660219490528,0.0030069560743868,0.586450842730701,-0.105082368152216,-9.797478187680245,14932.0
19.3,1.2999999523162842,86.0,23.44464874267578,0.0318070948123931,-79.78271208818316,40.458978801279954,267.69000208234786,0.02530113235116,-0.016391534358263,-0.6870502829551697,0.7259842753410339,0.0120946735666172,-0.003670634067873,0.0024439889381469,-0.0055986423976719,-0.0010982728563249,-0.0021450172644108,0.5843747522681951,-0.090821411171928,-9.796322193145752,14932.0
19.5,1.2999999523162842,85.0,23.448406219482425,0.055662415921688,-79.78271216695715,40.45897878839214,267.6871368870735,0.0253026187419891,-0.0163990277796983,-0.6870532035827637,0.7259812355041504,0.0127680184508292,-0.0060388672634164,0.0027319619356761,-0.0040252679027616,-0.0012457193806767,-0.0067794770002365,0.5839217026904225,-0.0925719944480806,-9.797178810238838,14932.0
19.6,1.2999999523162842,88.0,23.450910568237305,0.0477106422185897,-79.78271219934608,40.45897876091173,267.6820023641586,0.025301119312644,-0.0163939874619245,-0.6870523691177368,0.7259821891784668,0.0169707124444773,-0.0006326830356704,-0.0007314122757872,-0.0075474260374903,-0.0014529296895489,-0.0017459872178733,0.5835566171631217,-0.1036408193595707,-9.797528473734856,14932.0
19.8,1.399999976158142,89.0,23.448406219482425,0.0318070948123931,-79.7827121988222,40.458978744828,267.6819292888641,0.0253017432987689,-0.0163956508040428,-0.6870548129081726,0.7259799242019653,0.0186073274383042,-0.0002499062185756,-0.0002863055412227,0.0053257434628903,0.0049288775771856,-0.0016510123386979,0.5850197732448578,-0.0994248215574771,-9.797048417329789,14932.0
19.9,1.399999976158142,94.0,23.447153091430664,0.0318070948123931,-79.78271227305662,40.45897871224185,267.6764746294021,0.0253057442605495,-0.0164014305919408,-0.687057614326477,0.7259769439697266,0.0208532104477441,-0.0031438010252599,-0.0020397135201494,0.0018641911447048,0.0029605987947434,0.0030464378651231,0.5864617697149516,-0.1029787135496735,-9.798585065603255,14932.0
20.1,1.399999976158142,95.0,23.44965744018555,0.0397588685154914,-79.78271235163913,40.45897874541952,267.67266261434554,0.0253010690212249,-0.0164159536361694,-0.6870573163032532,0.7259770631790161,0.01025860476798,-0.0074124149609664,-0.0008851099940581,-0.0002573929377831,-0.0011255209101364,0.0048316116444766,0.5847924627363682,-0.1062013973202556,-9.799200192689897,14932.0
20.2,1.399999976158142,98.0,23.44464874267578,0.0238553211092948,-79.7827123665657,40.458978724710974,267.67246812438964,0.0252998955547809,-0.016419006511569,-0.6870604753494263,0.7259739637374878,0.0122593681027547,-0.0065462456820614,7.681156785194963e-05,0.00214375089854,0.0013517112238332,0.0021823302377015,0.5838297186791898,-0.0919842944573611,-9.796009367108343,14932.0
20.4,1.5,100.0,23.447153091430664,0.0318070948123931,-79.78271239905581,40.45897869185752,267.6665921792984,0.0253017265349626,-0.0164103787392377,-0.6870600581169128,0.7259745597839355,0.019316892452508,-0.0014263403907301,-0.0032211153209653,-0.0018765277927741,0.0002765106037259,-0.0051352614536881,0.5852611536160112,-0.0907437802478671,-9.795387808084488,14932.0
20.51,1.5,100.0,23.43964195251465,0.0079517737030982,-79.7827123991261,40.458978673889725,267.66626173114776,0.0253022164106369,-0.0164119657129049,-0.6870628595352173,0.7259718775749207,0.0207000252398642,-0.0010449237611262,-0.002798146458558,0.0006329783354885,0.000403616199037,0.0014525142032653,0.5874079588428139,-0.1075582619849592,-9.798609623908996,14932.0
20.7,1.5,101.0,23.44089317321777,0.0238553211092948,-79.78271250968434,40.45897869910068,267.66228240585326,0.0253000762313604,-0.0164279956370592,-0.6870629191398621,0.725971519947052,0.0117828250912557,-0.0071715532553388,-0.0009147956951905,0.0035678343847393,0.000687577703502,0.0043339217081665,0.5866973759606481,-0.1067269980534911,-9.79802256345749,14932.0
20.81,1.5,103.0,23.443397521972656,0.0318070948123931,-79.7827125761403,40.45897871664872,267.65793275690083,0.0252919644117355,-0.0164349004626274,-0.6870697736740112,0.7259650826454163,0.0055619672158776,-0.0041538678722419,8.82881409437962e-05,0.0052585415542125,0.001631474471651,0.0049200747162103,0.5834415366500616,-0.0898782826960086,-9.79657479286194,14932.0
21.0,1.5,103.0,23.448406219482425,0.0477106422185897,-79.78271258046347,40.45897871159236,267.65794056510924,0.025272412225604,-0.0164209362119436,-0.6870649456977844,0.7259706854820251,0.0056111082137978,-0.0035661150392634,0.0006657341608247,-0.0024966259952634,0.0001976543571799,-0.0056512160226702,0.5842224323004485,-0.09021214957349,-9.7967689204216,14932.0
21.11,1.5,103.0,23.43588447570801,0.0477106422185897,-79.78271266061236,40.45897869729284,267.6531460866928,0.0252640824764966,-0.0164124630391597,-0.6870687007904053,0.7259677052497864,0.0086345254804636,-0.0061312083397959,0.0009052734308147,0.0039036308880895,0.0022212183102965,0.0052015865221619,0.5865730860829353,-0.1075627113506198,-9.798340651988983,14932.0
21.3,1.600000023841858,101.0,23.447153091430664,0.0159035474061965,-79.78271267282607,40.45897868057787,267.6533576235771,0.0252581499516964,-0.0163823924958705,-0.6870625019073486,0.7259743809700012,0.0103411204586032,-0.0051198048077578,0.0019681031670712,0.004436204675585,0.0018203512299805,0.0014725162182003,0.584552324898541,-0.1056749103683978,-9.7980459523201,14932.0
21.41,1.600000023841858,101.0,23.443397521972656,0.0079517737030982,-79.78271275353573,40.45897868892784,267.64792549467086,0.0252649076282978,-0.0163836143910884,-0.6870549321174622,0.7259813547134399,0.0059602675117537,-0.0067462279066288,0.0017726648424015,-0.0049849124625325,-0.0036416300572454,-0.00477837305516,0.5836461161077023,-0.0920734096784144,-9.795820502042767,14932.0
21.6,1.5,101.0,23.447153091430664,0.0238553211092948,-79.782712840851,40.4589786653111,267.6405094847679,0.0252803936600685,-0.0163966324180364,-0.6870589852333069,0.7259766459465027,0.0087892611855307,-0.0081221692294127,-0.0020696189787542,-0.0059373453259468,-0.0006134915165603,-0.0045701167546212,0.5840618896856904,-0.0935098695661872,-9.79712209224701,14932.0
21.7,1.5,101.0,23.44590187072754,0.0159035474061965,-79.78271285757832,40.45897864646193,267.64007997369765,0.0252832416445016,-0.0163875725120306,-0.6870666742324829,0.7259694337844849,0.0105545527986229,-0.0071929699772913,-0.0010134268000024,-0.0072560044936835,-0.0004800815368071,-0.0023559120018035,0.5843032700568438,-0.1054468780942261,-9.798776854276658,14932.0
21.9,1.5,101.0,23.44590187072754,0.0397588685154914,-79.78271293147718,40.45897864612055,267.63482177114486,0.0252856090664863,-0.0164007022976875,-0.6870680451393127,0.7259677052497864,0.009105129235374,-0.0079503747210941,-0.0002393965708479,0.0078216614201664,0.0011071100598201,0.0018791032489389,0.5843672605231405,-0.1030333484709263,-9.798219614624976,14932.0
22.01,1.5,99.0,23.44464874267578,0.0636141896247863,-79.78271293997874,40.45897863778775,267.6347737894058,0.0252848491072654,-0.0164036825299263,-0.6870729327201843,0.7259631752967834,0.009054688966261,-0.0073400915006842,0.0003405540968069,-0.0008421969250775,-0.0025845123454928,-0.0033003417775034,0.5848804998770356,-0.0984759372286498,-9.797803877592088,14932.0
22.2,1.399999976158142,98.0,23.447153091430664,0.0397588685154914,-79.7827130016611,40.45897859756553,267.6290342197418,0.0252870675176382,-0.0164003241807222,-0.6870728731155396,0.7259631156921387,0.0143461885086064,-0.004834649868308,0.0010329699931519,-0.0037763307336717,-0.0034124001394957,-0.0015504293842241,0.5852964196354151,-0.1019601194467395,-9.79866575717926,14932.0
22.3,1.399999976158142,99.0,23.448406219482425,0.0397588685154914,-79.78271306329812,40.458978570939664,267.6227915868759,0.0252864882349968,-0.0164033863693475,-0.6870765686035156,0.7259596586227417,0.0146381073932491,-0.0028409397725065,0.0010504613297982,-0.0004575065395329,0.0009245575056411,0.0023598109837621,0.5845748732239008,-0.0959237555041909,-9.796133328080176,14932.0
22.5,1.399999976158142,99.0,23.45216178894043,0.0477106422185897,-79.78271306558476,40.458978557222,267.62288695430755,0.0252858530730009,-0.0164059866219759,-0.6870805621147156,0.7259558439254761,0.0156862603376014,-0.0023991163603606,0.001505724837481,-0.0004029716365039,0.0017034622142091,0.0006050823139958,0.5838888851925731,-0.0932653463166207,-9.795938031077386,14932.0
22.6,1.2999999523162842,101.0,23.448406219482425,0.0477106422185897,-79.78271312674677,40.45897857794128,267.6157329068184,0.0252771284431219,-0.0164155606180429,-0.6870795488357544,0.725956916809082,0.0061039169653962,-0.0006936595514249,0.0012064270538355,-0.0026560225524008,-9.20355087146163e-05,-0.00083090091357,0.5860718335211277,-0.1072177987173199,-9.797675238847733,14932.0
22.8,1.2999999523162842,101.0,23.448406219482425,0.0397588685154914,-79.78271312714766,40.45897857205829,267.61585998392104,0.0252764020115137,-0.0164183527231216,-0.687082827091217,0.7259537577629089,0.0072941007358095,-0.0003124601174724,0.0015352123020424,0.0024910273496061,0.0018146645743399,0.0047175856307148,0.5866617444902659,-0.1074891277961433,-9.798216106295586,14932.0
22.9,1.2999999523162842,105.0,23.448406219482425,0.0397588685154914,-79.78271323153281,40.458978565573055,267.6073415265083,0.0252823922783136,-0.0164272114634513,-0.6870832443237305,0.7259529232978821,0.0055760416930681,-0.0079021695882069,-0.0005970569185553,-0.003683322109282,-0.0041315299458801,-0.0046602096408605,0.5834512941911817,-0.0899060843791812,-9.796485915184023,14932.0
23.1,1.2999999523162842,106.0,23.450910568237305,0.0318070948123931,-79.7827133143229,40.45897855072603,267.59966403102874,0.0252837818115949,-0.016431700438261,-0.6870859265327454,0.7259501814842224,0.0052693710464887,-0.0082015522351075,5.529176370156622e-05,-0.0060667223297059,-0.0014231288805603,-0.0052270642481744,0.5840201917290688,-0.0907017259765416,-9.796602274775504,14932.0
23.2,1.2999999523162842,108.0,23.447153091430664,0.0238553211092948,-79.78271332343584,40.45897854482265,267.5996333942413,0.0252837818115949,-0.016431700438261,-0.6870859265327454,0.7259501814842224,0.0070407905354051,-0.0079136200647462,0.0004542931479092,0.006984272506088,0.000232153761317,0.0040829856880009,0.5852568047493697,-0.1065567527152598,-9.79884409725666,14932.0
23.4,1.2999999523162842,109.0,23.447153091430664,0.0238553211092948,-79.78271341167556,40.45897853486453,267.59121405935286,0.025283358991146,-0.0164382848888635,-0.6870886087417603,0.7259476184844971,0.0060829748037477,-0.0085431407636106,0.0006866409331064,0.005875782109797,0.005105223506689,0.001401653396897,0.5863471277430654,-0.102390894787386,-9.797638401389124,14932.0
23.5,1.2999999523162842,112.0,23.447153091430664,0.0397588685154914,-79.78271350173955,40.458978522814064,267.5823079929352,0.0252834055572748,-0.0164444595575332,-0.6870912313461304,0.7259449362754822,0.0046020809061584,-0.0090822156981698,0.0007319194069425,0.0032008581329137,0.0015582506312057,0.0042502991855144,0.5848612771555781,-0.095310738896951,-9.796564267873764,14932.0
23.7,1.2999999523162842,113.0,23.44965744018555,0.0318070948123931,-79.78271351181205,40.45897851825475,267.5823491797447,0.0252834055572748,-0.0164444595575332,-0.6870912313461304,0.7259449362754822,0.0047495588393196,-0.0085051862189586,0.0012805368150709,-0.0049469796940684,-0.0014427431160584,1.8523071048548445e-05,0.5859661085531116,-0.1014199920371174,-9.798019055128098,14932.0
23.8,1.399999976158142,114.0,23.45216178894043,0.0477106422185897,-79.78271352141407,40.45897851306314,267.58243775224685,0.0252832174301147,-0.0164466816931962,-0.6870932579040527,0.7259429693222046,0.0059279080385387,-0.0081666344254106,0.0016859254691273,0.0019091251306235,-0.0005366560653783,-0.0007214724319055,0.5832354953885078,-0.095366059038788,-9.796105846166611,14932.0
24.0,1.399999976158142,113.0,23.448406219482425,0.0477106422185897,-79.78271359053723,40.45897849531757,267.57355737543105,0.025281723588705,-0.0164494831115007,-0.6870954632759094,0.7259408235549927,0.0062814552530189,-0.0059441850347767,0.0017893932908114,0.0013290109345689,-2.480311707131477e-07,-0.0030324172694236,0.5840492085367441,-0.0918193572945892,-9.796367216706276,14932.0
24.1,1.399999976158142,111.0,23.44965744018555,0.0477106422185897,-79.7827136577247,40.458978451682576,267.5640169963837,0.0252853594720363,-0.0164456348866224,-0.6870955228805542,0.7259407639503479,0.0123766127384446,-0.004118511048078,0.0015849735527781,-0.0030678252223879,0.0042805131524801,-0.003479411592707,0.5862364326417446,-0.1066493214480579,-9.79791789829731,14932.0
24.31,1.5,111.0,23.447153091430664,0.0477106422185897,-79.78271366174289,40.458978440054,267.56415235853194,0.0252844803035259,-0.016448238864541,-0.6870994567871094,0.7259370684623718,0.0135979943558705,-0.0037690643054885,0.0019510515376998,0.0031725731678307,0.0046416255645453,0.0047950441949069,0.5868342738971114,-0.1070296188723296,-9.798090975880624,14932.0
24.4,1.5,109.0,23.45216178894043,0.0477106422185897,-79.78271375100472,40.45897840044693,267.55411439991,0.0253027621656656,-0.0164474137127399,-0.6871023178100586,0.7259337306022644,0.0169462413936618,-0.0071126422583675,0.0015358210293101,-0.0026017548516392,0.001445805421099,-0.005788505077362,0.5837825755029917,-0.0900980009604245,-9.79739281833172,14932.0
24.6,1.5,109.0,23.44965744018555,0.0397588685154914,-79.78271382267243,40.45897836927678,267.5436689839363,0.0253274198621511,-0.0164177995175123,-0.6871001124382019,0.7259355783462524,0.0158009225604646,-0.0046175311318369,0.0010018364020916,-0.0063565904274582,-0.0010955142788589,-0.0058326721191406,0.5840664943680167,-0.0898570499941706,-9.796336226463318,14932.0
24.7,1.600000023841858,107.0,23.447153091430664,0.0397588685154914,-79.78271382692391,40.45897835414527,267.54374837732314,0.0253195036202669,-0.0164041779935359,-0.6870934963226318,0.7259424924850464,0.017485430302707,-0.0043005996205683,0.0013739546329486,0.005901192780584,0.0021190005354583,0.0037752620410174,0.5860992423444986,-0.1062456991150975,-9.79732148230076,14932.0
24.9,1.5,106.0,23.44464874267578,0.0318070948123931,-79.78271392239924,40.45897834000679,267.53083491182326,0.0253128837794065,-0.0163878388702869,-0.6871049404144287,0.7259321808815002,0.0131227425223089,-0.006528126659327,-0.0026605946202222,0.0054727396927773,0.0011269827373325,0.0037835787516087,0.5857882070168853,-0.1065235789027065,-9.79766471385956,14932.0
25.0,1.600000023841858,104.0,23.44590187072754,0.0477106422185897,-79.7827139288144,40.45897832806369,267.53054028606414,0.0253187716007232,-0.0163834560662508,-0.687102198600769,0.7259346842765808,0.0131872099066357,-0.0059981128964297,-0.002170203037393,-0.0046891001984477,-0.0025331985671073,-0.0068021095357835,0.5833285392075778,-0.0912281946558505,-9.796271322369575,14932.0
25.2,1.600000023841858,104.0,23.448406219482425,0.0318070948123931,-79.7827140152439,40.45897831846519,267.51936107730864,0.0253297872841358,-0.0163665376603603,-0.6870995759963989,0.7259371280670166,0.0100607984973279,-0.0063229605978677,-0.0012885782319567,-0.0054929261095821,-0.0012116366997361,-0.0072278366424143,0.5840495374426246,-0.0932441684324294,-9.797240206003188,14932.0
25.3,1.600000023841858,101.0,23.44464874267578,0.0477106422185897,-79.78271402193279,40.45897830831597,267.5192028269768,0.0253289993852376,-0.0163777619600296,-0.6871075630187988,0.7259294390678406,0.0121142745929371,-0.0061109922660693,-0.0009051060506846,0.0063184592872858,0.0053461170755326,0.0019470395054668,0.5855107931792737,-0.1032075224071741,-9.798150032758713,14932.0
25.5,1.600000023841858,101.0,23.44214630126953,0.0477106422185897,-79.78271412007037,40.45897829421935,267.5078614935875,0.0253286119550466,-0.0163936205208301,-0.6871085166931152,0.7259281277656555,0.0100695601376612,-0.0072536566239423,-0.0003299684401752,0.0042210663668811,0.0008471896289847,0.0014210266526788,0.5854196497052908,-0.101909906482324,-9.797082331180572,14932.0
25.6,1.600000023841858,101.0,23.448406219482425,0.0477106422185897,-79.78271421232336,40.45897827317479,267.4959418759346,0.025331687182188,-0.0163960121572017,-0.68710857629776,0.7259278893470764,0.0103355927974282,-0.008807004853849,-6.244894234076862e-05,-0.006172171793878,-0.0024762761313468,0.0003403373993933,0.5854309055954218,-0.0962910885550081,-9.798585065603255,14932.0
25.8,1.600000023841858,102.0,23.45216178894043,0.0397588685154914,-79.7827142309213,40.4589782511995,267.4958770260811,0.0253310054540634,-0.0163985975086689,-0.6871128082275391,0.7259238362312317,0.0126031951218403,-0.0079834054532852,0.0007568833788136,-0.0045715938322246,-0.0009779441170394,8.347211405634879e-05,0.5865207535028458,-0.0986996480450034,-9.797617351412772,14932.0
25.9,1.600000023841858,101.0,23.45842170715332,0.0874695107340812,-79.7827143070608,40.45897819646199,267.4831032142639,0.0253324229270219,-0.0163976047188043,-0.6871148347854614,0.7259219884872437,0.0175644120294552,-0.0052577659203039,0.0005985367017478,-0.0049311430193483,-9.662838419899344e-05,-8.521922427462414e-05,0.5847160103917122,-0.0965989261865616,-9.7970718061924,14932.0
26.11,1.600000023841858,103.0,23.448406219482425,0.0397588685154914,-79.78271439753131,40.45897819462838,267.4707499728204,0.0253299940377473,-0.0164057351648807,-0.6871144771575928,0.7259222269058228,0.0121814738251205,-0.0070910371096396,0.000371258770749,-0.0009103710181079,-0.0024070180952548,0.0009547220543026,0.5845199459418655,-0.094695858489722,-9.795894176959992,14932.0
26.2,1.7000000476837158,102.0,23.43964195251465,0.0238553211092948,-79.78271440476833,40.45897818296011,267.4707477674484,0.0253299940377473,-0.0164057351648807,-0.6871144771575928,0.7259222269058228,0.0131854184940951,-0.0067024941889766,0.0006399190310551,-0.0013735409593209,0.0023968638852238,0.0027874913066625,0.5860324379056693,-0.106529307346791,-9.79769278049469,14932.0
26.4,1.7000000476837158,100.0,23.448406219482425,0.0636141896247863,-79.78271448469516,40.45897815749903,267.45632541036605,0.0253274794667959,-0.0164100658148527,-0.6871159672737122,0.7259207367897034,0.0116049051136104,-0.0047205704010021,-0.0025166320424784,0.0048676636070013,0.0014485365245491,-0.0001929020509123,0.5865091687068343,-0.1068306764960289,-9.797314465641977,14932.0
26.5,1.7999999523162842,97.0,23.450910568237305,0.055662415921688,-79.78271448913006,40.458978146939714,267.456049738884,0.0253258980810642,-0.016413364559412,-0.6871184706687927,0.7259183526039124,0.0118510776668051,-0.0041342814967608,-0.0021746666649573,-0.0051690908148884,-0.0018833362264558,-0.0048915636725723,0.5847785755991936,-0.0904051625076681,-9.795296006798743,14932.0
26.7,1.8999999761581416,95.0,23.44590187072754,0.0238553211092948,-79.78271461123862,40.458978142634834,267.4423364982605,0.0253261029720306,-0.0164249148219823,-0.6871184706687927,0.7259180545806885,0.0064999057047601,-0.0090454125264794,-0.0013422594337392,-0.0070546763017773,-0.0017597277183085,-0.0062239742837846,0.5830653048679233,-0.0912617156468332,-9.795922243595124,14932.0
26.81,1.8999999761581416,96.0,23.43838882446289,0.0397588685154914,-79.78271469534106,40.45897808795743,267.4261221275329,0.0253294855356216,-0.0164215117692947,-0.6871212124824524,0.7259154915809631,0.0134365076386686,-0.0062827929318251,-0.004956598316591,-0.0055095939897,-0.0024413806386291,-0.0051074638031423,0.5845274376869202,-0.1041882466524839,-9.797557709813116,14932.0
27.0,1.8999999761581416,96.0,23.44464874267578,0.0477106422185897,-79.78271470147725,40.45897807485813,267.42558657979964,0.0253297369927167,-0.01642313785851,-0.6871238946914673,0.725912868976593,0.0153767760346031,-0.006011001858313,-0.0046584317235895,0.0031475399155169,0.0028377091512084,0.0012061791494488,0.5866461397334933,-0.0994831018522382,-9.797362997531891,14932.0
27.1,1.8999999761581416,93.0,23.44590187072754,0.0397588685154914,-79.78271477851305,40.45897805196173,267.41048329925536,0.0253293067216873,-0.0164242181926965,-0.6871234178543091,0.7259133458137512,0.0143141851625454,-0.0048492673016589,-0.0065635670992879,-0.0040546776726841,-0.0036501053255051,-0.0022690454497933,0.5859791916981341,-0.100216534556821,-9.79800151348114,14932.0
27.3,1.8999999761581416,91.0,23.44464874267578,0.0238553211092948,-79.7827147864507,40.45897802395313,267.4091516122818,0.0253279414027929,-0.0164272952824831,-0.6871269941329956,0.725909948348999,0.0162077657127983,-0.0040951949893278,-0.0057830209784908,-0.0016245382139459,-0.0017614038661122,-0.0020103077404201,0.585275186933577,-0.1028301851358264,-9.798271070122722,14932.0
27.4,1.8999999761581416,89.0,23.44590187072754,0.0397588685154914,-79.78271489007481,40.458978000947255,267.39320534324645,0.025330176576972,-0.0164324752986431,-0.6871268153190613,0.7259098291397095,0.0153927263962156,-0.0069848889812303,-0.0076047634601897,0.0029258930590003,0.0015973839908838,-0.0027951684314757,0.5843146355822683,-0.0946074193529784,-9.796157886385918,14932.0
27.6,1.7999999523162842,87.0,23.44214630126953,0.0079517737030982,-79.78271501475079,40.45897798592416,267.3761565074921,0.0253293197602033,-0.0164457485079765,-0.6871314644813538,0.7259052395820618,0.0091985535221125,-0.011100140941255,-0.0085059166345169,0.001801481237635,-0.0024611519183963,-0.0034824144095182,0.5842117245867848,-0.0917791850958019,-9.796928549408912,14932.0
27.7,1.7999999523162842,85.0,23.433380126953125,-0.0159035474061965,-79.78271503762764,40.45897796685063,267.37440037584304,0.025340287014842,-0.0164418201893568,-0.687146008014679,0.72589111328125,0.010869498328216,-0.0104406946666974,-0.0075170644068802,-0.0025509053375571,-0.0005907801678404,-0.0035383235663175,0.5860804216191173,-0.1067909976560622,-9.798870409727098,14932.0
27.91,1.7999999523162842,84.0,23.43588447570801,0.0238553211092948,-79.78271511566678,40.45897792426664,267.3573517487049,0.0253265593200922,-0.016432411968708,-0.68714839220047,0.7258895635604858,0.016059860911478,-0.0077528497384454,-0.0093539861507557,0.0034032673574984,-0.0006699144141748,0.0038241161964833,0.5870506939664484,-0.1061467167176306,-9.798624826669691,14932.0
28.0,1.7000000476837158,83.0,23.448406219482425,0.0397588685154914,-79.78271512302483,40.458977909412106,267.356376765728,0.0253392867743968,-0.0164315719157457,-0.6871616840362549,0.7258765697479248,0.0167370319332503,-0.0074236762157897,-0.0089104280209036,0.0063388287089765,-0.0003776693483814,0.0022629080340266,0.5843951078876853,-0.0934300916176289,-9.797213893532753,14932.0
28.2,1.7000000476837158,84.0,23.447153091430664,0.0159035474061965,-79.78271520883153,40.45897787054039,267.3389364168644,0.0253478493541479,-0.0164030995219945,-0.6871687173843384,0.7258703112602234,0.0173859049714526,-0.0056875698231029,-0.0093833047098968,0.0006742857513017,0.0025009040255099,0.0030005332082509,0.5848485229164362,-0.0967286612838506,-9.797248976826667,14932.0
28.3,1.7000000476837158,81.0,23.43838882446289,0.0,-79.78271531293964,40.45897785864023,267.3209426984787,0.0253154896199703,-0.0164080746471881,-0.6871853470802307,0.7258555889129639,0.0118364641653603,-0.0071118448084532,-0.0102070554173781,0.0056776860728859,0.00376518513076,0.0017615732504054,0.5848661376535893,-0.0986212222650647,-9.797756515145304,14932.0
28.5,1.600000023841858,79.0,23.430877685546875,-0.0397588685154914,-79.78271531962449,40.458977847968185,267.31989082551,0.0253221858292818,-0.016401071101427,-0.6871985793113708,0.7258428931236267,0.0116820754035856,-0.0065735524582429,-0.0097934005236139,-0.0083620930090546,-0.0043488852679729,-0.0051818052306771,0.5838198515027762,-0.0922561899852007,-9.79614911556244,14932.0
28.6,1.600000023841858,76.0,23.44590187072754,0.0397588685154914,-79.78271544952963,40.458977821858696,267.3046169266701,0.0253285411745309,-0.016400821506977,-0.6872044205665588,0.7258371710777283,0.0125466455696102,-0.013198189364692,-0.0059887480564391,0.007554130628705,0.0039659291505813,0.0059921839274466,0.5860064543411136,-0.1068630554527044,-9.797506254315378,14932.0
28.81,1.600000023841858,75.0,23.44089317321777,0.0397588685154914,-79.78271547700756,40.4589777974164,267.3033295259476,0.0253372974693775,-0.0163630973547697,-0.6872192621231079,0.725823700428009,0.0141520761170357,-0.012339289372945,-0.0052374962957523,0.001876518363133,-0.0008902226109057,0.005978156812489,0.5860296970233322,-0.1098194716405123,-9.798293874263765,14932.0
28.9,1.5,74.0,23.44965744018555,0.0397588685154914,-79.78271552950582,40.45897775197035,267.2868208274841,0.0253355596214532,-0.0163567811250686,-0.6872187256813049,0.7258244156837463,0.0173396445807524,-0.005776149093008,-0.0048162334967771,0.0011463647242635,0.0009142624330706,-0.0021211355924606,0.5839494038745762,-0.0929792438820004,-9.795931599140168,14932.0
29.1,1.5,73.0,23.447153091430664,0.0477106422185897,-79.78271563848926,40.45897773683133,267.2702960357666,0.0253330748528242,-0.0163698922842741,-0.6872208714485168,0.7258221507072449,0.010931294611153,-0.0087333554371416,-0.0040525549418948,0.0060482313856482,-0.0003044339246116,-0.0035414109006524,0.5841870201006532,-0.0960349622368812,-9.796359615325928,14932.0
29.2,1.5,75.0,23.443397521972656,0.0318070948123931,-79.78271564746498,40.458977726361134,267.2698424146176,0.0253330748528242,-0.0163698922842741,-0.6872208714485168,0.7258221507072449,0.0115333600026861,-0.0081730184677445,-0.0037367290432884,-0.003429268952459,0.0001791319955373,-0.0009045774932019,0.5860173813253642,-0.1031502562388777,-9.797531982064248,14932.0
29.4,1.5,76.0,23.43964195251465,0.0477106422185897,-79.78271572900194,40.4589776894454,267.2533920691013,0.0253326725214719,-0.0163714494556188,-0.6872234344482422,0.7258197069168091,0.0129458424220075,-0.0054111779763361,-0.0031008167731876,-0.0016627458389848,-0.0041958200745284,-0.0007735052495263,0.5859756102785468,-0.0998439481481909,-9.797597470879555,14932.0
29.5,1.399999976158142,79.0,23.448406219482425,0.055662415921688,-79.78271573421176,40.458977676931184,267.2530457959175,0.0253323521465063,-0.0163740199059247,-0.6872268915176392,0.7258163690567017,0.01477526009003,-0.0050733303016045,-0.0029032527466831,0.0062466263771057,0.0002764896489679,0.0005152156809344,0.5856129001826048,-0.0985569668468088,-9.797068297863008,14932.0
29.7,1.399999976158142,80.0,23.447153091430664,0.0397588685154914,-79.78271581645338,40.45897765368802,267.2362851188184,0.0253291595727205,-0.0163779184222221,-0.6872262954711914,0.7258169651031494,0.0121740298882578,-0.0033464420044818,-0.0027626539851658,0.0051605966873466,0.002815568819642,0.0024111892562359,0.5852850175648928,-0.1007482931390404,-9.796737345457078,14932.0
29.8,1.2999999523162842,81.0,23.44464874267578,0.0477106422185897,-79.78271581929766,40.458977642792696,267.23599660253524,0.0253287553787231,-0.016379939392209,-0.6872257590293884,0.7258174419403076,0.0122848507418647,-0.0029407856603928,-0.0023282205817298,-0.0014874986372888,-0.0005335618043318,-0.0020020452793687,0.5842432264611125,-0.0990380647871643,-9.798168159127236,14932.0
30.0,1.2999999523162842,82.0,23.44590187072754,0.055662415921688,-79.78271593094003,40.45897759858658,267.2193135306835,0.0253387335687875,-0.0163786802440881,-0.68723064661026,0.7258125543594359,0.0135800654515693,-0.0061989126084801,-0.0015975930815015,-0.0018855989910662,-0.0005598770803771,0.000149749306729,0.5850937039777637,-0.1018952975794673,-9.798459350466729,14932.0
30.1,1.2000000476837158,86.0,23.447153091430664,0.0477106422185897,-79.78271604575748,40.45897757735632,267.20302909469603,0.025360994040966,-0.0163850560784339,-0.687224268913269,0.7258175611495972,0.0103990549383047,-0.0089651481682068,-0.0014345260996856,-0.0023481822572648,-0.0010547732235863,0.0029351143166422,0.5843103232607246,-0.0969286908768117,-9.796117540597916,14932.0
30.3,1.2000000476837158,86.0,23.450910568237305,0.0397588685154914,-79.78271605550462,40.458977566943,267.2028328464031,0.0253608599305152,-0.0163778867572546,-0.6872252821922302,0.7258167862892151,0.0118366498782816,-0.0087358467565442,-0.0011526925727679,0.0008795560570433,0.0008132531656883,0.0019540775101631,0.5837768013775348,-0.0956299877353012,-9.797315050363544,14932.0
30.4,1.100000023841858,83.0,23.443397521972656,0.0477106422185897,-79.78271615061048,40.45897755856297,267.18690529322623,0.0253623612225055,-0.0163789745420217,-0.6872153878211975,0.7258260846138,0.007647715985109,-0.0094914542465005,-0.000876819426454,-0.0008778641931712,-0.0029816320165991,0.0030195012222975,0.5853476558625699,-0.1059040024504065,-9.798405556082724,14932.0
30.6,1.100000023841858,82.0,23.44590187072754,0.0477106422185897,-79.78271623511047,40.458977516948366,267.17044275856017,0.0253744702786207,-0.0163667481392622,-0.6872177720069885,0.725823700428009,0.0107878151002698,-0.0062874288724586,-0.0011263242333366,0.0023113079369068,0.0009123032796196,0.0008623891044408,0.586815672442317,-0.106735513061285,-9.797766455411912,14932.0
30.7,1.0,79.0,23.447153091430664,0.0397588685154914,-79.78271624147365,40.45897750666603,267.1703063235284,0.025405216962099,-0.0163565650582313,-0.6872191429138184,0.7258215546607971,0.0113955500222517,-0.005837598230863,-0.0006028057511569,-0.0013708766782656,-0.0017186378827318,-0.0062674530781805,0.5840273911133409,-0.0893838183861225,-9.7966326802969,14932.0
30.9,0.8999999761581421,74.0,23.448406219482425,0.0318070948123931,-79.78271634400889,40.45897749735096,267.155153124094,0.0254285410046577,-0.0163226202130317,-0.6872163414955139,0.7258241772651672,0.0055247287737776,-0.0069382562312366,0.0027806378701902,-0.0035396562889218,-0.0050822664052248,-0.0055368551984429,0.5851971996948123,-0.0885398002155125,-9.796202909946444,14932.0
31.0,0.8999999761581421,68.0,23.44965744018555,0.055662415921688,-79.78271642368502,40.45897744340678,267.1393108651638,0.0254185199737548,-0.0163170658051967,-0.6872106790542603,0.7258300185203552,0.0111757932442456,-0.0054543050091597,0.0018209577599018,-0.0052797547541558,-0.0002935431548394,-0.0049882545135915,0.5874379989132286,-0.1071518804971128,-9.797703305482862,14932.0
31.2,0.8000000119209291,66.0,23.44464874267578,0.0318070948123931,-79.78271642929452,40.45897743222482,267.1394578204155,0.0254185199737548,-0.0163170658051967,-0.6872106790542603,0.7258300185203552,0.0131573869753038,-0.0052153988843794,0.0020388487387196,0.0046036848798394,0.000945973326452,0.005627863574773,0.5858829319104553,-0.1059853061567992,-9.7981973952055,14932.0
31.3,0.699999988079071,61.0,23.44590187072754,0.0477106422185897,-79.78271643454623,40.45897742011853,267.1396376476289,0.0254172012209892,-0.016319915652275,-0.6872134804725647,0.7258273363113403,0.0135731682939474,-0.0047574995949858,0.0024879448992871,-0.0026735628489404,-0.0036187686491757,-0.004119855351746,0.5837550204992294,-0.0897062466479838,-9.79704666316509,14932.0
31.5,0.699999988079071,59.0,23.44965744018555,0.0477106422185897,-79.78271647865724,40.45897739024844,267.1235123858452,0.0254090633243322,-0.0163231492042541,-0.687214732170105,0.7258264422416687,0.0118118755072609,0.0009011359806223,0.0008536779547411,-0.0069885049015283,-0.001922246068716,-0.0059197330847382,0.5835439725592733,-0.0893540249951183,-9.795946801900865,14932.0
31.6,0.6000000238418579,57.0,23.448406219482425,0.0477106422185897,-79.78271659263906,40.45897738193282,267.1089588389397,0.0254105720669031,-0.016337726265192,-0.6872153878211975,0.7258253693580627,0.00505843053712,-0.0072327130732049,0.0037600781084347,0.0035014259628951,0.0022284628357738,0.005348696373403,0.5855991592258215,-0.1068314804881811,-9.797186411619188,14932.0
31.8,0.6000000238418579,57.0,23.44590187072754,0.0318070948123931,-79.78271660867244,40.45897737068752,267.10967740273475,0.0254094712436199,-0.0163404438644647,-0.6872178316116333,0.7258229851722717,0.0074544609619923,-0.0065763741365735,0.0042711372227487,0.0041975905187428,0.0023010571021586,0.0071660690009593,0.5871902231499553,-0.1064794598333537,-9.79756881952286,14932.0
31.91,0.5,57.0,23.44965744018555,0.0477106422185897,-79.78271670257135,40.45897734195968,267.0957500026226,0.0254096053540706,-0.0163467433303594,-0.6872201561927795,0.7258207201957703,0.0066261940831457,-0.00768900110615,0.0066716194424862,0.0046269982121884,0.0053485254757106,0.0049379095435142,0.5836036141589285,-0.0893899579625576,-9.796359615325928,14932.0
32.1,0.5,59.0,23.450910568237305,0.0397588685154914,-79.78271677890348,40.458977298792725,267.07964737570285,0.0254129339009523,-0.0163467954844236,-0.6872199773788452,0.725820779800415,0.0085397048006089,-0.0086505356365011,0.0042273371433112,-0.0034372899681329,-0.0018331503961235,-0.0037817144766449,0.5841085212305188,-0.0905723471939563,-9.795707066059114,14932.0
32.2,0.5,63.0,23.44590187072754,0.0318070948123931,-79.78271678861759,40.45897728985232,267.0800125584602,0.0254129339009523,-0.0163467954844236,-0.6872199773788452,0.725820779800415,0.0103078465915194,-0.0084456565213642,0.0043081713612286,0.0042234188877046,0.0008501646807417,0.0050019198097288,0.5863817724958063,-0.1076456687226891,-9.797446027994155,14932.0
32.4,0.4000000059604645,66.0,23.44965744018555,0.0318070948123931,-79.7827168608684,40.45897724659199,267.06459809696673,0.0254097413271665,-0.0163499657064676,-0.687221884727478,0.725818932056427,0.0103150288771578,-0.0058308952154648,0.0025847843420744,0.0062788999639451,-0.0010450654663145,0.0036038416437804,0.5861542427167297,-0.1077816438954323,-9.797283475399018,14932.0
32.5,0.4000000059604645,70.0,23.448406219482425,0.0477106422185897,-79.78271694224364,40.45897722063601,267.0502806440592,0.0254003386944532,-0.0163672566413879,-0.687228262424469,0.7258129119873047,0.0058166172772257,-0.0067960441151343,0.0043976255386061,0.0027041335124522,0.0041100378148257,0.0058521730825304,0.5846027205884456,-0.0892289311252534,-9.796190046072006,14932.0
32.7,0.4000000059604645,69.0,23.44590187072754,0.0238553211092948,-79.78271694998152,40.458977214841056,267.05068833982943,0.025403132662177,-0.0163618586957454,-0.6872369050979614,0.7258046865463257,0.0062050075226898,-0.0064319656101364,0.0046646245999357,-0.0067178807221353,-0.0016894408036023,-0.0071071712300181,0.5840707701444626,-0.0904012795910239,-9.795448034405709,14932.0
32.8,0.4000000059604645,71.0,23.448406219482425,0.0715659633278846,-79.78271704036031,40.458977158418094,267.03731524801253,0.0254290383309125,-0.0163719728589057,-0.6872084736824036,0.7258304953575134,0.0099229663899963,-0.0082133110010119,0.0073744100179709,-0.0044190883636474,-0.0051398333162069,-0.0037087677046656,0.5865551058948041,-0.1075706873182207,-9.797099872827529,14932.0
33.0,0.4000000059604645,73.0,23.44464874267578,0.1510837078094482,-79.78271704983244,40.45897714821412,267.03799505388736,0.0254408232867717,-0.0163580235093832,-0.6872081160545349,0.7258306741714478,0.0119072901825488,-0.0081180312938471,0.0074705598875353,0.0048097763210535,0.0014151979703456,0.0054847435094416,0.5858197454363108,-0.1067140793614089,-9.796549649834631,14932.0
33.11,0.4000000059604645,70.0,23.44590187072754,0.0954212844371795,-79.78271710921187,40.458977107322006,267.0228358194828,0.0254570059478282,-0.0163536928594112,-0.6872134208679199,0.7258251905441284,0.0121077269270766,-0.0063152485910728,0.0052563784695253,-0.0052743344567716,-0.0022209740709513,-0.0047668837942183,0.5839184867218137,-0.0913542295619845,-9.795311209559443,14932.0
33.3,0.4000000059604645,67.0,23.43964195251465,0.0715659633278846,-79.78271712268784,40.458977081918896,267.02381680762767,0.0254784375429153,-0.0163529571145772,-0.6871959567070007,0.7258409857749939,0.0145200204755523,-0.0058351083420301,0.0057162114196362,-0.0067027742043137,-0.0025645734276622,-0.0061193057335913,0.5835279658064246,-0.0916350238211453,-9.796368970870972,14932.0
33.4,0.4000000059604645,62.0,23.43838882446289,0.1351801604032516,-79.78271717919203,40.45897708053296,267.0105354771614,0.0254833623766899,-0.0163469333201646,-0.6872003674507141,0.7258368730545044,0.0063273152198621,-0.0037928356088386,0.0063335689683221,0.0088844709098339,0.0020547991152852,0.0024417010135948,0.5846652492508293,-0.1047943196911364,-9.796323362588884,14932.0
33.6,0.4000000059604645,60.0,23.42837333679199,0.0874695107340812,-79.78271726209236,40.45897701174822,266.9976748660804,0.025522630661726,-0.0163152832537889,-0.6872035264968872,0.7258331775665283,0.0152497636939631,-0.0072386019992254,0.0079773402293395,0.0058477958664298,-0.0001223568251589,0.0025913091376423,0.5844444437697529,-0.1030571484658867,-9.796877093911167,14931.0
33.7,0.3000000119209289,54.0,23.44089317321777,0.1192766055464744,-79.78271727753248,40.45897698201982,266.9992146328688,0.025521783158183,-0.016317218542099,-0.6872069835662842,0.7258298993110657,0.0177597264801504,-0.0066732546149543,0.0084868040066972,0.0036729292478412,-0.002168544800952,0.0032782608177512,0.5843687588721515,-0.0949424556735903,-9.79665723860264,14931.0
33.9,0.3000000119209289,52.0,23.433380126953125,0.1192766055464744,-79.78271732115323,40.458976932604905,266.9840395659804,0.0255207661539316,-0.0163130480796098,-0.6872060298919678,0.7258309125900269,0.0198271676035772,-0.002487925311617,0.005185947456474,-0.0035723834298551,-0.0005960845155641,0.0013279585400596,0.5859157859534025,-0.0987701435387134,-9.79671103298664,14931.0
34.0,0.3000000119209289,55.0,23.44089317321777,0.1431319266557693,-79.78271732307194,40.458976913748224,266.9845238537192,0.0255197137594223,-0.0163156799972057,-0.6872086524963379,0.7258283495903015,0.0218748040062477,-0.0023216898267432,0.0053132592626632,0.0041242865845561,0.0004235606465954,-0.0030062126461416,0.5846316643059254,-0.0962097117584198,-9.795801206231117,14931.0
34.2,0.3000000119209289,57.0,23.43964195251465,0.1272283792495727,-79.78271737918993,40.45897687414114,266.97236972159146,0.0255159679800272,-0.0163204669952392,-0.6872084140777588,0.7258285880088806,0.0183996572298456,-0.0012800884962111,0.0062774642510354,0.0014333968283608,-0.001122351270169,-0.0036426363512873,0.5845749463140965,-0.0924845511652529,-9.794922369718552,14931.0
34.3,0.3000000119209289,66.0,23.44214630126953,0.1192766055464744,-79.78271737987805,40.45897685713739,266.9729753867388,0.0255137477070093,-0.016323946416378,-0.6872103810310364,0.7258267998695374,0.0199375002712624,-0.0011147089698567,0.0064079127222761,0.002523431321606,0.0010896672029048,0.0042837765067815,0.5873891015723348,-0.1080084062274545,-9.79689288139343,14931.0
34.5,0.3000000119209289,71.0,23.43838882446289,0.1351801604032516,-79.78271750200489,40.458976817454094,266.9612634912729,0.0255185142159462,-0.0163374040275812,-0.6872149109840393,0.7258219718933105,0.0181869105959263,-0.0098069027233785,0.0083711891715784,0.0111598027870059,0.0016370323719456,0.0071190581656992,0.5859673145413399,-0.1056495572067797,-9.796700507998466,14931.0
34.6,0.3000000119209289,80.0,23.44089317321777,0.0874695107340812,-79.78271756046395,40.458976811072986,266.9472730965018,0.0255134254693985,-0.0163382086902856,-0.6872159242630005,0.7258212566375732,0.0099239377935632,-0.0057842744520519,0.0044995602064765,0.0071411677636206,-0.0004323086468502,0.0028229381423443,0.5836700166016817,-0.092805718621239,-9.795110065340996,14931.0
34.8,0.3000000119209289,89.0,23.44214630126953,0.0954212844371795,-79.78271756680226,40.45897680185881,266.9476892039776,0.0255134012550115,-0.0163403674960136,-0.6872143745422363,0.7258226275444031,0.0104228900507092,-0.0054488767706108,0.0047064268886718,-0.0044223121367394,-0.0023527950979769,0.0007935488829389,0.585601607747376,-0.1028681006748229,-9.797112736701964,14931.0
34.9,0.4000000059604645,104.0,23.443397521972656,0.0715659633278846,-79.782717647171,40.45897676620879,266.93590859925746,0.0255166962742805,-0.0163413267582654,-0.6872188448905945,0.7258182168006897,0.0121016236778708,-0.0079813120835894,0.0072221315408511,0.0023392278235405,-7.624077261425555e-05,-0.0021673322189599,0.5849751151353121,-0.0950310227181762,-9.79502469599247,14931.0
35.11,0.4000000059604645,113.0,23.43713760375977,0.1192766055464744,-79.78271770553835,40.45897671622275,266.92500917470454,0.0255091469734907,-0.016332933679223,-0.6872143745422363,0.7258229851722717,0.0156303762204084,-0.005193518283416,0.0072836917990144,-0.0011078161187469,-0.0029337704181671,-0.0064195226877927,0.5847911471128464,-0.0900874302908778,-9.79562520503998,14931.0
35.2,0.4000000059604645,130.0,23.43838882446289,0.0954212844371795,-79.78271771631775,40.45897668472088,266.92638973748683,0.0255092605948448,-0.0163133759051561,-0.6872206330299377,0.7258174419403076,0.0181172539362958,-0.004771131280478,0.0075332948223866,-0.0038712206296622,-0.0019553115125745,-0.0034789016935974,0.5851861265301704,-0.1058406789321452,-9.796511642932892,14931.0
35.4,0.4000000059604645,137.0,23.434633255004893,0.1033730581402778,-79.78271778931837,40.45897668104509,266.9156062849462,0.0255075078457593,-0.0162913333624601,-0.6872225403785706,0.7258162498474121,0.0117425813536514,-0.0062688835280319,0.0078634640026626,0.0032508557196706,-0.0005269680987112,0.0033900691196322,0.5859087692946195,-0.100887813186273,-9.796259627938271,14931.0
35.5,0.5,148.0,23.433380126953125,0.1033730581402778,-79.78271779632634,40.458976670140096,266.91634884706144,0.025494897738099,-0.0162987485527992,-0.6872227191925049,0.7258163094520569,0.0124962913689707,-0.0059293023296313,0.0080085037204271,0.0007018289179541,-0.0022376598790287,0.0024319072254002,0.5853355228900909,-0.1028729520365596,-9.796959539651873,14931.0
35.7,0.5,153.0,23.43838882446289,0.1431319266557693,-79.78271788078355,40.45897665062104,266.90390409758686,0.0255007166415452,-0.0162927117198705,-0.6872063279151917,0.7258318066596985,0.0093265805123397,-0.0078513384451447,0.0036554205151883,0.0035661309957504,0.0019609073642641,0.0049258219078183,0.586708010584116,-0.1062966612540185,-9.795963758826256,14931.0
35.8,0.5,162.0,23.44214630126953,0.1272283792495727,-79.78271788951777,40.45897664155825,266.9042247556746,0.0254920367151498,-0.0162851829081773,-0.6872054934501648,0.7258331179618835,0.0099463566312581,-0.0074146863924489,0.0039407069166412,-0.0040481928735971,-0.001432581921108,-0.0069898371584713,0.5838003364205361,-0.0917723054811358,-9.795473177433015,14931.0
36.0,0.5,161.0,23.44214630126953,0.1113248318433761,-79.78271794483989,40.45897661361514,266.89483338451384,0.0254779402166605,-0.0162821263074874,-0.6872034668922424,0.7258355021476746,0.0099039534563514,-0.0045357563133944,0.0053846788930574,0.0004246861499268,-6.572587881237268e-05,0.0014543291181325,0.5849344038963318,-0.1018492416199296,-9.79590060889721,14931.0
36.1,0.5,162.0,23.44464874267578,0.0477106422185897,-79.78271798752837,40.45897656775793,266.8855460439473,0.0254771672189235,-0.0162800624966621,-0.6872029900550842,0.7258359789848328,0.0134806565259252,-0.0014060535902242,0.0057314583062657,0.0026728662196546,4.323957182350569e-05,0.0002916864468716,0.5837807117030025,-0.0932874743733555,-9.794427110552787,14931.0
36.3,0.5,164.0,23.448406219482425,0.0397588685154914,-79.78271798856142,40.458976555234045,266.88610317787527,0.0254766605794429,-0.0162822883576154,-0.6872063279151917,0.7258328795433044,0.0141632150170829,-0.0009852941206738,0.0059205213075374,-0.0063294251449406,-0.0023142769932746,-0.0041341972537338,0.5836047836020589,-0.0915980401821434,-9.79467152416706,14931.0
36.4,0.5,164.0,23.448406219482425,0.0397588685154914,-79.78271806950944,40.4589765433006,266.87689486747985,0.0254764799028635,-0.0162912029772996,-0.6872068047523499,0.7258322238922119,0.0101996193880216,-0.0050189696117342,0.0074553407407538,0.005928760394454,0.0008386934059672,0.0020995959639549,0.5845377068594099,-0.1020032243896275,-9.795639238357545,14931.0
36.6,0.5,161.0,23.44590187072754,0.0318070948123931,-79.78271812726089,40.458976503051545,266.8682270836681,0.0254742223769426,-0.0162941962480545,-0.6872096657752991,0.725829541683197,0.0123729714029722,-0.0029753197201794,0.0078523536062095,0.0008506832527928,-0.0004479745985008,-3.827888212981634e-05,0.5847503993287683,-0.0934913594741374,-9.794191467761994,14931.0
36.7,0.5,156.0,23.44214630126953,0.0318070948123931,-79.78271813288595,40.45897647809289,266.869752880618,0.025500189512968,-0.0162746552377939,-0.6872032880783081,0.7258351445198059,0.0146608965661152,-0.0022298882738297,0.0080998067096316,-0.001973146572709,-0.0017721399199217,-0.0038198297843337,0.5879240852594376,-0.1068157478235662,-9.797036722898484,14931.0
36.91,0.5,155.0,23.448406219482425,0.0397588685154914,-79.78271820913513,40.45897646447828,266.86013622491294,0.025496831163764,-0.0162826161831617,-0.6872117519378662,0.7258269786834717,0.0121907624672123,-0.0050014030241859,0.008158684700164,0.0048578339628875,0.0004621855914592,0.0050479122437536,0.5852041067183018,-0.106264602066949,-9.796795817613605,14931.0
37.0,0.6000000238418579,153.0,23.44965744018555,0.055662415921688,-79.78271826463363,40.45897643106122,266.8517402936369,0.0254970323294401,-0.0162899643182754,-0.6871991753578186,0.7258387207984924,0.0118130487306468,-0.0034582343713339,0.0081879105598279,0.003855921793729,-0.00138173205778,0.0010990566806867,0.5845267798751593,-0.0944668303616345,-9.795613510608671,14931.0
37.2,0.699999988079071,151.0,23.43588447570801,0.0238553211092948,-79.78271826823661,40.45897641995333,266.85252809847145,0.0254831127822399,-0.0162928588688373,-0.6871842741966248,0.7258532643318176,0.0125229955987521,-0.0030471479068956,0.0083054344378445,-0.0022965685930103,0.0013795748818665,-0.0009539172751829,0.5852957252785563,-0.1002594841830432,-9.795446864962578,14931.0
37.41,0.699999988079071,148.0,23.44464874267578,0.0397588685154914,-79.78271834399123,40.4589763438127,266.84219868524366,0.0254888143390417,-0.0162903685122728,-0.6872014403343201,0.7258368730545044,0.0219595588354808,-0.0062673917097636,0.0049725571996074,0.0021143688354641,0.001878053182736,0.0054450607858598,0.5865745844319463,-0.1065676522906869,-9.79691042304039,14931.0
37.5,0.699999988079071,153.0,23.443397521972656,0.0477106422185897,-79.78271839732092,40.4589763167424,266.83154351121186,0.0254887267947196,-0.0162777584046125,-0.687200665473938,0.7258379459381104,0.016252922942356,-0.0039232370930137,0.0022722300736157,0.0050142928957939,0.0033593697007745,0.0025401357561349,0.5842597448453307,-0.0907218257803469,-9.795072058439256,14931.0
37.7,0.8000000119209291,153.0,23.44590187072754,0.0397588685154914,-79.78271840073194,40.45897630164738,266.8317317408174,0.0254924539476633,-0.0162742417305707,-0.6872085332870483,0.7258303761482239,0.016801325829022,-0.0034042331632074,0.0023432115402399,-0.0034624682739377,-0.0027945828624069,-0.0033403099514544,0.5845086535066366,-0.0934551980998367,-9.794404891133311,14931.0
37.8,0.8000000119209291,157.0,23.447153091430664,0.0397588685154914,-79.78271840377236,40.458976285560425,266.8319214549512,0.0254911947995424,-0.0162772070616483,-0.6872120499610901,0.7258270978927612,0.0189300159506652,-0.0032110414372843,0.0023025359549129,0.0060980631969869,0.0010835244320333,0.0016117074992507,0.5858067719265819,-0.1018457241542637,-9.796108185052873,14931.0
38.0,0.8000000119209291,158.0,23.44590187072754,0.0477106422185897,-79.78271845269583,40.45897626601132,266.82111881157755,0.0254853088408708,-0.0162848699837923,-0.6872142553329468,0.7258249521255493,0.0148657540952418,-0.0018789671589542,0.0008176201871084,-0.0017305687069892,-0.0011873967014253,-0.0053215003572404,0.5843069245666266,-0.0927615081891417,-9.79464462697506,14931.0
38.1,0.8999999761581421,165.0,23.443397521972656,0.0477106422185897,-79.78271852134814,40.458976223517496,266.8111696974039,0.025487795472145,-0.0162893906235694,-0.687214732170105,0.7258243560791016,0.0154253471483622,-0.0046721659520771,0.0003642523796795,-0.0056288130581378,-0.002264354377985,-0.0048465393483638,0.5872331270948052,-0.1072872983571142,-9.79642334997654,14931.0
38.3,0.8999999761581421,168.0,23.44214630126953,0.0318070948123931,-79.78271852577352,40.45897620875099,266.8111582533121,0.0254860315471887,-0.0162929203361272,-0.6872180104255676,0.7258211970329285,0.0176001204054533,-0.0044334065673605,0.000339630341774,0.0041453368030488,0.001345859025605,0.0047260522842407,0.5851978209614754,-0.104836876457557,-9.795651517510414,14931.0
38.41,0.8999999761581421,172.0,23.448406219482425,0.055662415921688,-79.78271859117643,40.458976170594255,266.8040403895676,0.0254863742738962,-0.0163004677742719,-0.6872217655181885,0.7258175015449524,0.0168541709479045,-0.0065603996053384,0.0048107587384581,0.0040599256753921,0.001241544727236,0.0010050700511783,0.585063919723034,-0.0945958711020648,-9.794428864717483,14931.0
38.6,0.8999999761581421,171.0,23.447153091430664,0.0397588685154914,-79.78271862449081,40.45897612830012,266.79573683297644,0.025487046688795,-0.016298022121191,-0.6872215867042542,0.7258176803588867,0.0189602140697363,-0.0044367244578222,0.0060763110501732,-0.0032231984660029,-0.0011366819962859,-0.0012900403235107,0.5856786448135972,-0.1013246458768844,-9.795994749069212,14931.0
38.7,0.8000000119209291,166.0,23.443397521972656,0.0,-79.7827186286472,40.458976110091854,266.7962931603789,0.025487046688795,-0.016298022121191,-0.6872215867042542,0.7258176803588867,0.0207683276689563,-0.0041376830031915,0.0060287230049079,0.0017441670643165,-0.0017628974746912,0.0020472321193665,0.5847086648270489,-0.0951584280654788,-9.794404306411744,14931.0
38.9,0.8000000119209291,171.0,23.44214630126953,0.0318070948123931,-79.7827186630427,40.45897609807253,266.7888384670615,0.0254756733775138,-0.0163099709898233,-0.6872240900993347,0.72581547498703,0.0119545432213323,-0.0020957878932019,0.0067046743393678,0.0019762408919632,0.0030816667713224,-0.0025914211291819,0.5831352887302638,-0.0911124928761273,-9.79371725857258,14931.0
39.0,1.0,176.0,23.44590187072754,0.055662415921688,-79.78271866504161,40.45897608650731,266.78948102748404,0.0254760980606079,-0.0163082741200923,-0.6872295141220093,0.7258104085922241,0.0137379762269533,-0.001789584325929,0.006620772333239,0.000739675888326,0.0023410553112626,0.0028105909004807,0.5874496202543378,-0.1055841323453933,-9.795065626502035,14931.0
39.2,1.100000023841858,173.0,23.44590187072754,0.0397588685154914,-79.78271867711891,40.45897602460179,266.7820973456502,0.0255170930176973,-0.0162968579679727,-0.6872222423553467,0.725816011428833,0.0208490655399312,0.0009994905644852,0.0067912682034419,0.0068007851950824,0.0028464931529015,0.0042319111526012,0.5854248391091824,-0.1037385957688093,-9.795555623173712,14931.0
39.31,1.2000000476837158,168.0,23.44464874267578,0.0636141896247863,-79.78271872008841,40.45897600993512,266.77500634497403,0.0255466271191835,-0.0162991061806678,-0.6871916055679321,0.7258439064025879,0.0135234043249846,-0.0018286898586462,0.0071638217584876,0.0003317976661492,0.0015290105948224,-6.837748514954002e-05,0.5867177315801383,-0.0979995992872864,-9.794589663147926,14931.0
39.5,1.399999976158142,171.0,23.443397521972656,0.0477106422185897,-79.78271872177494,40.45897599737259,266.7756887362003,0.0255395621061325,-0.0162924584001302,-0.6871863007545471,0.7258493900299072,0.01481286310817,-0.0015996179674491,0.0070400456829326,0.0016116008628159,0.0015093098627403,0.0009822164429351,0.5871613159775734,-0.1057824351824819,-9.79490775167942,14931.0
39.6,1.7000000476837158,175.0,23.443397521972656,0.0477106422185897,-79.78271877012993,40.45897595190185,266.7680958420634,0.0255524348467588,-0.0162777807563543,-0.6871724724769592,0.7258623838424683,0.0186724819592681,-0.0058980702889243,0.0082990606752346,-0.0031362231820821,-0.000399765180191,-0.0036538243293762,0.5842332496494055,-0.0898083536513149,-9.792747205495834,14931.0
39.8,1.7000000476837158,177.0,23.447153091430664,0.0477106422185897,-79.7827187820332,40.458975914532026,266.7696297228932,0.025569949299097,-0.0162675213068723,-0.6871628165245056,0.7258710861206055,0.0213237415796474,-0.0054349178355345,0.0083460465169697,-0.0043379296548664,-0.0018025061581283,-0.0029052905738353,0.5839453473687172,-0.0960059911105781,-9.794894887804986,14931.0
39.9,1.7999999523162842,178.0,23.44590187072754,0.0397588685154914,-79.78271880287286,40.45897589731357,266.76058520978694,0.0255591925233602,-0.0162767730653285,-0.6871626377105713,0.7258714437484741,0.0167450471209541,-0.0030285358204668,0.0045623765701029,-0.0029685078188776,-0.001067960052751,0.0001140611057053,0.5862351535633207,-0.1017201460618525,-9.795501828789714,14931.0
40.1,1.7000000476837158,182.0,23.447153091430664,0.055662415921688,-79.78271880886297,40.45897587165065,266.7535437107682,0.0255567952990531,-0.0162757001817226,-0.6871621608734131,0.7258720397949219,0.0175769903106195,-0.0004643018135226,0.0050950093694371,0.0014860481023788,0.0017601184081286,0.0011393538443371,0.5845037199184299,-0.0974888998176902,-9.794679125547413,14931.0
40.2,2.0,193.0,23.453413009643555,0.0795177370309829,-79.78271880848709,40.45897585534362,266.7540245786905,0.0255567952990531,-0.0162757001817226,-0.6871621608734131,0.7258720397949219,0.0186633145660516,-0.0003082903602216,0.0049721603887149,-0.001620415598154,0.004612382967025,0.0025709925685077,0.5848228682577611,-0.1065012681204825,-9.795176723599434,14931.0
40.4,2.0999999046325684,194.0,23.447153091430664,0.0477106422185897,-79.78271882400055,40.45897581984176,266.7481499076485,0.0255544390529394,-0.0162802822887897,-0.6871659159660339,0.7258684039115906,0.0187213724517468,8.56130845807105e-05,0.0061333773098077,0.004057609476149,0.0009955799905583,0.000333679083269,0.5876078239828348,-0.1063518534880131,-9.795133454203606,14931.0
40.5,2.200000047683716,204.0,23.447153091430664,0.055662415921688,-79.78271882300811,40.45897580272205,266.7487419605851,0.0255520828068256,-0.0162839237600564,-0.6871689558029175,0.7258655428886414,0.0198344725002147,0.0003330127377389,0.0061833393448163,-0.0051369429565966,-0.0020808249246329,-0.0038492516614496,0.5847240137681365,-0.0895486733224242,-9.793432499170304,14931.0
40.7,2.0,200.0,23.448406219482425,0.0238553211092948,-79.78271886718366,40.45897577731787,266.74030012494325,0.0255529098212718,-0.0162921585142612,-0.6871693730354309,0.7258649468421936,0.0177306140705541,-0.0045169817846742,0.0029884031266086,-0.0044493451714515,-0.0021723383106291,-0.0040106251835823,0.5854432943835854,-0.0900624791253358,-9.795081998705864,14931.0
40.8,1.7999999523162842,201.0,23.447153091430664,0.0397588685154914,-79.78271887140319,40.458975760424686,266.7405435577631,0.025550989434123,-0.0162955392152071,-0.6871727705001831,0.7258617281913757,0.0198434759378558,-0.0043640105340135,0.0027878149574269,0.0053555769845843,-0.0006569444667547,0.0052722566761076,0.5866287442669272,-0.1075475634075701,-9.795411781668664,14931.0
41.0,1.8999999761581416,199.0,23.44214630126953,0.0397588685154914,-79.78271890730501,40.45897577485625,266.73498393452167,0.0255435202270746,-0.0163082927465438,-0.6871752738952637,0.7258593440055847,0.0116137463245613,-0.0057389832321165,0.0050039482901005,0.0065656867809593,-0.0017215721309185,0.0017791914287954,0.5859701650589705,-0.1065562867652624,-9.7952732026577,14931.0
41.1,1.600000023841858,196.0,23.44590187072754,0.0397588685154914,-79.7827189186014,40.45897576963671,266.7291543022394,0.0255407113581895,-0.0163093470036983,-0.6871749758720398,0.7258597016334534,0.0096908298640338,-0.0039730351009832,0.0057413555525471,-0.0045661032199859,-0.0040500178001821,-0.0064121121540665,0.5846825350821019,-0.0899222647212445,-9.793287488222123,14931.0
41.3,1.5,194.0,23.44590187072754,0.0318070948123931,-79.78271892712668,40.45897574857821,266.7301807836294,0.0255387499928474,-0.0163124408572912,-0.6871784329414368,0.7258564233779907,0.0123798530542603,-0.0035492936663051,0.0054807995566212,-0.0081752706319093,-0.002899260725826,-0.0075310938991606,0.5848115758225322,-0.0917715380340814,-9.793584526777268,14931.0
41.4,1.600000023841858,193.0,23.448406219482425,0.0477106422185897,-79.78271895705106,40.4589757365095,266.7247951910496,0.0255408454686403,-0.016315883025527,-0.6871790289878845,0.7258557081222534,0.0138269477248764,-0.0065172180903182,0.0074412986675409,0.0066267452202737,0.0017386735416948,0.0046240626834332,0.5868669452145696,-0.1053058596979826,-9.794790222644806,14931.0
41.6,1.5,195.0,23.447153091430664,0.0477106422185897,-79.78271897073505,40.45897570164961,266.7199115291834,0.0255388114601373,-0.016316344961524,-0.6871811151504517,0.7258538007736206,0.0183448375691873,-0.0042639406006826,0.0076195106027107,0.0080863060429692,0.0014901108806952,0.0050225793384015,0.5858851977065206,-0.105360887479037,-9.794162231683732,14931.0
41.7,1.399999976158142,194.0,23.44089317321777,0.0238553211092948,-79.7827189788972,40.458975666664095,266.7213335022926,0.0255386345088481,-0.016305599361658,-0.6871774196624756,0.7258574962615967,0.0211066185266955,-0.0039564040398694,0.0074316025040647,0.0018808885943144,0.000843335990794,0.0016793154645711,0.5841106408461929,-0.0911582382023334,-9.793240710496905,14931.0
41.9,1.2999999523162842,192.0,23.43588447570801,-0.0079517737030982,-79.78271898825773,40.45897567906668,266.7157520190477,0.0255423225462436,-0.0163104087114334,-0.6871662735939026,0.7258678674697876,0.0141034690466835,-0.0020731478439077,0.007758391215952,-0.0042148968204855,0.0003014931862708,-0.0060505676083266,0.5831777175888421,-0.0926124590076506,-9.79275773048401,14931.0
42.0,1.2999999523162842,196.0,23.44089317321777,0.0238553211092948,-79.78271899029652,40.45897566523414,266.71648354685306,0.0255517847836017,-0.0163175966590642,-0.6871544718742371,0.7258785367012024,0.0165142605112383,-0.0020658353051336,0.0074761280951558,0.0038362401537597,0.0023752565030008,0.0026573459617793,0.5854153373837472,-0.102630228633061,-9.793234278559686,14931.0
42.2,1.2999999523162842,192.0,23.434633255004893,0.0318070948123931,-79.78271900125296,40.458975663634575,266.71048597848414,0.0255813207477331,-0.0163152329623699,-0.6871353983879089,0.7258955836296082,0.0130173283433253,-0.0011749806857504,0.0045545563549896,0.0061159916222095,0.0031788637861609,0.0030472835060209,0.5864537297934294,-0.1022317500226199,-9.792260132431984,14931.0
42.3,1.2999999523162842,194.0,23.44089317321777,0.2544567584991455,-79.78271900196148,40.45897565198347,266.710916562438,0.0255744103342294,-0.0163063816726207,-0.6871161460876465,0.7259142994880676,0.013405966915518,-0.0008574494823722,0.0044702726945002,-0.0063423723913729,0.0003765474248211,-0.0025299827102571,0.5856680101901293,-0.0960822241846472,-9.792823219299317,14931.0
42.5,1.2999999523162842,195.0,23.42461585998535,0.3419262766838074,-79.78271904165085,40.458975632966826,266.7070813164711,0.025574130937457,-0.0163053162395954,-0.6870637536048889,0.725963830947876,0.0134708111678673,-0.0046668276649435,0.00659314098294,-0.0082846125587821,-0.0130799300968647,0.0027163405902683,0.5847979810461402,-0.0739137805486098,-9.791413455605507,14931.0
42.6,1.2999999523162842,202.0,23.42586898803711,0.326022744178772,-79.78271905599274,40.45897564501622,266.7026708111763,0.0255748610943555,-0.0162977557629346,-0.6870983242988586,0.7259312272071838,0.0088276192307537,-0.0024924859169614,0.0068143462360065,-0.0061560585163533,-0.0028983005322515,0.0036110111977905,0.5880655878782273,-0.116878449646756,-9.795042237639429,14931.0
42.8,1.2999999523162842,200.0,23.427120208740234,0.3101191818714142,-79.78271905889561,40.45897563604896,266.7033222899437,0.0255833454430103,-0.0163107719272375,-0.687079131603241,0.7259489297866821,0.0100023269848431,-0.0028742163721235,0.0066062412848366,0.0058170505799353,0.0009629493579268,-0.004763264209032,0.5828681075200439,-0.0955353816132992,-9.792802169322966,14931.0
42.91,1.2000000476837158,200.0,23.42336463928223,0.3021674156188965,-79.78271905357828,40.45897562268557,266.6984892920256,0.0255758836865425,-0.0162960104644298,-0.6870929598808289,0.7259364128112793,0.0113212699500367,0.0010367938896794,0.006594173644627,-0.0023901853710412,-0.0050236606039106,0.003419182030484,0.5816484514251352,-0.1148944071494043,-9.793096284270286,14931.0
43.1,1.2000000476837158,200.0,23.41835594177246,0.3578298389911652,-79.78271907740977,40.45897561024543,266.6942172036171,0.0255732517689466,-0.0162809789180755,-0.687055766582489,0.7259719967842102,0.0109486429719439,-0.0016519143143724,0.0069897674596251,0.0007520859362557,0.0038060422521084,-0.0004464375379029,0.5816844848915935,-0.1140964358020574,-9.79382660150528,14931.0
43.2,1.2000000476837158,199.0,23.42336463928223,0.3975887000560761,-79.78271907862134,40.45897559893893,266.69487736976146,0.0255711730569601,-0.0162685941904783,-0.6870734691619873,0.7259556651115417,0.0123812984777773,-0.0010197365723337,0.0068223724286801,-0.0002044200664386,-0.0034339181147515,-0.0021663033403456,0.5844437128677965,-0.1012572932615876,-9.794214856624604,14931.0
43.4,1.2000000476837158,197.0,23.41960906982422,0.4850582182407379,-79.78271912086484,40.458975553702224,266.69081899380683,0.0255914982408285,-0.0162707399576902,-0.6870399117469788,0.7259865999221802,0.0178338692279437,-0.004982102571308,0.0080171356453221,-0.0045205592177808,-0.0049284952692687,-0.0048781782388687,0.5787396443635225,-0.0958609618898481,-9.788074110746384,14931.0
43.5,1.2000000476837158,198.0,21.844528198242188,23.93483924865723,-79.78271915431604,40.458975549649615,266.68633746957784,0.02559020742774,-0.0160795953124761,-0.6871058940887451,0.7259284257888794,0.010631992718326,-0.0059674154926517,0.0069091040383791,-0.0002268586831633,0.000543603382539,-0.0050186235457658,0.5848883570730686,-0.1154723678715527,-9.794479150772096,14931.0
43.7,1.2000000476837158,198.0,23.40458297729492,0.3896369338035584,-79.78271916147855,40.45897553775912,266.68706740295886,0.0256018657237291,-0.0161143075674772,-0.6871119737625122,0.7259215712547302,0.0176172464928289,-0.0061644324762337,0.0066533455582676,0.0333231650292873,0.024638133123517,0.0085371797904372,0.6108497387543321,-0.1652405053563416,-9.802863473296163,14931.0
43.8,1.100000023841858,196.0,23.41960906982422,0.2862638533115387,-79.78271916825396,40.458975524143455,266.68773746347426,0.0256046205759048,-0.0161045435816049,-0.6870822310447693,0.7259498238563538,0.0168208756765827,-0.0055883217833749,0.0069875998242689,0.0093138394877314,-0.003952364437282,-0.0013709294144064,0.5983049030229449,-0.12918282777071,-9.79538897752762,14931.0
44.01,1.100000023841858,195.0,23.35199737548828,1.1052966117858891,-79.78271921946869,40.45897551631736,266.683572991252,0.0255948659032583,-0.0160397700965404,-0.6871853470802307,0.7258539795875549,0.0108764131610521,-0.0078590255818624,0.0076727967290478,-0.0101421819999814,-0.0246101934462785,-0.0123160341754555,0.5569865037873387,-0.1177267984114587,-9.78333143413067,14931.0
44.1,1.0,194.0,23.413349151611328,0.3896369338035584,-79.78271923566616,40.45897550311822,266.6783909634352,0.0256341639906168,-0.0160945151001214,-0.6871488690376282,0.7258858680725098,0.01269063835399,-0.0056490820143208,0.0076004739329232,-0.0058368896134197,0.0027927123010158,-0.0139546385034918,0.5725812837481499,-0.1341183711402118,-9.803770376443865,14931.0
44.3,1.0,191.0,23.35700607299805,1.2881873846054075,-79.7827192422231,40.45897549001784,266.6790650919676,0.0255882069468498,-0.0161095671355724,-0.6871390342712402,0.7258965373039246,0.0152561094203845,-0.0052475112942476,0.0074144829122806,0.0049191811122,0.0107244392856955,0.0046337055973708,0.5789645428955555,-0.115603966768831,-9.789364591240885,14931.0
44.4,1.0,192.0,23.3494930267334,2.083364725112915,-79.78271925192571,40.45897548023041,266.67388127601146,0.0255653727799654,-0.0161328613758087,-0.6871088147163391,0.7259253859519958,0.0139698987696117,-0.002749626566798,0.0073480248039382,-0.0069666276685893,-0.006272223778069,0.0077584916725754,0.5936596556380391,-0.0862307164818048,-9.795363834500312,14931.0
44.6,1.0,190.0,23.16794586181641,5.057328224182129,-79.78271930699067,40.45897548409621,266.669769851923,0.0256085712462663,-0.0160790886729955,-0.6871649622917175,0.7258719205856323,0.0079300317379971,-0.0089519477066252,0.0082623070475715,-0.0070896097458899,-0.0106841223314404,-0.0016959409695118,0.5961102602630854,-0.0826778294797986,-9.79491886138916,14931.0
44.7,1.0,189.0,23.112855911254893,5.9956374168396,-79.78271931919963,40.45897547428624,266.6705358461141,0.0255958903580904,-0.0159928798675537,-0.6872104406356812,0.7258312106132507,0.0107068056725574,-0.0102643459538587,0.0079827103701209,0.0004041027859784,0.0165614522993564,-0.0170342214405536,0.5954998840391637,-0.0757779414206743,-9.794148198366166,14931.0
44.9,1.0,187.0,22.988903045654297,8.238038063049316,-79.78271930330602,40.45897545196417,266.666017888546,0.0256311446428298,-0.015842393040657,-0.6872929334640503,0.7257550954818726,0.0109765149042206,-0.0014641439997956,0.0084025135883939,-0.0572340562939643,-0.0462560951709747,0.027835477143526,0.5968841027095915,-0.0901629507355392,-9.819896997213364,14931.0
45.01,1.100000023841858,186.0,22.913780212402344,9.565983772277832,-79.78271930523631,40.458975437386606,266.66682723021506,0.0258381534367799,-0.0156143149361014,-0.6873994469642639,0.7256518602371216,0.0168180180408918,-0.0026604989380367,0.0089699153685739,-0.0216744970530271,-0.0421740300953388,-0.0053460369817912,0.6269742764532567,-0.2096049384959042,-9.846727530956269,14931.0
45.2,1.100000023841858,188.0,22.753517150878903,12.070793151855469,-79.78271935312524,40.45897544241291,266.66211752450465,0.0269655138254165,-0.0144917368888854,-0.6872954964637756,0.7257326245307922,0.0147594578343317,-0.0096255623721399,0.0102968063507587,0.0157851688563823,-0.0079057877883315,-0.000716533162631,0.6048067144677043,-0.0615572799788788,-9.814546794891358,14931.0
45.3,1.100000023841858,189.0,22.672134399414062,13.525967597961426,-79.78271936325642,40.45897542536299,266.66315038359164,0.0277107693254947,-0.013757899403572,-0.6873829960823059,0.7256358861923218,0.0271915875922419,-0.0099278127463534,0.011080342645224,0.0727439373731613,-0.0021883018780499,0.0172073859721422,0.6193784509599211,-0.1305959627497941,-9.813275610208512,14931.0
45.5,1.100000023841858,190.0,22.49809837341309,16.452220916748047,-79.78271938037427,40.458975405425264,266.65768283462523,0.0288337934762239,-0.0127585167065262,-0.6874043345451355,0.7255902290344238,0.0177437517555809,-0.0085706526371355,0.0120270349566323,0.0368814095854759,0.051207210868597,-0.0542358607053756,0.6369163703173399,-0.1554667747579515,-9.83356778740883,14931.0
45.61,1.2000000476837158,193.0,22.402942657470703,18.16980361938477,-79.78271939420071,40.45897541673068,266.65069040513043,0.0296425316482782,-0.0133940419182181,-0.6874632239341736,0.7254903316497803,0.0091877530727483,-0.0132147515208036,0.0141964796739078,-0.0185233261436224,0.0147616500034928,0.0581097602844238,0.4822511940076947,-0.2613080840930343,-9.810349663496018,14931.0
45.8,1.2000000476837158,193.0,22.197607040405277,21.398223876953125,-79.78271942578624,40.45897539306348,266.6544101819992,0.031257901340723,-0.0147347161546349,-0.6875998973846436,0.7252670526504517,0.0158700164198506,-0.0177277074937525,0.0184826715298199,-0.0001884261582745,-0.0582015700638294,0.1086458414793014,0.556802974306047,-0.2890283082425594,-9.761942903995514,14931.0
45.9,1.2000000476837158,195.0,22.1062068939209,23.07604789733887,-79.78271950716491,40.458975404820855,266.6455522761345,0.0277235601097345,-0.0142739210277795,-0.6873829960823059,0.7256254553794861,0.018926315023385,-0.0741974922601417,0.0109344528770399,0.0103339236229658,0.0001497688936069,0.0982294604182243,0.5384889101609588,-0.3514507705718279,-9.711125922203063,14931.0
46.1,1.2999999523162842,193.0,21.89210700988769,26.58278083801269,-79.78271955545668,40.45897535554121,266.643650321722,0.0261787306517362,-0.0153002459555864,-0.6879875659942627,0.7250887155532837,0.0044008538900103,-0.0958831245670963,0.0602672752618177,-0.1824265867471695,-0.0963028743863105,-0.1043546795845031,0.1654902362823486,0.1166317702364176,-10.116428014039991,14931.0
46.2,1.399999976158142,191.0,21.783178329467773,28.332170486450195,-79.78271968816338,40.45897533727927,266.6525865033865,0.0167713277041912,-0.0125799383968114,-0.6871240139007568,0.7262376546859741,0.0050657876898032,-0.1193093663939914,0.1442217920285985,-0.2344963103532791,-0.1977388858795166,-0.1678120642900467,0.2368153037130833,-0.2563695257529616,-10.576717321872712,14931.0
46.4,1.399999976158142,190.0,22.111215591430664,21.09605598449707,-79.78272039111137,40.45897508389015,266.6791117773056,-0.0088582327589392,-0.0052247503772377,-0.6856960654258728,0.7278153896331787,-0.0125421821495934,-0.1515606759486998,0.297593788289308,-0.0558639802038669,-0.1178066357970237,0.1343106478452682,-0.0873682009242475,-0.0840764926001429,-10.460209211111067,14931.0
46.51,1.5,184.0,22.08993148803711,22.11388397216797,-79.78272056367892,40.458975097561634,266.7099143103361,-0.0144228488206863,0.0011632968671619,-0.68525230884552,0.7281619906425476,-0.042715207457606,-0.1434203873906256,0.3203171819259163,-0.0760102942585945,-0.1192938238382339,-0.0955216214060783,-0.1681703075766563,0.156484500914812,-10.11592515349388,14931.0
46.7,1.399999976158142,183.0,22.032337188720703,23.068096160888672,-79.78272095482613,40.4589753617119,266.74845368272065,-0.0070198588073253,0.0083441277965903,-0.6848313212394714,0.7286200523376465,-0.0712142324933826,-0.0985935283517517,0.2713373242477683,0.1133271753787994,0.070855051279068,-0.0068661347031593,0.0405534098390489,-0.1460300173703581,-9.767674344778062,14931.0
46.8,1.399999976158142,182.0,21.99978256225586,22.91701316833496,-79.78272109925217,40.4589756991504,266.7727274954915,0.0039534880779683,0.0113408965989947,-0.6858111619949341,0.727680504322052,-0.065806882093864,-0.0422800673976146,0.150811812066283,0.0538041852414608,0.0360981449484825,0.0360983833670616,0.2342872234806418,-0.338024795986712,-9.649042525291442,14931.0
47.01,1.399999976158142,183.0,21.925912857055664,24.08592414855957,-79.78272114348094,40.45897575608653,266.7863945201635,0.0041519226506352,0.0115927895531058,-0.6864889860153198,0.7270359992980957,-0.0635978898561036,-0.0164979009480923,0.1255580845777487,0.0262372512370348,-0.0174365248531103,0.00498837698251,0.2157098519057035,-0.3599517815932632,-9.59907982170582,14931.0
47.1,1.5,189.0,21.932172775268555,24.332427978515625,-79.78272130463114,40.45897592193943,266.8014464364052,0.0053694969974458,0.0076060923747718,-0.6868374943733215,0.726751446723938,-0.0788812626392005,-0.0225820795280328,0.1310789874429537,-0.0549265779554843,0.0394315980374813,0.0198082439601421,0.1663914566673338,-0.5073137855529786,-9.762016578912736,14931.0
47.31,1.5,189.0,21.91965103149414,24.435800552368164,-79.78272132387666,40.45897607226362,266.8277977467179,0.0056071877479553,-0.003004022873938,-0.6860007643699646,0.7275731563568115,-0.0932393446862819,0.0253236533689004,0.1282493452392961,-0.1220635771751403,-0.0939815044403076,-0.1550508141517639,0.2533200566098094,-0.0177579756639897,-9.765088121294976,14931.0
47.4,1.5,184.0,21.96722984313965,23.29869842529297,-79.78272142457497,40.45897623474025,266.8447340340018,0.0074962773360311,0.0004180970136076,-0.6846991181373596,0.7287872433662415,-0.0844820573014602,0.0262519513098307,0.1395568337433755,0.1181233674287796,-0.0017252083634957,-0.001930269645527,0.2852749622426927,-0.1883429274894297,-9.774561195373538,14931.0
