time,wind_speed,wind_angle,battery_voltage,battery_current,position_x,position_y,position_z,orientation_x,orientation_y,orientation_z,orientation_w,velocity_x,velocity_y,velocity_z,angular_x,angular_y,angular_z,linear_acceleration_x,linear_acceleration_y,linear_acceleration_z,node_ids
0.0,1.8999999761581416,134.0,23.344486236572266,0.0477106422185897,-79.78279878850448,40.45902335891087,267.9353624022007,0.0064915386028587,0.0061874575912952,-0.7491564154624939,0.6623324751853943,0.0029320299915279,-0.0053199378574863,0.0147716156568651,-0.0011903088307008,-0.0029992621857672,0.0011407316196709,-0.0131215539202094,-0.1782369288615882,-9.80700622558594,14932.0
0.1,1.7999999523162842,130.0,23.35199737548828,0.0477106422185897,-79.78279879829904,40.45902334372408,267.93752721309664,0.0064846319146454,0.0061689410358667,-0.7491597533226013,0.6623288989067078,-0.0006445706781876,-0.0076392852975973,0.0137402169429841,-0.0062488093972206,0.0011505866423249,0.004391448572278,-0.008115331189474,-0.1768168046325445,-9.80709685742855,14932.0
0.2,1.7000000476837158,126.0,23.35074615478516,0.0397588685154914,-79.78279881617198,40.45902334574125,267.94036344051364,0.0064863483421504,0.0061697796918451,-0.7491635084152222,0.6623246073722839,-0.0005771885400995,-0.0078759755005286,0.0145980903359805,-0.0020421438384801,0.0034925686195492,-0.0019066728418692,-0.0046498474990949,-0.1699128692038357,-9.808974398374556,14932.0
0.4,1.7000000476837158,124.0,23.3494930267334,0.0397588685154914,-79.78279881013866,40.45902331150467,267.94179717063906,0.0064801727421581,0.0061788419261574,-0.7491632699966431,0.6623249650001526,8.150969800189341e-05,-0.0057582578969494,0.0139098483758602,0.0025651287287473,-0.0009768116287887,0.0008910429896786,-0.0055000857595587,-0.1714550175145268,-9.809250386953355,14932.0
0.5,1.600000023841858,119.0,23.35325050354004,0.0397588685154914,-79.78279883319446,40.4590232349655,267.94353050351145,0.0065131806768476,0.0062053650617599,-0.7491645216941833,0.6623229384422302,0.0073442628166941,-0.006298300921694,0.0135459880343693,0.002057131845504,-0.0010486040264368,0.0016898383619263,-0.0116569508810061,-0.1762316627986729,-9.806981667280198,14932.0
0.7,1.600000023841858,113.0,23.35325050354004,0.0397588685154914,-79.78279885044037,40.45902322234708,267.94628247976306,0.0065117836929857,0.0062079387716949,-0.7491681575775146,0.6623188257217407,0.0075698922468154,-0.0064504641976153,0.014190064151051,0.0007639235118404,-0.0043268231675028,-0.0051474752835929,-0.0133343560248613,-0.1764387090504169,-9.805740888118743,14932.0
0.8,1.7000000476837158,106.0,23.35825729370117,0.055662415921688,-79.78279887053232,40.45902319849328,267.94589653968814,0.0065073757432401,0.0061964290216565,-0.7491679191589355,0.6623192429542542,0.0057662201300432,-0.0078728330021107,0.013299455589178,-0.0033506955951452,0.0023389409761875,0.0030500122811645,-0.0068546275264816,-0.1746507766842842,-9.806603352427484,14932.0
1.0,1.600000023841858,104.0,23.34573745727539,0.1272283792495727,-79.782798880722,40.459023194330896,267.94722986578944,0.0065049589611589,0.0061932583339512,-0.7491679787635803,0.6623192429542542,0.0055995485176296,-0.007903683128038,0.0135187966127138,0.0005565649480558,-0.0036286718677729,-0.0046432251110672,-0.0039455989102134,-0.1742240578494966,-9.805808131098749,14932.0
1.1,1.600000023841858,110.0,23.34698867797852,0.1192766055464744,-79.78279890629176,40.45902317831985,267.94764510154727,0.0064929598011076,0.0061761881224811,-0.7491721510887146,0.6623147130012512,0.0008514601293154,-0.0091005810657758,0.0129868507689689,0.005608681589365,-0.0009641402866691,-0.0053247706964612,-0.0089304741646628,-0.1722437338158488,-9.807751745581626,14932.0
1.3,1.600000023841858,110.0,23.34698867797852,0.0397588685154914,-79.78279891743173,40.459023177791536,267.94896495699885,0.0064956280402839,0.0061782705597579,-0.7491763234138489,0.6623099446296692,0.0014681606971263,-0.0094151835649926,0.013561936854551,-0.0010141218081116,-9.072595275938513e-06,0.004516982473433,-0.0093381912616314,-0.1743819874897599,-9.809943282008172,14932.0
1.5,1.600000023841858,111.0,23.35325050354004,0.0477106422185897,-79.78279892272198,40.45902312854428,267.9489650464058,0.0064936098642647,0.0061940932646393,-0.7491766214370728,0.6623095870018005,0.0037917930620537,-0.0070253956865846,0.0134958450328871,0.0011001860257238,0.0027703794185072,0.0054427520371973,-0.0059407602535793,-0.1773777901567518,-9.805898178219795,14932.0
1.6,1.600000023841858,113.0,23.35325050354004,0.0477106422185897,-79.78279894351195,40.45902310004456,267.944226924181,0.006496116053313,0.0061908923089504,-0.7491780519485474,0.6623079776763916,0.0028420529939854,-0.0080302892718074,0.0085728154542338,-0.0019840153399854,-0.0053380858153104,-0.0047924807295203,-0.0101348247157875,-0.1776003680750727,-9.804359775781633,14932.0
1.7,1.7999999523162842,116.0,23.341981887817383,0.1431319266557693,-79.78279896365224,40.459023095940026,267.94599265217784,0.0064965710043907,0.0061905020847916,-0.7491819858551025,0.6623034477233887,0.0030709615978243,-0.0083536265757965,0.0090287527177875,-0.0012750066816806,0.0005530586931854,-0.005945271346718,-0.0012111799162812,-0.1720183236524463,-9.809178466200828,14932.0
1.9,1.8999999761581416,121.0,23.348241806030277,0.0874695107340812,-79.78279896754297,40.459023051693386,267.9435478186608,0.0064962212927639,0.0061999266035854,-0.7491827607154846,0.6623024940490723,0.0049456398982605,-0.0065012822710937,0.0095275417722463,-0.002992728492245,0.0038179010152816,0.0027179641183465,-0.0066425534687004,-0.1724308447167277,-9.807899680137632,14932.0
2.0,1.7999999523162842,124.0,23.338224411010746,0.0874695107340812,-79.78279900009183,40.45902301961301,267.9414033031464,0.0064973994158208,0.006194470450282,-0.749187171459198,0.6622974872589111,0.0038945635173927,-0.0080157599131313,0.0100517789941245,-0.0027229418046772,0.0015450182836502,0.0031285407021641,-0.0074458095798036,-0.1790008858591318,-9.804863805770877,14932.0
2.21,1.7999999523162842,126.0,23.34573745727539,0.0318070948123931,-79.78279901994745,40.45902301397787,267.943427298069,0.0064989202655851,0.0061961724422872,-0.7491906881332397,0.6622936129570007,0.0041860119784273,-0.0079844090331183,0.0106174241353293,-0.0013611712493002,0.0036176859866827,0.0065674879588186,-0.0055602258571889,-0.179282849561423,-9.806178844571114,14932.0
2.4,1.600000023841858,134.0,23.35074615478516,0.0477106422185897,-79.78279904117795,40.459022988317386,267.939492110014,0.0064985179342329,0.0061913011595606,-0.7491915225982666,0.6622927188873291,0.002891551719431,-0.0089274139484724,0.0103977755784005,0.0009402323048561,-0.0044936435297131,-0.0080248564481735,-0.0080500102532096,-0.1741459792479872,-9.808529425263403,14932.0
2.5,1.600000023841858,135.0,23.354501724243164,0.055662415921688,-79.78279905213101,40.459022986470096,267.9405486917496,0.0064966748468577,0.0061906678602099,-0.7491915822029114,0.6622926592826843,0.0032636183928167,-0.0090293355267773,0.0108390127714894,-0.001984410919249,0.0027382085099816,0.0047211614437401,-0.0063890235655708,-0.1737063051760196,-9.808862716555597,14932.0
2.6,1.600000023841858,140.0,23.34323310852051,0.0477106422185897,-79.78279905962444,40.45902295230196,267.9372392332554,0.0064868605695664,0.0062003582715988,-0.7491956353187561,0.6622880697250366,0.0022605865873259,-0.005660389653318,0.0110820204077228,-0.0010706697357818,0.0010358229046687,0.0031042550690472,-0.0054679078009212,-0.1778484727442264,-9.806025062799458,14932.0
2.8,1.5,141.0,23.354501724243164,0.0477106422185897,-79.78279906667215,40.45902295069097,267.9383506512642,0.0064872307702898,0.0062004057690501,-0.7491987943649292,0.6622844934463501,0.0022809495114005,-0.005732333489391,0.0112141816212017,0.0001303110038861,-0.0012474964605644,-0.0046767685562372,-0.0057633577863452,-0.1798120408505201,-9.806369463801383,14932.0
2.9,1.5,148.0,23.34698867797852,0.0636141896247863,-79.78279908245389,40.45902290749172,267.93459898591044,0.006487947423011,0.0062071112915873,-0.7491997480392456,0.6622833609580994,0.003766638122512,-0.0045291978393589,0.0114247548266628,-0.0003776000812649,-0.0025283670984208,-0.0054662730544805,-0.0054413703497266,-0.1681349319219589,-9.809409431219102,14932.0
3.1,1.600000023841858,149.0,23.348241806030277,0.055662415921688,-79.78279909581774,40.45902287482867,267.9275130963326,0.0064835404045879,0.0062102540396153,-0.7492030262947083,0.6622796058654785,0.0033839126874423,-0.0029842337993047,0.0081836297136281,-0.0002639590529724,7.183616980910301e-05,0.0039950138889253,-0.0070084863854572,-0.1727006023563444,-9.807978032827377,14932.0
3.2,1.600000023841858,151.0,23.3494930267334,0.055662415921688,-79.78279910411909,40.45902286928814,267.929169151783,0.0064849164336919,0.0062124705873429,-0.7492067813873291,0.6622753143310547,0.003557725842171,-0.003134840229957,0.0087015465386567,-0.0014300639741122,0.0012449226342141,0.0061017218977212,-0.0094871633558068,-0.1796870017983019,-9.804716455936433,14932.0
3.4,1.600000023841858,150.0,23.341981887817383,0.0477106422185897,-79.78279911377264,40.459022840333645,267.92334121823313,0.0064796106889843,0.006213366985321,-0.7492083907127379,0.6622735261917114,0.0020439321749499,-0.0020160653962647,0.0091114708683241,-1.4183924577082507e-05,-0.0015939925797283,-0.0058942791074514,-0.0052617791737429,-0.1785950708203018,-9.80547834813595,14932.0
3.5,1.5,144.0,23.348241806030277,0.055662415921688,-79.78279915566083,40.45902281098957,267.9175930953026,0.0064855241216719,0.0062058949843049,-0.7492130398750305,0.662268340587616,0.0019949899853268,-0.0054009183867906,0.0095906751018051,-0.0036711180582642,0.0007038349285721,-0.0075629702769219,-0.0021921251452295,-0.1722477903217077,-9.808924697041512,14932.0
3.71,1.399999976158142,142.0,23.344486236572266,0.0477106422185897,-79.78279916204367,40.45902280950232,267.91856623053553,0.0064855241216719,0.0062058949843049,-0.7492130398750305,0.662268340587616,0.0022815993591134,-0.0050809685264256,0.0099633557996826,0.0011617784621194,-0.0040483050979673,0.0036740263458341,-0.0062231927609536,-0.1704399043321609,-9.80831366300583,14932.0
3.8,1.399999976158142,142.0,23.340728759765625,0.0318070948123931,-79.78279920546842,40.45902278331432,267.9125678277016,0.0064895171672105,0.0062011806294322,-0.749217689037323,0.6622630953788757,0.0022451913000448,-0.0067443267644709,0.0103060649144421,0.0035045484546571,-0.0027114818803966,-0.0002814611943904,-0.0072428392485016,-0.1779360165260732,-9.806833148002625,14932.0
4.0,1.399999976158142,141.0,23.340728759765625,0.0477106422185897,-79.78279921382793,40.459022782227095,267.9136073029041,0.0064897327683866,0.0062012774869799,-0.749217689037323,0.6622630953788757,0.0018420700916408,-0.0070806602496209,0.0105802086776904,-0.0025312025099992,-0.0011468422599136,-0.0031339637935161,-0.0111307757045142,-0.1783716523647308,-9.80619053900242,14932.0
4.1,1.399999976158142,142.0,23.3494930267334,0.0477106422185897,-79.78279926230994,40.4590227580148,267.9050240850449,0.0064935674890875,0.0061999913305044,-0.749220073223114,0.6622602939605713,0.0017864900099608,-0.0083214016192726,0.0070714673774224,0.0005586557090282,-0.0007799040176905,-0.0028174580074846,-0.0068656721402658,-0.1712103663571179,-9.809030531644822,14932.0
4.31,1.399999976158142,143.0,23.341981887817383,0.0477106422185897,-79.78279927221855,40.45902275692757,267.90574817717084,0.0064937779679894,0.0062018390744924,-0.7492226362228394,0.6622573733329773,0.0023085188468191,-0.0080823593851645,0.0074928363308851,0.0019399567972868,0.0009928313083946,0.0045918002724647,-0.005597924409667,-0.1712757820822298,-9.808489079475404,14932.0
4.4,1.399999976158142,142.0,23.35575485229492,0.0318070948123931,-79.78279929451577,40.45902271689202,267.8989292120934,0.0064928513020277,0.0062150890007615,-0.7492244243621826,0.6622552275657654,0.0051246421420447,-0.0052338855624829,0.0086819708660756,0.0005712022539228,-0.0002324804809177,0.0054040658287703,-0.0043866023101145,-0.1774215529114008,-9.806158964037897,14932.0
4.61,1.399999976158142,143.0,23.340728759765625,0.055662415921688,-79.78279931332227,40.45902272003588,267.8908145463467,0.0064755394123494,0.0062070437707006,-0.7492285966873169,0.6622507572174072,-0.0020615886176599,-0.0037303880465862,0.0088970996829419,0.0011112266220152,-0.0005951442290097,-0.0044299229048192,-0.0074117866647429,-0.1821110564097762,-9.803916556835173,14932.0
4.7,1.399999976158142,141.0,23.35199737548828,0.055662415921688,-79.78279932117368,40.45902272361317,267.89265974223616,0.0064764404669404,0.0062063140794634,-0.7492313981056213,0.6622476577758789,-0.0017843180149984,-0.0036188007190699,0.0093374906421489,0.002345411106944,-0.0031650795135647,-0.0061667533591389,-0.0049862308491719,-0.1718219120241701,-9.808934052586556,14932.0
4.91,1.399999976158142,146.0,23.35199737548828,0.0397588685154914,-79.78279934205712,40.45902271717826,267.8846404886246,0.0064695733599364,0.0062027801759541,-0.7492330074310303,0.6622459292411804,-0.0039973061934385,-0.0025986597192252,0.0096615907544647,0.0004188139282632,0.0023173813242465,0.003196581499651,-0.0047253799351165,-0.1719056733883917,-9.808579126596449,14932.0
5.0,1.399999976158142,149.0,23.35325050354004,0.0318070948123931,-79.78279936509786,40.45902270023194,267.8771679884196,0.006472629494965,0.0062088551931083,-0.7492371797561646,0.6622410416603088,-0.0023110682963969,-0.0016535721033973,0.0100442951507496,-0.0025963173247873,-0.0019832251127809,0.0035015551839023,-0.0061537165328627,-0.177624743655324,-9.805547345280653,14932.0
5.2,1.399999976158142,148.0,23.34323310852051,0.0318070948123931,-79.78279936691874,40.45902270233473,267.87818318963053,0.006472629494965,0.0062088551931083,-0.7492371797561646,0.6622410416603088,-0.0023986203655698,-0.0018497379642425,0.0102079194559516,0.0013174419291317,-0.0002314933371962,-0.0015941761666908,-0.0098864767933264,-0.1807676403410733,-9.804251017570497,14932.0
5.3,1.399999976158142,146.0,23.354501724243164,0.0477106422185897,-79.78279941430637,40.459022666233416,267.8706942236424,0.0064934990368783,0.0062155378982424,-0.7492412328720093,0.662236213684082,0.0041815188494639,-0.0053753744924745,0.010489454657014,-0.0014133411459624,0.0046315328218042,0.0016015238361433,-0.0010840363803436,-0.1708140530437231,-9.809024684429168,14932.0
5.5,1.2999999523162842,143.0,23.35325050354004,0.0477106422185897,-79.7827994208737,40.45902266306836,267.8717449641228,0.0064919530414044,0.006213482003659,-0.749241292476654,0.662236213684082,0.0038977932084941,-0.0049510743257597,0.0106207406414478,0.0029138633981347,-0.0025744684971868,-0.0016852249391376,-0.0064695809525437,-0.1735137856006622,-9.806910331249238,14932.0
5.6,1.399999976158142,139.0,23.341981887817383,0.0477106422185897,-79.78279944810173,40.45902266842128,267.86366254448893,0.0064771892502903,0.0062064859084784,-0.7492462992668152,0.6622306704521179,-0.0024244200167034,-0.0036146023127349,0.0103873967322561,0.0007750851218588,-0.0030081677250564,-0.0040732133202254,-0.0125994615163654,-0.1766774581745267,-9.807263503074646,14932.0
5.81,1.399999976158142,138.0,23.348241806030277,0.055662415921688,-79.78279945196822,40.45902267069665,267.86472657680514,0.0064786709845066,0.0062083532102406,-0.7492506504058838,0.6622258424758911,-0.0021445394379463,-0.0033602894888101,0.0108263552061094,-0.0008515801164321,-0.0018846469465643,0.005255312193185,-0.0072994824370834,-0.171106706187129,-9.808875580430032,14932.0
5.9,1.2999999523162842,136.0,23.34323310852051,0.055662415921688,-79.78279949928545,40.45902265680427,267.85663088023665,0.0064832917414605,0.0062053301371634,-0.749251663684845,0.6622245907783508,-0.0009159407391466,-0.0056712636272931,0.0107407142245969,-0.0009262686944566,-0.0005322741344571,0.0035409370902925,-0.005620521842502,-0.1773537983000278,-9.804424095153813,14932.0
6.1,1.2000000476837158,141.0,23.3494930267334,0.0318070948123931,-79.7827995416921,40.45902263012567,267.8470957016945,0.0064979502931237,0.0062133553437888,-0.7492548823356628,0.6622207164764404,0.0041935368906257,-0.0074031153535407,0.0105222473954659,-0.0009772239718586,0.0060059837996959,-0.001207219902426,-0.0101369934389367,-0.1755469721183181,-9.807210293412211,14932.0
6.2,1.100000023841858,137.0,23.34573745727539,0.0795177370309829,-79.78279955997677,40.45902262340344,267.8492300397158,0.0064998101443052,0.0062136542983353,-0.7492583990097046,0.6622167229652405,0.0048121965556855,-0.0072951751233763,0.0110996401611161,-0.0035036643967032,0.003760541556403,0.0060388571582734,-0.0061277209769468,-0.1775500089302659,-9.806024478077893,14932.0
6.4,1.0,138.0,23.344486236572266,0.055662415921688,-79.7827995813592,40.459022612149006,267.8393822348118,0.0064928750507533,0.0062156617641448,-0.7492598295211792,0.6622151732444763,0.002775916229522,-0.0049033576941442,0.0104195327853161,0.0018354231724515,-0.0020630459766834,-0.0076364334672689,-0.0082110827718861,-0.1780262463726103,-9.804535776972774,14932.0
6.5,0.8999999761581421,137.0,23.348241806030277,0.0477106422185897,-79.78279963165019,40.45902261704045,267.83058847844603,0.0064873918890953,0.0062012621201574,-0.7492638230323792,0.6622108221054077,-0.0027443208376049,-0.008270240068361,0.0099319915816948,-0.0017517388332635,0.0025267347227782,-0.0017602709122002,-0.0044094064511591,-0.1722654050588608,-9.809139289855956,14932.0
6.7,0.8999999761581421,138.0,23.35199737548828,0.0318070948123931,-79.78279964090235,40.45902262013305,267.8315917885304,0.0064873918890953,0.0062012621201574,-0.7492638230323792,0.6622108221054077,-0.0028562574959382,-0.0081230670186233,0.0099726251030301,-0.0017062877304852,-0.0032524107955396,-0.0055384249426424,-0.0042658247589133,-0.1769021008908748,-9.80627415418625,14932.0
6.8,0.8999999761581421,140.0,23.35074615478516,0.0397588685154914,-79.78279967528923,40.45902261189284,267.8227171933651,0.0064866379834711,0.0062054363079369,-0.7492679357528687,0.66220623254776,-0.0021561225117746,-0.006611517654659,0.0100003672118453,0.0045104566961526,-0.0043434486724436,-0.0039197783917188,-0.0115621380507946,-0.1762018602713942,-9.806363616585733,14932.0
7.01,0.8999999761581421,142.0,23.35074615478516,0.0397588685154914,-79.7827996827793,40.4590226142404,267.82374769806864,0.0064851925708353,0.0062057040631771,-0.7492679953575134,0.6622061729431152,-0.0016616936204532,-0.0067177683810759,0.0104514715583133,0.001273424597457,-0.0004512054729275,0.005356041714549,-0.0071448784007225,-0.1720277522876858,-9.808402540683748,14932.0
7.1,0.8999999761581421,150.0,23.3494930267334,0.0397588685154914,-79.7827997349798,40.45902260216284,267.814743924737,0.006492898799479,0.0062063788063824,-0.7492728233337402,0.6622005701065063,-9.43267255065064e-05,-0.0084937763772477,0.0104649879019147,0.0011341355275362,-0.001387748750858,0.0061873216181993,-0.0091878601466305,-0.1763198643922806,-9.804065660834311,14932.0
7.3,0.8999999761581421,147.0,23.354501724243164,0.0397588685154914,-79.78279974516336,40.45902260305817,267.8157995527983,0.0064935060217976,0.006206814199686,-0.7492761015892029,0.6621968150138855,1.9087220687572148e-05,-0.0088974721152042,0.0106878603549071,0.0005228210939094,0.0036541023291647,0.0008727960521355,-0.0114243824465665,-0.1726577349565923,-9.806467697024344,14932.0
7.41,0.8000000119209291,144.0,23.348241806030277,0.0397588685154914,-79.78279979728067,40.45902261161627,267.8065224474669,0.0064883981831371,0.0061981067992746,-0.7492772340774536,0.66219562292099,-0.0037880811378135,-0.0100412270029431,0.0104097383293923,-0.0051178205758333,0.0034828372299671,0.002313288860023,-0.0080352003523148,-0.1771287353150546,-9.804304811954498,14932.0
7.6,0.8000000119209291,144.0,23.35700607299805,0.0397588685154914,-79.7827998180866,40.45902259901429,267.7960147893429,0.0064864251762628,0.006209397688508,-0.7492810487747192,0.6621913313865662,-0.0022699868005283,-0.006058415967408,0.0097763468443437,-0.0003520771278999,-0.0001931659935507,-0.007145398762077,-0.0023778490454424,-0.173720886670053,-9.808463351726534,14932.0
7.7,0.8999999761581421,148.0,23.34698867797852,0.055662415921688,-79.78279983154977,40.45902260383622,267.7980275934935,0.0064874151721596,0.0062091914005577,-0.7492851018905641,0.6621866822242737,-0.0020027715789094,-0.0061177514076939,0.0102006224288871,-0.0013492482248693,0.0032198089174926,0.0051728906109929,-0.0058938826003577,-0.1720365231111645,-9.806961202025413,14932.0
7.9,0.8999999761581421,148.0,23.35325050354004,0.0477106422185897,-79.7827998556462,40.45902259372309,267.787950668335,0.0064867222681641,0.0062123010866343,-0.7492862343788147,0.6621853709220886,-0.0016824676844756,-0.0045299477923083,0.0097246317583954,0.0021496515255421,-0.0044612884521484,-0.0019739510025829,-0.0030078051620512,-0.1776860663294792,-9.805750243663786,14932.0
8.1,0.8999999761581421,139.0,23.3494930267334,0.0318070948123931,-79.78279990241343,40.45902260251684,267.77865106970074,0.0064862691797316,0.0062034735456109,-0.7492907047271729,0.662180483341217,-0.004633930899877,-0.0076222078223355,0.0096989123779471,1.6042033166741018e-05,-0.0006416377145797,-0.0075300252065062,-0.0080160495790187,-0.173312513474375,-9.808913587331771,14932.0
8.2,0.8999999761581421,137.0,23.340728759765625,0.0397588685154914,-79.78279991066262,40.45902260715063,267.77963947862395,0.0064862691797316,0.0062034735456109,-0.7492907047271729,0.662180483341217,-0.0043571834393338,-0.0074596403272563,0.0098158621117458,-0.0002086611348204,-0.0045089004561305,0.0007159933447837,-0.0032309857889777,-0.1720451477542519,-9.807431318163871,14932.0
8.4,1.0,126.0,23.354501724243164,0.0318070948123931,-79.7827999432557,40.45902258890895,267.7701678013802,0.0064921407029032,0.0062181265093386,-0.7492957711219788,0.6621745824813843,0.0014594817651407,-0.0040801687781022,0.0096688703883895,0.0023785845842212,-0.0007921436335891,-0.0094215171411633,-0.0116577925602905,-0.1745186844281852,-9.80529591500759,14932.0
8.5,1.0,124.0,23.348241806030277,0.0397588685154914,-79.78279994834422,40.45902258767116,267.771150495708,0.0064910952933132,0.0062179677188396,-0.7492958307266235,0.6621745228767395,0.0019563944319978,-0.0041690884995547,0.0100130233584466,-0.0013670549960806,-5.850297748111189e-05,0.0036695080343633,-0.0048355719703249,-0.1715794901177287,-9.809243370294572,14932.0
8.6,1.0,126.0,23.354501724243164,0.0397588685154914,-79.78279997848014,40.4590225824221,267.7634494265914,0.0064897984266281,0.0062201935797929,-0.7493001222610474,0.6621696949005127,0.0014345062535376,-0.0027453800598348,0.0133008916792721,0.0013344410108402,-0.0024175713770091,0.0034945383667945,-0.0068840000778436,-0.1772126611322164,-9.80601453781128,14932.0
8.81,1.100000023841858,125.0,23.35325050354004,0.055662415921688,-79.78279998214292,40.459022581327226,267.76478777438405,0.0064904671162366,0.00621954863891,-0.7493045330047607,0.662164568901062,0.0013701436781519,-0.0030150487346922,0.0135984453330803,-0.0029435069300234,0.0009702956303954,0.0027214423753321,-0.0112075146997813,-0.1740361064113676,-9.808323018550873,14932.0
8.9,1.100000023841858,125.0,23.34323310852051,0.0397588685154914,-79.78280001522236,40.45902257689164,267.7556131219864,0.0064884000457823,0.0062197572551667,-0.7493051886558533,0.6621638536453247,0.0013656430533152,-0.0023458245768599,0.0126290275333804,-0.0013199476525187,-0.0022832853719592,0.0064891050569713,-0.0040174696987378,-0.1771900031715631,-9.803828263878822,14932.0
9.1,1.2000000476837158,129.0,23.34323310852051,0.0477106422185897,-79.78280006661826,40.45902257428013,267.74509386330845,0.0064954091794788,0.0062143933027982,-0.7493079900741577,0.6621606349945068,0.0010867228245646,-0.0065295446798133,0.0109524914723588,0.002061607548967,0.0014178990386426,-0.006369961425662,-0.0072982638864777,-0.1792981802299618,-9.804445145130158,14932.0
9.2,1.2999999523162842,127.0,23.35575485229492,0.0477106422185897,-79.78280008217071,40.45902257307844,267.7473368158937,0.0064958147704601,0.006214216351509,-0.7493112087249756,0.6621570587158203,0.0015121280765155,-0.0066144936301704,0.0115156308772108,-0.0029111492913216,0.0073681296780705,0.0019533445592969,-0.0023554954369319,-0.1702624596096575,-9.809068538546562,14932.0
9.4,1.2999999523162842,125.0,23.34573745727539,0.0397588685154914,-79.78280010998175,40.45902255793096,267.736764151454,0.0064975996501743,0.0062215845100581,-0.7493117451667786,0.6621564030647278,0.0040908113288758,-0.0042412409866225,0.0104732855670613,0.0011413741158321,-0.0001188642636407,-0.0042691025882959,-0.01013975716196,-0.1788639513775706,-9.802951181530954,14932.0
9.6,1.2999999523162842,131.0,23.35325050354004,0.0397588685154914,-79.78280016745876,40.45902256046156,267.7275092786551,0.0064994739368557,0.0062157432548701,-0.7493142485618591,0.6621535420417786,0.0028005373033432,-0.0076111002049457,0.0099204838264978,0.0010424323845654,-4.016212187707424e-05,-0.0016279707197099,-0.0068178089114371,-0.1707036868482828,-9.80812772154808,14932.0
9.7,1.2999999523162842,131.0,23.34323310852051,0.0477106422185897,-79.78280017665419,40.459022558565685,267.728502791226,0.0064994739368557,0.0062157432548701,-0.7493142485618591,0.6621535420417786,0.0028220739372742,-0.0073578595473882,0.0100481860881255,-0.000986504368484,-0.0023321274202317,-0.0003968168166466,-0.0084915275685489,-0.1749375095218419,-9.806086458563804,14932.0
9.8,1.2000000476837158,129.0,23.35575485229492,0.0477106422185897,-79.78280022885531,40.459022572584345,267.7196717372537,0.006496574729681,0.0062078828923404,-0.7493190765380859,0.6621481776237488,-0.000910108426218,-0.0091603346613144,0.0097440642771508,-0.0045668580569326,-0.0022028547246009,-0.0060443021357059,-0.0088266986492089,-0.1734140540286898,-9.80668112039566,14932.0
10.01,1.399999976158142,131.0,23.35325050354004,0.0477106422185897,-79.78280023933449,40.45902257418057,267.7206654956937,0.0064951763488352,0.0062078456394374,-0.7493191361427307,0.662148118019104,-0.0006961980433788,-0.0089140515006335,0.0100262821369455,-0.0008216994465328,0.0013616979122161,0.0016577792121097,-0.0061618706578155,-0.170566679276526,-9.807411437630655,14932.0
10.1,1.399999976158142,134.0,23.340728759765625,0.0477106422185897,-79.78280027768766,40.459022576712094,267.71182765424254,0.0064932187087833,0.0062131718732416,-0.7493229508399963,0.6621437668800354,-0.000471350955791,-0.0063619957502753,0.0097137892966502,0.0007782136090099,-0.0025229291059076,-0.0027993086259812,-0.0121671786904335,-0.1768881223909557,-9.805244459509847,14932.0
10.3,1.399999976158142,132.0,23.3494930267334,0.0477106422185897,-79.7828002853161,40.45902257749671,267.71281084775933,0.0064941029995679,0.006213198415935,-0.7493270039558411,0.6621392369270325,-7.584895122118573e-05,-0.0064072447151918,0.0099936019445816,-0.0051899752579629,0.0025368556380271,0.0047555700875818,-0.0116955310839694,-0.1730060097388923,-9.806257197260855,14932.0
10.4,1.2000000476837158,134.0,23.35325050354004,0.0238553211092948,-79.78280034675831,40.45902260205656,267.70398339614275,0.0064904345199465,0.0062026418745517,-0.7493276000022888,0.6621386408805847,-0.0044212468973916,-0.0092332561217931,0.0095381339680046,-0.0015733221080154,-0.0019636161159724,0.002351357601583,-0.0090459680941421,-0.1787525071017444,-9.802707352638246,14932.0
10.6,1.2000000476837158,132.0,23.35325050354004,0.0397588685154914,-79.78280037224245,40.45902261922362,267.69423923626545,0.006483509670943,0.0062050665728747,-0.7493313550949097,0.6621344685554504,-0.0070276953360213,-0.006076293927618,0.0092506074483565,-0.0029014425817877,0.0049865394830703,-0.000260889326455,-0.0112914987606927,-0.1767064018920064,-9.805070797204973,14932.0
10.81,1.100000023841858,137.0,23.35199737548828,0.0636141896247863,-79.78280038430745,40.459022632835406,267.6961194647849,0.0064841890707612,0.0062055196613073,-0.7493351101875305,0.6621301770210266,-0.0068040315294891,-0.0061356880205737,0.0093842156387467,-0.0076823397539556,0.0017629775684326,0.0073751099407672,-0.0063157021079678,-0.1752536246180534,-9.804769665598869,14932.0
10.91,1.100000023841858,135.0,23.3494930267334,0.0477106422185897,-79.78280041680549,40.459022634884526,267.6868908906728,0.006485566496849,0.0062101143412292,-0.7493356466293335,0.6621295213699341,-0.0049830986668474,-0.0043951559689897,0.0093184204645605,0.0020222763996571,-0.004035004414618,-0.0078318724408745,-0.0041214550629956,-0.1816045230813325,-9.805232765078545,14932.0
11.0,1.100000023841858,133.0,23.336973190307607,0.0477106422185897,-79.7828004531455,40.4590226422557,267.67897719316187,0.0064864414744079,0.0062148231081664,-0.7493396401405334,0.6621249318122864,-0.0032439744213124,-0.0032609873117716,0.0091845738106025,0.0008649977389723,-0.0018946182681247,-0.0049179382622241,-0.0058043796586571,-0.1714149275422096,-9.807683333158494,14932.0
11.2,1.0,131.0,23.34698867797852,0.0874695107340812,-79.7828004563993,40.45902264515129,267.67990973204377,0.0064912736415863,0.0062063662335276,-0.7493383288383484,0.6621264815330505,-0.002815611622237,-0.0029278664711608,0.009305148513391,0.0025606441777199,-0.0013561608502641,0.0033852814231067,-0.0066964300791732,-0.1703582077659666,-9.80813649237156,14932.0
11.31,1.0,135.0,23.35074615478516,0.0397588685154914,-79.78280051457595,40.45902264899858,267.67215257029983,0.0065089673735201,0.006205862853676,-0.7493333220481873,0.6621319651603699,-0.0011687076036049,-0.0066407272652392,0.0092757870008389,0.0019584482070058,-0.003574192058295,-0.0025372703094035,-0.011032766320277,-0.1777693160623312,-9.803984384536744,14932.0
11.5,1.0,138.0,23.35074615478516,0.0318070948123931,-79.78280052228466,40.45902265052408,267.6730995465443,0.0065143047831952,0.0062158941291272,-0.7493293285369873,0.6621363162994385,-0.0008955565381778,-0.0068480579345403,0.0096189486956086,-0.0015094141708686,0.0020360322669148,0.0033541307784616,-0.008490620793309,-0.1719106435216963,-9.807845301032067,14932.0
11.6,0.8000000119209291,139.0,23.341981887817383,0.0318070948123931,-79.78280056243521,40.45902263808393,267.6655274111219,0.0065321023575961,0.0062351068481802,-0.7493418455123901,0.6621218323707581,0.0035343227460853,-0.0042730215525174,0.0095039504748551,-0.0014313289429992,-0.0010577235370874,0.0042408015578985,-0.0070521977485623,-0.1796506211534142,-9.804760310053826,14932.0
11.81,0.8999999761581421,139.0,23.34323310852051,0.055662415921688,-79.7828005679175,40.4590226353656,267.66645966408777,0.0065304175950586,0.0062445336952805,-0.7493534088134766,0.6621086001396179,0.0033286728738473,-0.0043807474255237,0.0093288070480537,0.0030138508882373,-0.0021078998688608,-0.004950470291078,-0.0073673963622422,-0.1786280344985425,-9.80699979364872,14932.0
12.0,0.8000000119209291,141.0,23.35199737548828,0.0477106422185897,-79.78280062793216,40.45902265462888,267.6575403151475,0.0065394039265811,0.0062655336223542,-0.7493332028388977,0.6621311902999878,0.0005561221983299,-0.0068808805463784,0.0066032430837695,0.0011173353996127,0.0039198328740894,0.0010486490791663,-0.0055726734601194,-0.1733300733938813,-9.808295536637306,14932.0
12.1,0.8999999761581421,144.0,23.35199737548828,0.0318070948123931,-79.78280066265202,40.45902266174429,267.649424164407,0.0065416893921792,0.0062712240032851,-0.7493472099304199,0.6621153354644775,0.0002041134054687,-0.0044114778856949,0.0073900988996233,-0.0001301177544519,-0.0026064710691571,-0.0025370004586875,-0.0072438882070127,-0.1747129398956895,-9.803925327658655,14932.0
12.3,0.8999999761581421,144.0,23.348241806030277,0.0397588685154914,-79.78280067336998,40.45902266144181,267.650937772207,0.0065402272157371,0.0062758182175457,-0.749345064163208,0.6621177196502686,0.0005919767649435,-0.0045644050807656,0.0076241410074669,-0.0005231905961409,0.0001242288271896,-0.0093099642544984,-0.0097281108959577,-0.1751836773008108,-9.80776636362076,14932.0
12.4,0.8999999761581421,142.0,23.348241806030277,0.0397588685154914,-79.78280073001031,40.45902269924376,267.6411004009098,0.0065342281013727,0.0062606986612081,-0.7493443489074707,0.6621187329292297,-0.0067794488817996,-0.0078933492093796,0.003994722519143,-0.0029107411392033,-0.003283088793978,0.0002570727083366,-0.0041434609220596,-0.1734230623953044,-9.809098944067957,14932.0
12.5,1.0,138.0,23.344486236572266,0.0397588685154914,-79.78280077604566,40.45902270664578,267.63386724688115,0.0065357713028788,0.0062676118686795,-0.7493482828140259,0.6621142029762268,-0.0037529712970343,-0.0049379660554819,0.0058742503374342,0.0044980393722653,-0.0008938474347814,-0.0025338733103126,-0.011369231325807,-0.1750368390977382,-9.805714575648306,14932.0
12.7,1.0,133.0,23.35325050354004,0.0397588685154914,-79.78280078144415,40.4590227103884,267.6344754172862,0.0065357713028788,0.0062676118686795,-0.7493482828140259,0.6621142029762268,-0.0033859911767517,-0.0050288578338709,0.0062051953774029,-0.0005288014071993,-0.0044717472046613,0.0038073130417615,-0.0079589278780622,-0.1716312562488019,-9.808471537828446,14932.0
12.8,1.0,131.0,23.354501724243164,0.0397588685154914,-79.78280087304698,40.4590227023609,267.6279392315448,0.0065513448789715,0.0062670214101672,-0.7493508458137512,0.6621111035346985,0.0037402830153115,-0.0107429142526453,0.0077387547818496,0.0017011117888614,-0.0023856395855546,0.0050972932949662,-0.0069832828303333,-0.1739441589452326,-9.804708854556084,14932.0
13.0,1.0,129.0,23.34573745727539,0.0477106422185897,-79.78280088660621,40.45902270023194,267.62870391815903,0.0065511064603924,0.0062658311799168,-0.7493508458137512,0.6621111035346985,0.0038811964220995,-0.0112762187000016,0.0078303288378478,0.0005760226631537,0.0036174170672893,0.0018727271817624,-0.0106683146220166,-0.1752081990614533,-9.804577876925473,14932.0
13.1,1.100000023841858,126.0,23.35325050354004,0.055662415921688,-79.78280093011158,40.4590227055077,267.6228371112049,0.006545431446284,0.0062701273709535,-0.7493557929992676,0.6621056199073792,0.002953317103541,-0.0067312385796506,0.0086035989339048,0.0002328532864339,0.0032811104319989,0.0062989722937345,-0.004255536457349,-0.1731423229537904,-9.805444434285164,14932.0
13.3,1.100000023841858,122.0,23.35700607299805,0.0397588685154914,-79.7828009384162,40.45902270373247,267.62368594095113,0.0065448791719973,0.0062699895352125,-0.7493585348129272,0.6621025204658508,0.0027071003375348,-0.0069371527925366,0.0084667904682178,0.000771659775637,-0.0018777207005769,-0.0054920348338782,-0.0082707780471537,-0.1803863105177879,-9.804625239372251,14932.0
13.4,1.2000000476837158,117.0,23.35325050354004,0.0318070948123931,-79.78280100523462,40.45902273067383,267.61832520350816,0.0065407268702983,0.0062588052824139,-0.7493588924407959,0.6621022224426271,-0.002412835785505,-0.0093359912556699,0.0089894735169968,0.0007770296069793,0.0045707803219556,-0.0005143793532624,-0.0054669975995784,-0.1709557018429041,-9.808825879096986,14932.0
13.6,1.2999999523162842,111.0,23.3494930267334,0.0397588685154914,-79.7828010569016,40.45902271718832,267.61249155536296,0.0065508740954101,0.006266713142395,-0.7493619918823242,0.6620985865592957,0.0043468743694827,-0.0091098693699751,0.009111484974314,0.0048715244047343,-0.0052120354957878,-0.0040730447508394,-0.0057855926232878,-0.1761962871439755,-9.803870948553088,14932.0
13.8,1.399999976158142,99.0,23.344486236572266,0.0397588685154914,-79.78280107987929,40.45902271066028,267.6143285891414,0.0065499213524162,0.0062669273465871,-0.7493647933006287,0.6620954275131226,0.0046479256896492,-0.009285913935943,0.0092406398163887,-0.0005209001246839,-0.001658126944676,-0.0099707646295428,-0.0091234865278238,-0.1731010635383427,-9.807771626114846,14932.0
13.9,1.5,103.0,23.3494930267334,0.0397588685154914,-79.78280111837563,40.459022715624855,267.6089306211472,0.0065457625314593,0.0062677883543074,-0.7493650317192078,0.6620951890945435,0.0036758856331981,-0.0064633888017549,0.0095920741999552,-0.0001889095874503,-0.0006248815916478,0.0029878860805183,-0.0065508977923309,-0.1726963265798986,-9.808313078284264,14932.0
14.1,1.600000023841858,104.0,23.35074615478516,0.0318070948123931,-79.78280116922303,40.45902273394477,267.60357463344934,0.0065370029769837,0.0062629170715808,-0.749367356300354,0.6620926856994629,-0.0017516512255985,-0.0048936299144521,0.0053749735509569,0.0023561508860439,-0.0026048084255307,-0.0055481912568211,-0.0110411625565029,-0.1755157260596752,-9.805343277454378,14932.0
14.21,1.5,101.0,23.338224411010746,0.0318070948123931,-79.78280117479108,40.459022735733406,267.6041275261343,0.0065370029769837,0.0062629170715808,-0.749367356300354,0.6620926856994629,-0.0011622215250797,-0.0049700374070282,0.0056215790219005,-0.0035950634628534,0.0010835290886461,0.0021177388262003,-0.0107182889012619,-0.1735042290575802,-9.806111016869542,14932.0
14.3,1.600000023841858,102.0,23.35325050354004,0.0397588685154914,-79.78280129257303,40.45902277360525,267.5990545189381,0.0065466458909213,0.0062380158342421,-0.7493700385093689,0.6620897054672241,-0.0063719903025236,-0.0196100084905084,0.002989568201515,0.0015881729777902,-0.0010113653261214,0.0025766950566321,-0.0080524821864673,-0.1752602027356624,-9.80578942000866,14932.0
14.5,1.600000023841858,102.0,23.35199737548828,0.0477106422185897,-79.7828013148863,40.45902278139658,267.5993714368344,0.0065466458909213,0.0062380158342421,-0.7493700385093689,0.6620897054672241,-0.0061974458777239,-0.0200170738673934,0.003141106457838,-0.0004893466248176,0.0051114289090037,0.003843268379569,-0.0109451083349995,-0.1765395369753241,-9.805262585878374,14932.0
14.6,1.600000023841858,106.0,23.3494930267334,0.0477106422185897,-79.78280141134988,40.4590227846176,267.5938214173913,0.0065532564185559,0.0062419278547167,-0.7493720054626465,0.6620874404907227,-0.0011839930760245,-0.0204421298748906,0.0014235580019701,-0.0050860499031841,0.0010654660873115,0.0039413459599018,-0.0049320241907844,-0.1748557215929031,-9.806140252947806,14932.0
14.8,1.600000023841858,106.0,23.340728759765625,0.0477106422185897,-79.78280143513027,40.45902278796958,267.59396037817004,0.0065529327839612,0.0062426566146314,-0.7493766546249391,0.6620821952819824,-0.0013417893148447,-0.0206393340666021,0.0013756965038058,-0.0004544585826806,-0.0020150747150182,-0.004085186868906,-0.0069100670109037,-0.1803413235023618,-9.80530351638794,14932.0
14.9,1.5,107.0,23.338224411010746,0.0397588685154914,-79.78280149387473,40.45902283623004,267.58891609668734,0.0065389140509068,0.0062377811409533,-0.7493770122528076,0.6620819568634033,-0.0089203283171025,-0.0165213624872789,0.0010241727505274,-0.0044946949928998,0.0025119534693658,0.0013805429916828,-0.0065703317901352,-0.1722836958803236,-9.807777473330498,14932.0
15.1,1.399999976158142,107.0,23.336973190307607,0.0397588685154914,-79.78280153573482,40.45902284165919,267.58410561442383,0.0065380563028156,0.0062499190680682,-0.7493798136711121,0.6620786190032959,-0.0051098505874542,-0.009691274535542,0.0003080230354746,0.0003733259218279,-0.0010286746546626,-3.904238110408188e-05,-0.0045177078485721,-0.1738676335103809,-9.806962956190109,14932.0
15.3,1.2999999523162842,109.0,23.341981887817383,0.0397588685154914,-79.78280155742318,40.459022852341015,267.5842087751627,0.0065374411642551,0.006249951198697,-0.7493842244148254,0.6620736122131348,-0.0047229284486131,-0.0099125202611237,0.0004293677919062,0.0007199653191491,-0.0019460845505818,-0.0044220201671123,-0.0070235132728703,-0.1739243697747588,-9.810042099952698,14932.0
15.4,1.2999999523162842,111.0,23.35074615478516,0.0397588685154914,-79.78280161984185,40.459022856083095,267.579781729579,0.0065416782163083,0.0062513407319784,-0.7493839263916016,0.6620739102363586,-0.0017651933130554,-0.0101676802156625,0.0003365199727671,0.0007917642942629,8.133093615469987e-06,0.003895403817296,-0.0048303802823647,-0.1711745704337954,-9.809019421935082,14932.0
15.5,1.100000023841858,115.0,23.348241806030277,0.055662415921688,-79.78280169045304,40.459022896385285,267.5757615229488,0.0065357075072824,0.0062414910644292,-0.7493875622749329,0.6620699763298035,-0.0087929185616635,-0.0116013868441822,-0.0001316640038399,0.0037618514616042,-0.002946204971522,0.0048998184502124,-0.0087042206089245,-0.1754441890306771,-9.80723602116108,14932.0
15.71,1.100000023841858,109.0,23.35325050354004,0.0397588685154914,-79.78280170292396,40.45902290554661,267.57577000916007,0.0065357075072824,0.0062414910644292,-0.7493875622749329,0.6620699763298035,-0.0086347160159128,-0.0120283566504676,4.474828328628265e-05,-0.0022604849655181,0.0056867394596338,0.0068692024797201,-0.0138839394785463,-0.1765997998416424,-9.804825214147568,14932.0
15.9,1.100000023841858,109.0,23.338224411010746,0.0477106422185897,-79.78280175973771,40.45902290182008,267.5732874310017,0.0065408311784267,0.0062524564564228,-0.7493909597396851,0.6620660424232483,-0.0010134720668697,-0.0085168882623139,0.0025411491212061,-0.00244773295708,0.0026438559871166,0.0042574321851134,-0.0043400929629569,-0.1778161668777466,-9.804484906196596,14932.0
16.0,1.100000023841858,108.0,23.35199737548828,0.0397588685154914,-79.78280176967439,40.4590229039128,267.57354518383744,0.0065403161570429,0.0062513477168977,-0.7493909597396851,0.6620660424232483,-0.0012637960685853,-0.0088243470700417,0.0024949997083663,0.0016063520452007,-0.0030583976767957,-0.0072936150245368,-0.0065997825708473,-0.1767516629956662,-9.805685339570044,14932.0
16.1,1.100000023841858,115.0,23.35199737548828,0.055662415921688,-79.7828018413641,40.45902290777445,267.5726499295235,0.0065444326028227,0.0062516573816537,-0.7493954300880432,0.6620609164237976,0.0002669524149425,-0.0099274628414181,0.0063497715908904,-0.0019564777612686,0.0015648449771106,-0.0006829261546954,-0.0074504405289189,-0.1729434993490576,-9.808879088759422,14932.0
16.3,1.2000000476837158,119.0,23.34323310852051,0.055662415921688,-79.78280185284045,40.45902290828076,267.5732846295834,0.0065442658960819,0.0062525789253413,-0.7493985891342163,0.6620573401451111,0.000471444675375,-0.0097601388824804,0.0062748231037475,-9.142718045040964e-05,-0.0017901954706758,0.0012458909768611,-0.0038541533681564,-0.1740894622541964,-9.806157794594766,14932.0
16.4,1.2000000476837158,116.0,23.3494930267334,0.0477106422185897,-79.78280189822455,40.45902293593709,267.57226218640807,0.0065360506996512,0.0062508843839168,-0.7493993043899536,0.6620566844940186,-0.0039044092233351,-0.0065838225439167,0.0078374452479036,0.003588555380702,-0.0027723342645913,-0.010062682442367,-0.0113974452833645,-0.1756559130549431,-9.80872530698776,14932.0
16.6,1.2000000476837158,117.0,23.3394775390625,0.0477106422185897,-79.78280194166103,40.45902294156672,267.570502538085,0.0065352893434464,0.0062544383108615,-0.7494019865989685,0.6620535254478455,-0.0017251007807619,-0.0037006467517413,0.0087769913703653,-0.0009387073805555,-0.0032285708002746,0.0043572881259024,-0.0051550709141884,-0.171795398555696,-9.80813766181469,14932.0
16.8,1.2000000476837158,115.0,23.3494930267334,0.0477106422185897,-79.78280195051958,40.45902294504176,267.5722592434288,0.0065353326499462,0.0062542646192014,-0.749406099319458,0.662048876285553,-0.0014288968427395,-0.003894857644328,0.0088512488295136,0.0033705187961459,-0.0012705316767096,-0.0002696915762498,-0.0054234758141683,-0.1739125291630625,-9.80712492406368,14932.0
16.91,1.2000000476837158,117.0,23.348241806030277,0.0477106422185897,-79.78280199891378,40.45902295202056,267.57058000177153,0.0065357238054275,0.0062548657879233,-0.749406099319458,0.6620488166809082,-0.0006723172605996,-0.0032479275295313,0.0093682878025495,-0.0026924849953502,0.0071184169501066,0.0017342795617878,-0.0116985711792949,-0.1757176925428212,-9.80666767179966,14932.0
17.0,1.2000000476837158,117.0,23.3494930267334,0.0397588685154914,-79.78280206196544,40.45902297206551,267.57001942753794,0.0065360683947801,0.0062461807392537,-0.7494099736213684,0.6620445847511292,-0.0035230549155846,-0.0067726633801739,0.0095930408493495,-0.0027826463337987,0.0025103169027715,0.0067168292589485,-0.0061064842779887,-0.1726344557292759,-9.805381869077683,14932.0
17.21,1.2000000476837158,114.0,23.35074615478516,0.0397588685154914,-79.78280206920033,40.459022975796046,267.57098082065585,0.0065360683947801,0.0062461807392537,-0.7494099736213684,0.6620445847511292,-0.0035421728476117,-0.0065942096376622,0.0095286603855132,0.0028558755293488,-0.0051303007639944,-0.0068728043697774,-0.0053045455034589,-0.1749332154728472,-9.804966132044791,14932.0
17.31,1.2000000476837158,106.0,23.3494930267334,0.0795177370309829,-79.78280213924619,40.45902297135832,267.570631172359,0.0065447553060948,0.0062497179023921,-0.7494128346443176,0.6620411872863771,0.0023688426943003,-0.0077800515340575,0.0098118351524753,0.0031302510760724,-0.0043946523219347,-0.0067596440203487,-0.0106144037505146,-0.1730997113697231,-9.807663452625276,14932.0
17.5,1.2000000476837158,109.0,23.3494930267334,0.0397588685154914,-79.78280214894097,40.45902296987215,267.57162247210744,0.0065434868447482,0.0062495740130543,-0.7494128942489624,0.6620411276817322,0.002701802067318,-0.0081107377266685,0.0100926379696604,-0.0048050303012132,0.0014850371517241,0.0017842494416981,-0.0099016955425031,-0.1751924298517406,-9.808468029499055,14932.0
17.6,1.2000000476837158,108.0,23.3494930267334,0.0397588685154914,-79.78280222173133,40.45902299453759,267.57129738092425,0.0065408768132329,0.0062421043403446,-0.749415934085846,0.6620377898216248,-0.0022610748820096,-0.0102319898503315,0.0101259547705805,0.0001193434582091,0.0056136851198971,0.0046348120085895,-0.0055547806376125,-0.1764960483089089,-9.804990105628969,14932.0
17.81,1.2000000476837158,107.0,23.34573745727539,0.0477106422185897,-79.78280223326585,40.45902299757515,267.5723035669327,0.0065409382805228,0.0062422393821179,-0.749419629573822,0.6620336174964905,-0.0023834969665993,-0.0099785483680906,0.0099293614760315,-0.0003187895636074,-0.0068594999611377,-0.0052012084051966,-0.0076197745237732,-0.1782700569927692,-9.803899015188216,14932.0
17.9,1.2000000476837158,106.0,23.348241806030277,0.0477106422185897,-79.78280230249936,40.45902297779176,267.57201889514926,0.006547356955707,0.0062460922636091,-0.7494193315505981,0.6620339155197144,0.0036947104770814,-0.0098226056702034,0.0099187116111397,0.003367930650711,-0.0056989430449903,0.0009356678929179,-0.0122981254861224,-0.1764451227150857,-9.805915135145188,14932.0
18.1,1.100000023841858,104.0,23.35199737548828,0.0636141896247863,-79.78280235830978,40.45902298985656,267.5710176712275,0.0065449965186417,0.0062413467094302,-0.7494230866432191,0.6620296835899353,-4.290631527699737e-05,-0.010898221369572,0.0099986297822475,-0.0005192996468394,0.0045116930268704,0.0055614430457353,-0.0115009706933051,-0.1765467546321451,-9.806363031864167,14932.0
18.3,1.100000023841858,101.0,23.34573745727539,0.0318070948123931,-79.7828023836381,40.45902299191561,267.57301503032454,0.0065454435534775,0.0062418743036687,-0.7494276165962219,0.6620244979858398,0.000153762531681,-0.0109552381989336,0.010186724197233,-0.0019661732949316,0.0063035148195922,0.0081950835883617,-0.0067527500720461,-0.1760844408720731,-9.806587564945222,14932.0
18.41,1.100000023841858,99.0,23.34698867797852,0.0477106422185897,-79.78280243692572,40.45902299204819,267.57230331361296,0.0065466500818729,0.0062416270375251,-0.7494274973869324,0.6620246171951294,0.0005236382876336,-0.0108167727942676,0.0099060894688101,0.004929740447551,-0.0033374004997313,-0.0049522574990987,-0.006660173916025,-0.1750452444702387,-9.804683126807213,14932.0
18.5,1.2000000476837158,98.0,23.33446884155273,0.0318070948123931,-79.78280248802646,40.45902297870869,267.5737838557364,0.0065473215654492,0.0062489146366715,-0.7494320869445801,0.6620193719863892,0.0037535050151658,-0.0072269808399917,0.013409334943449,0.0028002194594591,-0.0008678377489559,-0.0072280699387192,-0.0109376439987681,-0.1741875127516687,-9.808914756774902,14932.0
18.71,1.2000000476837158,97.0,23.35199737548828,0.0397588685154914,-79.78280249737236,40.45902297566306,267.5751291623712,0.0065473215654492,0.0062489146366715,-0.7494320869445801,0.6620193719863892,0.0043121465974978,-0.0074612551999661,0.0137066984194418,-0.0012945441994816,0.0037852397654205,0.0054546450264751,-0.0103266499342862,-0.174657811615616,-9.808535272479055,14932.0
18.8,1.2000000476837158,99.0,23.35325050354004,0.0477106422185897,-79.78280253902672,40.45902297114951,267.5772851219773,0.0065434388816356,0.0062496541067957,-0.7494364380836487,0.6620144844055176,0.00302634773872,-0.0050078233326475,0.0161859522636614,-0.0029125865548849,0.0011668344959616,0.0040562734939157,-0.0074646285921335,-0.1791258335486054,-9.806107508540157,14932.0
19.0,1.100000023841858,101.0,23.336973190307607,0.0397588685154914,-79.78280254543206,40.45902296899251,267.5788998565078,0.0065426989458501,0.006248427554965,-0.7494364380836487,0.6620144844055176,0.0026572692323774,-0.0051364689605969,0.0161930245580121,0.0012958969455212,-0.0016908778343349,-0.0077160643413662,-0.0075817813264438,-0.177685463335365,-9.80529591500759,14932.0
19.1,1.100000023841858,104.0,23.34323310852051,0.0477106422185897,-79.78280260680908,40.45902296555384,267.5792665368319,0.0065457033924758,0.0062457942403852,-0.7494392991065979,0.6620112657546997,0.0023225458953073,-0.0075777936930037,0.0137920593095372,0.0007444700459018,-0.0023941916879266,-0.0081880185753107,-0.004758026698837,-0.171770346891135,-9.808153449296954,14932.0
19.3,1.100000023841858,102.0,23.34323310852051,0.0477106422185897,-79.78280261614972,40.4590229637056,267.58065916955474,0.0065458067692816,0.0062466417439281,-0.7494432926177979,0.6620067954063416,0.0028900470553084,-0.0075476103335,0.0141030444252784,-0.0008825254626572,-0.002025059890002,0.0022291592322289,-0.0056209324038354,-0.1710084546916186,-9.809413524270056,14932.0
19.5,1.0,99.0,23.338224411010746,0.055662415921688,-79.78280262714983,40.45902295685174,267.5832119843364,0.0065370621159672,0.0062511037103831,-0.7494442462921143,0.6620057225227356,0.0018086918945318,-0.001045028713652,0.0165191337905616,0.0008767887484282,-0.0013887097593396,0.0050824210047721,-0.0065414200496161,-0.1777913710288703,-9.8037832403183,14932.0
19.61,1.0,99.0,23.34323310852051,0.0477106422185897,-79.78280268284043,40.45902293585189,267.58223475128415,0.0065476754680275,0.0062518422491848,-0.749446451663971,0.6620031595230103,0.006743192728736,-0.0055315783708674,0.013356429875626,-0.0020052979234606,0.0061613307334482,-0.0003245395200792,-0.0049408823798876,-0.1769357406534254,-9.807080485224724,14932.0
19.71,0.8999999761581421,99.0,23.33446884155273,0.0477106422185897,-79.78280269757762,40.45902292439121,267.584913726747,0.0065474295988678,0.0062513784505426,-0.7494494915008545,0.6619997024536133,0.0069237340904276,-0.0058546428939542,0.013616303707028,-0.0040221894159913,0.0006638041813857,-0.001528458436951,-0.0046184301353059,-0.1691923643276095,-9.810085369348524,14932.0
19.9,0.8999999761581421,98.0,23.34698867797852,0.0477106422185897,-79.78280272323481,40.45902293980115,267.5841036847234,0.0065382746979594,0.0062453197315335,-0.7494493126869202,0.6620000600814819,-0.0006448894374859,-0.0038177275666827,0.0117752360303649,0.001052395440638,-0.0016996811609715,0.0004516276530921,-0.0064931633899686,-0.1725766048394143,-9.807365829348564,14932.0
20.0,0.8000000119209291,98.0,23.34698867797852,0.0715659633278846,-79.78280276911781,40.45902292948379,267.58477089166644,0.0065416079014539,0.0062447120435535,-0.7494513392448425,0.6619976758956909,0.0002044139980772,-0.0059551790033244,0.0112425209881629,0.0022749642375856,-0.0021780487149953,0.002011053962633,-0.0129766057839151,-0.1769705864042043,-9.806320931911468,14932.0
20.2,0.8000000119209291,98.0,23.34323310852051,0.055662415921688,-79.78280277635272,40.45902292963179,267.58590472847226,0.0065416079014539,0.0062447120435535,-0.7494513392448425,0.6619976758956909,0.0007448367157351,-0.0061543580951951,0.0114785055294681,-0.0006803246797062,0.0045259287580847,0.0046738348901271,-0.0126419177837669,-0.1735937828198075,-9.807523704171182,14932.0
20.3,0.699999988079071,97.0,23.34573745727539,0.055662415921688,-79.78280278365824,40.45902292961744,267.5870403161645,0.0065407380461692,0.0062448279932141,-0.749454915523529,0.6619936227798462,0.0003991216426897,-0.0062223872942699,0.011247459683971,0.0003367966564837,-0.0007595494389533,-0.0033952484373003,-0.0055996711511397,-0.1785729975812137,-9.803099116086964,14932.0
20.5,0.6000000238418579,101.0,23.33572196960449,0.0477106422185897,-79.78280281163549,40.45902291974707,267.5872550418973,0.006538666319102,0.0062459385953843,-0.7494547367095947,0.6619938015937805,0.0005653513734416,-0.0039639560090964,0.0106384365136171,-0.0014302595518529,0.0004306258924771,-0.0086030540987849,-0.0066399199375882,-0.1765320817753672,-9.805608156323434,14932.0
20.6,0.6000000238418579,102.0,23.336973190307607,0.0477106422185897,-79.78280286663845,40.4590229102668,267.5853138750792,0.0065433857962489,0.0062438054010272,-0.7494564652442932,0.6619918346405029,0.0013715093769485,-0.0072304153119111,0.0060180764853372,-0.0030111030209809,-0.0002838833024725,-0.0013167256256565,-0.0055681270215427,-0.1719354210980236,-9.808836988806725,14932.0
20.8,0.6000000238418579,102.0,23.35199737548828,0.055662415921688,-79.78280287513091,40.45902290955868,267.5859237870574,0.0065430277027189,0.0062446435913443,-0.7494602203369141,0.6619876623153687,0.0015779557439914,-0.0070391577136365,0.0060912009560985,0.0011128394398838,-0.0030472408980131,0.0014901935355737,-0.0097966877720318,-0.1756719015352428,-9.806349583268164,14932.0
20.9,0.5,108.0,23.34698867797852,0.055662415921688,-79.78280290002598,40.45902291682612,267.5835217049718,0.0065366784110665,0.0062423632480204,-0.7494596242904663,0.661988377571106,-0.0029843755132993,-0.0051539526422103,0.0035225085690818,-0.0033030752092599,0.0036327489651739,0.0036688863765448,-0.0113999451964627,-0.1754680895246565,-9.806375311017035,14932.0
21.11,0.5,106.0,23.3494930267334,0.0397588685154914,-79.78280294413497,40.4590229172244,267.582077216208,0.006537368055433,0.0062377890571951,-0.7494616508483887,0.6619861721992493,-0.004466663499358,-0.0076093114824888,0.0022859322032401,0.0023269085213541,0.0009243645472452,0.0042307376861572,-0.0143082406267058,-0.1738037709519267,-9.80702084362507,14932.0
21.2,0.5,107.0,23.34573745727539,0.0397588685154914,-79.78280295243415,40.45902292205022,267.5823110228777,0.006537368055433,0.0062377890571951,-0.7494616508483887,0.6619861721992493,-0.0045658305653691,-0.0077962419117306,0.0021766953114034,0.0054844878613948,-0.0046461257152259,-0.0064680292271077,-0.0052910352376056,-0.177583959326148,-9.806438460946085,14932.0
21.4,0.5,107.0,23.34698867797852,0.0318070948123931,-79.78280299767522,40.45902292369219,267.58240950465205,0.0065380572341382,0.0062352502718567,-0.7494657635688782,0.6619815826416016,-0.0061231113297725,-0.0096668328895286,0.00545036929087,0.0012477815616875,-0.001419307780452,-0.0087425233796238,-0.0061191048991167,-0.1695841277763247,-9.809883640408517,14932.0
21.5,0.5,111.0,23.33572196960449,0.0397588685154914,-79.78280300807943,40.45902292995883,267.5829726344347,0.0065367156639695,0.0062346286140382,-0.7494657635688782,0.661981463432312,-0.005630996994132,-0.0095305177812718,0.0055692612587524,0.0006664507091045,-0.0012987356167286,0.0056791719980537,-0.0062216207507299,-0.1719133478589356,-9.808469198942182,14932.0
21.7,0.6000000238418579,111.0,23.348241806030277,0.0477106422185897,-79.78280303570705,40.45902288898111,267.5834114587307,0.0065439557656645,0.0062476857565343,-0.7494699954986572,0.6619765758514404,0.0032580660979012,-0.0057687429667095,0.0069893838117618,0.0037786061875522,-0.0019451803527772,-0.0015678661875426,-0.0083798034943174,-0.1761724780127406,-9.80579409778118,14932.0
21.8,0.6000000238418579,117.0,23.34323310852051,0.0397588685154914,-79.78280304328524,40.45902288649064,267.58411671578887,0.0065441820770502,0.0062472489662468,-0.7494734525680542,0.6619725823402405,0.0036575753271489,-0.0061334261363269,0.0072475971576564,-0.0012552207335829,0.0019499907502904,0.0062679150141775,-0.0121776591392699,-0.1756833401508629,-9.80790143430233,14932.0
22.0,0.699999988079071,115.0,23.340728759765625,0.0477106422185897,-79.78280308786786,40.459022910007135,267.58249912768605,0.0065372604876756,0.0062360512092709,-0.7494727969169617,0.6619734764099121,-0.0051351565974203,-0.0093092705515244,0.0040775051506825,3.4169581340393045e-05,0.0008668611408211,0.0027312110178172,-0.0062781691504642,-0.173808795902878,-9.810361357927324,14932.0
22.1,0.699999988079071,114.0,23.344486236572266,0.0318070948123931,-79.78280310693418,40.45902287895199,267.5823996177316,0.0065408516675233,0.0062440917827188,-0.749475359916687,0.6619704961776733,-0.0012090652152283,-0.0068175394604233,0.0055740027099038,0.0016377249266952,-0.0041787228547036,-0.0058565442450344,-0.0095905231707729,-0.1784369584545493,-9.804066830277442,14932.0
22.3,0.699999988079071,123.0,23.35199737548828,0.0477106422185897,-79.78280312267556,40.45902288190194,267.58352752387526,0.0065409168601036,0.0062440866604447,-0.7494782209396362,0.6619672179222107,-0.0008229181130861,-0.0071065960558087,0.0055829740128009,-0.0019102026708424,0.0014400865184143,0.0005014120833948,-0.0049510162213118,-0.171488529369235,-9.809169110655787,14932.0
22.4,0.8000000119209291,118.0,23.348241806030277,0.0318070948123931,-79.78280316505727,40.45902286075634,267.58460907995703,0.0065438491292297,0.0062437746673822,-0.7494785189628601,0.661966860294342,0.0006007903876419,-0.0087320401408569,0.0076325162373707,-0.0041444064117968,0.0011006330605596,0.0065157688222825,-0.0065527119138278,-0.174192117433995,-9.806140252947806,14932.0
22.6,0.8000000119209291,114.0,23.348241806030277,0.0397588685154914,-79.78280317338209,40.45902283623112,267.5850805824996,0.0065419971942901,0.0062490128912031,-0.7494825124740601,0.6619623899459839,0.0004061092449362,-0.0048789279155101,0.0085261379088105,0.0011327358661219,-0.0035173355136066,-0.0066598071716725,-0.0048427599342539,-0.178362059276551,-9.806171243190766,14932.0
22.7,0.8999999761581421,119.0,23.344486236572266,0.0477106422185897,-79.78280317936441,40.459022835951046,267.58594631016257,0.0065419971942901,0.0062490128912031,-0.7494825124740601,0.6619623899459839,0.0011060018154536,-0.00501814601651,0.008781551430801,-0.001196012366563,0.0003098064626101,0.0030889317858964,-0.0029562603001249,-0.1712057068571448,-9.80988071680069,14932.0
22.9,0.8999999761581421,116.0,23.35074615478516,0.0477106422185897,-79.78280319571083,40.459022806341686,267.58726749926814,0.0065404744818806,0.0062510832212865,-0.7494853734970093,0.6619592308998108,0.001364610725484,-0.0031793256750134,0.009334127159197,0.0012196763418614,-0.0022367772180587,0.0034000389277935,-0.0078904366545612,-0.1718838376924395,-9.807088671326635,14932.0
23.0,0.8999999761581421,117.0,23.34323310852051,0.055662415921688,-79.78280319982528,40.45902280548837,267.58819642275574,0.0065398202277719,0.006250471342355,-0.7494853734970093,0.6619592308998108,0.0014035667630147,-0.0036853845537139,0.009367060049258,-0.0008917383966036,0.0042209532111883,0.002147450344637,-0.0112393169291317,-0.1739727189391851,-9.80571574509144,14932.0
23.2,0.8999999761581421,120.0,23.3394775390625,0.0477106422185897,-79.78280323477321,40.4590227938268,267.589648116231,0.0065403641201555,0.0062456619925796,-0.7494882345199585,0.6619558930397034,-0.0018628681681494,-0.0066965379904218,0.0097750032990362,-0.0050568138249218,0.0038495897315442,0.0019591399468481,-0.0133618071035016,-0.1769637524709105,-9.805970683693888,14932.0
23.4,0.8999999761581421,120.0,23.33321762084961,0.055662415921688,-79.78280324923738,40.45902276411813,267.59103770911696,0.0065392712131142,0.0062507530674338,-0.7494927048683167,0.6619508862495422,-0.0003006438969038,-0.0039958191159438,0.0100403203954953,-0.0037802921142429,0.001109532546252,0.0055945049971342,-0.0074113903788384,-0.1742399366945028,-9.804881932139397,14932.0
23.5,0.8999999761581421,118.0,23.34698867797852,0.0397588685154914,-79.78280325397199,40.45902276484049,267.5920308789611,0.006538535002619,0.0062493621371686,-0.7494927048683167,0.6619508862495422,-0.0004314800178287,-0.0041290042118024,0.0098069066529738,0.0037510409019887,-0.0017146923346444,-0.0062358165159821,-0.003300474579446,-0.1797701601684093,-9.805039222240447,14932.0
23.6,1.0,117.0,23.348241806030277,0.0397588685154914,-79.78280326380451,40.45902271965907,267.5925076341629,0.0065426533110439,0.0062563670799136,-0.7494956254959106,0.66194748878479,0.0039383016397814,-0.0021823967961527,0.0101216139319738,-0.002236301312223,0.00218988629058,0.0034267960581928,-0.0047360488196136,-0.1726377813331782,-9.807627784609798,14932.0
23.8,1.0,115.0,23.35199737548828,0.0397588685154914,-79.78280327059845,40.459022712714095,267.5945113113524,0.0065427995286881,0.0062571852467954,-0.7494992613792419,0.6619433760643005,0.0042891280656641,-0.0023984207897337,0.0101296739053627,0.0041224770247936,-0.0052732513286173,0.0010693420190364,-0.0043903490391676,-0.1696373008936643,-9.808379151821136,14932.0
23.9,1.0,114.0,23.336973190307607,0.0397588685154914,-79.78280328012636,40.45902270372201,267.59603321909907,0.0065359496511518,0.0062513542361557,-0.7494993805885315,0.661943256855011,-0.0020628492968467,-0.0020539487306474,0.0099812874810098,0.0032226853072643,-0.0047526555135846,-0.001060910988599,-0.0111004569777287,-0.1743286864645779,-9.80655949831009,14932.0
24.1,1.100000023841858,116.0,23.344486236572266,0.0397588685154914,-79.78280330185636,40.45902266823838,267.59683176487687,0.0065408800728619,0.0062517635524272,-0.7495028376579285,0.6619393229484558,-0.0004612205304881,-0.0047170354939971,0.0101788735489389,-0.0017367644468322,0.0024409908801317,0.0056891506537795,-0.008068146900041,-0.1742701594904065,-9.80817216038704,14932.0
24.2,1.100000023841858,117.0,23.33446884155273,0.0397588685154914,-79.78280330734992,40.45902266906742,267.59783793225887,0.0065408800728619,0.0062517635524272,-0.7495028376579285,0.6619393229484558,-0.0005664609048189,-0.0048077246389824,0.0100191404586112,-0.001413494348526,-0.0014873837353661,-0.005369990132749,-0.0046528707494144,-0.1798457354307174,-9.80672555923462,14932.0
24.4,1.100000023841858,116.0,23.34698867797852,0.0397588685154914,-79.78280332049721,40.45902263063076,267.59980054557326,0.006541624199599,0.0062552643939852,-0.7495070099830627,0.661934494972229,0.0003901547558369,-0.0036994301710452,0.0100775605574542,-0.0034480837639421,0.0006999712786637,0.0035697442945092,-0.0114636821311432,-0.1768439941853284,-9.805133362412452,14932.0
24.5,1.100000023841858,121.0,23.33572196960449,0.0477106422185897,-79.78280332479083,40.459022630507576,267.6008085979521,0.006522649899125,0.0062464759685099,-0.7495068311691284,0.6619350910186768,0.0005252628545971,-0.003673380564062,0.0100486701702378,0.0039976369589567,-0.0021800543181598,-0.0003575579612515,-0.0050403375795576,-0.1748730256967246,-9.805728608965872,14932.0
24.7,1.100000023841858,119.0,23.3494930267334,0.055662415921688,-79.78280335956273,40.45902258784467,267.6028288750351,0.0065329046919941,0.0062466044910252,-0.7494921684265137,0.6619516015052795,0.0015153580692004,-0.0070991306780775,0.0102617792144051,0.0011713589774444,-0.0054773758165538,-0.0070798676460981,-0.0064250256260856,-0.1765406333282589,-9.805923321247102,14932.0
24.9,1.100000023841858,123.0,23.33321762084961,0.055662415921688,-79.78280337021394,40.45902254602691,267.6049032470584,0.0065463134087622,0.0062387520447373,-0.7495077252388,0.6619338393211365,0.0018134116389057,-0.004924219708565,0.0104536481797393,-0.0026035809423774,-0.0005301208584569,0.0002971866342704,-0.0078481859533349,-0.1729156885296106,-9.80896562755108,14932.0
25.0,1.100000023841858,123.0,23.3494930267334,0.055662415921688,-79.78280337608344,40.45902254471156,267.6059530115128,0.0065380302257835,0.0062470654956996,-0.7495167255401611,0.6619236469268799,0.0018881362138954,-0.0047847845256429,0.0104893823052604,0.0035640313290059,-0.0023531895130872,-0.0016913147410377,-0.0045050284126773,-0.1740666763857007,-9.808648708462716,14932.0
25.1,1.0,124.0,23.338224411010746,0.0477106422185897,-79.78280338001167,40.45902250328067,267.6070185078681,0.0065475618466734,0.0062455781735479,-0.7495202422142029,0.6619196534156799,0.0020354692311041,-0.0033327224733369,0.0104404713448844,0.0003425118047744,0.0001357962901238,0.0052093472331762,-0.00836927108292,-0.1734707354754209,-9.808423590660096,14932.0
25.3,1.0,125.0,23.348241806030277,0.0477106422185897,-79.78280338879432,40.45902250022056,267.6090946605802,0.006562057416886,0.0062451385892927,-0.7495326399803162,0.6619054675102234,0.0022978025047715,-0.0036078384867334,0.0104783989841106,-0.0043361047282814,0.0004647872410714,0.002186759840697,-0.0078980197623604,-0.1716286067292094,-9.806617385745051,14932.0
25.4,0.8999999761581421,126.0,23.33572196960449,0.0397588685154914,-79.78280341031106,40.4590224611222,267.6101997679472,0.0065582296811044,0.0062478017061948,-0.7495147585868835,0.661925733089447,0.0022303724578741,-0.0068199019415757,0.0103553267409716,-0.0011813505552709,0.0010992960305884,-0.0007934271707199,-0.0098192498018033,-0.1756949797645211,-9.804955607056618,14932.0
25.6,0.8999999761581421,125.0,23.344486236572266,0.055662415921688,-79.78280341996017,40.45902239415965,267.6126113197208,0.0065652565099298,0.0062587987631559,-0.7495219111442566,0.6619174480438232,0.0096021703456688,-0.0036210746922376,0.010807763650125,-0.0050218431279063,0.0053995586931705,0.0036176859866827,-0.012468141275458,-0.1744662422128022,-9.807315543293951,14932.0
25.7,0.699999988079071,128.0,23.348241806030277,0.0397588685154914,-79.7828034315323,40.45902237721373,267.61471712574365,0.0065651959739625,0.0062591368332505,-0.7495254874229431,0.6619133949279785,0.0100945755503973,-0.0038304128340728,0.0108779050977674,-0.0031929907854646,0.0028077827300876,0.0055969227105379,-0.0058274915779475,-0.1776861759647727,-9.804393689632416,14932.0
25.9,0.699999988079071,121.0,23.344486236572266,0.0954212844371795,-79.782803426596,40.45902238283208,267.61603700727227,0.0065519958734512,0.0062486324459314,-0.7495259046554565,0.6619131565093994,-0.004011166960706,-0.0034985558239063,0.0102111719763078,-0.0005802898667752,0.0024410290643572,-0.005225000437349,-0.0088175629457691,-0.1813093483261764,-9.80405864417553,14932.0
26.0,0.699999988079071,117.0,23.340728759765625,0.1431319266557693,-79.78280343003584,40.45902238643353,267.6170796005428,0.0065504997037351,0.0062483889050781,-0.7495259642601013,0.6619130969047546,-0.0034218900267277,-0.0032837650387318,0.0104689600470872,-0.0030034487135708,-0.002667139749974,0.0033954204991459,-0.0072701304423389,-0.1748060750775039,-9.808807168006895,14932.0
26.21,0.6000000238418579,115.0,23.33071327209473,0.1351801604032516,-79.78280345326971,40.45902236400103,267.61969602093103,0.0065529500134289,0.0062462035566568,-0.7495295405387878,0.6619089841842651,-0.0047137239891475,-0.006460801596342,0.0103864340029992,0.001023773686029,-0.001610011444427,0.0032838338520377,-0.0073258211743086,-0.1705661493726074,-9.807972770333286,14932.0
26.3,0.6000000238418579,111.0,23.3394775390625,0.1590354740619659,-79.78280345837463,40.45902234169454,267.6223757489026,0.0065497579053044,0.0062471502460539,-0.7495335340499878,0.6619045734405518,-0.0064298735688896,-0.0044045062546876,0.0102655822176468,0.0034607441630214,-0.0018524850020185,-0.0007108732825145,-0.0106224219733849,-0.178251418992877,-9.805828011631966,14932.0
26.5,0.6000000238418579,111.0,23.34698867797852,0.0397588685154914,-79.78280346292442,40.45902234786819,267.6234225703776,0.0065495050512254,0.0062471600249409,-0.7495335340499878,0.6619045734405518,-0.0063104047712006,-0.0048765862641372,0.0104803157086543,-0.0046155434101819,0.0032711613457649,0.0043333754874765,-0.0105275817343499,-0.1772258356399834,-9.806940736770631,14932.0
26.6,0.6000000238418579,105.0,23.3494930267334,0.0477106422185897,-79.78280346319463,40.45902229452828,267.62663317456844,0.0065550897270441,0.0062559931538999,-0.7495378255844116,0.6618995666503906,-0.0006897138525846,-0.0026742090761636,0.0137259058215012,0.0029516115318983,-0.0022068854887038,-0.0005145724862813,-0.0032475030311616,-0.174762093052268,-9.80747575700283,14932.0
26.8,0.699999988079071,108.0,23.33071327209473,0.1192766055464744,-79.78280346983607,40.45902229543287,267.6293992547691,0.0065546622499823,0.0062560010701417,-0.749541163444519,0.661895751953125,-0.0003237436327413,-0.0028574733583393,0.0138251817218894,0.0034007846843451,-0.0042232167907059,-0.0060035767965018,-0.0065291060646995,-0.1773828699253499,-9.805118744373322,14932.0
26.91,0.8000000119209291,100.0,23.341981887817383,0.1431319266557693,-79.78280349158752,40.45902227182472,267.63112805210056,0.006555282510817,0.0062500624917447,-0.7495407462120056,0.661896288394928,-0.0036071507036191,-0.0069634149162467,0.0122389744250263,4.551914389594458e-05,0.0010981026571244,0.0036190850660204,-0.0076713282364653,-0.1705922425724566,-9.808201981186867,14932.0
27.1,0.8000000119209291,101.0,23.32946014404297,0.1113248318433761,-79.78280351265309,40.45902224795609,267.634518833682,0.0065562231466174,0.0062484433874487,-0.7495439648628235,0.6618925929069519,-0.0048716444062738,-0.0083950305239333,0.0115880827782308,-0.0047498890198767,0.0005831376183778,0.002160576172173,-0.0038261523999972,-0.170258531011641,-9.809326985478402,14932.0
27.2,0.8999999761581421,107.0,23.338224411010746,0.1431319266557693,-79.78280353177037,40.459022258163145,267.63686689533296,0.0065557998605072,0.006249276921153,-0.7495481371879578,0.6618878841400146,-0.0046466377062558,-0.0087846742643976,0.0117465883434109,0.0069406456314027,2.9051121600787152e-05,-0.0051722093485295,-0.0121780440048314,-0.1774785998091101,-9.80646243453026,14932.0
27.41,1.0,107.0,23.338224411010746,0.1272283792495727,-79.78280352692894,40.45902221907955,267.6393510809541,0.0065557896159589,0.0062549896538257,-0.749548077583313,0.6618878841400146,-0.0022254716680787,-0.0059267064819846,0.0114939300718744,-0.0024085151962935,0.0054467930458486,0.0068937102332711,-0.0123445811576675,-0.1738908031024039,-9.807607904076576,14932.0
27.5,1.0,113.0,23.32445335388184,0.1749390214681625,-79.78280353354123,40.459022221674026,267.6404935008288,0.0065549472346901,0.0062535423785448,-0.7495481371879578,0.6618879437446594,-0.0024649571121153,-0.0059721460398505,0.0112806859492952,-0.002600101288408,-0.0029973024502396,-0.0059820599853992,-0.0044635822746204,-0.1796505663357675,-9.805012909770012,14932.0
27.71,1.100000023841858,117.0,23.32695770263672,0.1272283792495727,-79.78280356163269,40.45902218425736,267.64175330832603,0.0065600578673183,0.0062551498413085,-0.7495495080947876,0.6618862152099609,0.0004218245183679,-0.0083431495178431,0.0059155147103377,0.0001564404810778,0.0028435150161385,-0.0028003598563373,-0.0068688955320976,-0.1777964873425662,-9.807000963091848,14932.0
27.8,1.100000023841858,126.0,23.340728759765625,0.0636141896247863,-79.78280356673692,40.459022131096745,267.6456083597988,0.006561417132616,0.0062630330212414,-0.7495531439781189,0.6618821024894714,0.0046890411059379,-0.0049797576459014,0.0077263912660557,-0.0042426316067576,0.0030703442171216,0.0006510646198876,-0.0051464833872159,-0.1731382847204804,-9.808359271287918,14932.0
28.0,1.100000023841858,128.0,23.33196449279785,0.1590354740619659,-79.78280357317598,40.45902212735372,267.646369448714,0.0065605691634118,0.006262244656682,-0.7495531439781189,0.6618821024894714,0.0047472503832333,-0.0047996064100708,0.0076115562057755,0.0035339298192411,-0.0045851934701204,-0.0023667770437896,-0.0046918312498019,-0.1714304774813354,-9.80732957661152,14932.0
28.1,1.100000023841858,124.0,23.336973190307607,0.1351801604032516,-79.78280359738976,40.45902211815552,267.6488006728144,0.0065571833401918,0.0062555251643061,-0.7495558857917786,0.6618790626525879,-0.001926639053567,-0.0074976348818324,0.0052928982587098,0.0053963549435138,-0.0018427439499646,0.0021400856785476,-0.0121844782261177,-0.1749348051846027,-9.806555405259132,14932.0
28.3,1.2000000476837158,126.0,23.33572196960449,0.1431319266557693,-79.78280360605756,40.45902212055742,267.6493410773948,0.0065571488812565,0.0062556494958698,-0.7495590448379517,0.6618754863739014,-0.0016598192870714,-0.0078061439167351,0.0054114542037601,-0.0062676179222762,0.0050773909315466,0.004457700997591,-0.0126776497531682,-0.1758120519854128,-9.805912796258928,14932.0
28.4,1.2000000476837158,121.0,23.328208923339844,0.0477106422185897,-79.78280360957045,40.45902207174771,267.6541271734424,0.0065595358610153,0.0062627978622913,-0.7495602369308472,0.6618740558624268,0.0027349061291204,-0.0048646433354621,0.0105225890697131,0.0019668159075081,-0.0008208783110603,-0.0024964048061519,-0.0073508876853156,-0.1766285242885351,-9.80603909611702,14932.0
28.6,1.2000000476837158,121.0,23.33446884155273,0.055662415921688,-79.7828036146733,40.45902203643854,267.6586129420577,0.0065568792633712,0.0062659308314323,-0.749562680721283,0.6618713140487671,0.0017807817006687,-0.0028369883268828,0.0105466305604013,0.0008649810915812,-0.002959570614621,-0.0041493847966194,-0.0039355398720363,-0.1766780063509941,-9.80625953614712,14932.0
28.7,1.2000000476837158,115.0,23.34698867797852,0.0477106422185897,-79.7828036183517,40.4590220347292,267.6596781543014,0.0065568792633712,0.0062659308314323,-0.749562680721283,0.6618713140487671,0.0023063507312782,-0.0028453724439809,0.0108125677609836,-0.0051634996198117,0.0027542400639504,0.0028712500352412,-0.0090371972706634,-0.174312515258789,-9.808181515932084,14932.0
28.9,1.2000000476837158,116.0,23.33321762084961,0.055662415921688,-79.78280362812346,40.45902199905717,267.66418986473235,0.0065560340881347,0.006267293356359,-0.7495661973953247,0.6618672609329224,0.0024893538104929,-0.0017903144190784,0.0107507685133958,0.0002885845024138,0.0027237033937126,0.0037994692102074,-0.0075598080153577,-0.1816959406435489,-9.804558581113817,14932.0
29.0,1.399999976158142,110.0,23.341981887817383,0.0477106422185897,-79.78280365861151,40.45902198044123,267.66861098337915,0.0065495306625962,0.0062620472162961,-0.7495704889297485,0.6618624925613403,-0.001507563161616,-0.0058674776488824,0.0104692400195791,0.0054030702449381,-0.0041308416984975,0.0035563088022172,-0.0070371388841886,-0.1771357519738376,-9.806101076602936,14932.0
29.21,1.399999976158142,109.0,23.348241806030277,0.055662415921688,-79.78280366553302,40.459021982295496,267.66966181885454,0.0065546818077564,0.0062715294770896,-0.7495657801628113,0.6618677377700806,-0.0012988169771841,-0.0062486069720552,0.010550191827383,-0.0013556214980781,0.0008068804163485,0.0017246510833501,-0.0153754488460253,-0.1755799357965588,-9.804726980924604,14932.0
29.3,1.5,104.0,23.338224411010746,0.055662415921688,-79.78280367261682,40.45902198388647,267.67071322243663,0.0065657487139105,0.0062705408781766,-0.7495745420455933,0.6618576645851135,-0.0011171815075261,-0.0062753331048507,0.0104296054633878,0.0035729620140045,-0.0016844033962115,-0.0037905946373939,-0.0037366083450615,-0.1777990454994142,-9.804723472595215,14932.0
29.5,1.5,105.0,23.338224411010746,0.1351801604032516,-79.78280368635686,40.45902194022384,267.67541478186854,0.006554371677339,0.0062710475176572,-0.7495813965797424,0.661850094795227,0.0029807057109545,-0.0042024084589105,0.0105353389479314,-0.0002642892650328,-0.0009419526904821,-0.0049434415996074,-0.0069690370943862,-0.178940312359482,-9.805270771980286,14932.0
29.6,1.5,104.0,23.336973190307607,0.1351801604032516,-79.78280370205151,40.45902189337763,267.68034545689824,0.0065442826598882,0.0063066254369914,-0.7495833039283752,0.6618476510047913,0.0065375265339449,-0.0023848012699764,0.0107912223039695,0.0013910301495343,0.0003473855613265,-0.0075430045835673,-0.0058296945621259,-0.174146454334259,-9.80793359398842,14932.0
29.8,1.5,106.0,23.33572196960449,0.1351801604032516,-79.78280370574855,40.45902188740877,267.68142139524224,0.0065523632802069,0.0062990235164761,-0.749588131904602,0.6618422269821167,0.0070186764043473,-0.0022733999774785,0.0109529605355066,-0.000263336172793,-0.000855348247569,0.0020406139083206,-0.0047977991856168,-0.1713854721933603,-9.809410600662233,14932.0
29.9,1.399999976158142,107.0,23.328208923339844,0.1272283792495727,-79.78280374950161,40.45902188883657,267.6852296961844,0.0065418048761785,0.0063006654381752,-0.7495720386505127,0.661860466003418,-0.0008191834044252,-0.0074528276513078,0.0106383699343565,-0.001774683361873,-0.0002216031134594,-0.003585189813748,-0.0093232477427227,-0.1768533862754702,-9.804905321002009,14932.0
30.1,1.399999976158142,105.0,23.336973190307607,0.055662415921688,-79.78280377607726,40.45902186304485,267.6900604812801,0.0065617603249847,0.006316193845123,-0.7495748400688171,0.6618569493293762,0.0002007629202437,-0.0054514252159353,0.0107986702363195,-0.0005566090694628,0.0055357781238853,0.0043956176377832,-0.0120640278677456,-0.1782260201498866,-9.805773047804832,14932.0
30.2,1.2999999523162842,105.0,23.34573745727539,0.0397588685154914,-79.78280378231183,40.45902186318385,267.6911464276165,0.0065617603249847,0.006316193845123,-0.7495748400688171,0.6618569493293762,0.000466885467039,-0.0051848258408295,0.0109054822871054,0.0018249286804348,-0.0048609906807541,0.0015495950356125,-0.0056655499711632,-0.1704577383399009,-9.807503823637962,14932.0
30.4,1.2999999523162842,106.0,23.341981887817383,0.0874695107340812,-79.7828038251573,40.459021857264645,267.6961274182797,0.0065609966404736,0.0063101411797106,-0.7495790123939514,0.6618523001670837,-0.0030182192600213,-0.0077790051356517,0.0106844421332079,0.0013155000051483,-0.0050826389342546,0.0040769008919596,-0.0077251220494508,-0.1781590512581169,-9.807351211309433,14932.0
30.5,1.2999999523162842,105.0,23.33446884155273,0.0795177370309829,-79.78280385404528,40.45902182344957,267.7013856841624,0.006564007140696,0.0063181221485137,-0.7495827674865723,0.6618478894233704,0.002076897110423,-0.004884735936312,0.0107683774722925,0.0002484711003489,-0.0027305898256599,-0.0036239132750779,-0.0123837449401617,-0.1765621949359774,-9.807535398602488,14932.0
30.7,1.100000023841858,112.0,23.33446884155273,0.1669872552156448,-79.78280386020853,40.459021821653,267.7024758791924,0.006564007140696,0.0063181221485137,-0.7495827674865723,0.6618478894233704,0.0027736576673023,-0.0049683666160323,0.0110680254819558,-0.0005642426549457,0.0039663589559495,0.0045245476067066,-0.0095617193524958,-0.1743012410961091,-9.807137203216556,14932.0
30.8,1.0,109.0,23.3394775390625,0.1669872552156448,-79.78280386642591,40.45902181956981,267.703572075665,0.0065634110942482,0.0063177729025483,-0.7495856881141663,0.6618446707725525,0.0027542511781902,-0.00504967960058,0.010994698015441,0.0034092979039996,-0.0062156720086932,-0.0063402797095477,-0.007161178656388,-0.177788045424968,-9.804341649413107,14932.0
31.0,1.0,107.0,23.344486236572266,0.055662415921688,-79.78280389206411,40.459021775738094,267.7089521659911,0.0065643079578876,0.0063210623338818,-0.7495857477188109,0.6618444919586182,0.0065305276791241,-0.0030358582696173,0.0112102069219908,0.0015370852779597,0.0010149199515581,-0.0116651384159922,-0.0051529547246173,-0.1772665286064148,-9.80556897997856,14932.0
31.1,0.8999999761581421,99.0,23.33321762084961,0.0795177370309829,-79.78280391974303,40.45902174612671,267.71327361077067,0.0065661701373755,0.0063234786503016,-0.7495893239974976,0.6618404388427734,0.007997197567931,-0.0020094295516367,0.0114263489954311,-0.0015544309280812,0.0019758711569011,0.0058397520333528,-0.0057729948428459,-0.1724035089835524,-9.808738755583764,14932.0
31.3,0.8999999761581421,102.0,23.3394775390625,0.1431319266557693,-79.78280392729417,40.45902173140985,267.715529396981,0.0065659936517477,0.0063236551359295,-0.7495925426483154,0.6618368625640869,0.0087438108706259,-0.0020379080202156,0.0115938260840076,-0.001780551392585,0.0003668193530756,0.0043164291419088,-0.008063123091124,-0.1785466851107776,-9.804159216284752,14932.0
31.5,0.8999999761581421,93.0,23.33196449279785,0.1351801604032516,-79.78280398910232,40.459021741701854,267.72062712520363,0.0065614790655672,0.0063115046359598,-0.7495927214622498,0.6618368029594421,0.0009977922859357,-0.0069748091503772,0.0112493559379604,0.0013868929818272,-0.0020828363485634,-0.00096205342561,-0.0093817969865631,-0.1749404331296682,-9.807123754620552,14932.0
31.61,0.8999999761581421,97.0,23.328208923339844,0.1510837078094482,-79.78280403655101,40.45902174093133,267.72472684443,0.0065607726573944,0.0063068005256354,-0.7495960593223572,0.6618331074714661,-0.0029902404546774,-0.0094555664580698,0.01090457689796,0.0006996515439823,0.0060367062687873,0.0009467696072533,-0.0124383981339633,-0.1768586304970085,-9.806253688931466,14932.0
31.7,0.8999999761581421,97.0,23.336973190307607,0.1351801604032516,-79.78280404706764,40.45902174438356,267.72582237035044,0.0065607726573944,0.0063068005256354,-0.7495960593223572,0.6618331074714661,-0.0028334153735136,-0.0092920471783123,0.0108463808535299,0.002823372837156,-0.0063870660960674,-0.0016695283120498,-0.0044978330255253,-0.1764548985287547,-9.805562548041344,14932.0
31.9,1.0,94.0,23.33572196960449,0.1431319266557693,-79.78280410702729,40.4590217338594,267.7332095986605,0.0065639931708574,0.0063074245117604,-0.7496001720428467,0.6618283987045288,-0.0007492004322401,-0.0101123920197994,0.0153671335433207,0.001796357682906,-0.0023223711177706,-0.0043701739050447,-0.0083347570931073,-0.1751255340501666,-9.805173708200456,14932.0
32.0,1.0,92.0,23.33321762084961,0.1113248318433761,-79.78280415233971,40.45902172547802,267.73881943881514,0.0065623116679489,0.0063101495616137,-0.7496030926704407,0.6618250012397766,-0.0002019372894581,-0.0072817881574926,0.0140238178921669,0.0008198026334866,-0.0019720999989658,-0.0034537769388407,-0.0116948401532135,-0.1758828032948076,-9.807668130397795,14932.0
32.2,1.0,94.0,23.32695770263672,0.1272283792495727,-79.78280416090627,40.459021725857255,267.74023618906745,0.0065623116679489,0.0063101495616137,-0.7496030926704407,0.6618250012397766,0.0005113087290249,-0.0072808496590095,0.0142799361796424,0.0014423567336052,0.0008559321286156,0.0033015517983585,-0.0132942637684755,-0.1731217846088111,-9.807483943104744,14932.0
32.31,1.0,93.0,23.33321762084961,0.1272283792495727,-79.78280416958492,40.45902172602419,267.74166022598746,0.006561838556081,0.0063100955449044,-0.7496069669723511,0.6618207097053528,0.0003881993150749,-0.0073529022804875,0.0141905102270579,0.0033183214254677,-0.0006306893192231,-0.0044056777842342,-0.0108863004203885,-0.1773915128409862,-9.80198697566986,14932.0
32.5,1.0,94.0,23.33572196960449,0.1510837078094482,-79.78280423214044,40.45902169532532,267.7469019776583,0.0065675503574311,0.0063119796104729,-0.7496065497398376,0.6618210673332214,0.0064747356222985,-0.0085745802341597,0.0126309835759386,0.0006207586848177,0.0003518632147461,-0.0049617430195212,-0.0075364071613876,-0.1766657820157706,-9.806968803405764,14932.0
32.6,1.100000023841858,95.0,23.33572196960449,0.1510837078094482,-79.78280428842518,40.45902171730626,267.75112080186614,0.0065606799907982,0.0063016074709594,-0.7496094703674316,0.6618179678916931,-0.0038921657985774,-0.0103016130170204,0.0116202460435224,0.002034141914919,-0.0063738161697983,0.0020716683939099,-0.0039058052957989,-0.1725438787043094,-9.808539365530017,14932.0
32.8,1.100000023841858,97.0,23.3394775390625,0.1192766055464744,-79.7828043118449,40.459021725979646,267.7534616103769,0.0065602213144302,0.0063018696382641,-0.7496127486228943,0.6618141531944275,-0.0035717431189732,-0.0104492092405154,0.0116017729478244,0.0011886149877682,-0.0032136787194758,-0.0017283557681366,-0.0109624261432327,-0.17643041331321,-9.805623943805696,14932.0
32.9,1.0,100.0,23.33446884155273,0.0874695107340812,-79.78280435213176,40.45902170716831,267.7580361774564,0.006562546826899,0.0063088769093155,-0.7496127486228943,0.6618140339851379,0.0019143683860059,-0.0065895275214858,0.0116617370858219,-0.0005531450151465,0.0031821101438254,0.0045523289591073,-0.0092911057581659,-0.1742542989179492,-9.808220692276953,14932.0
33.1,1.0,104.0,23.336973190307607,0.1272283792495727,-79.78280440631465,40.45902170215812,267.7648984527588,0.0065612881444394,0.0063082734122872,-0.7496172189712524,0.6618091464042664,0.0019919535389464,-0.0049748089857138,0.0144667216301147,-0.0014561973512172,0.0019226586446166,0.0070894812233746,-0.0090763050934765,-0.1706820886954665,-9.80934920489788,14932.0
33.2,0.8999999761581421,102.0,23.32445335388184,0.1272283792495727,-79.78280441266202,40.45902170065892,267.76633033514025,0.0065612881444394,0.0063082734122872,-0.7496172189712524,0.6618091464042664,0.0020381069135573,-0.0052314427701579,0.0143717213614444,0.0005144256865605,-0.0003726913710124,-0.0042595551349222,-0.0086467323149554,-0.1786999369785189,-9.80559119939804,14932.0
33.4,0.8000000119209291,106.0,23.33446884155273,0.1192766055464744,-79.78280446669419,40.459021695778354,267.7726417592168,0.0065601617097854,0.0063087148591876,-0.7496200799942017,0.6618058085441589,0.0023244980596678,-0.0040711096813526,0.0134592595046945,0.0009861987782642,0.0018609385006129,0.0024410977493971,-0.0126466492319013,-0.1735567443631589,-9.805718668699264,14932.0
33.5,0.699999988079071,115.0,23.32320022583008,0.1351801604032516,-79.78280447174116,40.459021694053455,267.7739863058925,0.00655879965052,0.0063073118217289,-0.7496201395988464,0.6618058085441589,0.0023663662629931,-0.0040676965549681,0.013432809429167,0.0014170828508213,-0.0009286784334108,-0.003942138981074,-0.0057638442929601,-0.1784248072095215,-9.804695990681653,14932.0
33.7,0.699999988079071,114.0,23.336973190307607,0.1351801604032516,-79.78280451808726,40.459021690412285,267.78013560533526,0.0065580485388636,0.0063079250976443,-0.7496234178543091,0.6618021130561829,0.0017711573989776,-0.0029393596552725,0.0124504900382418,-0.0022879135794937,0.0021012146025896,-0.0023409931454807,-0.00889305940771,-0.1764327887445688,-9.805915719866752,14932.0
33.8,0.6000000238418579,121.0,23.336973190307607,0.1351801604032516,-79.78280459372964,40.45902168639778,267.7866213208437,0.0065618245862424,0.0063036610372364,-0.7496264576911926,0.6617985963821411,0.0023100902507418,-0.0067845274583354,0.0119369483542425,0.0010690772905945,0.0024797588121145,0.0015324201667681,-0.0059367694146931,-0.1707175557129085,-9.806937813162804,14932.0
34.0,0.6000000238418579,123.0,23.32946014404297,0.055662415921688,-79.78280460200492,40.45902168491817,267.78780545651915,0.0065608448348939,0.0063021066598594,-0.7496264576911926,0.6617985963821411,0.0023231131699122,-0.0067308309159547,0.0118931119006878,0.0019439721945673,-0.0006943249609321,-0.0064919088035821,-0.0038013359945034,-0.1784877561405301,-9.80675128698349,14932.0
34.1,0.4000000059604645,121.0,23.34323310852051,0.0477106422185897,-79.78280466173864,40.459021686898055,267.79344189524653,0.0065629170276224,0.0063009448349475,-0.7496302127838135,0.6617943644523621,0.0026450047826488,-0.0078280712527535,0.0118885061812927,0.0012746854918077,-0.0013605437707155,0.0048509333282709,-0.0058661106100771,-0.1701778577081859,-9.809332247972488,14932.0
34.31,0.4000000059604645,119.0,23.341981887817383,0.0477106422185897,-79.78280468121923,40.459021683215546,267.79581866025933,0.0065628318116068,0.0063012591563165,-0.7496340870857239,0.6617900729179382,0.0031314785998958,-0.0079129973631686,0.0119655586377723,0.0035446253605186,-0.0009507569484412,0.002677259966731,-0.003830461295438,-0.1710693936422467,-9.808463351726534,14932.0
34.4,0.3000000119209289,122.0,23.34323310852051,0.0795177370309829,-79.78280473105542,40.45902168553922,267.80168077707293,0.0065612155012786,0.0063015916384756,-0.749634325504303,0.6617897748947144,0.0025467906358273,-0.0062459327811344,0.0118714976250317,0.0006167795509099,0.0024883691221475,0.0026859014760702,-0.0106016278127208,-0.1746604976803064,-9.806909746527673,14932.0
34.6,0.4000000059604645,127.0,23.33196449279785,0.055662415921688,-79.78280480738646,40.459021687670734,267.8087512737513,0.0065629528835415,0.0062975105829536,-0.7496366500854492,0.6617871522903442,0.0025185433110354,-0.0086679227205181,0.0115062746348137,-0.0026069385930895,0.0042713754810392,0.0031924834474921,-0.0097625740652438,-0.175008005015552,-9.807990311980248,14932.0
34.7,0.4000000059604645,143.0,23.340728759765625,0.0477106422185897,-79.78280482872188,40.45902168463154,267.81102981030944,0.0065630464814603,0.0062977815978229,-0.7496397495269775,0.6617836356163025,0.0029704625888893,-0.008800360957091,0.0115920881424728,-0.0024893847294151,-0.0001281963777728,0.0003707394353114,-0.006731665834668,-0.17785514222458,-9.803976783156395,14932.0
34.9,0.4000000059604645,144.0,23.33321762084961,0.055662415921688,-79.7828048746527,40.459021692407454,267.8170789963007,0.0065598455257713,0.00629896344617,-0.7496400475502014,0.6617833375930786,0.0016920980886644,-0.005486428500933,0.0113832308945535,0.0036783458199352,7.341236778302118e-05,-0.0080102179199457,-0.005549676886294,-0.1701297643594443,-9.808275071382525,14932.0
35.0,0.4000000059604645,139.0,23.34323310852051,0.0477106422185897,-79.78280488134473,40.45902169108727,267.8182261025906,0.006558334454894,0.0062982803210616,-0.7496401071548462,0.6617832779884338,0.0023439378246784,-0.0053374075734514,0.0115867976804284,-0.0015526276547461,-0.0041005653329193,0.0035059882793575,-0.0064434437843738,-0.1715262073650956,-9.808679113984107,14932.0
35.21,0.4000000059604645,130.0,23.33321762084961,0.0477106422185897,-79.78280495707318,40.45902169634786,267.8253504222632,0.0065609319135546,0.0062962095253169,-0.7496441602706909,0.6617786884307861,0.0023523404490496,-0.0072626013051404,0.0112658989248109,0.0017374698072671,0.0012021653819829,0.0030593394767493,-0.0047266949876211,-0.1708461030945182,-9.807021428346635,14932.0
35.4,0.3000000119209289,116.0,23.33071327209473,0.0318070948123931,-79.78280502257134,40.45902169200809,267.8327770715952,0.0065620052628219,0.0062978062778711,-0.7496482729911804,0.6617739796638489,0.0048879621387763,-0.0054987976374113,0.0113786113181576,0.0046865479089319,0.0005714844446629,-0.0001441085187252,-0.0125762051297351,-0.1767368987761438,-9.803943454027175,14932.0
35.51,0.4000000059604645,108.0,23.34323310852051,0.0397588685154914,-79.78280502995206,40.459021688048615,267.8339168763161,0.0065614660270512,0.0062974705360829,-0.7496482729911804,0.6617739796638489,0.0051315047336219,-0.0058695055860909,0.0115865640401361,-0.0048525389283895,0.0057035624049603,0.004126738756895,-0.0070694516028743,-0.1739240408688783,-9.805309948325158,14932.0
35.6,0.4000000059604645,106.0,23.33321762084961,0.0636141896247863,-79.78280510189002,40.45902168304432,267.84028490245345,0.0065666977316141,0.0062976833432912,-0.7496510744094849,0.6617707014083862,0.0077720537988626,-0.0075206939658276,0.0112722742436135,0.0055597964674234,-0.0047274916432797,-0.0052028717473149,-0.0054699035058729,-0.1763518961705267,-9.80526901781559,14932.0
35.8,0.5,108.0,23.3494930267334,0.055662415921688,-79.78280512255927,40.45902166977862,267.84256235122683,0.0065660397522151,0.0062974775210022,-0.7496546506881714,0.6617667078971863,0.008343410568009,-0.0080496138773547,0.0116093427803274,-0.0004301154694985,-0.0007892755093052,-0.0066322376951575,-0.0079187556792749,-0.1794141743704676,-9.805771878361703,14932.0
35.9,0.5,101.0,23.340728759765625,0.0636141896247863,-79.78280518951208,40.45902170268415,267.8492842650414,0.0065610306337475,0.0062882481142878,-0.7496550679206848,0.6617663502693176,0.0008416631868194,-0.0097949193526534,0.0113928776849276,0.0008356354665011,-8.656343561597168e-05,0.006942625157535,-0.0048999393079429,-0.1713593424484134,-9.807949381470682,14932.0
36.1,0.5,101.0,23.33321762084961,0.0477106422185897,-79.78280525569753,40.45902171002043,267.85719281792643,0.0065599735826253,0.0062891142442822,-0.7496586441993713,0.6617622971534729,0.0007319451463324,-0.0080637212208899,0.0115372068300084,0.0014574460219591,-0.0007443454815074,0.0028598285280168,-0.0067989002494141,-0.1732878638058901,-9.8072003531456,14932.0
36.21,0.5,90.0,23.34698867797852,0.0477106422185897,-79.78280526543097,40.45902170998501,267.8583537375927,0.0065599735826253,0.0062891142442822,-0.7496586441993713,0.6617622971534729,0.001005474434211,-0.0083343279569237,0.0117893148353522,-0.0007300965953618,0.0052900263108313,0.0045860889367759,-0.0149017455778084,-0.1780620788410306,-9.806161302924156,14932.0
36.4,0.5,88.0,23.33071327209473,0.0477106422185897,-79.78280536968653,40.45902173120052,267.8661218321324,0.0065616779029369,0.0062799551524221,-0.7496630549430847,0.6617574691772461,-0.0023889543568348,-0.0147746757869305,0.0115190305157456,-0.0027319672517478,-0.0007275260286405,0.0048816073685884,-0.0047878220884012,-0.175740880407393,-9.806004012823106,14932.0
36.5,0.5,79.0,23.34323310852051,0.0477106422185897,-79.78280538676063,40.459021734867456,267.867267343998,0.0065608345903456,0.0062786233611404,-0.7496630549430847,0.6617574691772461,-0.0023684550127648,-0.014928578004213,0.0113287501422796,0.0005003987462259,-0.0031092504505068,-0.0041623129509389,-0.0098911511397454,-0.1792107826285064,-9.80311139523983,14932.0
36.7,0.6000000238418579,76.0,23.33071327209473,0.0477106422185897,-79.78280545280131,40.45902172780706,267.8768575823308,0.006562054157257,0.0062859277240932,-0.7496662735939026,0.6617537140846252,0.0021820743895356,-0.0105668028884914,0.0150066438337589,-0.001268794061616,0.0011690338142216,-0.003081343602389,-0.0098488010815344,-0.174497488271445,-9.8053883010149,14932.0
36.8,0.6000000238418579,73.0,23.341981887817383,0.0397588685154914,-79.78280546526976,40.45902172652338,267.87836577355864,0.0065620327368378,0.0062860283069312,-0.7496687769889832,0.661750853061676,0.0024893791255826,-0.0103375805825017,0.0151836985594876,0.005664839874953,-0.0005109325284138,0.000196890294319,-0.0039356332333409,-0.1721476750262081,-9.80920302450657,14932.0
37.0,0.6000000238418579,76.0,23.336973190307607,0.0397588685154914,-79.78280551790034,40.45902175552794,267.8888542836905,0.0065533951856195,0.0062828231602907,-0.7496699094772339,0.6617497205734253,-0.0031425397818563,-0.006642588685874,0.0181185975213421,0.0027866135351359,-0.0068367044441401,-0.0015442948788404,-0.0066928024071967,-0.1749841410666704,-9.803009653687475,14932.0
37.1,0.6000000238418579,71.0,23.338224411010746,0.0318070948123931,-79.78280560451259,40.45902175898553,267.89903045058253,0.0065582250244915,0.0062822988256812,-0.7496741414070129,0.6617449522018433,-0.0008046028011657,-0.0087855067056187,0.0195224703362298,0.003259937511757,-0.0014768650289624,-0.0079690851271152,-0.0097598114842548,-0.1740533374249935,-9.807167608737949,14932.0
37.31,0.6000000238418579,72.0,23.340728759765625,0.0477106422185897,-79.78280561488621,40.45902176012939,267.9010016804934,0.0065585016272962,0.0062825568020343,-0.749677836894989,0.6617407202720642,-0.0002866483558578,-0.0088759240761972,0.0198918400569734,0.0010443733772262,0.0017847996205091,0.0028018879238516,-0.0104210836091078,-0.174071500338614,-9.807533059716228,14932.0
37.4,0.6000000238418579,74.0,23.340728759765625,0.0397588685154914,-79.78280567078235,40.45902176299144,267.9073077327013,0.0065575554035604,0.0062838997691869,-0.7496775984764099,0.6617409586906433,-0.0001582253497852,-0.0065896569852418,0.0170457962383594,-2.911234878411051e-05,-0.0022749151103198,-0.0063563901931047,-0.0095604825293412,-0.178261176533997,-9.803952224850654,14932.0
37.6,0.6000000238418579,74.0,23.338224411010746,0.0477106422185897,-79.78280573697411,40.45902176663744,267.9151347315312,0.0065562115050852,0.0062851775437593,-0.7496802806854248,0.661737859249115,9.490913164754849e-06,-0.004796969063794,0.0148654159224321,0.0028100661002099,-0.0020731298718601,-0.0023097286466509,-0.0066692981991218,-0.1779676828533411,-9.806706263422967,14932.0
37.7,0.6000000238418579,74.0,23.338224411010746,0.0715659633278846,-79.78280574260856,40.45902176660847,267.91663030147555,0.0065562115050852,0.0062851775437593,-0.7496802806854248,0.661737859249115,0.0007753957481643,-0.0046959678817479,0.0150565111461875,0.0013963528908789,-5.531709575734567e-06,0.0063545759767293,-0.0067276150389807,-0.1730033602192998,-9.808961534500122,14932.0
37.9,0.6000000238418579,73.0,23.33446884155273,0.0636141896247863,-79.78280580557131,40.45902177010094,267.9258942341805,0.0065560205839574,0.0062849298119544,-0.749684751033783,0.6617328524589539,0.0008141670955823,-0.0036673844845075,0.0172971187484068,-0.0033209458924829,-0.0059794569388031,0.0024819958489388,-0.0066243699984624,-0.1710472655855119,-9.808109010457994,14932.0
38.1,0.6000000238418579,74.0,23.33446884155273,0.0397588685154914,-79.78280585097788,40.45902176856391,267.9339692628384,0.0065531483851373,0.006287092808634,-0.7496876716613771,0.6617295742034912,0.0003892235058851,0.0003318103293065,0.0154379755825241,0.0005302937934175,-0.0023438460193574,0.0023372760042548,-0.0105590310750994,-0.1759586709178984,-9.804581969976423,14932.0
38.21,0.6000000238418579,73.0,23.34323310852051,0.0477106422185897,-79.78280585097225,40.45902176778613,267.9355210697651,0.0065531483851373,0.006287092808634,-0.7496876716613771,0.6617295742034912,0.0007734765283992,-8.291447749130877e-05,0.0156383068099655,-0.0025357778649777,0.0047389576211571,0.0039235572330653,-0.012299652385991,-0.1765943180769682,-9.805462560653687,14932.0
38.3,0.5,79.0,23.338224411010746,0.0477106422185897,-79.7828058510348,40.45902176680572,267.9370873308182,0.0065523530356585,0.0062873833812773,-0.7496904730796814,0.6617264151573181,0.000834719611532,6.04876756356141e-05,0.0156296891365778,0.0018482924206182,-0.00487014465034,0.0021653075236827,-0.0043544489052146,-0.1751087415777147,-9.80672789812088,14932.0
38.51,0.6000000238418579,79.0,23.341981887817383,0.0318070948123931,-79.78280593248553,40.45902176367717,267.94644660115245,0.0065561733208596,0.006281429901719,-0.7496910691261292,0.6617257595062256,0.0015182470239824,-0.0041614680428763,0.0179690735131169,0.0041892328299582,-0.0057208617217838,-0.0027660222258418,-0.0051728740870021,-0.1749511408433318,-9.806460680365564,14932.0
38.6,0.5,81.0,23.33321762084961,0.0397588685154914,-79.78280600602498,40.45902177880062,267.9517769253254,0.0065562049858272,0.0062742624431848,-0.7496927380561829,0.6617238521575928,-0.0030779948760109,-0.0082628190007418,0.0147162297026593,-0.0019202166004106,0.0053804069757461,0.0060343295335769,-0.0143177983118221,-0.1765629441104829,-9.806264798641203,14932.0
38.8,0.6000000238418579,81.0,23.338224411010746,0.0477106422185897,-79.7828060247259,40.45902178536315,267.95473245143893,0.0065564760006964,0.0062746610492467,-0.7496959567070007,0.6617202758789062,-0.0026608708552943,-0.0085415369120376,0.0149270749808992,-0.0029705688357353,0.0070665897801518,0.0033760564401745,-0.0104742670047562,-0.1749566956982016,-9.807397989034651,14932.0
38.9,0.5,80.0,23.328208923339844,0.0477106422185897,-79.78280607894605,40.45902180195253,267.9616020655632,0.0065512848086655,0.0062732929363846,-0.7496960163116455,0.6617201566696167,-0.0051616039931742,-0.005839633837393,0.0132629315898603,-0.0004233729850966,0.0021031142678111,0.0020081214606761,-0.0053843988262815,-0.1763540706038475,-9.804767911434174,14932.0
39.1,0.6000000238418579,84.0,23.341981887817383,0.055662415921688,-79.78280615161694,40.45902177825205,267.96721881985667,0.0065604262053966,0.0062774671241641,-0.7496979832649231,0.6617178916931152,0.0018370682475069,-0.0076508834931999,0.0122017055858917,0.0023627502378076,-0.0021117497235536,-0.0046866359189152,-0.0058500775904394,-0.1774989188835025,-9.804850941896438,14932.0
39.2,0.6000000238418579,85.0,23.336973190307607,0.0715659633278846,-79.7828061609435,40.45902177701989,267.96845451354983,0.0065604262053966,0.0062774671241641,-0.7496979832649231,0.6617178916931152,0.0024571384137043,-0.0076877678632656,0.0125235149665393,0.0016645556315779,-0.001435776008293,0.0055580176413059,-0.0060257652931613,-0.1735017805360257,-9.808734662532808,14932.0
39.4,0.6000000238418579,86.0,23.340728759765625,0.0477106422185897,-79.7828062134792,40.4590217641302,267.9750984346867,0.0065578077919781,0.0062788384966552,-0.7497023344039917,0.6617129445075989,0.00214212787031,-0.0043732996803803,0.0123337278501768,0.0002705797087401,0.0029100528918206,-0.0004897664766758,-0.0067924962920369,-0.1729495110176503,-9.8077488219738,14932.0
39.5,0.6000000238418579,87.0,23.32946014404297,0.0477106422185897,-79.78280621921907,40.45902176260309,267.9763296878338,0.0065575363114476,0.0062781008891761,-0.7497023344039917,0.6617129445075989,0.0021620136366703,-0.0047971915677089,0.0124231943445218,-0.0009641589131206,0.0013204918941482,-0.0034060736652463,-0.0081427502911537,-0.1772026295028627,-9.806021554470062,14932.0
39.7,0.6000000238418579,86.0,23.33071327209473,0.0477106422185897,-79.7828062934472,40.45902176861597,267.9828330910206,0.0065575218759477,0.0062718680128455,-0.7497053146362305,0.6617096662521362,-0.0020302409055445,-0.0084517773459728,0.0118926643252436,-0.0049801236018538,0.001998939551413,0.000426379032433,-0.0093884904496371,-0.1762850734591484,-9.805540328621865,14932.0
39.8,0.699999988079071,88.0,23.33196449279785,0.0477106422185897,-79.78280636634014,40.45902173793857,267.9893200731279,0.0065636010840535,0.0062759686261415,-0.7497091293334961,0.6617051959037781,0.0042283291858428,-0.0092241346816196,0.0118327170107627,-0.0010958566563203,0.0032372202258557,0.0023916997015476,-0.0063401227985741,-0.1748341782577336,-9.806016291975975,14932.0
40.01,0.699999988079071,87.0,23.34323310852051,0.055662415921688,-79.78280637763645,40.459021734943136,267.99049866557124,0.0065626101568341,0.0062748724594712,-0.7497091889381409,0.6617052555084229,0.0044585414021421,-0.0090337186755307,0.0118765131995241,0.0033329897560179,-0.0012144956272095,0.0013029885012656,-0.0043579686549492,-0.1721628777869046,-9.807451783418657,14932.0
40.1,0.699999988079071,92.0,23.340728759765625,0.0397588685154914,-79.7828064433089,40.45902172279687,267.9957436656952,0.0065639549866318,0.0062735681422054,-0.7497123479843141,0.6617015600204468,0.0034818436688946,-0.0102977704869734,0.0116250590961752,-0.0013830014504492,9.712667088024318e-05,0.0043316702358424,-0.011024790352676,-0.1753671519644558,-9.807578083276749,14932.0
40.3,0.699999988079071,89.0,23.341981887817383,0.055662415921688,-79.78280646843903,40.45902171805989,267.99807677030566,0.0065638525411486,0.0062735578976571,-0.7497162222862244,0.6616972088813782,0.0041263173623003,-0.0106124420884419,0.0119479285948509,-0.0020940522663295,0.0032356972806155,0.0050731915980577,-0.0142529627401381,-0.176375632211566,-9.80688284933567,14932.0
40.4,0.8000000119209291,91.0,23.34323310852051,0.0397588685154914,-79.78280654014719,40.45902170445629,268.0040401852131,0.0065631628967821,0.0062721534632146,-0.7497164607048035,0.6616970300674438,0.0037636405766613,-0.0110773884883655,0.0118596609121427,-0.0024032304063439,0.0031186768319457,0.0027497184928506,-0.0078555355151183,-0.1786176556907594,-9.80399490952492,14933.0
40.6,0.8000000119209291,93.0,23.336973190307607,0.055662415921688,-79.7828065832179,40.45902169300621,268.0087522900105,0.0065600923262536,0.0062752868980169,-0.7497182488441467,0.6616950035095215,0.0023002765928295,-0.0068833114117049,0.0113007803298682,-0.0004049099807161,0.0010957471095025,-0.006564968265593,-0.0058998508716467,-0.178909303843975,-9.806344905495644,14933.0
40.7,0.8000000119209291,89.0,23.34323310852051,0.0477106422185897,-79.78280659168294,40.45902169127003,268.00989374876025,0.0065600923262536,0.0062752868980169,-0.7497182488441467,0.6616950035095215,0.0029454946434766,-0.0068716876015739,0.0116228213687844,-0.0007653214852325,-0.0020132197532802,0.0041794460266828,-0.0062182409001979,-0.1724518946930766,-9.809477258920673,14933.0
40.91,0.8000000119209291,89.0,23.34323310852051,0.0636141896247863,-79.78280664745401,40.45902166028132,268.0156378781796,0.0065610497258603,0.0062793614342808,-0.7497202754020691,0.6616926193237305,0.0060385696694738,-0.0042365066416888,0.0115146430596192,0.0021618290338665,-0.0025182932149618,0.0072459015063941,-0.0056679025618359,-0.1725135462731123,-9.807403836250304,14933.0
41.0,0.8000000119209291,91.0,23.340728759765625,0.0715659633278846,-79.78280665358947,40.45902165514846,268.0167841053009,0.0065605896525084,0.0062789870426058,-0.7497202754020691,0.6616926193237305,0.0062685797103512,-0.0048076680841646,0.011650586339764,-0.0012645481619983,0.003116741310805,0.0057094669900834,-0.0097093906695954,-0.1759129164554178,-9.805652010440827,14933.0
41.21,0.8000000119209291,92.0,23.340728759765625,0.0318070948123931,-79.78280670262352,40.459021640420325,268.0246115064621,0.0065588597208261,0.0062787644565105,-0.749724268913269,0.6616880893707275,0.0041684894336204,-0.0032500738277217,0.0159294626304537,-0.0017517997184768,0.0031238833907991,0.0047280457802116,-0.007242037540418,-0.1746221984177828,-9.809598296284676,14933.0
41.3,0.8999999761581421,92.0,23.33446884155273,0.0477106422185897,-79.78280670703592,40.45902163685082,268.0261934435368,0.0065582455135881,0.0062788086943328,-0.7497276663780212,0.6616842150688171,0.0040627463149237,-0.0033428566821768,0.0158515956210655,0.0038456094916909,-0.000521984999068,-0.005836006719619,-0.0056846727646188,-0.1784082705527544,-9.805037468075753,14933.0
41.51,0.8999999761581421,93.0,23.33321762084961,0.055662415921688,-79.78280677792048,40.45902160037874,268.03116327881816,0.0065628080628812,0.0062778540886938,-0.7497273087501526,0.6616845726966858,0.0073801298233897,-0.0060449353233729,0.0142254693052922,-0.0033480371348559,0.0002063771535176,-0.0030655758455395,-0.0102075437502935,-0.1767000613175332,-9.804969055652617,14933.0
41.6,0.8999999761581421,96.0,23.340728759765625,0.055662415921688,-79.78280682555119,40.45902159753736,268.03465578317645,0.0065570529550313,0.0062741767615079,-0.7497298121452332,0.6616818308830261,0.0007283271495961,-0.0041787346371598,0.01268149353116,-0.00079506856855,-0.0036590851377695,0.0047847740352153,-0.0067908146465197,-0.1708550931885838,-9.808567432165146,14933.0
41.8,0.8999999761581421,96.0,23.33572196960449,0.0477106422185897,-79.78280683638016,40.45902159651454,268.03724852561953,0.0065565067343413,0.0062747071497142,-0.7497331500053406,0.6616780161857605,0.0009826630066184,-0.0046035555409016,0.0131754391856184,0.0004710492503363,-0.00777259003371,-0.0060917260125279,-0.0049843093764502,-0.1738689125888049,-9.80651272058487,14933.0
41.9,0.8999999761581421,96.0,23.33572196960449,0.055662415921688,-79.78280689992336,40.4590215651737,268.0402736401558,0.0065630944445729,0.0062760286964476,-0.7497329711914062,0.6616782546043396,0.0061790133045891,-0.0068410886731306,0.0124000608097513,0.0005694978171959,0.001307051628828,0.0065379226580262,-0.0078868112666532,-0.1728508940711617,-9.80959303379059,14933.0
42.1,0.8999999761581421,97.0,23.33196449279785,0.0238553211092948,-79.7828069548146,40.45902154740934,268.045822236538,0.006559872534126,0.0062754205428063,-0.7497371435165405,0.6616735458374023,0.0040086510516752,-0.0044639054488517,0.016187009898555,-0.0014818827621638,-0.0012117701116949,0.0066367932595312,-0.0048336847586324,-0.1722393118590116,-9.810623313188556,14933.0
42.2,1.0,99.0,23.328208923339844,0.0477106422185897,-79.78280696705046,40.45902154047268,268.04907963037493,0.0065592280589044,0.006275868974626,-0.7497400641441345,0.6616702079772949,0.0042764984162779,-0.0046276746918407,0.0165289860114426,0.0004225925076752,-0.0015773258637636,-0.0035453797318041,-0.0078977936395676,-0.1769040743261575,-9.808972059488296,14933.0
42.41,0.8999999761581421,101.0,23.32946014404297,0.0636141896247863,-79.78280703214244,40.45902153945738,268.05126890897753,0.0065584778785705,0.0062701753340661,-0.7497398257255554,0.6616705656051636,0.000781542571142,-0.0073635177547215,0.0147827757056264,0.0007885098457336,0.0014850905863568,0.0050285621546208,-0.0103653648972976,-0.1767060729861259,-9.809134612083437,14933.0
42.5,0.8999999761581421,101.0,23.3394775390625,0.0477106422185897,-79.7828070409258,40.459021539511866,268.05274519681933,0.0065575037151575,0.0062688342295587,-0.7497398257255554,0.6616705656051636,0.0007847474514127,-0.0075591392375211,0.0148170726224512,-0.0003255351039115,-0.0002154030662495,-0.0029724691994488,-0.0044278123325784,-0.179853044450283,-9.808053461909292,14933.0
42.7,0.8999999761581421,101.0,23.341981887817383,0.0477106422185897,-79.7828071002098,40.45902150961064,268.0561405158043,0.0065601468086242,0.0062734768725931,-0.7497426271438599,0.6616673469543457,0.0041333205108312,-0.0057384085067808,0.0137750616492263,-0.0045085153542459,0.0032658767886459,-0.0024172635748982,-0.0057675159332575,-0.1773358363844454,-9.8050316208601,14933.0
42.8,0.8999999761581421,99.0,23.341981887817383,0.0397588685154914,-79.78280710749846,40.45902150595685,268.0575233137608,0.0065600229427218,0.0062741702422499,-0.7497459053993225,0.6616635918617249,0.0048439156252113,-0.005577642104995,0.0140545241101536,0.0026795610319823,-0.0035963354166597,0.000692970410455,-0.0030081092286854,-0.1713373605720698,-9.810750782489777,14933.0
43.0,0.8999999761581421,98.0,23.33572196960449,0.055662415921688,-79.78280715768427,40.45902150981407,268.0624982452393,0.0065534277819097,0.0062694791704416,-0.7497466802597046,0.6616628170013428,-0.0011585933785988,-0.0045606096431376,0.0170448641708019,0.0037789086345583,-0.0036737122572958,-0.0001633850624784,-0.0074296697799582,-0.1734291836991906,-9.806555405259132,14933.0
43.1,0.8999999761581421,94.0,23.340728759765625,0.0715659633278846,-79.78280722743109,40.45902149219249,268.06486907958987,0.0065583707764744,0.0062684291042387,-0.7497493028640747,0.6616597771644592,0.0002856559946765,-0.007541140325915,0.0185706512073749,-0.0033959310967475,0.0005549807101488,0.004164358600974,-0.0123028660705313,-0.1740685584582388,-9.805867772698402,14933.0
43.31,0.8999999761581421,96.0,23.34698867797852,0.0397588685154914,-79.78280724533793,40.45902149254327,268.0686059033871,0.0065584387630224,0.0062686498276889,-0.7497520446777344,0.6616566777229309,0.0007638767708936,-0.0078891431895287,0.0188839886685606,0.0017946639563888,0.0021288539282977,0.00465954747051,-0.0118104973935987,-0.1749824051745236,-9.806343736052511,14933.0
43.4,0.8999999761581421,97.0,23.340728759765625,0.0477106422185897,-79.78280729743867,40.4590214664743,268.06907162427905,0.0065603014081716,0.0062719001434743,-0.7497515678405762,0.6616571545600891,0.0034712493532913,-0.0057157606391012,0.0165863880938038,0.0035479746293276,-0.0043118810281157,-0.0001217165845446,-0.0055602441297378,-0.1728791251592338,-9.8064448928833,14933.0
43.6,0.8999999761581421,97.0,23.3394775390625,0.0477106422185897,-79.78280737265835,40.45902145073168,268.07048124432566,0.0065617421641945,0.0062693017534911,-0.7497533559799194,0.6616551280021667,0.0028677622120418,-0.0082906178461118,0.0137883412375867,0.0029808392282575,-0.0046602948568761,-0.0046879053115844,-0.0072438139747828,-0.1758532748557627,-9.8035359030962,14933.0
43.7,0.8000000119209291,94.0,23.33446884155273,0.0477106422185897,-79.78280739373022,40.45902144625101,268.07328790783885,0.0065611759200692,0.0062694158405065,-0.7497557401657104,0.6616525053977966,0.0033400181730966,-0.0088068245620416,0.0142201254130279,0.0011112595675513,-0.0004231038328725,-0.0074269552715122,-0.0107843544438947,-0.1747814436815679,-9.80869256258011,14933.0
43.91,0.8000000119209291,92.0,23.34323310852051,0.0477106422185897,-79.78280744537068,40.45902142883904,268.07431361436846,0.006559460889548,0.0062705432064831,-0.7497560977935791,0.6616520881652832,0.0026256900874665,-0.0061170318087094,0.0166202098694075,-0.0044558565132319,0.0038024419918656,0.0074657429940998,-0.0088008841057308,-0.174065324217081,-9.809276114702223,14933.0
44.0,0.699999988079071,95.0,23.340728759765625,0.055662415921688,-79.78280745319762,40.45902142692412,268.0759635305405,0.0065587926656007,0.0062697590328753,-0.7497560977935791,0.6616520881652832,0.0027585259357643,-0.0064933693988793,0.0165853341134369,0.0025930190458893,-0.0003294772468507,-0.0081646665930747,-0.0098131707531865,-0.1792281232774257,-9.805014663934706,14933.0
44.2,0.8000000119209291,98.0,23.3394775390625,0.0397588685154914,-79.78280750637002,40.45902142839889,268.0784112846852,0.0065544610843062,0.0062675392255187,-0.7497594356536865,0.6616483330726624,-0.002365613288379,-0.0049778605410311,0.018303044338085,-0.00143234571442,0.0005696200532838,-0.0056328028440475,-0.0083439881564117,-0.1775973713770509,-9.806342566609382,14933.0
44.3,0.8000000119209291,97.0,23.33071327209473,0.0636141896247863,-79.7828075117585,40.459021430602064,268.0802526509762,0.0065543665550649,0.0062682256102561,-0.7497633695602417,0.6616439819335938,-0.002052333072997,-0.0047986406727372,0.0183852074971037,-0.0001602146949153,-0.0013330192305147,-0.002784623298794,-0.0038889283128082,-0.1721355237811803,-9.807490959763529,14933.0
44.51,0.8000000119209291,94.0,23.341981887817383,0.055662415921688,-79.7828075862073,40.459021393709136,268.0821992790699,0.0065594208426773,0.0062687862664461,-0.7497631907463074,0.6616441011428833,0.0026152959926759,-0.0066361883465885,0.0191823532807977,0.0025171507149934,-0.0028923819772899,-0.0018047397024929,-0.0124560505582485,-0.176009724419564,-9.806139083504675,14933.0
44.61,0.8000000119209291,98.0,23.34323310852051,0.055662415921688,-79.78280764405912,40.459021371505976,268.08355754971507,0.006559541914612,0.0062701585702598,-0.7497657537460327,0.6616411805152893,0.0022000793102969,-0.0055167575429877,0.0197108166182554,0.0003080777823925,-0.0052438667044043,-0.0048504439182579,-0.0136213492462411,-0.1737082237936556,-9.807194505929948,14933.0
44.8,0.8000000119209291,99.0,23.34698867797852,0.0477106422185897,-79.78280765103929,40.45902136948854,268.0855375862122,0.0065596802160143,0.0062705762684345,-0.7497686743736267,0.6616379022598267,0.002944911780565,-0.0057122963851703,0.0200256226630546,-0.0002427058352623,0.0024390134494751,0.0045218146406114,-0.0075069626618642,-0.1721127379126847,-9.807912544012073,14933.0
44.9,0.8000000119209291,98.0,23.340728759765625,0.055662415921688,-79.78280772101944,40.45902137167505,268.0820615625382,0.0065586706623435,0.0062634809873998,-0.7497677206993103,0.6616390347480774,-0.0024701068541215,-0.0089968872350997,0.0150061555310428,-0.0002157003327738,-0.0020017346832901,-0.0047715995460748,-0.0064091764739714,-0.1785858614556491,-9.80533801496029,14933.0
45.1,0.8000000119209291,99.0,23.340728759765625,0.0477106422185897,-79.78280778066463,40.45902133351055,268.08048552632334,0.006561042740941,0.0062707411125302,-0.7497701644897461,0.6616361737251282,0.0031790315405696,-0.0056903884561069,0.0130494478209566,-0.002149699255824,-0.000861742242705,-0.0037850537337362,-0.0095242012414382,-0.1787594506703317,-9.805314041376112,14933.0
45.2,0.8999999761581421,100.0,23.336973190307607,0.0397588685154914,-79.78280778789777,40.45902133086374,268.08179864645007,0.006561042740941,0.0062707411125302,-0.7497701644897461,0.6616361737251282,0.0036335608859899,-0.0057392025677872,0.0133189731592381,-0.0016232271445915,-0.0015666369581595,0.0032564457505941,-0.0059619124419987,-0.1717222900874913,-9.80902819275856,14933.0
45.4,0.8999999761581421,102.0,23.328208923339844,0.0477106422185897,-79.78280784556127,40.45902130145634,268.0814260876179,0.0065606911666691,0.0062707099132239,-0.7497732043266296,0.6616327166557312,0.0034731528633226,-0.00482095628643,0.0149146544886197,0.0015800911933183,-0.0019127506529912,0.0046945144422352,-0.0077718906383961,-0.1771546640619635,-9.805923905968667,14933.0
45.5,1.0,105.0,23.33572196960449,0.055662415921688,-79.78280790345384,40.45902127400841,268.07952332854273,0.0065601747483015,0.0062714396044611,-0.7497756481170654,0.6616299748420715,0.0028013802206081,-0.0038875484306586,0.0130829334349682,0.0012238182825967,0.000345088657923,0.0001718078856356,-0.0125568430800922,-0.1771742156893015,-9.80607944190502,14933.0
45.7,1.0,106.0,23.338224411010746,0.0397588685154914,-79.78280790871162,40.459021271631606,268.0808325445652,0.0065601747483015,0.0062714396044611,-0.7497756481170654,0.6616299748420715,0.003147419968749,-0.0041943958629494,0.013315224448921,-0.0004617701924871,0.0063278595916926,0.0056733381934463,-0.0122573080379515,-0.1756756656803191,-9.806464773416518,14933.0
45.8,0.8999999761581421,103.0,23.3394775390625,0.0477106422185897,-79.7828079140882,40.4590212690696,268.08215603590014,0.0065595679916441,0.0062719527631998,-0.7497792840003967,0.661625862121582,0.0031219731133447,-0.0042646989073931,0.0132854934493953,-0.0013855296419933,-0.0013869114918634,-0.0056053078733384,-0.0060209247807506,-0.1745467876084149,-9.804371470212937,14933.0
46.0,0.8999999761581421,104.0,23.3394775390625,0.0477106422185897,-79.78280796679817,40.45902124308517,268.0793117320538,0.0065583838149905,0.0062707788310945,-0.7497788071632385,0.661626398563385,0.0026990675658174,-0.0034045950995999,0.0119649562721572,0.0019059530459344,-0.0039712414145469,-0.0067554824054241,-0.0069432231219252,-0.1789028901793062,-9.80491876959801,14933.0
46.1,0.8999999761581421,103.0,23.3394775390625,0.0397588685154914,-79.78280805025518,40.459021242538746,268.0757903492451,0.0065588480792939,0.0062635443173348,-0.7497819662094116,0.6616228818893433,-0.0022013426418967,-0.0082395902770319,0.010776507324821,-2.490725455572829e-05,-0.0007543455576524,-0.0052225198596715,-0.0076438120618695,-0.1743312446214258,-9.809397736787798,14933.0
46.3,0.8999999761581421,103.0,23.3394775390625,0.0636141896247863,-79.78280805960564,40.45902124500197,268.0768889820576,0.0065587721765041,0.0062643708661198,-0.7497855424880981,0.6616188287734985,-0.0016716047864005,-0.0082422754306188,0.0110271942058537,-0.0023702969774603,-0.0036223272327333,0.0030351718887686,-0.0063936259638285,-0.1721296948380768,-9.807817234396936,14933.0
46.4,0.8000000119209291,102.0,23.33572196960449,0.0715659633278846,-79.78280811223692,40.459021222039816,268.0725177562237,0.0065594189800322,0.0062659406103193,-0.7497851848602295,0.6616191864013672,-0.0010105908047777,-0.0071429989903266,0.010500849716001,-0.0033717646729201,-0.0002969013294205,-0.0024177923332899,-0.009763129093917,-0.1766266056708991,-9.8048398321867,14933.0
46.6,0.8000000119209291,100.0,23.3394775390625,0.0477106422185897,-79.78280818411163,40.459021196251314,268.0702269411088,0.0065621058456599,0.0062653152272105,-0.7497879266738892,0.6616160869598389,0.0003239010922755,-0.0090181432805552,0.0139681441136069,-0.0046243569813668,0.0023267969954758,0.0019502827199175,-0.0100750140950549,-0.1757183868996799,-9.806923195123671,14933.0
46.7,0.8000000119209291,98.0,23.3394775390625,0.0397588685154914,-79.78280819467147,40.459021196596986,268.0716281270981,0.0065621058456599,0.0062653152272105,-0.7497879266738892,0.6616160869598389,0.0006021587310285,-0.0089035754519147,0.0140132059281689,0.0030629115644842,-0.0022940773051232,-0.0004753899411298,-0.0066086755919968,-0.1732181357592344,-9.807740051150322,14933.0
46.9,0.699999988079071,96.0,23.341981887817383,0.0477106422185897,-79.78280827105625,40.459021170493656,268.0674125885964,0.0065640769898891,0.0062648681923747,-0.7497900724411011,0.6616135835647583,0.0014844368092005,-0.0101125659466338,0.0119070475074923,0.0026478883810341,-0.0037875461857765,-0.001642597024329,-0.0064409501524642,-0.1717121122777462,-9.806432029008867,14933.0
47.0,0.6000000238418579,87.0,23.3394775390625,0.055662415921688,-79.78280832833536,40.45902113299286,268.0629752314091,0.0065652779303491,0.0062708212062716,-0.749792218208313,0.6616110801696777,0.0050803706084768,-0.0068515479297118,0.0108494683857939,0.00227931747213,-0.0030880565755069,0.0002336432808078,-0.0126714816258754,-0.1774736479483545,-9.806011614203452,14933.0
47.2,0.6000000238418579,82.0,23.33572196960449,0.1272283792495727,-79.78280833747641,40.459021128850615,268.0640641486645,0.0065652779303491,0.0062708212062716,-0.749792218208313,0.6616110801696777,0.005438062818834,-0.0074407118500195,0.0110964115333318,0.0008161161094903,0.0024396078661084,0.0029933750629425,-0.0094562199362553,-0.1764664285071194,-9.806325609683991,14933.0
