time,wind_speed,wind_angle,battery_voltage,battery_current,position_x,position_y,position_z,orientation_x,orientation_y,orientation_z,orientation_w,velocity_x,velocity_y,velocity_z,angular_x,angular_y,angular_z,linear_acceleration_x,linear_acceleration_y,linear_acceleration_z,node_ids
0.0,0.6000000238418579,104.0,23.90290069580078,-0.055662415921688,-79.7827458311498,40.45899069786801,279.4596383565664,0.0188842788338661,0.0070076836273074,-0.8011658787727356,0.5981033444404602,0.0013721692592419,-0.008718838256199,0.0034050863766462,-0.0017131213098764,-0.0022662889678031,-0.0106557635590434,0.1099142056703567,-0.3761571935936809,-9.806040850281716,14944.0
0.11,0.6000000238418579,106.0,23.9104118347168,-0.0397588685154914,-79.78274588763267,40.45899064542706,279.4612884366512,0.0188855919986963,0.0070079797878861,-0.8011670708656311,0.5981016755104065,0.0027715446535505,-0.0093541996606422,0.0038475568871891,-0.0017366125248372,-0.0001601841067895,-0.0019370828522369,0.1080965073220432,-0.3820262997597456,-9.806069501638412,14944.0
0.3,0.6000000238418579,99.0,23.904151916503903,-0.0318070948123931,-79.78274592828248,40.45899057564205,279.4603548491001,0.0188903417438268,0.0070129656232893,-0.8011663556098938,0.5981024503707886,0.0070312339837045,-0.0086345737481333,-0.0001508322675857,-5.232108014752157e-05,0.0024256571196019,-0.0033368493895977,0.111401097793132,-0.3736284920945764,-9.808204904794692,14944.0
0.4,0.6000000238418579,97.0,23.911664962768555,-0.0159035474061965,-79.78274595277138,40.45899056776632,279.4603707933426,0.0188912600278854,0.0070141111500561,-0.8011671900749207,0.5981013178825378,0.0066225180533012,-0.0089211330472306,0.0010208542167326,-0.0028250769246369,0.0003189340350218,-0.0057840682566165,0.1099552001338452,-0.3747289746254683,-9.806655392646787,14944.0
0.5,0.6000000238418579,96.0,23.907907485961918,-0.0397588685154914,-79.78274596487897,40.458990511634006,279.45892193853854,0.0188883114606142,0.00701684365049,-0.8011669516563416,0.5981016755104065,0.0062779125412255,-0.0061547185533823,-0.0018388861093178,0.0012282663956284,0.0016286752652376,0.0041872011497616,0.11240153811872,-0.37909180149436,-9.808120120167732,14944.0
0.71,0.5,95.0,23.9104118347168,-0.0397588685154914,-79.78274602301325,40.45899046962864,279.45705647706984,0.0188895165920257,0.0070107304491102,-0.8011679649353027,0.5981003642082214,0.0038692093186435,-0.0107869719398501,-0.0028163596533552,0.0045153563842177,0.0021749914158135,-0.0007686309982091,0.109832061426714,-0.3736159571260214,-9.808579126596449,14944.0
0.9,0.5,95.0,23.904151916503903,-0.0397588685154914,-79.78274603651997,40.45899046907577,279.45677754223345,0.0188895165920257,0.0070107304491102,-0.8011679649353027,0.5981003642082214,0.0042595837846832,-0.0109275600255094,-0.002219224339355,-0.0005366753321141,-0.0008262685150839,0.0051300134509801,0.1102620875928551,-0.3865443336591125,-9.807977448105811,14944.0
1.01,0.5,94.0,23.91291618347168,-0.0318070948123931,-79.78274605867371,40.45899041910932,279.45461298465733,0.0188878867775201,0.0070159505121409,-0.8011693954467773,0.5980983972549438,0.0039277850685779,-0.0080588034626063,-0.0033275487591369,0.0045014983043074,-0.000141252821777,0.0021817912347614,0.1105856396164745,-0.3811398984119296,-9.808748111128809,14944.0
1.11,0.5,96.0,23.909160614013672,-0.0318070948123931,-79.78274606892191,40.4589904182886,279.4542917305231,0.0188869405537843,0.0070155449211597,-0.8011704683303833,0.5980969667434692,0.0033670343436316,-0.0081416903649725,-0.0025925648362646,-0.0041002449579536,-0.0007413155981339,0.001458034501411,0.1089889751560986,-0.3839601567015052,-9.808086791038512,14944.0
1.3,0.5,97.0,23.909160614013672,-0.0159035474061965,-79.78274613079714,40.45899036480525,279.4511672699452,0.0188925266265869,0.0070132166147232,-0.8011699318885803,0.598097562789917,0.0054967153249776,-0.0124616171793891,-0.0039228291991259,0.0044546816498041,-0.0009883496677502,0.0030673064757138,0.1100392447225749,-0.3859091433137655,-9.807877460718156,14944.0
1.5,0.5,97.0,23.905405044555664,-0.0318070948123931,-79.78274614670434,40.45899036359671,279.45076487898825,0.0188933555036783,0.007014472503215,-0.8011714816093445,0.5980954766273499,0.0047481370803313,-0.0127884062949963,-0.0033700249700533,-0.0015585959190502,0.0001401291665388,-0.0037928151432424,0.1088003476336598,-0.3734203677624464,-9.806931965947152,14944.0
1.6,0.5,99.0,23.907907485961918,-0.0238553211092948,-79.78274617968918,40.45899029108384,279.44731593072413,0.0188952162861824,0.0070199905894696,-0.801172137260437,0.5980944633483887,0.0083918163088976,-0.0108735239352067,-0.0042652599230235,-0.0050557693466544,0.0011351013090461,-0.0017452205065637,0.1087846149690449,-0.3805198011919856,-9.806724389791489,14944.0
1.8,0.6000000238418579,102.0,23.909160614013672,-0.0159035474061965,-79.78274619738872,40.45899025355433,279.4442075484991,0.0188942737877368,0.007020114455372,-0.8011720180511475,0.598094642162323,0.0077552905759793,-0.0107611731561026,-0.0051531470546455,0.0027352769393473,0.0036446910817176,-0.0005029403837397,0.1096305883023888,-0.3737553766742349,-9.807762270569803,14944.0
1.9,0.6000000238418579,105.0,23.904151916503903,-0.0159035474061965,-79.78274622676014,40.45899024606721,279.4432208830118,0.018894637003541,0.0070209400728344,-0.8011733889579773,0.598092794418335,0.0074089856048808,-0.0111140083530626,-0.0040018733002929,-0.003264284459874,0.0021049820352345,-0.0025789735373109,0.1109485872555524,-0.3717382699996233,-9.806692814826963,14944.0
2.1,0.6000000238418579,106.0,23.909160614013672,-0.0318070948123931,-79.78274620090163,40.458990223089216,279.43688899219035,0.0188850685954094,0.0070228409022092,-0.8011733889579773,0.5980930924415588,0.0029657468432641,-0.0057949171428135,-0.00844927835195,0.0036491642240434,0.0003609340055845,0.0070171002298593,0.1118255325593054,-0.3847321353480221,-9.807106212973595,14944.0
2.21,0.6000000238418579,108.0,23.911664962768555,-0.0238553211092948,-79.78274619778996,40.45899017277817,279.4289805436134,0.0188860073685646,0.0070288577117025,-0.8011741042137146,0.5980920195579529,0.0057663869641273,-0.0031937915506486,-0.0113302172747441,0.0002529786142986,0.0052563743665814,0.0043156337924301,0.1108910469990223,-0.3817948596552014,-9.809377856254578,14944.0
2.4,0.6000000238418579,111.0,23.90665626525879,-0.0238553211092948,-79.782746202942,40.45899016932459,279.4278578007221,0.0188860073685646,0.0070288577117025,-0.8011741042137146,0.5980920195579529,0.0051598811324033,-0.0032469604964559,-0.0106680734425274,-0.0041164248250424,-0.004549435339868,0.0020123750437051,0.1091115382779389,-0.3830188280716539,-9.807190997600555,14944.0
2.5,0.6000000238418579,110.0,23.907907485961918,-0.0238553211092948,-79.78274619690946,40.45899013413485,279.4209911072254,0.018883341923356,0.0070300786755979,-0.8011756539344788,0.5980899930000305,0.0042192552720866,-0.0021129737159619,-0.009775299410745,0.001209583482705,0.0018530418165028,0.0048980419524014,0.1099196508899331,-0.3854411833360791,-9.807828344106674,14944.0
2.6,0.699999988079071,112.0,23.911664962768555,-0.0238553211092948,-79.78274620059071,40.45899013142176,279.420018478632,0.0188841242343187,0.0070306505076587,-0.8011768460273743,0.5980883836746216,0.0038070337580432,-0.0023799126862344,-0.0093147874389323,-0.0036231547128409,0.0009992412524297,-0.0036472070496529,0.1100030924845486,-0.3706361429393292,-9.806572362184523,14944.0
2.8,0.699999988079071,113.0,23.91291618347168,-0.0318070948123931,-79.78274621060977,40.45899009984581,279.4127506309748,0.0188858602195978,0.007029150146991,-0.8011766672134399,0.5980885624885559,0.0037937912950415,-0.0044604039942095,-0.0086481343647488,-0.005799741949886,-0.0052186227403581,-0.0018634699517861,0.1100574167724698,-0.3759294445440173,-9.806164226531983,14944.0
3.0,0.699999988079071,114.0,23.907907485961918,-0.0238553211092948,-79.78274621684257,40.45899009769766,279.4118913406133,0.0188847165554761,0.0070284944958984,-0.8011788725852966,0.5980856418609619,0.0045599968227457,-0.0045647149563063,-0.0081547214656625,0.0047289887443184,0.0023246223572641,-0.0002146477199858,0.1114195165224373,-0.3778368428349495,-9.808189702033998,14944.0
3.11,0.699999988079071,116.0,23.907907485961918,-0.0318070948123931,-79.78274619931136,40.45899007340485,279.40449090242385,0.0188834555447101,0.0070309014990925,-0.8011798858642578,0.5980842709541321,0.0030866284030782,-0.003311853228767,-0.0078285130439597,0.0031049237586557,0.0039165010675787,-0.0026415770407766,0.110684594605118,-0.3727716922760009,-9.80724596142769,14944.0
3.3,0.6000000238418579,115.0,23.911664962768555,-0.0159035474061965,-79.78274619323949,40.458990067079576,279.3975896680355,0.0188824087381362,0.0070256553590297,-0.8011797666549683,0.5980845093727112,0.0003543350225295,-0.0063047509722709,-0.0084344165441736,0.0046144393272697,-0.001663732342422,0.0004167811130173,0.1109341702144593,-0.3855200476571918,-9.8076663762331,14944.0
3.4,0.6000000238418579,115.0,23.909160614013672,-0.0159035474061965,-79.7827462073646,40.45899007083239,279.3960096830129,0.0188813917338848,0.0070247920230031,-0.8011816740036011,0.5980820655822754,0.0003999706351707,-0.0065296860265699,-0.0073612337510395,0.0037892209365963,-0.0003216443001292,0.0064658564515411,0.1109346178919077,-0.3808060954883695,-9.808250513076784,14944.0
3.6,0.6000000238418579,115.0,23.90290069580078,-0.0397588685154914,-79.78274617062158,40.45899004665953,279.38653989076613,0.0188795085996389,0.0070282104425132,-0.8011812567710876,0.5980826020240784,0.0002784433239947,-0.0039917592355469,-0.011456694725744,-0.002217233646661,-0.0009335730574093,-0.0029490455053746,0.1087000496126711,-0.3826917129009961,-9.80726057946682,14944.0
3.7,0.6000000238418579,117.0,23.904151916503903,-0.0159035474061965,-79.7827461427452,40.45899003238768,279.3763072633743,0.0188796538859605,0.0070310584269464,-0.8011820912361145,0.5980815291404724,0.0009815670557065,-0.0029115271505953,-0.0128292974863122,0.002709244377911,0.0029304358176887,0.0044523030519485,0.1102048122882843,-0.3846750519052148,-9.808010192513468,14944.0
3.9,0.6000000238418579,118.0,23.90665626525879,-0.0159035474061965,-79.78274614606524,40.458990032920426,279.37504629731177,0.0188796538859605,0.0070310584269464,-0.8011820912361145,0.5980815291404724,0.0003523757986246,-0.0031241865587811,-0.0122843651326948,-0.0067556393332779,0.00254452903755,-0.0069343270733952,0.1097853202465921,-0.3718368321284652,-9.80754475414753,14944.0
4.0,0.6000000238418579,119.0,23.907907485961918,-0.0238553211092948,-79.78274613013868,40.458990004010346,279.36545620799063,0.0188832469284534,0.0070328419096767,-0.8011829257011414,0.5980802178382874,0.0045111767804624,-0.0041960594494732,-0.0106720251946631,-0.0018568731611594,-0.002458150498569,-0.0032353489659726,0.108687752187252,-0.3796605528518558,-9.806981667280198,14944.0
4.2,0.6000000238418579,121.0,23.9104118347168,-0.0159035474061965,-79.78274613632406,40.45899000118908,279.36438541054724,0.0188842415809631,0.0070340232923626,-0.8011844754219055,0.5980781316757202,0.0048994327532595,-0.0044244532970478,-0.0102438252290759,0.0034807787742465,-0.0002152707893401,-1.921181683428585e-05,0.1107299287989735,-0.3759931061044336,-9.808527086377143,14944.0
4.3,0.5,117.0,23.90665626525879,-0.0238553211092948,-79.78274609449369,40.45898997126209,279.3520461761952,0.0188836120069026,0.0070386528968811,-0.8011841773986816,0.5980784893035889,0.0062337540427315,-0.0018309942286793,-0.0126301245034217,0.0001213556097354,-0.0001705710310488,-0.003635621163994,0.1091242833808064,-0.3862584413588047,-9.807742974758147,14944.0
4.4,0.5,118.0,23.901647567749023,-0.0159035474061965,-79.782746098456,40.4589899665514,279.35078515052794,0.0188831761479377,0.00703817140311,-0.8011850118637085,0.5980772972106934,0.0068415478200707,-0.0018828972368292,-0.0120496914542407,0.0036488005425781,-0.0004584589623846,0.0039669619873166,0.110041464837268,-0.3858801995962857,-9.808951594233507,14944.0
4.61,0.5,117.0,23.91291618347168,-0.0318070948123931,-79.78274601641186,40.458989956239,279.3406333768368,0.018876377493143,0.0070417267270386,-0.8011866807937622,0.5980752110481262,0.0037450355584989,0.0025285714002981,-0.0108853354810584,0.0042307935655117,0.0032615785021334,0.0063810762949287,0.1113257600739598,-0.3823761459812522,-9.809494800567627,14944.0
4.8,0.5,116.0,23.905405044555664,0.0318070948123931,-79.78274598323975,40.458989946997725,279.3310305917263,0.0188784562051296,0.0070389248430728,-0.8011865019798279,0.5980753898620605,0.0030122479017864,-0.0007683835535859,-0.0103669628176595,-0.0048434203490614,-0.000487626879476,-0.004018141888082,0.1087354435399174,-0.3806405096501112,-9.806793971657754,14944.0
4.91,0.5,116.0,23.901647567749023,0.0715659633278846,-79.78274598700845,40.458989942309046,279.3290304684639,0.0188786722719669,0.0070390198379755,-0.8011882901191711,0.5980731248855591,0.0034037836013917,-0.0009454660966256,-0.009294197924714,-0.0015917046694085,-0.004090997390449,-0.0009719452355057,0.1084779010992497,-0.3846555733680725,-9.807314958572386,14944.0
5.1,0.5,115.0,23.90290069580078,0.0159035474061965,-79.78274597751852,40.45898995350525,279.31934000492095,0.0188811067491769,0.0070304279215633,-0.8011879920959473,0.5980735421180725,0.0007679775797083,-0.0082204429778008,-0.0094469092349932,-0.0006186913815326,0.0014830451691523,-0.0031618501525372,0.1106162461359054,-0.3728005994483829,-9.807724848389627,14944.0
5.2,0.4000000059604645,115.0,23.9003963470459,0.055662415921688,-79.78274592587424,40.458989936272026,279.30870087385176,0.0188793838024139,0.0070371995680034,-0.8011889457702637,0.5980722904205322,0.0034197809922834,-0.0042197355799154,-0.0091310016737401,-0.0023011590819805,-9.747740841703492e-05,-0.0038248968776315,0.1093511644843965,-0.3725464282929897,-9.807314373850822,14944.0
5.4,0.4000000059604645,115.0,23.90290069580078,0.0715659633278846,-79.78274593174937,40.45898993430772,279.30779589653014,0.0188793838024139,0.0070371995680034,-0.8011889457702637,0.5980722904205322,0.0043165617211585,-0.0043427983474319,-0.0086417849184289,0.0046404176391661,0.0022397625725716,0.0067137517035007,0.1106523709651082,-0.3819650867208839,-9.808314247727395,14944.0
5.5,0.4000000059604645,113.0,23.901647567749023,0.0954212844371795,-79.7827458938423,40.45898995352968,279.2974939787388,0.0188774690032005,0.0070330705493688,-0.8011898398399353,0.5980710983276367,5.760913778659581e-05,-0.0070027804796524,-0.0087589211076374,0.0038862125948071,0.0020560403354465,0.0026567073073238,0.111549324709922,-0.3767757559195161,-9.809485445022585,14944.0
5.7,0.4000000059604645,113.0,23.89538764953613,0.0636141896247863,-79.78274590143981,40.458989955728,279.296651109457,0.0188765227794647,0.0070325303822755,-0.8011912703514099,0.5980692505836487,-0.0001254142809626,-0.0069314289746231,-0.0079867512217071,-0.0028595402836799,-0.0015084773767739,-0.0005568271153606,0.1092242433596402,-0.3841261079907417,-9.808235310316086,14944.0
5.8,0.4000000059604645,108.0,23.897891998291016,0.0715659633278846,-79.7827458504466,40.45898996373202,279.2868482017517,0.0188741795718669,0.0070349615998566,-0.8011912703514099,0.5980692505836487,9.90998710327196e-05,-0.0050190878981201,-0.0079636905813999,0.0037119823973625,0.0011581726139411,0.0088033359497785,0.110287477299571,-0.3872338665649295,-9.807266426682473,14944.0
6.0,0.4000000059604645,111.0,23.89664077758789,0.0238553211092948,-79.78274585594718,40.458989965391176,279.2860730433464,0.0188752841204404,0.007036077324301,-0.8011928796768188,0.598067045211792,-0.0006895773386668,-0.0051985723949405,-0.007444343156099,-0.0026351348496973,-0.0001984392874874,-0.0012467082124203,0.1099586810544133,-0.3740468603745103,-9.80748335838318,14944.0
6.1,0.4000000059604645,113.0,23.89413642883301,0.055662415921688,-79.78274581908998,40.4589899716915,279.2765507543087,0.0188755840063095,0.0070358263328671,-0.8011935353279114,0.5980662107467651,0.0004453159705547,-0.0063837756966983,-0.0072675070767585,-0.003492884337902,-0.0038495522458106,-0.0029430438298732,0.1079600296542048,-0.3801381972804665,-9.80720503091812,14944.0
6.3,0.4000000059604645,114.0,23.89288330078125,0.0477106422185897,-79.78274578028484,40.45898996939708,279.267836227417,0.018878323957324,0.0070391888730227,-0.8011932969093323,0.5980663895606995,0.0044406226498009,-0.006187309853431,-0.0081054635761161,0.0011863309191539,0.0011870833113789,0.0031255891080945,0.1115084216091782,-0.3759726773947477,-9.807936517596245,14944.0
6.41,0.4000000059604645,116.0,23.887874603271484,-0.0318070948123931,-79.78274579675106,40.458989965569394,279.2662740790844,0.0188788101077079,0.0070398268289864,-0.8011942505836487,0.5980650782585144,0.0039224836700504,-0.0062703693043019,-0.0070931871588593,-0.0010139752412214,-0.0003016256960108,-0.0055050710216164,0.1108638209011405,-0.3721286081895233,-9.807689180374147,14944.0
6.6,0.4000000059604645,115.0,23.89037895202637,-0.0159035474061965,-79.78274575819573,40.458989991499074,279.2582425916195,0.0188776198774576,0.0070384936407208,-0.8011941313743591,0.5980652570724487,0.0036742792483011,-0.0069622476076193,-0.0078989348064911,0.0022771668154746,0.0003332615015096,0.0042505613528192,0.1105329598579555,-0.3847543547675013,-9.807727771997452,14944.0
6.7,0.4000000059604645,117.0,23.90290069580078,0.0636141896247863,-79.78274571755088,40.45899002773604,279.2495441877842,0.0188722666352987,0.007037010975182,-0.8011962771415709,0.5980625152587891,-0.0001068908278659,-0.0058796719246583,-0.0081182203029126,0.0025634185876697,0.002761494833976,0.0052744243294,0.111752031231299,-0.3774122618883848,-9.808363364338875,14944.0
6.9,0.4000000059604645,121.0,23.89664077758789,0.0238553211092948,-79.78274572388943,40.45899002972316,279.24875916481017,0.0188722666352987,0.007037010975182,-0.8011962771415709,0.5980625152587891,-0.0002277170510766,-0.0058078590460673,-0.0074246119721384,1.1692033694998829e-05,0.0002096592652378,0.001006850390695,0.1096167468465864,-0.383652483522892,-9.808447564244268,14944.0
7.0,0.4000000059604645,124.0,23.901647567749023,0.0636141896247863,-79.78274572370849,40.458990081756966,279.24007497668265,0.0188735462725162,0.0070307119749486,-0.8011971116065979,0.5980615615844727,-0.001597553854561,-0.0111789780362992,-0.0077551315978626,0.0064312601462006,0.002392548136413,0.0056838449090719,0.1111967467423528,-0.3857502817735076,-9.808589651584626,14944.0
7.2,0.5,129.0,23.89914321899414,0.055662415921688,-79.78274573556274,40.4589900865809,279.2393247628212,0.0188737623393535,0.0070307571440935,-0.8011988997459412,0.5980591177940369,-0.0024171353095993,-0.0112488870693322,-0.0071425427522054,-0.0042271106503903,-0.0010545606492087,-0.0078103644773364,0.1099281567614525,-0.3765745386108757,-9.807890909314157,14944.0
7.31,0.5,132.0,23.90665626525879,0.0636141896247863,-79.78274569619332,40.45899014332648,279.23022176265715,0.0188677906990051,0.0070311860181391,-0.8011990189552307,0.5980591773986816,-0.005021087489889,-0.0085244472332183,-0.0076417439605134,-0.0027273802552372,0.0005206231726333,-0.0029592101927846,0.1081796474196016,-0.3832267331331968,-9.806703924536707,14944.0
7.5,0.6000000238418579,136.0,23.904151916503903,0.0795177370309829,-79.78274570403359,40.458990150018906,279.2294862115383,0.0188678260892629,0.0070314081385731,-0.8012003898620605,0.5980573892593384,-0.0051368913849387,-0.0086991013203268,-0.0072126245828225,-0.0025757339317351,-0.0012554083950817,-0.0031706138979643,0.1105540372431278,-0.3713318885117769,-9.807556448578834,14944.0
7.61,0.6000000238418579,138.0,23.901647567749023,0.0397588685154914,-79.78274568631899,40.45899019239598,279.2199568891525,0.0188706088811159,0.0070367194712162,-0.8012028932571411,0.5980538725852966,-0.0034637606816125,-0.0087885472692341,-0.0075808536212446,-0.0028360933065414,-0.0008290515979751,-0.0052046040073037,0.109910432389006,-0.3744203878194094,-9.806577039957046,14944.0
7.7,0.699999988079071,140.0,23.904151916503903,0.0636141896247863,-79.78274567723065,40.45899022184848,279.21165986299513,0.0188761800527572,0.0070438715629279,-0.8012000322341919,0.5980573892593384,0.0018571579480795,-0.0108492753457014,-0.0080154543602362,0.0031550568528473,0.0008114686934277,0.0041888547129929,0.1115696529205888,-0.3810163759812713,-9.80916735649109,14944.0
7.9,0.699999988079071,143.0,23.901647567749023,-0.0159035474061965,-79.78274570259444,40.45899022529535,279.210138245821,0.0188729874789714,0.0070448061451315,-0.8012081384658813,0.5980466604232788,0.0013530881880839,-0.0111014436094334,-0.0068998113610326,0.0031071247067302,-0.0013667618623003,-0.0026525694411247,0.1109012704901397,-0.3725529333204031,-9.808335297703744,14944.0
8.1,0.8000000119209291,150.0,23.905405044555664,-0.0318070948123931,-79.78274566375623,40.45899027244267,279.2022456371784,0.0188753046095371,0.0070480317808687,-0.8012048602104187,0.5980510115623474,0.0006694934503802,-0.0077936011705534,-0.0076244030300414,0.0050136628560721,-0.0012058912543579,0.0029098656959831,0.1100600023381412,-0.3851384072005749,-9.807749991416932,14944.0
8.21,0.8999999761581421,154.0,23.911664962768555,-0.0159035474061965,-79.78274563427661,40.45899035920837,279.1955055737496,0.0188503172248601,0.0070348992012441,-0.8012130856513977,0.5980408191680908,-0.0069735185169289,-0.0071975342305041,-0.0049758426356107,0.0041626077145338,-0.0007632540073245,0.0024831139016896,0.1115358304325491,-0.3809141958877445,-9.809172034263607,14944.0
8.4,1.0,157.0,23.909160614013672,-0.0079517737030982,-79.78274563984886,40.4589903675374,279.19505526065825,0.0188493505120277,0.0070425197482109,-0.801197350025177,0.5980618000030518,-0.0074453538536693,-0.0072284164599446,-0.0043893915172996,-0.002470142673701,0.0002657501609064,-0.0028038274031132,0.1084521550778299,-0.3824851965531707,-9.807690349817276,14944.0
8.51,1.100000023841858,161.0,23.9003963470459,-0.0159035474061965,-79.78274561398719,40.45899045160181,279.18665386676787,0.0188551452010869,0.0070309098809957,-0.8012091517448425,0.598046064376831,-0.0089488921129723,-0.0057731131288782,-0.0060096370844116,0.0058278199285268,0.0011356211034581,0.0034366596955806,0.1112811841908842,-0.3859753264859319,-9.807902019023896,14944.0
8.7,1.2000000476837158,162.0,23.905405044555664,-0.0238553211092948,-79.78274561735782,40.458990461271966,279.18610711336135,0.0188683755695819,0.0070355907082557,-0.8012082576751709,0.5980466604232788,-0.0097446256050097,-0.0058703995390396,-0.0055014748412574,-0.0031499110627919,0.0010899836197495,-0.0033188492525368,0.1105831545498222,-0.3751335288584233,-9.80690389931202,14944.0
8.81,1.2000000476837158,163.0,23.89914321899414,-0.0159035474061965,-79.78274560815564,40.45899052813937,279.178048684597,0.0188705269247293,0.0070358393713831,-0.8012080192565918,0.5980469584465027,-0.0070935431764928,-0.0068923613876822,-0.0059202642974224,-0.0016181325772777,-0.0018939572619274,0.0007292705704458,0.1111095866840332,-0.3783205172047019,-9.808396108746528,14944.0
9.0,1.2000000476837158,166.0,23.909160614013672,-0.0159035474061965,-79.78274561356663,40.45899053619815,279.17749975562094,0.0188705176115036,0.0070363064296543,-0.8012096285820007,0.598044753074646,-0.0073327692054725,-0.0071176238896199,-0.0054569825624151,-0.0034376513212919,-0.0043646325357258,-0.0021347771398723,0.1108154900092631,-0.3731096247956157,-9.80826337695122,14944.0
9.11,1.2000000476837158,168.0,23.89914321899414,-0.0238553211092948,-79.78274556368477,40.45899058010501,279.16938321232794,0.0188686102628707,0.0070440610870718,-0.8012102842330933,0.5980439186096191,-0.0038648320591637,-0.0010121441117048,-0.0061207552398714,-0.0036962763406336,-0.0020640562288463,-0.0037093684077262,0.1090299970284104,-0.3767122770845889,-9.807055926918984,14944.0
9.3,1.2000000476837158,173.0,23.905405044555664,-0.0079517737030982,-79.78274553783365,40.45899066989888,279.1614235782623,0.0188627429306507,0.0070373206399381,-0.8012102246284485,0.5980442762374878,-0.009542218805553,-0.002674617283455,-0.0077356394482709,0.0035650802310556,5.743255678680725e-05,0.0013940405333414,0.1118171454593539,-0.3782169483974576,-9.809147475957872,14944.0
9.4,1.2000000476837158,172.0,23.909160614013672,-0.0079517737030982,-79.78274553701391,40.45899068851267,279.1600510621071,0.0188627261668443,0.0070374766364693,-0.8012120723724365,0.598041832447052,-0.0100094211917636,-0.0028341713500514,-0.0067672071851702,-0.0039103180170059,0.0011615891708061,-0.0048839366063475,0.1101637995522469,-0.3708190876990557,-9.80768742620945,14944.0
9.6,1.2000000476837158,173.0,23.9104118347168,-0.0238553211092948,-79.78274547645138,40.45899071202904,279.151732339859,0.018864881247282,0.0070490855723619,-0.8012118935585022,0.598041832447052,-0.0013175716702193,0.0035571587281187,-0.0077324158401169,0.002355765318498,0.0006586642703041,0.0034325374290347,0.110079352967441,-0.3844778180122376,-9.808267470002177,14944.0
9.71,1.2000000476837158,172.0,23.909160614013672,-0.0238553211092948,-79.78274547276487,40.45899078894261,279.142687305212,0.0188676938414573,0.0070404689759016,-0.8012127876281738,0.5980405807495117,-0.0029844073550345,-0.0035247320748458,-0.0079497962191496,0.0011626111809164,0.00249799573794,0.0032387992832809,0.1123032866232097,-0.3753561615943909,-9.807974524497986,14944.0
9.9,1.100000023841858,172.0,23.90665626525879,-0.0159035474061965,-79.7827454754057,40.45899079270696,279.14192975997923,0.0188676938414573,0.0070404689759016,-0.8012127876281738,0.5980405807495117,-0.002915485728014,-0.0033971864263847,-0.007357635053955,0.0013742155861109,-0.0004973613540641,0.0003848152118735,0.1101143174897879,-0.3844938613101839,-9.808034750819209,14944.0
10.01,1.100000023841858,172.0,23.9003963470459,-0.0238553211092948,-79.78274544466821,40.45899087531888,279.1330689334869,0.0188640281558036,0.0070382114499807,-0.8012145757675171,0.5980383157730103,-0.0055930263465143,-0.0033400180998016,-0.0077794794932082,0.0032028253190219,0.0024828959722071,0.006114499643445,0.1110376293864101,-0.3845023763179779,-9.809557950496671,14944.0
10.2,1.0,170.0,23.9003963470459,-0.0079517737030982,-79.78274544632767,40.45899088157304,279.132340862751,0.0188636966049671,0.0070378701202571,-0.8012153506278992,0.5980373024940491,-0.006238331091291,-0.0034200847918062,-0.0071485011528565,-0.0026351760607212,1.965197952813469e-06,-0.0062873079441487,0.1086335649434477,-0.3793655608221889,-9.807699120640756,14944.0
10.3,0.8999999761581421,169.0,23.905405044555664,-0.0079517737030982,-79.78274543867501,40.45899094586128,279.1207662367821,0.0188665520399808,0.0070368465967476,-0.8012146949768066,0.5980380773544312,-0.0034353620016957,-0.0058238639209496,-0.011138804302496,0.0007244651205837,-0.0020393899176269,0.0080867568030953,0.1099052703939378,-0.386713062375784,-9.80897907614708,14944.0
10.5,0.8999999761581421,165.0,23.904151916503903,-0.0079517737030982,-79.78274544384846,40.45899095076789,279.11968101501463,0.0188670437783002,0.0070374859496951,-0.8012158870697021,0.5980364680290222,-0.0040025988119232,-0.0059279155244644,-0.0106726172609288,-0.0016712656943127,-0.0028088616672903,-0.0042317449115216,0.1107503026910126,-0.3722229310870171,-9.807966338396072,14944.0
10.6,0.8000000119209291,164.0,23.90665626525879,-0.0238553211092948,-79.78274541169951,40.45899104390017,279.10852564811705,0.0188621617853641,0.007035125978291,-0.8012173175811768,0.5980348587036133,-0.0070110578952684,-0.0049009021105251,-0.0131721097940132,-0.0059027816168963,-0.0008728458196856,-0.0047188568860292,0.1089614201523363,-0.3823298067972064,-9.807621937394142,14944.0
10.8,0.8000000119209291,163.0,23.905405044555664,-0.0238553211092948,-79.78274539779366,40.45899112159368,279.1007787132263,0.0188619159162044,0.0070320079103112,-0.8012171983718872,0.5980349779129028,-0.0076335268643906,-0.0070807190528963,-0.0124346101076094,-0.0005926081212237,0.0015269800787791,-0.000436405010987,0.1114616712927818,-0.3759978569671512,-9.80848089337349,14944.0
10.9,0.8000000119209291,163.0,23.907907485961918,-0.0159035474061965,-79.78274540804921,40.45899113914601,279.0984556221962,0.018862472847104,0.0070327268913388,-0.8012191653251648,0.5980323553085327,-0.0081433132971462,-0.0072076020312136,-0.0112561518578345,-0.0027516731061041,-0.0014279042370617,-0.0014838395873084,0.1094918722473085,-0.3721060233190656,-9.808224200606348,14944.0
11.1,0.699999988079071,166.0,23.907907485961918,-0.0477106422185897,-79.78274539714398,40.45899121866022,279.0910027170181,0.0188625156879425,0.0070298891514539,-0.80121910572052,0.5980324745178223,-0.0078966582339683,-0.0091685719467925,-0.0106859635405483,0.0060179098509252,0.0006042541353963,0.0041159186512231,0.1111852259002626,-0.3856613675504923,-9.809184313416482,14944.0
11.2,0.8000000119209291,165.0,23.907907485961918,-0.0159035474061965,-79.78274539021758,40.45899130952496,279.0796784901619,0.0188618879765272,0.0070277373306453,-0.8012194037437439,0.5980320572853088,-0.0086061163609033,-0.0105396365103449,-0.0135385549764749,0.0035385331138968,0.0028112274594604,-0.0015160901239141,0.1114529096055776,-0.3756116849184036,-9.808443471193314,14944.0
11.3,0.8000000119209291,170.0,23.907907485961918,-0.0079517737030982,-79.78274539879082,40.45899132024476,279.0783760690689,0.0188618879765272,0.0070277373306453,-0.8012194037437439,0.5980320572853088,-0.0088049077288809,-0.0105144417007064,-0.0130151263433331,-0.0024001358542591,-0.0023807906545698,0.0019797028508037,0.1093243677914142,-0.3860772507637739,-9.807397404313088,14944.0
11.5,0.8000000119209291,171.0,23.909160614013672,-0.0238553211092948,-79.78274539406992,40.4589913958266,279.0687104606628,0.0188640933483839,0.0070301825180649,-0.8012198209762573,0.5980313420295715,-0.0053527479245914,-0.0104847226767556,-0.0116529755868329,0.0038963784463703,0.0023837788030505,0.0050682388246059,0.1103547202795744,-0.3843064580485225,-9.80811193406582,14944.0
11.6,0.8000000119209291,177.0,23.911664962768555,-0.0318070948123931,-79.78274540378578,40.45899140385828,279.0675833964348,0.0188640393316745,0.0070302165113389,-0.8012217283248901,0.5980289578437805,-0.0061202297563057,-0.0105802058787952,-0.0111220331906621,-0.004990255460143,-0.0010853131534531,-0.0023327833041548,0.1078418336715549,-0.3780751899629832,-9.806684628725051,14944.0
11.8,0.8000000119209291,181.0,23.909160614013672,-0.0238553211092948,-79.78274538313306,40.45899148677077,279.05833943128584,0.0188601985573768,0.0070302495732903,-0.8012217283248901,0.5980290174484253,-0.0074907630447091,-0.0088178747245918,-0.0104221395090784,-0.0008505024015903,0.0002591015072539,0.0020540487021207,0.110802132776007,-0.3849334257468581,-9.808537026643751,14944.0
12.0,0.8000000119209291,181.0,23.904151916503903,-0.0238553211092948,-79.78274539037535,40.45899149586524,279.05734451055525,0.0188603717833757,0.0070307063870131,-0.8012226223945618,0.598027765750885,-0.0079467929219528,-0.0090226241526077,-0.0099247672643038,-0.0028119995258748,-0.0001770554226823,-0.0026677581481635,0.1099436701554805,-0.3716091927140952,-9.808050538301467,14944.0
12.1,0.8999999761581421,177.0,23.904151916503903,-0.0397588685154914,-79.78274540999647,40.45899156437194,279.04593302249907,0.0188651662319898,0.0070293685421347,-0.8012227416038513,0.5980275273323059,-0.0043350537520073,-0.0126096733995452,-0.0124955189769427,-0.0015453597297891,-0.0023895290214568,-0.0041293082758784,0.1090053839050233,-0.3806274265050889,-9.80794821202755,14944.0
12.3,0.8999999761581421,172.0,23.90665626525879,-0.0238553211092948,-79.78274537021841,40.45899162481209,279.03808404445647,0.0188616383820772,0.0070332060568034,-0.8012228608131409,0.5980274081230164,-0.0036196107684113,-0.008507191656226,-0.0117799745719035,-0.0003632343141362,-0.0037586141843348,0.0013501831563189,0.1105087030492723,-0.3737962340936065,-9.808466860055924,14944.0
12.4,1.0,174.0,23.911664962768555,-0.0159035474061965,-79.78274538665933,40.45899163626672,279.0358438038826,0.0188620872795581,0.0070338663645088,-0.8012233972549438,0.5980266928672789,-0.0040672114464813,-0.0088174644373528,-0.0107831612589092,-0.0030786159913986,-0.0014216033741831,-0.0053272489458322,0.1093737676274031,-0.3728509220480919,-9.807727187275889,14944.0
12.6,1.0,165.0,23.909160614013672,-0.0318070948123931,-79.78274534037652,40.45899169969345,279.0280796432495,0.0188591200858354,0.0070365210995078,-0.8012234568595886,0.5980266928672789,-0.0031157356705084,-0.005664452230927,-0.0106475787413123,0.0074356165714561,-5.862530815647915e-05,0.0072657093405723,0.111737595917657,-0.3824132027104497,-9.808382075428964,14944.0
12.71,1.100000023841858,164.0,23.90665626525879,-0.0238553211092948,-79.78274530524098,40.45899177294089,279.0192200684548,0.0188552476465702,0.0070346989668905,-0.8012251257896423,0.5980245471000671,-0.0056891639319288,-0.0049590677719762,-0.0101369388642371,0.0018954017432406,-0.0031085065566003,0.0001834000868257,0.110987626556307,-0.3742783735692501,-9.808870902657508,14944.0
12.9,1.0,164.0,23.901647567749023,-0.0318070948123931,-79.78274530865518,40.45899177953295,279.0182544136047,0.0188552476465702,0.0070346989668905,-0.8012251257896423,0.5980245471000671,-0.005718067429488,-0.0049481781489289,-0.0096005951791175,0.0007058784831315,-0.0019310712814331,0.0035420299973338,0.1103622120246291,-0.3866523975133896,-9.807862842679024,14944.0
13.0,1.0,162.0,23.905405044555664,-0.0397588685154914,-79.78274527229303,40.45899186290975,279.0116764450073,0.0188524406403303,0.0070342533290386,-0.8012263774871826,0.5980229377746582,-0.0076628293029075,-0.0042660397037367,-0.005968311267449,0.0027831196784973,0.0020584824960678,0.0061300517991185,0.1107128713745624,-0.383354348614812,-9.80914630651474,14944.0
13.2,1.100000023841858,160.0,23.905405044555664,-0.0477106422185897,-79.78274527433902,40.45899187123235,279.011138215065,0.0188522450625896,0.0070338933728635,-0.8012272715568542,0.5980217456817627,-0.0084839051533754,-0.0043302793342696,-0.0053351771418376,-0.0050853672437369,-0.0023042557295411,-0.0042312210425734,0.1088686138764023,-0.3794643422216177,-9.808401371240617,14944.0
13.3,1.100000023841858,156.0,23.905405044555664,-0.0159035474061965,-79.78274526032705,40.45899191787056,279.0027423048019,0.0188580397516489,0.0070373080670833,-0.8012267947196959,0.5980221033096313,-0.0017296639682479,-0.0050811119167082,-0.006079419533253,-0.000864666129928,0.0009484493057243,0.0003127789823338,0.1095155534707009,-0.3847553049400449,-9.80955970466137,14944.0
13.5,1.2000000476837158,155.0,23.901647567749023,-0.0318070948123931,-79.78274526542073,40.45899192093712,279.0021544241905,0.0188582595437765,0.0070373783819377,-0.8012291193008423,0.5980191826820374,-0.0021691703035477,-0.0052045307343592,-0.0056699786522275,-0.003273461246863,-0.0006355741643346,-0.0033202804625034,0.1107244835793972,-0.3720252221077681,-9.807913128733636,14944.0
13.6,1.2000000476837158,156.0,23.905405044555664,-0.0238553211092948,-79.7827452196862,40.458991990450265,278.9956651473045,0.0188554599881172,0.0070383707061409,-0.8012304306030273,0.5980173349380493,-0.0028976117478271,-0.0032209333598755,-0.0032316669527195,-0.0024816787336021,-0.0020446269772946,-0.0047510806471109,0.1092286835890263,-0.3772159050777555,-9.807796184420589,14943.0
13.7,1.100000023841858,160.0,23.90665626525879,-0.0318070948123931,-79.7827451952516,40.45899205469557,278.9891963744164,0.0188560485839843,0.0070367525331676,-0.8012303709983826,0.5980174541473389,-0.0019029530986968,-0.0048822475495103,-0.002346525927473,0.0013048171531409,-0.0009268069989047,0.0004331839736551,0.1106055110134184,-0.3771077315881848,-9.809310613274574,14943.0
13.91,1.100000023841858,167.0,23.907907485961918,-0.0397588685154914,-79.78274520462242,40.458992061093305,278.98884905815123,0.0188562888652086,0.0070370356552302,-0.8012320399284363,0.5980151891708374,-0.0026246232254847,-0.0048594265631617,-0.0012563971776733,-0.0044935946352779,-3.4295266232220456e-05,-0.0012979485327377,0.1109874621033668,-0.3724568197131157,-9.808623565435411,14943.0
14.1,0.8999999761581421,160.0,23.904151916503903,-0.0636141896247863,-79.78274516439795,40.458992127484606,278.98246146678923,0.0188537985086441,0.0070377839729189,-0.8012320399284363,0.5980152487754822,-0.00225161396926,-0.0032598582097079,-0.0007383459495827,0.0015314556658267,0.0008496479131281,0.0014104831498116,0.1106556143425405,-0.3839528476819396,-9.809329324364665,14943.0
14.2,0.8999999761581421,161.0,23.88286781311035,0.4055404663085937,-79.78274514865991,40.45899219963973,278.976052775383,0.0188551470637321,0.0070352051407098,-0.8012326955795288,0.5980143547058105,-0.0015434274877543,-0.0054214609044962,-0.0001240468553367,0.0014000257942825,0.0005348224658519,0.0054730777628719,0.1123050407879054,-0.3762569982558489,-9.809190160632133,14943.0
14.4,1.0,158.0,23.88912773132324,0.2862638533115387,-79.78274515422741,40.458992202627904,278.9760676169396,0.0188484229147434,0.0070277219638228,-0.8012376427650452,0.5980080366134644,-0.0029520492690073,-0.0054169277689628,0.0003796803034481,-0.0015166451921686,0.0026305895298719,-0.008964761160314,0.1091034161299467,-0.4009183611720801,-9.808049953579904,14943.0
14.5,1.0,155.0,23.88411903381348,0.2862638533115387,-79.78274514943305,40.45899231909811,278.96822090387343,0.018854035064578,0.0070231226272881,-0.8012005686759949,0.5980576872825623,-0.0089735187441139,-0.0092079618952054,-0.0030118761931887,0.0040132524445652,0.0054292711429297,-0.0034036957658827,0.1119961981661617,-0.396568982899189,-9.81087591290474,14943.0
14.7,1.0,155.0,23.89037895202637,0.2862638533115387,-79.78274515686859,40.45899232878785,278.96796949148177,0.0188548304140567,0.0070326603017747,-0.8012191653251648,0.5980324745178223,-0.0087248430180333,-0.0090736006415887,-0.0025349168320166,-0.0016136165941134,-0.0078658983111381,0.0008561215945519,0.108216302152723,-0.3852867437526584,-9.807749991416932,14943.0
14.8,1.100000023841858,156.0,23.88912773132324,0.2703603208065033,-79.78274510713821,40.458992417105605,278.9659488940239,0.0188604053109884,0.0070274709723889,-0.8012243509292603,0.5980255007743835,-0.0085747917607841,-0.003017892845878,0.0022513749371865,-0.0001338704169029,0.0008297749445773,-0.0044391076080501,0.1099328253977,-0.3776954133063555,-9.808056970238686,14943.0
14.9,1.100000023841858,155.0,23.88662338256836,0.2862638533115387,-79.78274510763346,40.45899242501704,278.96623082399367,0.0188810788094997,0.0070396526716649,-0.8011987805366516,0.5980589985847473,-0.008043700635466,-0.0030884478481219,0.0026788548833384,0.0009211522410623,-0.0016052105929702,0.0054255877621471,0.1101557322219014,-0.3670719360932708,-9.808430022597314,14943.0
15.1,1.0,152.0,23.88411903381348,0.3657816052436829,-79.78274508742416,40.45899251592096,278.962761118412,0.0188618004322052,0.0070567475631833,-0.8012288808822632,0.5980190634727478,-0.007735977648338,-0.0021323988634109,0.0028032794586779,-0.0016911189304664,-0.0014948437456041,0.0023681772872805,0.1097757271584123,-0.3836639221385121,-9.809384288191795,14943.0
15.2,1.100000023841858,151.0,23.887874603271484,0.3975887000560761,-79.78274510510258,40.45899260548615,278.9595759654045,0.0188826154917478,0.0070525063201785,-0.8011927008628845,0.5980669260025024,-0.0040242742700425,-0.0084398614284138,0.0021615305812103,0.0020156344398856,0.0022860900498926,0.0012359101092442,0.1109421461820602,-0.3756764062866569,-9.804597172737124,14943.0
15.4,1.100000023841858,156.0,23.28188323974609,7.005512714385986,-79.7827451225224,40.45899261651299,278.9601785683632,0.0189672838896513,0.0070736743509769,-0.8012592792510986,0.5979747772216797,-0.0033406088600384,-0.0116574829855772,0.0037639675213542,0.0143947890028357,0.0196155067533254,-0.0092026116326451,0.120788245210424,-0.4006371466442943,-9.811991561651231,14943.0
15.6,1.2000000476837158,153.0,23.877859115600582,0.2465049922466278,-79.78274511765763,40.45899271669924,278.9578033828735,0.019108010455966,0.0071580889634788,-0.8012598156929016,0.5979685783386229,-0.0015260155159596,-0.0098796223241292,0.0020834688459692,0.0234179105609655,0.0066440841183066,0.036174077540636,0.143569499887526,-0.4321306886896491,-9.815802776813507,14943.0
15.7,1.2999999523162842,158.0,23.88286781311035,0.2306014448404312,-79.78274512259533,40.458992842708895,278.95856954097746,0.0191958770155906,0.0071369847282767,-0.8012486100196838,0.5979810953140259,-0.0045716323754366,-0.0131231628140491,0.0051923925039256,0.0187418833374977,0.003783443942666,-0.0009719857480376,0.0943556053563952,-0.396403141245246,-9.790916442275048,14943.0
15.9,1.2999999523162842,162.0,23.84530639648437,0.6599972248077393,-79.78274513390673,40.45899285021345,278.9592140460014,0.0192477535456419,0.0071647367440164,-0.8012267947196959,0.5980082750320435,-0.0052720407672821,-0.0121686678170571,0.0072017310946923,-0.0069119501858949,-0.002233310136944,-0.0125721581280231,0.1241453509870916,-0.3652344851195812,-9.824407539367677,14943.0
16.0,1.2999999523162842,161.0,23.877859115600582,0.2385532110929489,-79.78274511651587,40.458992946850046,278.96094395160674,0.0192617364227771,0.0072201085276901,-0.8012477159500122,0.5979791283607483,-0.0041783240943686,-0.005960753354223,0.0075623472618528,-0.0046850834041833,0.0032362379133701,-0.0108248069882392,0.1089050767477601,-0.38343800034374,-9.811683998107911,14943.0
16.2,1.399999976158142,157.0,23.861581802368164,0.6440936923027039,-79.78274512492469,40.45899295184629,278.9617303752899,0.019224053248763,0.0072145783342421,-0.8012359738349915,0.5979961156845093,-4.962506142084117e-05,-0.0098848192712749,0.0079892131192709,0.042178850620985,0.038847230374813,-0.0046344110742211,0.0845038692466914,-0.4370597453042865,-9.810723885297776,14943.0
16.3,1.600000023841858,158.0,23.732622146606445,2.7990243434906006,-79.78274507386682,40.458993075031465,278.9639206075668,0.0191496666520834,0.0071040424518287,-0.8012568354606628,0.5979718565940857,-0.0096683647885876,-0.0028419674967039,0.0101181836144629,-0.0127224773168563,0.0038569674361497,0.0069315461441874,0.1065499644633382,-0.4025455316528678,-9.800144518017769,14943.0
16.5,1.7999999523162842,159.0,23.6074161529541,5.462868690490723,-79.78274507530548,40.45899308226764,278.96495379447936,0.0191505812108516,0.0071131750009953,-0.8012935519218445,0.5979224443435669,-0.0060754633210741,-0.0041374109557757,0.0091544586070444,0.0248399805277586,0.0125633655115962,0.0054839015938341,0.1281787603441626,-0.4110044061765075,-9.795267940163614,14943.0
16.6,1.7999999523162842,162.0,23.54230880737305,6.480695724487305,-79.78274503109128,40.45899323286397,278.9679877901077,0.019143646582961,0.0072751436382532,-0.8013092875480652,0.5978997945785522,-0.0111723225493491,-0.0043847745655381,0.011813272830869,0.0179868582636117,0.0149228163063526,0.0225701108574867,0.1074152610171586,-0.3922270598262549,-9.807555863857267,14943.0
16.8,1.8999999761581416,163.0,23.40959167480469,8.826469421386719,-79.78274501117643,40.45899331401319,278.9711749100685,0.0192648246884346,0.0074883308261632,-0.8013159036636353,0.5978843569755554,-0.0064480863284875,-0.0065097219341872,0.0141383161168571,-0.0159537587314844,-0.0141341043636202,-0.0112059749662876,0.1085341348685324,-0.354756165035069,-9.817349950075153,14943.0
16.9,1.8999999761581416,161.0,23.30942726135254,9.884055137634276,-79.78274502041145,40.458993324176895,278.9739182138443,0.0198791567236185,0.0080425590276718,-0.8013496398925781,0.5978118181228638,0.0046945983238754,-0.0059008269321462,0.0166562631616529,0.068389356136322,0.0027297562919557,-0.0551693551242351,0.1430581517424434,-0.3263044907525182,-9.85752149105072,14943.0
17.1,1.8999999761581416,158.0,23.14666175842285,12.698983192443848,-79.78274497089785,40.4589934308414,278.97721244335173,0.0204705633223056,0.00855353474617,-0.8013870120048523,0.5977345705032349,0.0025957485448099,-0.0013425044137405,0.0159140873066991,0.049075361341238,-0.0065442398190498,-0.0042893830686807,0.0958126858156174,-0.5673190089315177,-9.798513729572296,14943.0
17.2,2.0999999046325684,165.0,23.06027030944824,14.511987686157228,-79.78274497666598,40.458993544286365,278.9832960510254,0.0221228897571563,0.0091015202924609,-0.8014011979103088,0.5976487398147583,-0.0075280083384895,-0.0240137499639944,0.0175873826499615,0.0062089241109788,-0.0131384171545505,0.0594659559428691,0.0203817400988191,-0.4576471338048578,-9.810166060924528,14943.0
17.4,2.200000047683716,167.0,22.862445831298828,17.501853942871097,-79.78274500355872,40.458993548122656,278.98501034021376,0.0235384162515401,0.0089991455897688,-0.8014346957206726,0.5975512266159058,0.0050693638038151,-0.0217689368635216,0.0179730819108093,0.0434341430664062,-0.0018267438281327,0.0409074276685714,0.1677745789848268,-0.545492997430265,-9.825510324239731,14943.0
17.51,2.400000095367432,164.0,22.76603889465332,19.67268943786621,-79.7827449822354,40.45899365197021,278.9917639040947,0.0226547792553901,0.0082510076463222,-0.8013731837272644,0.5976787209510803,-0.0088079751887595,-0.0272188591012908,0.0272008754367057,-0.0474687702953815,-0.0203416682779788,0.035244308412075,0.0806824762746691,-0.5822536747902632,-9.82666573405266,14943.0
17.61,2.5999999046325684,158.0,22.66587448120117,21.34256172180176,-79.78274500877592,40.458993661789854,278.99477328300475,0.0179850198328495,0.0097660711035132,-0.8026217222213745,0.596137285232544,-0.0062717780928995,-0.0181427716023582,0.0343106347811643,-0.1362204849720001,-0.1530817449092865,0.0405545383691787,0.1464705867972225,-0.2678347096592188,-9.881528989076616,14943.0
17.8,2.5999999046325684,155.0,22.432992935180664,24.904956817626957,-79.78274497507851,40.45899372702225,279.0099686527252,0.0001160313258878,0.0075836484320461,-0.8016251921653748,0.5977789163589478,0.0085939950788174,0.006548546788718,0.1671319384448834,-0.1752519160509109,-0.1726341992616653,-0.0022019511088728,0.171921113692224,-0.0772501698229461,-10.710581138134003,14944.0
17.91,2.5,151.0,22.73974418640137,19.05245018005371,-79.78274496335128,40.45899372252736,279.03416736364363,-0.0108557483181357,0.0030483924783766,-0.8000184893608093,0.599869430065155,-0.0004329984763076,0.0104640503822803,0.3150122793444825,-0.1503708511590957,0.0248774792999029,-0.0632709413766861,-0.1019899128377437,-0.0176213244069367,-11.053724988698962,14944.0
18.1,2.5,149.0,22.68340301513672,19.990758895874023,-79.78274497592531,40.45899364364976,279.1026805782318,-0.0042948736809194,-0.0012690682196989,-0.7990643382072449,0.6012288331985474,-0.0275453310699862,0.0449446498823838,0.4026655906583318,0.1316986978054046,0.0712831690907478,-0.0713647007942199,0.0083775205677375,0.2710705039836466,-10.668503404855729,14944.0
18.3,2.5999999046325684,136.0,22.58949851989746,21.18352508544922,-79.7827447138407,40.45899387428365,279.1364539408684,-0.0002172619861084,-0.0004381245817057,-0.7993111610412598,0.6009172201156616,-0.0515938331922223,0.0607510662480585,0.3632131880339121,0.043355006724596,0.0228514075279235,0.0049570486880838,0.1428129067271948,-0.2993197549693287,-9.806838995218277,14944.0
18.4,2.5999999046325684,141.0,22.5744743347168,21.4379825592041,-79.78274451812052,40.45899395083061,279.2042353892326,0.0008263719500973,0.0004679962294176,-0.800517201423645,0.5993091464042664,-0.0793249248313034,0.0715958969722763,0.3259037580706096,-0.0173680745065212,0.0654074251651763,0.0189458802342414,-0.0202692017541267,0.0728279251931235,-9.679284909367562,14944.0
18.6,2.5999999046325684,144.0,22.63081741333008,20.436058044433597,-79.78274408194328,40.45899407019292,279.2009484016895,0.0051966658793389,1.6944923117989674e-05,-0.8012239336967468,0.5983421206474304,-0.0714825176368985,0.0901486361207086,0.2625998739134826,0.2214168012142181,0.0917050242424011,0.0754751786589622,-0.0281005352782085,-0.1967833101935684,-9.753496016263965,14944.0
18.7,2.700000047683716,146.0,22.55569267272949,21.994606018066406,-79.78274391261444,40.45899441977957,279.23958881139754,0.0135030895471572,-0.0004687155596911,-0.8010448217391968,0.5984519124031067,-0.1033437105978587,0.048844214412566,0.2090303430989476,-0.0475798472762107,0.0317538268864154,0.014667609706521,0.0595537361036986,-0.0729885546024888,-9.651144599318505,14944.0
18.81,2.5,145.0,22.5206356048584,21.70834350585937,-79.782743844054,40.458994483703336,279.26103697657584,0.0161043629050254,0.000163777731359,-0.8002774715423584,0.5994135141372681,-0.0888009777564903,0.0355921945072635,0.2221760359600334,0.0359724760055542,-0.0107350032776594,-0.0344974622130394,0.113321286868304,-0.0732705091685056,-9.927104526758193,14944.0
19.0,2.400000095367432,142.0,22.592002868652344,21.326658248901367,-79.78274369757749,40.45899464749666,279.31765873670577,0.0128180030733346,0.0007534174947068,-0.7998625636100769,0.600045919418335,-0.044744631623944,0.0037177514259653,0.2706799646721849,0.0494171753525734,-0.1155583187937736,0.0830365940928459,0.0086613868991844,-0.3238286700099707,-10.019794589281082,14944.0
19.2,2.0,147.0,22.50060272216797,22.44785690307617,-79.78274368901005,40.458994685957215,279.34517334342,0.007857265882194,0.0008982869330793,-0.8003342747688293,0.59950190782547,-0.0289634582050124,-0.0079866083962573,0.2750600796676557,0.0454699732363224,0.0088042737916111,0.0019508764380589,0.015919821197167,-0.1111010716762393,-9.913715572357178,14944.0
19.3,2.0,149.0,22.618295669555664,19.259197235107425,-79.78274360226267,40.45899454996957,279.40173615455626,0.0065860478207469,0.0048910449258983,-0.8012657165527344,0.5982525944709778,0.0037453962172979,0.0121049313770323,0.2921512047714597,-0.0048959944397211,0.0056612407788634,0.0242197923362255,-0.0661258694529533,0.0750034822756424,-9.9225869679451,14944.0
19.5,2.0,150.0,22.39042282104492,23.50544357299805,-79.78274359128409,40.45899453540328,279.4304421687126,0.0058278203941881,0.0060675689019262,-0.8015650510787964,0.5978485345840454,0.0161460958069022,0.0100495775813833,0.2820099604894301,0.0610527843236923,0.0261654406785964,-0.0043720370158553,0.0234671924589201,-0.103702863799408,-9.792005778551102,14944.0
19.6,2.0999999046325684,150.0,22.52439308166504,21.47774124145508,-79.78274345055385,40.45899453611342,279.50161148548125,0.0069094519130885,0.0032180184498429,-0.8012662529945374,0.5982595086097717,0.0369712655138938,0.025718658656642,0.330296642113819,0.0848173201084137,0.023642897605896,-0.0224789623171091,0.0135851239180192,-0.2204762828350067,-9.9990358042717,14944.0
19.8,1.8999999761581416,147.0,22.48432731628418,20.809791564941406,-79.78274323920611,40.458994538492384,279.54451426804064,0.0066377576440572,0.0026072412729263,-0.8010362982749939,0.5985733270645142,0.0269128282204299,0.0459718050191249,0.336072779553453,-0.0980738997459411,-0.0065830117091536,-0.0491603277623653,-0.0085702160163782,-0.0906540894415229,-9.871189942359925,14944.0
19.9,1.8999999761581416,150.0,22.940073013305664,15.641139030456545,-79.78274317959777,40.45899444767328,279.60972796507184,0.0047525549307465,0.0011774874292314,-0.8007059097290039,0.5990377068519592,0.0456555484298993,0.0391209162773092,0.2480177361718001,0.0098893158137798,-0.0098978690803051,0.001350624486804,-0.0146308801649138,-0.0664065860537812,-8.930667643547059,14944.0
20.1,1.8999999761581416,149.0,22.190093994140625,26.30446815490723,-79.7827431483477,40.4589944852181,279.64367052876395,0.0036039152182638,0.001570584368892,-0.8007954359054565,0.5989251732826233,0.0368445827757428,0.0286313192621346,0.1113952172766605,-0.0012963995104655,-0.0238465163856744,0.0481833033263683,-0.006198168505216,-0.1181489308364689,-8.682027661800385,14944.0
20.21,1.8999999761581416,150.0,22.141263961791992,27.59265518188477,-79.78274302900249,40.45899452531364,279.69612774938344,-0.0012176244053989,-0.0024193681310862,-0.8011403679847717,0.5984705090522766,0.0243772585006171,0.0325839619938522,0.2202605909506316,-0.1538174450397491,0.0131779247894883,-0.1310617178678512,0.03599175022915,-0.0271112275030464,-10.340281648635862,14944.0
20.4,1.8999999761581416,150.0,22.15754127502441,27.751691818237305,-79.78274300213403,40.45899449939093,279.72387234807013,-0.0021667541004717,-0.0042013600468635,-0.8011715412139893,0.5984161496162415,0.032526587510614,0.0322606266218929,0.3403400797207859,0.1868608593940735,0.0087541723623871,0.1362659633159637,0.0729776915721595,-0.3720711958408356,-10.938023793697358,14944.0
20.5,2.0,149.0,22.034839630126957,28.98421669006348,-79.78274296800286,40.45899448057828,279.7654780590534,-0.0009074046975001,-0.0033622302580624,-0.8010091781616211,0.5986419320106506,0.0125212799816223,0.034903355849191,0.4887201666549285,0.0459334403276443,-0.037442859262228,-0.0064564356580376,0.1556117126159369,-0.0429776791529729,-11.18037567973137,14944.0
20.6,2.0,147.0,22.02482414245605,29.35795021057129,-79.78274278258338,40.458994459078006,279.8953462088108,0.0037501587066799,0.0006829624180682,-0.8001583814620972,0.5997768044471741,0.007344536322398,0.048482171781384,0.8052521682230308,0.1729359030723571,0.0275740567594766,0.044095043092966,0.0631111318571493,-0.1345748925022781,-11.511169041395188,14944.0
20.8,2.0,146.0,21.882089614868164,31.62420463562012,-79.7827425530756,40.45899440032976,280.0882921957969,0.0036165860947221,0.001017440110445,-0.7991029024124146,0.6011826992034912,-0.0133664848718742,0.0581003323752254,1.2207665413885749,-0.0102551076561212,0.0278258472681045,0.0074478033930063,0.0669811252411455,-0.0772073298320174,-12.106571130752563,14945.0
20.9,2.0999999046325684,147.0,21.97223854064941,29.94638061523437,-79.78274248833121,40.45899438628521,280.2218510055542,0.0023517140652984,-0.0010812965920194,-0.7987077236175537,0.6017135977745056,-0.011003891329695,0.0583513116356201,1.4414095571163192,0.0181640535593032,-0.0065237577073276,0.020395066589117,0.0924311405047774,-0.0565336766280233,-12.019272201061252,14945.0
21.1,2.0,146.0,21.759389877319336,32.983959197998054,-79.78274236382777,40.458994355726425,280.3772096776962,0.0022818283177912,-0.0019658422097563,-0.798409104347229,0.60210782289505,-0.0087159867407835,0.0650653896453464,1.6171268851625118,-0.0525033436715602,0.0236035827547311,-0.1058600544929504,0.0553337366133928,-0.0419860507640987,-11.803374288082123,14945.0
21.3,2.200000047683716,145.0,21.547792434692383,36.57815933227539,-79.78274217270489,40.4589943259712,280.7315856361389,0.0034870386589318,-0.0022037813905626,-0.7978050708770752,0.6029015183448792,-0.0190588083280275,0.0739156030489101,2.0124180296078547,-0.072652481496334,-0.0021831372287124,-0.1299988627433776,0.0798444423638284,-0.0107542081642895,-11.967141934633254,14945.0
21.41,2.200000047683716,143.0,21.664234161376957,33.38949966430664,-79.78274209837097,40.45899432697603,280.9441731119156,0.0024685650132596,-0.0018703059758991,-0.7977230548858643,0.6030160188674927,-0.0284689970366558,0.076526585775709,2.2419119922045034,0.0006084500346332,-0.0339713916182518,0.0042402055114507,0.1254506962001323,0.0064544398616999,-12.14803724527359,14945.0
21.5,2.5999999046325684,142.0,21.90462684631348,29.83505630493164,-79.78274187080571,40.4589943041639,281.4216958427429,0.0013419628376141,-0.0017800708301365,-0.7983064055442809,0.6022474765777588,-0.0250686678344596,0.0743003909214152,2.693241489958403,0.0530227869749069,0.0253310799598693,0.0663699507713317,0.0474124130699783,-0.1312919732742011,-12.009188092947008,14946.0
21.7,2.5999999046325684,141.0,22.07615852355957,27.33024787902832,-79.78274179441661,40.458994320967975,281.69905866622923,0.0037645325064659,-0.0034353965893387,-0.7984018921852112,0.6021034121513367,-0.0427937060370842,0.0722518892426348,2.8436930176268365,-0.0398746728897094,0.0831563994288444,-0.0347062572836875,0.0478938033711165,-0.0157141453865915,-11.393863370418549,14946.0
21.8,2.700000047683716,141.0,22.09368705749512,26.9724178314209,-79.78274152016027,40.45899433459546,282.2513405227661,0.0049987421371042,-0.0071881487965583,-0.7985281944274902,0.6018937230110168,-0.0600669786776238,0.0897395246734381,2.940671493658173,0.0722969993948936,0.0168812870979309,0.0320363789796829,0.0310265459446236,-0.0833659279905259,-10.432265367507933,14947.0
22.01,2.799999952316284,142.0,22.197607040405277,25.262784957885746,-79.78274145845221,40.45899437989068,282.5476950550078,0.0057113422080874,-0.0070836278609931,-0.7984715700149536,0.6019638776779175,-0.0671915392581902,0.0888106071280239,2.983158392101928,-0.0737890303134918,-0.1035151481628418,0.0669934302568435,0.0705442220298573,-0.2255074464529753,-10.250840299129486,14947.0
22.2,3.0,148.0,22.21513557434082,24.57893371582031,-79.78274125451514,40.45899446650903,283.0897857093812,0.0086360843852162,-0.0050381110049784,-0.7986274957656859,0.601742684841156,-0.1019564143056606,0.0658762659781605,2.9762147877863123,-0.062020618468523,-0.0249329674988985,0.0113485259935259,0.0572718784678727,-0.002835881318897,-9.950289906263352,14948.0
22.31,3.0999999046325684,149.0,22.220144271850582,24.89700508117676,-79.7827410986786,40.4589944903861,283.3255807304382,0.0101236477494239,-0.0041119498200714,-0.7989543676376343,0.6012923717498779,-0.0961948349039863,0.0660433766870051,2.925540737246846,0.2422746270895005,0.056501630693674,0.1295327693223953,0.1628741371817887,-0.3675836040079593,-9.892476146221162,14948.0
22.5,3.0999999046325684,151.0,22.18759155273437,24.73796844482422,-79.78274100968417,40.45899465232973,283.9083343887329,0.0074488432146608,-0.0035406183451414,-0.7996398210525513,0.6004233360290527,-0.1328500683791298,0.0486822078439992,2.8973252645823,-0.0233459789305925,-0.0011558921542018,0.0557844378054142,0.061645312551409,-0.135093184215948,-9.651189622879029,14948.0
22.61,3.2000000476837163,152.0,22.233917236328125,23.545202255249023,-79.78274082895355,40.45899472918961,284.41946853637694,0.0068849851377308,-0.0037662165705114,-0.7994658350944519,0.6006604433059692,-0.1152132066905741,0.0307046378545119,2.8437391675979664,0.222748264670372,0.0883676409721374,0.0307811796665191,0.0984619313199073,-0.3267791019380093,-9.764837275743483,14949.0
22.7,3.299999952316284,151.0,22.15754127502441,25.19917106628418,-79.78274077415236,40.45899491376824,284.66041912078856,0.007465673610568,-0.0036018036771565,-0.7995787262916565,0.6005041599273682,-0.1314779540150603,0.0197127783983621,2.7957713459250293,0.040228683501482,-0.034022931009531,0.1081280335783958,0.0824552424252033,-0.1592104363068938,-9.712380734682084,14949.0
22.9,3.2000000476837163,154.0,22.15879440307617,25.22302627563477,-79.78274075524574,40.458995020327,284.93984378814696,0.0081216441467404,-0.0021646947134286,-0.8001237511634827,0.5997762084007263,-0.1443224378816079,0.0227691060500309,2.795709071917328,-0.0727286860346794,-0.0263024102896452,-0.0536657646298408,0.0300309067312628,-0.0214893603441305,-9.754187157154083,14949.0
23.1,3.0999999046325684,159.0,22.190093994140625,24.141586303710927,-79.78274073251575,40.45899498701299,285.38824905395506,0.0094596026465296,-0.0014523931313306,-0.8008691668510437,0.5987629890441895,-0.1271738702076082,0.0014641643402985,2.710538020097711,0.2193517535924911,0.0959388986229896,0.0424242131412029,0.1078203268814832,-0.1290238931402564,-9.810915673971175,14950.0
23.21,3.0999999046325684,161.0,22.14251708984375,24.73796844482422,-79.78274073171148,40.45899508258894,285.6588136100769,0.0110331531614065,-0.0014080562395974,-0.8009282350540161,0.5986570119857788,-0.1340508516147026,0.0013039871854518,2.693632664644263,0.0333036668598651,-0.0221648216247558,0.0299723949283361,0.1407916339114308,-0.1141803798917681,-9.698138086795806,14950.0
23.3,3.0,163.0,22.191347122192383,24.36423492431641,-79.78274075622883,40.45899518443058,286.1509715461732,0.0161182321608066,0.0029881775844842,-0.8012545108795166,0.5980991125106812,-0.1360703258676489,0.0017835821677539,2.6234500107526344,-0.1157989725470542,-0.1125009059906006,-0.0018920133588835,0.03802507835906,0.0433043603505939,-9.684735099077225,14951.0
23.51,3.0,162.0,22.263965606689453,23.67243003845215,-79.78274076392209,40.45899527206825,286.83010972976683,0.0156701076775789,0.007588259410113,-0.8014923930168152,0.5977515578269958,-0.0927038855656853,-0.0175230150363233,2.650586187052031,0.0928858146071434,-0.0011847801506519,0.0583098158240318,0.083025272861123,-0.3205893125385046,-9.734650440216065,14951.0
23.6,3.0,163.0,22.292762756347656,22.59894180297852,-79.78274081531373,40.45899528781543,287.0945702934265,0.0145396124571561,0.0084122382104396,-0.8014743328094482,0.5977933406829834,-0.069352874134041,-0.0270219432548805,2.6334449652843785,0.1201206296682357,-0.0024363256525248,0.0631062909960746,0.0702212136145681,-0.3000642334297299,-9.674917623996736,14952.0
23.8,2.900000095367432,161.0,22.325315475463867,22.09798049926757,-79.78274094201126,40.45899540714714,287.5205584907532,0.0130590349435806,0.0073110177181661,-0.8011768460273743,0.5982404947280884,-0.068161245383474,-0.0449269568485032,2.6724869677169463,0.1100120469927787,0.0149697205051779,0.0465169697999954,0.0430907359812408,-0.2840310767479241,-9.646475597620013,14952.0
24.0,2.900000095367432,162.0,22.192598342895508,23.720142364501957,-79.78274107560333,40.4589953877859,288.0491701507568,0.0105692129582166,0.0021928497590124,-0.8001668453216553,0.5996804237365723,-0.0178787838755585,-0.031410893699257,2.598031792143753,0.0280643906444311,0.0156039725989103,-0.0516902208328247,0.1448002200108021,-0.0695529590919613,-9.41426219880581,14953.0
24.1,2.900000095367432,162.0,22.24518585205078,23.31460189819336,-79.78274132202868,40.45899543500382,288.44238246917723,0.008818938396871,0.0006579220644198,-0.7994494438171387,0.6006683111190796,-0.012828025244442,-0.0360401344154701,2.6141189099304483,-0.0056361593306064,-0.0067144376225769,-0.0412798412144184,0.1586368609964847,-0.0754169489443302,-9.50194529056549,14953.0
24.2,3.0,162.0,22.15629005432129,24.04616355895996,-79.78274151164473,40.45899526595768,289.08077014923094,0.0062798545695841,0.0005156848346814,-0.7988009452819824,0.6015624403953552,0.0197162289050465,-0.0250908312486711,2.62352230865342,0.0404930338263511,0.0390210971236228,0.0137477116659283,0.1848090530745684,0.0478482773154974,-9.631862820982931,14954.0
24.4,3.0,167.0,22.123735427856445,24.69025802612305,-79.78274163706095,40.458995191160575,289.6039196395874,0.0052416622638702,0.0016280420823022,-0.7990494370460509,0.601240336894989,0.0313319698418421,-0.0179215227834856,2.6108875301586645,-0.0653902664780616,-0.0719949677586555,0.0312795042991638,0.127388573102653,-0.057031850265339,-9.744584859609605,14954.0
24.6,3.0999999046325684,169.0,22.12123107910156,24.93676376342773,-79.78274168579121,40.45899500280044,289.98761905670165,0.0056565920822322,0.0026644289027899,-0.799351155757904,0.6008316278457642,0.0572964134918973,-0.0029705464892061,2.664202863631879,0.033435795456171,-0.0131731629371643,0.0566388852894306,0.1035857276245951,-0.1740485865622759,-9.742380459308627,14954.0
24.71,3.0999999046325684,170.0,22.00979995727539,25.80350685119629,-79.78274172092836,40.4589949350758,290.25332511901854,0.0056115752086043,0.0030616498552262,-0.7994102239608765,0.600751519203186,0.0546885458490406,0.009116652520642,2.6530580395604284,0.0125391026958823,-0.011878821067512,0.0090368213132023,0.1172838900983333,-0.1821661115996539,-9.723473487496378,14955.0
24.8,3.0,166.0,22.091182708740234,25.20712280273437,-79.7827418401077,40.45899486429912,290.92427791595463,0.0073371361941099,0.0028231497853994,-0.7986088991165161,0.6017991304397583,0.0759597424707794,0.0176839375945835,2.7151391973140813,0.2582469582557678,0.0356097482144832,0.0867586955428123,0.2227214491926133,-0.2202579624205828,-9.748114823698998,14955.0
25.0,3.0,168.0,22.166305541992188,23.903032302856445,-79.78274209017155,40.45899454317837,291.5605055236816,0.0111486567184329,0.0023537350352853,-0.797556459903717,0.6031368374824524,0.0324703212357415,0.0300669247409847,2.7322689212998457,-0.1850648820400238,-0.054570022970438,-0.0639889910817146,0.0950194561947137,-0.0968712145742029,-9.547847687602044,14956.0
25.1,3.0,167.0,22.083669662475582,24.92881202697754,-79.78274211330614,40.4589944570517,291.8323704147339,0.0098550738766789,-0.0010993033647537,-0.796985924243927,0.6039165854454039,0.0533778005717069,0.0376391844942392,2.710616574189676,-0.0323582030832767,0.0351596884429454,-0.03696009516716,0.0997122852969914,-0.2432568522915244,-9.59148604273796,14956.0
25.31,2.900000095367432,166.0,22.07615852355957,24.920860290527344,-79.78274212383356,40.45899456192394,292.1971527481079,0.0090152127668261,-0.0030740196816623,-0.7966625690460205,0.6043494343757629,0.0628485336997035,0.0428428888095047,2.756913351046737,-0.0086556086316704,-0.0266713500022888,-0.057074062526226,0.1172647039219737,-0.0061303145368583,-9.680232743024826,14957.0
25.5,3.0,164.0,22.084922790527344,25.366159439086918,-79.78274219444613,40.4589943688472,292.7469202423096,0.0072422316297888,0.0004761606396641,-0.7968031764030457,0.6041953563690186,0.0691489576474931,0.0356350595297805,2.7413160030051062,-0.1677460074424743,-0.0820663943886756,-0.0112362904474139,0.0406954514980316,0.198203891236335,-9.646085588335987,14957.0
25.6,3.0,164.0,22.028579711914062,25.7876033782959,-79.78274220625923,40.45899418903456,293.0911833190918,0.0055061182938516,0.0018430737545713,-0.7971923947334291,0.6036975383758545,0.0774468225776544,0.0248528806658802,2.77581964423844,-0.1545079946517944,-0.0736308470368385,-0.0869405642151832,0.0269167801737785,-0.054441762138158,-9.65139486014843,14958.0
25.7,2.900000095367432,163.0,22.0673942565918,25.27868843078613,-79.78274230413295,40.45899398105605,293.6950899505615,0.0042652185074985,0.0005449276068247,-0.7978625893592834,0.6028240323066711,0.0851126283659828,0.0110113615248439,2.8125563662045554,-0.0945624411106109,-0.0170002244412899,-0.0395080111920833,0.1204696450475603,0.0642579078907147,-9.870247371196749,14958.0
25.91,2.900000095367432,163.0,22.02482414245605,25.86712074279785,-79.78274233451928,40.458993875072174,293.9766422653198,0.0027708301786333,-0.0007404477219097,-0.7981029152870178,0.602514386177063,0.1047083721125764,0.0214670455744742,2.8235611954142183,-0.0286333952099084,-0.0363120734691619,0.070671297609806,0.0663642851030454,-0.2360590029135346,-9.900143015384677,14958.0
26.0,2.799999952316284,156.0,21.97348976135254,26.42374420166016,-79.78274236375424,40.45899360545169,294.572333946228,0.0026617606636136,-0.0012045489856973,-0.7980976104736328,0.6025210618972778,0.1214381774226353,0.027188555454149,2.8747524885770943,0.0972417742013931,-0.0003201961226295,0.0987386703491211,0.1589711024612188,-0.1297983751259744,-10.036598317623136,14959.0
26.2,2.700000047683716,151.0,21.89961814880371,27.5369930267334,-79.7827423793948,40.4589934974662,294.8612381362915,0.0024079645518213,-0.0022630693856626,-0.7979276180267334,0.6027443408966064,0.1013965582158966,0.0387172144572445,2.9033701227064284,-0.1297743767499923,0.0431411303579807,-0.1268057078123092,0.0553500128863379,0.1003079521190375,-10.021748728752137,14959.0
26.41,2.700000047683716,148.0,22.0423526763916,25.286640167236328,-79.7827424108078,40.458993313260095,295.45656074523924,0.0019229863537475,-0.002764199860394,-0.7976477742195129,0.6031141877174377,0.0879454600694334,0.0474164077197305,2.9476185052136485,-0.2477317601442337,-0.0725199729204177,-0.0866980403661727,0.0294841760792769,0.1128987889923155,-10.01182132601738,14960.0
26.5,2.799999952316284,148.0,22.10996437072754,24.41989707946777,-79.78274243735453,40.45899301539432,296.04585136413573,0.0029388228431344,-0.0025381080340594,-0.7977216243743896,0.6030135154724121,0.1003447829133953,0.0527054407415912,2.936106030997616,0.0110109355300664,-0.0502761602401733,-0.0269690994173288,0.1598048605956137,-0.0234726490988396,-9.81796273827553,14961.0
26.7,2.5999999046325684,148.0,22.021068572998047,25.54904937744141,-79.78274242853645,40.45899292101967,296.3392015838623,0.0027952252421528,-0.0022508178371936,-0.7977845668792725,0.6029320359230042,0.0962599542617492,0.0595569650666634,2.931441338507164,0.0057549220509827,0.0010959630599245,0.0606623440980911,0.0929462436586618,-0.1866457914188505,-9.764626191258431,14961.0
26.8,2.5999999046325684,148.0,22.014806747436523,25.79555511474609,-79.78274242197266,40.458992737362685,296.92583908081053,0.0038999647367745,-0.0037917557638138,-0.7977469563484192,0.6029679179191589,0.0959575896229812,0.0574264564254001,2.9150500825761165,0.193376898765564,0.0800875201821327,0.0731332674622535,0.1848889589309692,-0.0457119422592222,-9.813836942911148,14961.0
27.0,2.5999999046325684,151.0,22.02732849121093,25.342304229736328,-79.78274240693405,40.45899265378084,297.21764053344725,0.0055188303813338,-0.0042134616523981,-0.7977202534675598,0.6029878258705139,0.0626662395481458,0.0691031467664224,2.9185001021446686,-0.1912655979394912,0.0051727057434618,-0.0383384376764297,0.060454280404374,0.1362296271231025,-9.732864115834236,14962.0
27.11,2.5,150.0,21.959716796875,27.33819961547852,-79.78274232077811,40.4589925633874,297.5083280944824,0.0052037220448255,-0.0043837330304086,-0.7975366711616516,0.6032322645187378,0.0713518126547859,0.0811970374365739,2.9113140905962163,0.0097664901986718,0.0071216518990695,-0.002914116019383,0.0807172946166247,-0.1689409157820046,-9.829513328075407,14962.0
27.31,2.5,150.0,22.06989860534668,25.07989501953125,-79.78274227830644,40.45899241530851,298.0958868408203,0.0043797744438052,-0.0050514070317149,-0.7971165776252747,0.6037886142730713,0.0590001849324881,0.0775327313503857,2.9194380220596785,-0.1474814563989639,-0.0643434152007103,-0.0899183601140976,0.0610878719016909,-0.1737311558425426,-9.824591141939164,14963.0
27.4,2.5,149.0,21.99602699279785,25.47748374938965,-79.78274225902534,40.45899235048617,298.3867803955078,0.0038714869879186,-0.0055345213040709,-0.7966407537460327,0.6044154763221741,0.069426034183051,0.0717533857577824,2.8929028745317344,0.2154605090618133,0.0244277454912662,0.0604831241071224,0.1329847604781389,-0.1907142109796405,-9.666751402616502,14963.0
27.5,2.5999999046325684,151.0,22.03609275817871,24.65049934387207,-79.7827422432622,40.45899218760215,298.97066368103026,0.0017392772715538,-0.0058086412027478,-0.7956381440162659,0.6057419776916504,0.0667898266312071,0.0662065323309953,2.875143622223425,0.0898959040641784,0.028801342472434,0.0802618116140365,0.1044240721687674,-0.3205759004876017,-9.714739501476286,14963.0
27.7,2.700000047683716,152.0,21.90963554382324,27.028079986572266,-79.78274219480765,40.458992040723466,299.5508829498292,0.0014365487731993,-0.0068816179409623,-0.7954608798027039,0.6059641838073729,0.0606140192551223,0.0618185611705769,2.8635723361990246,0.0179933719336986,-0.023344287648797,0.0635463967919349,0.0557647586334496,-0.2365975497476757,-9.671574186086657,14964.0
27.8,2.700000047683716,154.0,21.89711570739746,26.7418155670166,-79.78274217341384,40.458992003568895,299.8374830627441,0.0028610476292669,-0.0064952303655445,-0.7955399751663208,0.605859637260437,0.0502889599302066,0.0625209913739046,2.8679272333171437,0.1081886366009712,0.0037674200721085,0.0113600511103868,0.1550670627504587,-0.1094450671132654,-9.877785601615908,14964.0
28.0,2.799999952316284,156.0,21.988513946533203,24.507368087768555,-79.78274215080928,40.45899197270845,300.125387802124,0.0037937173619866,-0.0056346855126321,-0.7958050966262817,0.6055148839950562,0.036677647050966,0.0657038713325783,2.8839753512167614,0.0402653105556964,-0.0280649904161691,0.0931210741400718,0.1197735522966832,-0.1635232694819569,-9.884951949119568,14965.0
28.2,3.0,156.0,21.92716407775879,26.26470947265625,-79.78274208484963,40.45899193438049,300.70907272338866,0.0047286478802561,-0.0039224005304276,-0.7965419888496399,0.6045520901679993,-0.0005699952514002,0.0622991559406118,2.906305667892384,0.0409193523228168,0.066151276230812,0.065633125603199,0.1297660327143967,0.1070989723317325,-9.80089705467224,14965.0
28.3,3.0,158.0,21.9497013092041,26.12952995300293,-79.78274206993147,40.45899191370846,300.9980455780029,0.0052331155166029,-0.0035939707886427,-0.7969372868537903,0.6040287613868713,-0.008058944918453,0.0642552572266965,2.9047333854937456,-0.0639506131410598,-0.0237533599138259,-0.0409465953707695,0.1258889906946569,-0.1489263260085135,-9.772335160374643,14965.0
28.4,3.0999999046325684,156.0,21.96722984313965,25.41386985778809,-79.78274200993516,40.458991910339705,301.58062995910643,0.0081328209489583,-0.0040105832740664,-0.7979060411453247,0.6027137637138367,-0.0404958829819664,0.0695927377830613,2.924403382874315,-0.2020515352487564,-0.09077849984169,-0.0054636001586914,0.1240342812985182,0.0482001380855217,-9.879140986204147,14966.0
28.61,3.0999999046325684,155.0,21.940937042236328,25.3900146484375,-79.78274201497294,40.45899198389471,302.1610304260254,0.0067747575230896,-0.0036625724751502,-0.7977158427238464,0.6029844284057617,-0.0441302167328438,0.0527254150536474,2.9651925541531114,-0.0237759947776794,-0.0698082745075225,0.0296405851840972,0.1112716733291745,-0.1086325782258063,-10.048090435266497,14967.0
28.8,3.2000000476837163,158.0,21.912139892578125,26.320371627807607,-79.78274202092871,40.45899193855172,302.44257415771483,0.0064165415242314,-0.004201297648251,-0.7972065806388855,0.6036579012870789,-0.0336184418622335,0.0508515353624408,2.970089150241916,-0.0134174013510346,-0.010672440752387,-0.0705918371677398,0.1410762471333146,-0.1357387076877057,-10.010368877649306,14967.0
28.9,3.2000000476837163,157.0,21.977245330810547,25.350255966186523,-79.78274200688972,40.458991952794335,302.7400747680664,0.0063482476398348,-0.0034295625519007,-0.7965859174728394,0.6044822335243225,-0.0187346445054634,0.0465227838976237,2.9743616131804087,0.2881324589252472,0.018889982253313,0.0967638343572616,0.221678397282958,-0.2254748482257128,-9.964340765476226,14967.0
29.0,3.0999999046325684,162.0,21.93342399597168,25.843265533447266,-79.78274193445357,40.45899207338209,303.3152014160156,0.0061769965104758,-0.0013659805990755,-0.7961218357086182,0.6051033139228821,-0.0438526316702128,0.0378706956713349,2.962098945880311,0.1417319625616073,0.0498387180268764,0.1113878339529037,0.1296562421042472,-0.3131923654675484,-9.81694883108139,14968.0
29.2,3.0,162.0,21.948448181152344,25.73194122314453,-79.78274192730224,40.45899212612228,303.8978678131104,0.0058059189468622,-0.0024848717730492,-0.7966758608818054,0.6043739318847656,-0.0470361889988638,0.034430165243548,2.9678127507438474,0.0141913136467337,0.0359487980604171,0.0213661286979913,0.0631336938869208,-0.028478909516707,-9.807869859337806,14968.0
29.31,3.0,164.0,21.981002807617188,26.46350288391113,-79.7827419141173,40.458992151693934,304.1945806884765,0.0085645755752921,-0.0017381322104483,-0.7969136834144592,0.6040300726890564,-0.0495372074765069,0.0350891804975711,2.9639661420993755,0.031953290104866,0.031612429767847,-0.0130183491855859,0.1317128083482384,-0.05287714316044,-9.812944657802582,14969.0
29.5,3.0,164.0,21.88709831237793,26.853139877319336,-79.78274190292649,40.45899217622856,304.49077476501463,0.0098805613815784,-0.0014711107360199,-0.7969966530799866,0.6039011478424072,-0.0650420808199157,0.0423788219693246,2.9592143896374683,0.0115852011367678,0.024973439052701,0.0027588589582592,0.1490344538167119,0.0753748672641813,-9.745973573327063,14969.0
29.7,2.900000095367432,165.0,21.97974967956543,24.97652244567871,-79.78274187852034,40.45899218478196,305.07271446228026,0.0087064253166317,-0.0002919138350989,-0.7965850234031677,0.6044637560844421,-0.0388288305680985,0.0382852113463421,2.963947731089404,0.260523110628128,0.0600573681294918,0.1090158894658088,0.1870336445420981,-0.2930658837407827,-9.899856501817704,14970.0
29.81,2.799999952316284,166.0,21.955961227416992,25.97049331665039,-79.7827418915098,40.45899222195212,305.359051361084,0.0073648523539304,-0.0010388671653345,-0.7962405681610107,0.6049344539642334,-0.0605535557541628,0.0350043546630909,2.9639468554425736,-0.1316537410020828,-0.0965593010187149,-0.0123715940862894,0.1507935703732073,-0.0508507585991174,-9.77610193669796,14970.0
29.9,2.799999952316284,169.0,21.968481063842773,25.49338722229004,-79.78274186937095,40.45899224162093,305.9492632293701,0.0049956073053181,-0.0014803418889641,-0.7959763407707214,0.6053053736686707,-0.0327598855562372,0.0311165766227488,2.9371931311788284,0.0308857299387455,0.031182000413537,-0.0236603263765573,0.1818455562740564,0.0071699015144258,-9.74614898979664,14970.0
30.1,2.900000095367432,171.0,21.948448181152344,25.80350685119629,-79.78274187766974,40.45899223628008,306.2364183807373,0.0050967875868082,-0.0024343412369489,-0.79588383436203,0.605423092842102,-0.0285494331400125,0.0355306767114186,2.9430353637872164,-0.0004532162274699,0.0161020904779434,0.0913512781262397,0.0793615902587771,0.0045207016915082,-9.709012153744698,14971.0
30.2,2.900000095367432,171.0,21.997278213500977,24.69025802612305,-79.78274188613524,40.45899225842877,306.8173052215576,0.0061496966518461,-0.0030707828700542,-0.795665442943573,0.6056973338127136,-0.0135487185165462,0.0413322375972153,2.9415838835699604,0.1858095228672028,0.0588466078042984,0.0853059962391853,0.1568619752302766,-0.2521514722891152,-9.761216095089912,14971.0
30.41,2.799999952316284,172.0,21.872074127197266,27.163259506225582,-79.78274187376721,40.458992266004174,307.11099113464354,0.00641346629709,-0.0026052328757941,-0.7954651117324829,0.6059598326683044,-0.0429094198230302,0.0426637920829754,2.9283386256417634,-0.0941933691501617,-0.0319670140743255,-0.0396361872553825,0.1078214140981435,0.1748561601340771,-9.659538862109184,14972.0
30.61,2.799999952316284,168.0,21.89210700988769,26.344226837158203,-79.78274191722294,40.45899232417916,307.694105758667,0.0074082491919398,-0.0022722999565303,-0.7947660088539124,0.6068665385246277,-0.046298971090542,0.0319680867835501,2.958857415731243,0.0169060286134481,0.051502663642168,-0.0490060150623321,0.1078231682628393,0.1009752381965518,-9.946282224655151,14972.0
30.7,2.799999952316284,166.0,22.017311096191406,23.95869445800781,-79.78274191293131,40.45899234034341,307.9912001037597,0.0084420247003436,-0.0020387659315019,-0.7944756746292114,0.6072339415550232,-0.0465186594476399,0.0376834789073625,2.982388094413228,-0.0559017471969127,-0.002699727192521,0.023309776559472,0.057279301690869,0.0026498530665412,-9.943565608263016,14972.0
30.9,3.0,163.0,21.91965103149414,25.5649528503418,-79.78274194244908,40.45899232249479,308.5727411651611,0.0090442113578319,-0.0013897804310545,-0.7944238185882568,0.6072948575019836,-0.0509134619809886,0.0443373310223989,2.984882185010357,-0.0928823202848434,-0.0186305660754442,0.0114893307909369,0.121070583499968,0.1407825889997184,-9.771731727719306,14973.0
31.01,3.0,161.0,21.978498458862305,23.78375625610352,-79.78274197693257,40.4589923142296,309.1556784057617,0.0059496369212865,-0.0010213910136371,-0.7951817512512207,0.6063411831855774,-0.0262179068375859,0.030898129124438,2.9890485114490897,0.0852731391787529,0.0389967188239097,-0.0227197427302598,0.1069563185423612,0.0570498213171959,-9.836389653682708,14974.0
31.2,3.0,159.0,21.96973419189453,24.70616149902344,-79.7827419784664,40.45899231064776,309.4543329620361,0.0051730778068304,-0.0015450534410774,-0.7955798506736755,0.6058247685432434,-0.0268387775417167,0.0271301448311347,2.9827113968052896,-0.1329614520072937,-0.0600200369954109,-0.0086255073547363,0.0863719998300075,0.0450913973618298,-9.74030235886574,14974.0
31.31,3.0,157.0,21.91965103149414,25.37411117553711,-79.78274199416016,40.45899230773203,309.7377153778076,0.005094975233078,-0.0020469110459089,-0.796066164970398,0.6051847338676453,-0.0191427175341298,0.0368647127284445,2.976066594870052,-0.0812629461288452,0.0418526493012905,-0.0349845886230468,0.0633225680887699,0.0465011610556393,-9.694542633891109,14974.0
31.5,3.0,154.0,21.89711570739746,25.708086013793945,-79.78274198071891,40.45899229626989,310.3303247833252,0.0052252751775085,-0.0025545090902596,-0.7968232035636902,0.604184627532959,-0.0048550474373005,0.036221129071988,2.9523980385198647,0.1141857355833053,0.0049047633074224,0.0434393584728241,0.174764651209116,-0.1351744148321449,-9.744024111628534,14975.0
31.6,2.900000095367432,152.0,21.944692611694336,24.722064971923828,-79.78274204312989,40.458992248681575,310.6128965759277,0.0058781821280717,-0.0020684187766164,-0.7970028519630432,0.6039435267448425,-0.0058371957478098,0.0388428558041027,2.9466880218269003,0.0252642072737216,0.0356693156063556,-0.012272878549993,0.1279973504785448,0.1553017919138074,-9.672857649922369,14975.0
31.7,2.799999952316284,151.0,21.922155380249023,25.294591903686523,-79.78274207633821,40.45899227120493,311.1931959533691,0.0071262433193624,-0.0023399968631565,-0.7970003485679626,0.6039323806762695,-0.0053944130266046,0.0448797767633059,2.9646349978582265,0.0095734056085348,-0.0258868597447872,0.0061181401833891,0.1080005855765193,-0.2652276554703712,-9.80222320318222,14976.0
31.91,2.799999952316284,153.0,21.91965103149414,25.66037368774414,-79.78274206788991,40.458992242155006,311.78592361450194,0.0065809674561023,-0.0030328216962516,-0.7963463664054871,0.6047976016998291,-0.0048782301857759,0.0426462167337446,2.9615258740262926,0.0167568121105432,-0.0430202931165695,-0.0082338918000459,0.2029851046577096,-0.0538961529638618,-9.848238451480864,14976.0
32.0,2.700000047683716,154.0,21.92340850830078,24.96061897277832,-79.78274211658136,40.45899220303263,312.0666586303712,0.0062904334627091,-0.0028249071910977,-0.7956511974334717,0.6057159304618835,-0.0049580857849135,0.0464546248524497,2.9726158886308323,-0.0110260490328073,-0.0414469055831432,0.0447936356067657,0.0984552801121026,-0.2024504133313894,-9.796087719798088,14977.0
32.2,2.5999999046325684,155.0,22.018564224243164,23.93483924865723,-79.78274211088973,40.4589921893606,312.3634344482422,0.0061024497263133,-0.0027948955539613,-0.7950249314308167,0.6065396070480347,-0.0005377521674098,0.0450663078278537,2.958542861518611,0.0344489850103855,0.0303612165153026,-0.0270838532596826,0.1187988305836916,-0.1194930869434029,-9.711860332489014,14977.0
32.4,2.5999999046325684,154.0,21.829504013061523,26.60663604736328,-79.78274215906431,40.458992175168966,312.9393507385254,0.0075593343935906,-0.0033704377710819,-0.7943407297134399,0.6074161529541016,-0.0064775737154226,0.039524583145201,2.9189844689356805,0.1428973525762558,0.0383764393627643,0.0296563170850276,0.1748382347635925,-0.0122288850881159,-9.597024525403976,14977.0
32.5,2.5999999046325684,157.0,21.92716407775879,25.07194328308105,-79.78274215785454,40.458992163812034,313.2306105041504,0.0082211038097739,-0.0026097695808857,-0.7940691709518433,0.6077661514282227,-0.0216906314761323,0.0469330746842557,2.9089970028733694,-0.0990652218461036,-0.0509119108319282,-0.0063946032896637,0.1142267282120883,0.0965945407748222,-9.659607859253883,14978.0
32.6,2.799999952316284,162.0,21.83952140808105,26.51916694641113,-79.78274218778975,40.45899210593388,313.8065382385254,0.0076174032874405,-0.0020763364154845,-0.793901264667511,0.6079954504966736,-0.0187190847367508,0.047387651647354,2.9474320374346936,0.1194394081830978,-0.0053216014057397,0.0073744533583521,0.1376351698581129,-0.0291171970590949,-9.9343223297596,14978.0
32.8,2.900000095367432,164.0,21.955961227416992,24.61074066162109,-79.7827422095524,40.45899213556404,314.38559020996087,0.0090510128065943,-0.0011804186506196,-0.7946815490722656,0.6069579124450684,-0.0187617526240489,0.0507996368085176,2.9781366498964887,0.0945580154657364,0.0421070605516433,0.0790083110332489,0.1279595902562141,-0.2766521646827459,-9.884330974817274,14979.0
32.9,2.799999952316284,168.0,21.89461135864257,25.906879425048828,-79.78274219334055,40.45899213011207,314.68353713989256,0.008798592723906,-0.0016558311181142,-0.7952205538749695,0.6062542796134949,-0.0244636655450279,0.0494302669300592,2.9797035225220285,0.1393219083547592,-0.0013778922148048,0.039285771548748,0.2120424417033792,-0.2110224314779043,-9.92125848054886,14979.0
33.11,2.799999952316284,171.0,21.86831855773925,25.294591903686523,-79.78274228453725,40.45899213573313,314.95935119628905,0.0089520728215575,-0.0015159792965278,-0.7956423759460449,0.6056987047195435,-0.031326052590045,0.0510714717254049,2.985735446199869,-0.0111651085317134,-0.0109537914395332,0.0511835813522338,0.1547286916896701,-0.0139177711028605,-9.849879180192948,14979.0
33.2,3.0,172.0,21.895862579345703,25.49338722229004,-79.78274233438648,40.458992091504456,315.5337072753906,0.0107379667460918,-0.0008895031642168,-0.7955227494239807,0.6058279275894165,-0.0226841382852193,0.0529327491062093,2.9999917126024727,0.1446090638637542,0.0848801434040069,0.0400975458323955,0.1840581974945962,-0.176172806918621,-9.921906352043152,14980.0
33.41,3.0,171.0,21.945945739746094,24.39604187011719,-79.78274231486799,40.45899206013464,316.13505233764647,0.0083932327106595,-0.0053785382770001,-0.7945075035095215,0.6071724891662598,-0.0142143999521027,0.0590356102082199,3.011006945884462,-0.0093048140406608,0.0463018901646137,-0.0009291489259339,0.0902483749017119,-0.242639824859798,-9.856222239732745,14981.0
33.5,3.0,173.0,21.832008361816406,25.75579643249512,-79.78274234390415,40.458991971450274,316.40653671264647,0.0092332419008016,-0.0068108113482594,-0.7942189574241638,0.6075234413146973,-0.0071336703406669,0.0650173066041352,2.9936300591337925,0.0121018132194876,0.0461331158876419,-0.0812237635254859,0.1498003659769892,0.1394232118595391,-9.818194288015366,14981.0
33.7,3.0,175.0,21.912139892578125,25.24688148498535,-79.78274234345888,40.45899195282547,316.70600189208983,0.0097491713240742,-0.0058690416626632,-0.7939172387123108,0.6079193353652954,-0.0029487073555955,0.0698001889247391,2.9925309089750165,-0.0487289950251579,-0.0666606575250625,0.0054256548173725,0.1570078084431588,-0.0001204480743035,-9.777021703720091,14981.0
33.9,3.0999999046325684,177.0,21.869569778442383,25.60471153259277,-79.78274239581756,40.45899193960808,317.2797399902344,0.0080825565382838,-0.0028134875465184,-0.7938357591629028,0.6080719828605652,-0.0023152392725541,0.0505895602940366,2.984343869483568,0.1106977090239524,-0.0616831146180629,0.0326932445168495,0.1413616278022527,-0.2881327340751886,-9.863015534877777,14982.0
34.01,3.0999999046325684,178.0,21.93342399597168,24.09387588500977,-79.78274240252807,40.45899192715344,317.57889999389647,0.0064731030724942,-0.002472429536283,-0.7941704988479614,0.6076554656028748,-0.0200628935107518,0.0399701192073447,2.999597838513813,-0.0616022087633609,-0.0203717350959777,0.0424804016947746,0.0960701094847172,0.0203102944325655,-9.884083052873612,14982.0
34.1,3.0,179.0,21.93342399597168,24.70616149902344,-79.78274245562429,40.45899193309653,318.1592985534668,0.0055626854300498,-0.0016128636198118,-0.7946772575378418,0.6070045828819275,0.003118014309867,0.0332221213166569,3.0012217738973286,0.2406812459230423,0.0773101896047592,0.0310159232467412,0.195485867857933,-0.1636949766241014,-9.7984026324749,14983.0
34.3,3.0999999046325684,180.0,21.89461135864257,25.135557174682607,-79.78274249000306,40.45899195562848,318.4347235107422,0.0076453960500657,-0.0014161746948957,-0.7945730686187744,0.6071188449859619,-0.0155122099343839,0.0373050313795803,2.981540455419883,0.031420387327671,-0.0139064295217394,-0.0026187854818999,0.2089415901526808,-0.0459690598631277,-9.694442061781883,14983.0
34.4,3.0,181.0,21.77190971374512,26.90085029602051,-79.78274245385575,40.458991935776616,319.02809967041014,0.0102062867954373,-0.0010504993842914,-0.7942670583724976,0.6074821352958679,-0.0332945037327528,0.0599631074641826,2.9521476865332548,0.0437280088663101,0.0524718053638935,0.0010834285058081,0.2070597186125815,-0.0904508895613253,-9.722233877778054,14984.0
34.6,3.0,179.0,21.80696678161621,26.376033782958984,-79.78274255425026,40.45899195208365,319.31083358764647,0.0096287550404667,-0.0019454134162515,-0.7941631078720093,0.607625424861908,-0.0358055403678046,0.0537176221679564,2.9702893906980177,-0.0627658739686012,0.0007800050661899,0.0767072662711143,0.124106311686337,-0.0536105484561994,-9.793513775467872,14984.0
34.8,3.0999999046325684,181.0,21.910886764526367,24.96061897277832,-79.78274262568793,40.45899195763867,319.89,0.0109311891719698,-0.0031680732499808,-0.7938107252120972,0.6080585122108461,-0.0234987821362236,0.0621195075808386,2.978588322864701,0.0001900913630379,-0.0010999460937455,-0.0112400585785508,0.2297112656012177,-0.0701013639662414,-9.846403595209123,14984.0
34.91,3.0,183.0,21.859554290771484,25.978445053100582,-79.78274261596107,40.45899193901012,320.18766845703124,0.0096737975254654,-0.0036409012973308,-0.7937493324279785,0.6081571578979492,-0.0310868104498519,0.0730279044883995,2.972636193230098,-0.1545461118221283,-0.0511758737266063,-0.0370058305561542,0.1132115053944289,0.0398166972119361,-9.6858022159338,14985.0
35.01,3.0999999046325684,186.0,21.82449531555176,26.00230026245117,-79.78274266974205,40.45899194068753,320.7662626647949,0.0067252553999423,-0.0029211756773293,-0.7935405373573303,0.6084733009338379,0.0075506256134856,0.0566058247615992,2.9579503620678764,0.2103601545095444,0.0284330304712057,0.068043828010559,0.2012201043404639,-0.0866807693615555,-9.760799188613891,14985.0
35.21,3.0999999046325684,187.0,21.87457847595215,24.83338928222656,-79.78274271541592,40.45899189874979,321.3435446166992,0.0083190565928816,-0.00205420400016,-0.7931021451950073,0.6090283989906311,0.0082499811457351,0.0559582550799955,2.9528459014627964,0.2344409227371216,0.0492839887738227,0.1370846629142761,0.1499965857435018,-0.4513990549743176,-9.741437303423885,14986.0
35.41,3.2000000476837163,187.0,21.82073974609375,25.652421951293945,-79.78274269511809,40.458991878530256,321.6382833862305,0.0093638440594077,-0.0025036588776856,-0.7930005192756653,0.6091439723968506,-0.0176145618514384,0.0612491311516512,2.9364098911787653,0.0254706926643848,-0.009477213025093,-0.014828585088253,0.1803765895217656,-0.0029003651440143,-9.646159263253214,14986.0
35.5,3.0999999046325684,188.0,21.918399810791016,24.483510971069336,-79.78274267508934,40.458991856352576,321.9314581298828,0.0105065954849123,-0.0033227503299713,-0.7929244041442871,0.6092204451560974,-0.0096267995356316,0.068672122155432,2.926724055714668,0.0015157853486016,-0.012588083744049,0.0240491405129432,0.1398882573656737,-0.2578200372308493,-9.686966981291771,14986.0
35.6,3.2000000476837163,188.0,21.858301162719727,25.69218063354492,-79.78274277957287,40.458991808413245,322.50571502685546,0.0124082211405038,-0.0042420094832777,-0.7927709817886353,0.6093785762786865,-0.0218067823118006,0.0731403551925699,2.9088504662073795,-0.0216762460768222,-0.0689897760748863,0.0469984710216522,0.2115704983100295,-0.1557043544389307,-9.625502804517746,14987.0
35.81,3.2000000476837163,188.0,21.790691375732425,26.88494682312012,-79.78274279153614,40.45899177757589,322.7894789123535,0.0120731377974152,-0.0045840609818696,-0.7928186655044556,0.6093208193778992,-0.0179149256686512,0.0833127884276493,2.9257739368529045,0.033768180757761,0.0142098413780331,0.0158991478383541,0.1878647714294492,-0.2952418885007501,-9.700402713418008,14987.0
35.9,3.2000000476837163,190.0,21.7844295501709,26.55892562866211,-79.78274276245756,40.45899173923666,323.37488616943364,0.0110678290948271,-0.0037791682407259,-0.7932316660881042,0.6088077425956726,-0.0176565638704793,0.0752958056658457,2.930383450029608,-0.017595725134015,-0.0117664216086268,0.0522712655365467,0.1920781471207738,-0.1503980610519647,-9.817791999578477,14988.0
36.1,3.2000000476837163,188.0,21.898366928100582,25.7876033782959,-79.78274280325381,40.45899171645459,323.95023025512694,0.0111021948978304,-0.0041143177077174,-0.7930678129196167,0.6090183854103088,-0.0330522104540228,0.0706671175054398,2.9548925951489013,-0.0423869267106056,0.0513774566352367,0.0795134752988815,0.1195752311870455,-0.0142347176000475,-9.8246999001503,14988.0
36.2,3.2000000476837163,189.0,21.77190971374512,26.781574249267567,-79.78274286794574,40.45899170920338,324.2256132507324,0.009883165359497,-0.0042713833972811,-0.7929153442382812,0.6092368364334106,-0.0277429115533928,0.0747585851734869,2.9608559891958994,-0.1151299849152565,-0.0448926091194152,-0.0743955075740814,0.134523290824145,-0.1631553699821233,-9.91720752954483,14989.0
36.41,3.299999952316284,189.0,21.79820251464844,26.12952995300293,-79.7827428551643,40.4589916955394,324.5225569152832,0.0089173121377825,-0.00415282510221,-0.7929007411003113,0.6092713475227356,-0.0264127269237622,0.0699965935850715,2.98007949839595,6.842955917818472e-05,0.0287756267935037,-0.0095782736316323,0.1389010829105973,0.1158893474377692,-9.941419680118562,14989.0
36.6,3.2000000476837163,193.0,21.83075523376465,25.42182159423828,-79.78274285601344,40.45899165611536,325.0955740356445,0.0079486845061182,-0.0029494827613234,-0.7929920554161072,0.609173059463501,-0.0125876358070531,0.0702736948948874,2.9916006749583577,0.1404279023408889,0.0337178148329258,0.0219573378562927,0.1669446763582527,0.0113606101088225,-9.908209834098816,14990.0
36.7,3.2000000476837163,193.0,21.86330986022949,24.920860290527344,-79.78274282556207,40.45899164159791,325.3949476623535,0.0085970610380172,-0.001969996606931,-0.7931092977523804,0.6090154647827148,-0.01034452206082,0.07248410382056,2.991261595868472,0.0162138454616069,-0.0296708773821592,0.0101621802896261,0.1637341164238751,-0.2708397765085101,-9.796001181006432,14990.0
36.8,3.299999952316284,192.0,21.818235397338867,25.89097595214844,-79.78274289237478,40.458991699680574,325.9620977783203,0.0113708758726716,-0.0027296552434563,-0.7931435704231262,0.60892254114151,-0.0470951701590456,0.0635375719708624,2.950622389811565,-0.0425262302160263,-0.0242677722126245,0.025082329288125,0.2211856780014932,-0.1540623649209737,-9.699963587522507,14990.0
37.0,3.299999952316284,191.0,21.799455642700195,26.38398551940918,-79.78274290331247,40.45899168438749,326.53250564575194,0.0117960665374994,-0.0038872330915182,-0.7926390171051025,0.6095647811889648,-0.0347003495999936,0.0798012390447096,2.945232387747457,0.0388454906642437,0.0271430108696222,-0.0589600540697574,0.2536130021139979,0.0229100487381219,-9.836210728883744,14991.0
37.2,3.2000000476837163,192.0,21.736852645874023,27.25072860717773,-79.78274287751765,40.4589916745598,326.8275343322754,0.0121444445103406,-0.0027038564439862,-0.792314350605011,0.6099863052368164,-0.0403950179622848,0.0844123796837169,2.95424489555226,-0.0670087337493896,0.0214185751974582,-0.0147079173475503,0.1395291743706911,-0.0423127730749547,-9.808928205370904,14991.0
37.31,3.2000000476837163,193.0,21.815731048583984,24.94471549987793,-79.78274292745378,40.45899168330913,327.1050764465332,0.0122280549257993,-0.0023269210942089,-0.7918276190757751,0.6106178164482117,-0.0432840994452203,0.0775417790626776,2.959667140072832,0.0040987506508827,0.001436591730453,-0.0482577830553054,0.2009900712221861,-0.1280186197254806,-9.913857074975969,14992.0
37.4,3.2000000476837163,193.0,21.749372482299805,26.48735809326172,-79.78274289105045,40.45899165828283,327.70020736694335,0.0135037992149591,-0.0027592105325311,-0.7913409471511841,0.6112198829650879,-0.0270359715312119,0.0772312324335988,2.981406611564636,0.1643589735031128,-0.0289483945816755,0.0770166143774986,0.1983412459865212,-0.4371763241663576,-9.939798831939695,14992.0
37.6,3.299999952316284,193.0,21.723079681396484,26.67820167541504,-79.78274294475283,40.45899162744923,328.2758337402344,0.0133034810423851,-0.0019316499819979,-0.7912477254867554,0.6113479733467102,-0.0205145014304998,0.0723189630708968,2.9949470979981965,0.1881221085786819,0.0005164348985999,0.1393964737653732,0.173422934487462,-0.4753140573576093,-9.969726051092149,14993.0
37.7,3.299999952316284,191.0,21.73184394836425,27.34615135192871,-79.78274300913192,40.45899165342346,328.5498892211914,0.0140037694945931,-0.0010899655753746,-0.7916046380996704,0.6108723282814026,-0.043900381208077,0.061825539297942,3.0007779486734467,-0.0475059039890766,-0.0802746266126632,0.0203487500548362,0.170070159304887,-0.1247126679494977,-9.966888982057572,14993.0
37.9,3.299999952316284,191.0,21.86831855773925,24.55507850646973,-79.78274300983895,40.45899163440307,328.8512159729004,0.0139837460592389,-0.0004766392230521,-0.7920366525650024,0.6103132963180542,-0.0284343467444467,0.0609786848945139,3.0204772724590363,0.1227559074759483,0.0411751121282577,0.0547223351895809,0.2046443251892925,-0.2849581710621715,-9.976923973560334,14993.0
38.1,3.400000095367432,190.0,21.90337562561035,24.93676376342773,-79.78274306167683,40.45899164221305,329.4267202758789,0.0108434930443763,-0.0015381739940494,-0.7927295565605164,0.6094751358032227,-0.0359461882404464,0.0509005909059345,3.0060747143571183,-0.0881774574518203,0.0559853985905647,-0.0499004051089286,0.0546362460125237,-0.0869198017101735,-9.742772807478906,14994.0
38.2,3.299999952316284,189.0,21.80696678161621,25.70013236999512,-79.78274306803351,40.45899162097097,329.7263494873047,0.0100235305726528,-0.0033102580346167,-0.7928313612937927,0.60934978723526,-0.0208587498132932,0.043945556823598,2.983872407555955,-0.009413294494152,0.0255536381155252,0.0084453783929348,0.1529819730576128,-0.1847794515453279,-9.68786628305912,14994.0
38.3,3.299999952316284,187.0,21.71556663513184,27.17121124267578,-79.78274313350134,40.45899157674232,330.3024946594238,0.0113562205806374,-0.0032857367768883,-0.7926684021949768,0.6095384955406189,-0.0291354722286438,0.054833619017548,2.9650582785098494,-0.2759212851524353,-0.0263034086674451,-0.0548080876469612,0.0953223785106092,0.0862399989366531,-9.71661762714386,14995.0
38.5,3.299999952316284,187.0,21.710559844970703,26.54302215576172,-79.78274314335239,40.45899155433651,330.59925140380864,0.0111480569466948,-0.0029321073088794,-0.7926655411720276,0.6095478534698486,-0.0079424456554074,0.0538414057506717,2.972534563544013,0.109562262892723,0.0411950685083866,0.0607145950198173,0.1268871560879051,-0.2566985229961574,-9.908630833625796,14995.0
38.6,3.400000095367432,186.0,21.74686813354492,26.169288635253903,-79.78274323496973,40.458991504213074,331.181316986084,0.0093548279255628,-0.0025265202857553,-0.7925306558609009,0.6097551584243774,0.0063396319739401,0.0447652529382795,3.0135212400613645,0.0638027563691139,0.0087228156626224,0.0667350143194198,0.1310483636520803,-0.4050485419481993,-9.977039748430252,14996.0
38.8,3.400000095367432,186.0,21.776918411254886,25.88302421569824,-79.78274335075986,40.45899152702573,331.4636999511718,0.0093533005565404,-0.0029415437020361,-0.7922648787498474,0.610098659992218,-0.0082936501583504,0.0284924641746418,3.018114520071129,0.0918245613574981,0.0275492332875728,-0.0445167608559131,0.235862280651927,-0.1325938649754971,-9.980536383390428,14996.0
38.91,3.400000095367432,185.0,21.85204124450684,24.88905143737793,-79.78274339550909,40.45899149545837,332.06840576171874,0.0090843774378299,-0.0032660996075719,-0.7914355993270874,0.6111763715744019,-0.0117549448813179,0.0403156926651411,3.0224893677499645,-0.0217463579028844,0.0032972106710076,-0.0788852795958519,0.2103318022191524,-0.1613804842159152,-9.821915456056596,14997.0
39.1,3.400000095367432,185.0,21.76064109802246,26.00230026245117,-79.78274345000888,40.45899146029358,332.3524443054199,0.008584851399064,-0.0025643454864621,-0.7909688949584961,0.6117908954620361,-0.0015788661771785,0.0387574329651006,2.999002677393096,0.1992544382810592,0.0816917568445205,0.0423799529671669,0.279088151268661,-0.2639759493246674,-9.694906915426255,14997.0
39.3,3.400000095367432,185.0,21.843276977539062,24.45965576171875,-79.78274352308678,40.45899145140471,332.93724502563475,0.0081719681620597,-0.001707260380499,-0.7905535697937012,0.6123360991477966,-0.0147218109141759,0.0365845790577791,2.9967805095957707,0.0341954007744789,0.0433323457837104,-0.0003044721961487,0.18402616571635,-0.2658516995608807,-9.790704773068429,14997.0
39.4,3.400000095367432,184.0,21.882089614868164,23.69628715515137,-79.78274352717911,40.45899144539826,333.5357862854004,0.0110735045745968,-0.0011292472481727,-0.7909548878669739,0.6117733120918274,-0.0343550260617469,0.0379497250046075,2.9826495295810163,0.0387727431952953,-0.0137206967920064,0.04410270601511,0.2104608977772296,-0.159336315896362,-9.736089439988136,14998.0
39.6,3.299999952316284,183.0,21.81072425842285,25.501338958740234,-79.7827436476332,40.45899144440632,333.82327713012694,0.0113291162997484,-0.0013595636701211,-0.7911188006401062,0.6115561723709106,-0.0475816278132577,0.0421562036265139,2.9767016183742125,-0.040710087865591,0.0039842510595917,0.0184799246490001,0.1437206321395933,-0.166711445543915,-9.613845210671425,14998.0
39.7,3.299999952316284,182.0,21.79444694519043,24.984474182128903,-79.78274365222032,40.458991444458384,334.11947311401366,0.0104008680209517,-0.0008928374736569,-0.7912032604217529,0.611464262008667,-0.042749298975504,0.0464526507021565,2.9481657444469223,-0.0419053845107555,-0.0581175610423088,-0.0421410985291004,0.1432516306266188,-0.2533907896466553,-9.56061917603016,14999.0
39.9,3.299999952316284,182.0,21.725584030151367,27.163259506225582,-79.78274370991461,40.4589914910252,334.7101789855957,0.0073832664638757,0.0004177473019808,-0.7915455102920532,0.6110655665397644,-0.0435138501695109,0.0258073156857826,2.9692162676559515,0.0666143521666526,0.0202376786619424,0.0242966879159212,0.1552622501179576,-0.0274976279586553,-9.767478463053704,14999.0
40.01,3.299999952316284,183.0,21.86330986022949,24.29266929626465,-79.78274370907037,40.45899149443905,335.0070654296875,0.0066780932247638,0.0006018761196173,-0.7914324998855591,0.6112198233604431,-0.0489226153366726,0.026846892074844,2.9709426170979043,-0.1302366554737091,-0.0986671075224876,0.0393921993672847,0.0752404452580958,-0.1428631836455315,-9.792171254754066,15000.0
40.1,3.2000000476837163,182.0,21.759389877319336,26.185192108154297,-79.78274382282716,40.45899153656733,335.60112823486327,0.0097471242770552,0.0009868376655504,-0.7903220057487488,0.6126134395599365,-0.0535327416975386,0.0287201124507858,3.0077357384694823,0.1129929423332214,-0.001849636551924,-0.0349151380360126,0.2109735706821084,-0.203023239467293,-9.893598811626433,15000.0
40.31,3.2000000476837163,182.0,21.803211212158203,25.270736694335927,-79.78274384297849,40.45899156373426,336.1904264831543,0.0105707645416259,0.0002884384302888,-0.7894041538238525,0.6137828230857849,-0.0644293140383222,0.0460125115289839,3.03545474141452,0.006807783152908,0.0164610706269741,-0.0054179998114705,0.1947272829897701,-0.2655580414272845,-9.961784362792969,15001.0
40.4,3.2000000476837163,181.0,21.848285675048828,24.65049934387207,-79.78274382581162,40.458991573740704,336.4944616699218,0.0096719646826386,-0.0003397738328203,-0.7891466021537781,0.6141287088394165,-0.0554260266777938,0.0484678415605295,3.0367370509142364,0.1421987861394882,0.0208422411233186,0.0885391905903816,0.2118570118770003,-0.206180224288255,-9.871046100854873,15001.0
40.61,3.2000000476837163,180.0,21.90963554382324,22.91701316833496,-79.7827438834071,40.45899156388563,336.77863372802733,0.009115825407207,-0.0007539798971265,-0.7891320586204529,0.6141554713249207,-0.0655898139235581,0.04863663532407,3.026619595529472,-0.1983315199613571,-0.0865439996123313,-0.0222134906798601,0.0797561128623783,0.0048792456462979,-9.731328052282334,15001.0
40.81,3.0999999046325684,180.0,21.76189422607422,27.139404296875,-79.78274388596327,40.45899160539502,337.36866439819335,0.0092511530965566,0.000572447956074,-0.7898246049880981,0.6132627129554749,-0.0552542228837779,0.0494798432951774,2.9999719197501507,0.0879003405570983,-0.0333559699356555,-0.0112400520592927,0.15245674691163,-0.122929815351963,-9.630403355956078,15002.0
40.9,3.0999999046325684,178.0,21.78818702697754,25.86712074279785,-79.7827438647118,40.458991614501294,337.6682287597656,0.0084799947217106,0.0007368641090579,-0.7903851866722107,0.6125510931015015,-0.0631701933131049,0.0483569068678214,2.989330304209361,-0.0535647682845592,-0.0645839720964431,-0.0001139912783401,0.2066400347091257,-0.0607054228847846,-9.703552608489993,15002.0
41.0,3.0999999046325684,177.0,21.816984176635746,25.01628112792969,-79.78274379814499,40.45899160670044,338.256096496582,0.0077301184646785,-0.0010806679492816,-0.7911406159400941,0.6115846633911133,-0.0490510605138893,0.0620674185877485,3.008857023928208,-0.0510330162942409,-0.0274396501481533,-0.0814558267593383,0.1203078324906528,-0.1777443192154169,-9.831611309051514,15003.0
41.21,3.0999999046325684,176.0,21.83075523376465,24.22110366821289,-79.78274377552624,40.458991638582894,338.8427778625488,0.0092420522123575,0.0011668957304209,-0.7910128831863403,0.6117287278175354,-0.0653331402457016,0.0571984826907334,3.0052748712096764,0.0462705381214618,0.0292951352894306,-0.0795139744877815,0.1214765081740916,0.0545765952765941,-9.788360624313356,15003.0
41.4,3.0,175.0,21.7205753326416,26.40784072875977,-79.78274373523844,40.45899165089689,339.1430975341797,0.0107682859525084,0.0018541407771408,-0.7905791401863098,0.6122623682022095,-0.0764197571060117,0.0557181706543099,2.9962476203741755,-0.0795078426599502,-0.0272215474396944,0.0626802295446395,0.0687777644768357,-0.0697705668769776,-9.691089853048323,15004.0
41.5,3.0,175.0,21.85329246520996,23.96664619445801,-79.78274369566931,40.45899166070527,339.44160522460936,0.0128044532611966,0.0016767942579463,-0.7900487780570984,0.6129080057144165,-0.076597887357003,0.0638569699683879,2.9761778015002456,-0.0536299906671047,0.0639163553714752,-0.0352848395705223,0.1263884982280433,-0.1471251094993204,-9.619291892051695,15004.0
41.61,3.0,174.0,21.8132266998291,24.41989707946777,-79.7827436748895,40.45899167362904,340.0260054016113,0.0125688593834638,0.0001084898976841,-0.7889014482498169,0.6143913269042969,-0.0607478880095278,0.0679774037526758,2.9707341440487176,0.1846204996109008,-0.0032771669793874,0.0768420696258544,0.1611960228346288,-0.4271788279339671,-9.773412217497826,15005.0
41.81,3.0,173.0,21.81072425842285,25.62856674194336,-79.78274369735455,40.45899174252383,340.61032165527337,0.0113395554944872,-0.0004551575402729,-0.7883409261703491,0.615134060382843,-0.0797063467671146,0.0614638137128797,2.9838635177326416,-0.1622776240110397,-0.0530798323452472,-0.0127741023898124,0.1044241452589631,-0.0940325192827731,-9.776259811520577,15005.0
41.9,2.900000095367432,173.0,21.783178329467773,24.920860290527344,-79.78274367703466,40.458991752561936,340.9093672180176,0.0115229059010744,-0.0001042028161464,-0.7884523868560791,0.6149879097938538,-0.0684498481833253,0.0610724846389838,3.0057097026928554,-0.0138053791597485,0.0366687849164009,-0.0603016428649425,0.0656344520905986,-0.1073938547261059,-9.989597228765488,15005.0
42.11,2.900000095367432,174.0,21.82449531555176,24.91290855407715,-79.78274361415582,40.45899172373585,341.19879592895506,0.0119145242497324,0.0009417942492291,-0.7886975407600403,0.6146652698516846,-0.0547064549004661,0.0654318523107318,3.025403606172344,0.1349717080593109,0.0111994752660393,0.0481893979012966,0.1528167618066072,-0.251242814976722,-9.9785296189785,15006.0
42.3,2.900000095367432,174.0,21.91965103149414,23.250986099243164,-79.78274360197699,40.45899172904074,341.786125793457,0.0124829420819878,0.0035962844267487,-0.7890979051589966,0.6141301393508911,-0.0680760064416804,0.0625661551691734,3.0358122200810507,-0.0751234889030456,-0.0301453564316034,-0.0078625092282891,0.1428643074072897,-0.2190934346057474,-9.91950899362564,15006.0
42.4,2.900000095367432,175.0,21.8570499420166,24.49941635131836,-79.7827435710154,40.45899171919103,342.0902944946289,0.0113154221326112,0.0037093327846378,-0.789303183555603,0.6138882040977478,-0.0605164523509046,0.0590821538246924,3.0416434615667027,0.0605713501572609,0.0437254160642623,0.0476070456206798,0.0963330240547657,-0.2941630772128701,-9.883139312267303,15007.0
42.51,2.900000095367432,175.0,21.89335823059082,23.38616752624512,-79.78274354010115,40.45899172673747,342.6769834899902,0.0095927212387323,0.0007325516198761,-0.7896696925163269,0.6134567856788635,-0.0612431504818665,0.0557749569733026,3.0199472538850567,0.0223763827234506,0.1052792593836784,0.0076663489453494,0.1900115218386054,-0.0170221949368715,-9.75586823165417,15007.0
42.7,2.900000095367432,175.0,21.85204124450684,24.24495887756348,-79.7827435012678,40.45899171935206,342.97842849731444,0.0092699378728866,-0.0010270004859194,-0.789815366268158,0.6132738590240479,-0.0670350244157294,0.0678797453454509,3.0075987350016065,-0.2031374275684356,-0.0461975820362567,-0.00887808855623,0.0651533313095569,0.1249867196381092,-9.65542593061924,15007.0
42.81,2.900000095367432,175.0,21.869569778442383,24.6027889251709,-79.78274342941519,40.458991644016045,343.56287445068364,0.0096002472564578,-9.950278035830704e-05,-0.7899304628372192,0.6131213307380676,-0.0390954301988956,0.0838132507285546,2.9900578316623374,-0.0543127655982971,-0.0103168841451406,0.0152017632499337,0.0539145808294415,-0.1814014054276049,-9.700496853590012,15008.0
43.0,2.900000095367432,176.0,21.869569778442383,23.44978141784668,-79.78274338427744,40.45899163149056,343.86161865234374,0.0097114313393831,0.000662608013954,-0.7899311780929565,0.6131182909011841,-0.0385495495568837,0.0818459240003359,2.9851823644505755,-0.0482666119933128,-0.0607879757881164,-0.1082391887903213,0.1086380508542061,-0.200696595814079,-9.73982756495476,15008.0
43.21,2.900000095367432,176.0,21.86330986022949,23.1873722076416,-79.78274328778406,40.45899162680242,344.4509588623047,0.0113536259159445,0.0009974457789212,-0.7905392050743103,0.6123054623603821,-0.0396541084375571,0.0698641250622611,2.9736742946984265,0.1481517106294632,0.063100665807724,0.057770911604166,0.1426833726279437,-0.2465807020291686,-9.742650015950202,15009.0
43.3,2.799999952316284,177.0,21.82449531555176,25.58085632324219,-79.78274332824341,40.45899164220285,344.73703826904296,0.0127377770841121,0.0007550446316599,-0.7907291650772095,0.6120331287384033,-0.0509332470964031,0.0603137769161677,2.9741857466612087,0.132618099451065,0.0065439748577773,0.0092676328495144,0.1725927760452032,-0.2932319446653128,-9.761297371387483,15009.0
43.5,2.799999952316284,177.0,21.902122497558597,23.04424095153809,-79.78274327321114,40.45899163034189,345.3313299560547,0.0115264318883419,0.0013949197018519,-0.7913990616798401,0.6111896634101868,-0.0550889802243905,0.0627453559975525,2.978916846021333,0.0981915146112442,0.0419581420719623,0.039626095443964,0.1568997994065284,-0.1039111982658505,-9.925731600522996,15010.0
43.6,2.799999952316284,177.0,21.90087127685547,23.624719619750977,-79.78274321115168,40.45899157902412,345.92233337402337,0.010627950541675,0.0026759440079331,-0.7916914820671082,0.610822856426239,-0.0562250424967012,0.0592637720187658,3.0138909637582696,-0.0977507904171943,-0.0653687193989753,-0.0302195660769939,0.1744373533129692,-0.0327793813124299,-9.816603845357896,15010.0
43.8,2.700000047683716,176.0,22.160045623779297,18.86956024169922,-79.78274320813479,40.4589915829114,346.20830596923827,0.0093441670760512,0.0027417391538619,-0.791485071182251,0.6111109256744385,-0.0665119492146652,0.0591121958713234,2.998851417586552,-0.1146959140896797,-0.0385274365544319,-0.0266546998172998,0.1234699701704084,0.011808497691527,-9.675976554751395,15011.0
43.9,2.700000047683716,174.0,22.24768829345703,17.54161262512207,-79.78274317236041,40.45899156717872,346.5066000366211,0.0087805371731519,0.0026373136788606,-0.7908114194869995,0.6119912266731262,-0.0441532747268322,0.0533283254231477,2.9565087406742787,0.007989470846951,0.084744706749916,-0.0835607647895813,0.2009732970222831,0.0044428606331348,-9.459119113683704,15011.0
44.11,2.5999999046325684,172.0,22.20136260986328,17.438240051269528,-79.78274313984747,40.45899149687651,347.07946838378905,0.0108705274760723,0.0001157296792371,-0.7890611886978149,0.614218533039093,-0.0428978143370939,0.0649596812598851,2.765513884192291,-0.0472471117973327,-0.002007802715525,-0.0033747085835784,0.0531461013760417,-0.0423018369544297,-8.623071355819702,15012.0
44.2,2.5,172.0,22.26521682739257,17.223543167114258,-79.78274309761855,40.45899147942724,347.34960998535155,0.0100631080567836,-0.001773432129994,-0.788603663444519,0.6148170828819275,-0.029290335701899,0.0740422592985169,2.6369799403570875,0.0196828749030828,0.0314336270093917,0.0342676974833011,0.0732018592022359,-0.2672653735801578,-8.571120014190674,15012.0
44.3,2.5,172.0,22.273983001708984,16.897520065307614,-79.78274305402223,40.458991478622615,347.84442962646483,0.0098100658506155,-0.0028768135234713,-0.7890021204948425,0.6143054366111755,-0.0207658551176014,0.0705282315034527,2.358129811800092,-0.0009817719692364,0.0259098727256059,0.0401272475719451,0.1424249439686536,-0.1362482651229948,-8.267585787177088,15012.0
44.5,2.400000095367432,172.0,22.10871124267578,19.37052154541016,-79.78274303039963,40.45899146079172,348.27998413085936,0.0107681667432189,-0.0017719180323183,-0.7903016805648804,0.6126208901405334,-0.0145175490470845,0.0586813180684957,2.0829010879298826,0.0366702415049076,0.0136551652103662,0.0051351394504308,0.0815433143265545,-0.1977017615921796,-8.44429390668869,15013.0
44.6,2.400000095367432,170.0,22.165054321289062,18.344741821289062,-79.78274300839159,40.45899145121415,348.48268951416014,0.011371829546988,-0.0014800524804741,-0.790873646736145,0.6118720769882202,-0.0274362960211555,0.0488717026137944,1.971974687307796,-0.0167581662535667,0.0032654795795679,0.0276602208614349,-0.0099849201506003,-0.1672173393331468,-8.587157172560692,15013.0
44.8,2.299999952316284,169.0,22.21388435363769,18.55944061279297,-79.78274304195838,40.45899145427696,348.6742712402344,0.0112301977351307,-0.0018162201158702,-0.7909833192825317,0.6117320656776428,-0.0263968737028251,0.038785226703509,1.8812615364587093,-0.0022200304083526,0.0122533626854419,-0.0680133700370788,0.1626889997161925,0.0086417096480727,-8.705331739783286,15013.0
45.0,2.200000047683716,168.0,22.170061111450195,18.662813186645508,-79.78274302820004,40.45899143631613,349.0313345336914,0.0095619140192866,-0.0002223492629127,-0.7908827662467957,0.6118930578231812,-0.0071492675000309,0.0273539429573286,1.6943973153734389,0.0429477766156196,0.011478915810585,-0.0084117166697978,0.0545420510228723,-0.152051132870838,-8.928205965757371,15014.0
45.1,2.200000047683716,167.0,22.1350040435791,19.13991928100586,-79.78274309261673,40.458991439035394,349.20551361083983,0.0093208644539117,0.0005692577688023,-0.7905142307281494,0.6123725771903992,-0.0086903268301766,0.0169061557156109,1.6330423547359625,0.0317121744155883,0.0265746433287858,-0.0833233371376991,0.1214231980126351,-0.0378938494808971,-8.878380087018014,15014.0
45.2,2.0,168.0,22.15002822875977,19.418231964111328,-79.78274315119938,40.45899143151796,349.52463592529296,0.008565567433834,0.0049749044701457,-0.7897289991378784,0.6133760213851929,-0.0020506736280842,0.0113554381101941,1.477002321880363,0.02678944170475,-0.0463407151401042,-0.0366999804973602,0.1093119607307017,-0.0507740413025021,-8.902554230690003,15014.0
45.4,2.0,168.0,22.071149826049805,20.762081146240234,-79.78274315343245,40.458991387193215,349.8075109863281,0.0067850942723453,0.0081546427682042,-0.7888875603675842,0.6144461035728455,0.0006224134960752,0.0130708842990008,1.3636289148711471,-0.0537903904914856,-0.0519038364291191,0.015271458774805,0.0855277167074382,-0.206921998411417,-9.08737068414688,15014.0
45.6,1.7999999523162842,165.0,22.25520133972168,17.374626159667972,-79.78274320854318,40.45899137730272,349.9550100708008,0.0067048612982034,0.0089411260560154,-0.7884774208068848,0.6149621605873108,0.0181832357644195,0.0156329247437311,1.3539506285659737,0.0260067880153656,-0.0281991381198167,0.0154368402436375,0.020081396496389,-0.1292172349803149,-9.38811754345894,15014.0
45.71,1.7999999523162842,165.0,22.12123107910156,18.96498107910156,-79.7827431887699,40.4589913274074,350.08799041748046,0.0071659740060567,0.0096701802685856,-0.7881935238838196,0.6153098344802856,0.0253726215867168,0.0286071888239547,1.2998886733392203,0.0211845729500055,-0.000542810477782,-0.0427889488637447,0.09618876228109,-0.0136468303157016,-9.238448703289032,15015.0
45.8,1.7000000476837158,164.0,22.405447006225582,9.876103401184082,-79.78274319838944,40.45899121763714,350.3348471069336,0.0068597560748457,0.0095090707764029,-0.7878105044364929,0.6158061623573303,0.0547071274307429,0.0459490661631901,1.1578050537557405,0.0500206835567951,0.0633690357208252,-0.0213899910449981,-0.0098543856292963,-0.039100194023922,-9.002962033152581,15015.0
46.0,1.600000023841858,162.0,22.240177154541016,16.35679817199707,-79.78274318394631,40.45899109417876,350.48339904785155,0.0128873344510793,-0.0051957694813609,-0.7734706401824951,0.6336799263954163,0.0268535215838965,0.0316154636367894,0.631055914260472,-0.0605376176536083,0.171186164021492,-0.6721099019050598,-0.0429986834479495,-0.4617671550437809,-7.248871597051622,15015.0
46.1,1.600000023841858,165.0,22.15879440307617,18.567392349243164,-79.78274315627584,40.4589910504144,350.53534759521483,0.0134214460849761,-0.0065986951813101,-0.7449724078178406,0.6669276356697083,0.0511833037800135,0.0463310206604694,0.4169337590264889,0.1919094324111938,-0.0964144095778465,-0.9590130448341372,0.1649191277660429,-0.1608791220188141,-7.618479945659637,15015.0
46.3,1.5,163.0,22.17882537841797,18.392452239990234,-79.78274309985531,40.45899092841604,350.4957357788086,0.0143047999590635,0.0047016884200274,-0.7078420519828796,0.7062102556228638,0.0595228602719419,0.0245653402284832,0.2493230314751841,0.2289626747369766,-0.10623599588871,-1.159959077835083,0.0774724096991121,-0.215165037587285,-8.227113699316979,15015.0
46.5,1.399999976158142,168.0,22.107460021972656,19.89533805847168,-79.78274308146003,40.45899081248421,350.52768768310546,0.0150217423215508,0.0117424642667174,-0.6266394853591919,0.7790760993957521,0.0771009662210683,-0.0065674028518288,0.081863536117243,-0.0556195378303527,0.0364300422370433,-1.051844596862793,0.0438660173909738,-0.2251772066764533,-8.984819877147675,15015.0
46.6,1.399999976158142,172.0,22.03984832763672,21.68448829650879,-79.78274295243344,40.458990655132105,350.4152914428711,0.0136682335287332,0.0089549589902162,-0.5898234844207764,0.8073669075965881,0.1212296725276283,0.0002224519773274,-0.0167315928464848,0.0081616779789328,-0.0170700680464506,-0.8578988313674927,0.1658055839315056,-0.2015593524836004,-9.248856162428856,15015.0
46.7,1.399999976158142,158.0,21.803211212158203,29.49312973022461,-79.78274277078886,40.4589903670017,350.2707907104492,0.0087349582463502,0.0083796428516507,-0.5385258793830872,0.8425220847129822,0.1640715712273126,0.0093207282086559,-0.1030431106184827,0.1524354815483093,-0.0577901899814605,-0.3875647187232971,0.180845846850425,0.116870071683079,-9.675095964074137,15015.0
46.91,1.399999976158142,155.0,21.88083839416504,23.61676788330078,-79.78274265400472,40.45899023308331,350.26288665771483,0.0061950059607625,0.0154679836705327,-0.5239499807357788,0.8515860438346863,0.2003596039846464,0.0527094498490736,-0.0429200317589223,0.1314679384231567,-0.2349017113447189,-0.2708369791507721,0.4426399624720216,-0.1884070093184709,-10.246834956407548,15015.0
47.0,1.399999976158142,160.0,22.00604248046875,21.77195739746093,-79.78274209503971,40.458989968723714,350.13896240234374,-0.0243877805769443,0.0461687296628952,-0.5134454369544983,0.8565322160720825,0.2488707302183767,0.2093207939552888,0.0522356761822487,0.045897152274847,-0.4812005162239074,0.1954115778207779,0.1884998155944049,-0.2321071073971689,-10.344813240766523,15015.0
47.21,1.2999999523162842,163.0,21.997278213500977,21.97075080871582,-79.78274166276228,40.458989871839925,350.14408935546874,-0.044131401926279,0.0559922382235527,-0.5138415098190308,0.8549177050590515,0.2842974824778978,0.3295914997906499,0.1148540934942133,0.048810850828886,-0.3255951404571533,-0.0248789526522159,0.2077682732418179,-0.0294691811688244,-10.319087830781935,15015.0
47.4,1.399999976158142,148.0,21.869569778442383,23.950742721557607,-79.7827402716643,40.45898993271405,350.13057006835936,-0.0685863122344017,0.0614384040236473,-0.5196608901023865,0.8493961691856384,0.3215839155332973,0.6529462937287819,0.2386428752363701,0.0756643414497375,-0.1729005873203277,0.1231657862663269,0.2238336992450058,-0.2544026503153145,-10.191858265399931,15015.0
