time,wind_speed,wind_angle,battery_voltage,battery_current,position_x,position_y,position_z,orientation_x,orientation_y,orientation_z,orientation_w,velocity_x,velocity_y,velocity_z,angular_x,angular_y,angular_z,linear_acceleration_x,linear_acceleration_y,linear_acceleration_z,node_ids
0.0,0.5,131.0,23.12036895751953,-0.0079517737030982,-79.78271886243255,40.458982790224105,272.6862881710529,0.0122112073004245,0.0073008663021028,-0.7429812550544739,0.6691610217094421,-0.0021341013458936,-0.0132153167734129,0.0015403307425547,0.0057413452304899,0.0023319022729992,0.0030914130620658,0.0506693852785974,-0.2763084945827723,-9.81287098288536,14937.0
0.1,0.5,130.0,23.11911582946777,-0.0159035474061965,-79.7827189811515,40.4589828784227,272.6665490051508,0.0122095672413706,0.007302766200155,-0.7429841160774231,0.669157862663269,-0.002542033376452,-0.0112817568946005,0.0012048501675622,0.0021715268958359,-0.0013004996581003,0.0019379761070013,0.0496864865999668,-0.2737298359349369,-9.811737792491911,14937.0
0.3,0.6000000238418579,127.0,23.11661148071289,-0.0238553211092948,-79.7827189941438,40.45898288199973,272.6667002072334,0.0122086619958281,0.0073033636435866,-0.7429872155189514,0.6691544055938721,-0.0029688385156926,-0.0116381867874827,0.0017837604741651,-0.0026771451812237,-6.317326915450394e-05,0.0002914879005402,0.0492366529908031,-0.2763175577670336,-9.812593824863434,14937.0
0.39,0.6000000238418579,124.0,23.112855911254893,-0.055662415921688,-79.78271911082714,40.45898297172489,272.64402455890183,0.0122063914313912,0.0073046647012233,-0.7429865002632141,0.6691552996635437,-0.0029440831542378,-0.0101578750959185,-0.0015719524268106,-0.0007600701646879,-0.0002459065581206,-0.0001442774082534,0.0511099272966384,-0.2780653636157513,-9.813242865800856,14937.0
0.6,0.699999988079071,123.0,23.11536026000977,-0.0477106422185897,-79.78271923811195,40.45898305358211,272.6225073119402,0.0122089441865682,0.007302847225219,-0.7429893016815186,0.6691520810127258,-0.002863117991302,-0.0115858348109055,-0.0016752790910372,-0.0026217680424451,0.0025747779291123,-0.0041492264717817,0.050268220603466,-0.2671248028613627,-9.81160915374756,14937.0
0.7,0.699999988079071,124.0,23.10659599304199,-0.0954212844371795,-79.78271926539453,40.4589830608682,272.6222633501291,0.0122078992426395,0.007303524762392,-0.7429934144020081,0.6691476106643677,-0.0031929095706804,-0.0123562911978245,-0.0007008497666233,-0.0034881578758358,-0.0024147054646164,-0.0056112515740096,0.0496128208190202,-0.2674214942380786,-9.811313284635542,14937.0
0.9,0.699999988079071,126.0,23.10409164428711,-0.1033730581402778,-79.78271939563675,40.45898311995997,272.6002368708849,0.0122127551585435,0.0073055727407336,-0.7429928183555603,0.6691481471061707,0.0017589578453481,-0.0127808808571165,-0.0010868954189776,0.0033012381754815,0.0021716312039643,0.004777796100825,0.0513271148130297,-0.2766220515221357,-9.812980910539627,14937.0
1.0,0.699999988079071,126.0,23.102840423583984,-0.0874695107340812,-79.7827195166905,40.45898320906142,272.5783811365962,0.0122072324156761,0.0073037692345678,-0.7429974675178528,0.66914302110672,-0.0020861605264449,-0.0114709058042632,-0.000987240486088,0.0010586811695247,0.003186154179275,-0.0030200504697859,0.0498660463700071,-0.2712550384551286,-9.812587977647784,14937.0
1.19,0.699999988079071,128.0,23.09031867980957,-0.0954212844371795,-79.78271953004787,40.45898321226701,272.5783094396591,0.0122072324156761,0.0073037692345678,-0.7429974675178528,0.66914302110672,-0.0024867758152935,-0.0118815478497164,-0.000399567096018,0.0010195705108344,-0.0002373169700149,0.0041513107717037,0.0498153994325548,-0.2776724672690034,-9.814539778232575,14937.0
1.3,0.699999988079071,128.0,23.11410903930664,-0.0238553211092948,-79.78271968868192,40.458983291601406,272.55584345811604,0.0122122215107083,0.0073004593141376,-0.7430008053779602,0.6691393852233887,-0.001598531757425,-0.0162201424498483,-0.0003398566380045,0.0061821965500712,-0.0002105558378389,0.0059910472482442,0.0516302152862772,-0.279811250846833,-9.813735201358796,14937.0
1.5,0.699999988079071,129.0,23.11911582946777,-0.0159035474061965,-79.78271970756975,40.45898329493689,272.555828892231,0.0122103756293654,0.0072999317198991,-0.743000864982605,0.6691393256187439,-0.0023172830797911,-0.0165675767526416,0.0002120050445415,-0.0031769738998264,0.0002586737973615,-0.0064070941880345,0.0503648549783974,-0.2658247110061347,-9.81101975440979,14937.0
1.6,0.699999988079071,130.0,23.11536026000977,-0.0159035474061965,-79.78271987362456,40.4589833721081,272.5305112940967,0.0122144054621458,0.0072971326299011,-0.7430030703544617,0.6691367626190186,-0.0017753694690094,-0.0197302485322184,-0.0036055134434239,-0.0040955049917101,0.0004086958942934,-0.0046597723849117,0.0500112994294613,-0.2697814852930605,-9.811710895299912,14937.0
1.79,0.699999988079071,133.0,23.11160469055176,0.0079517737030982,-79.78271989682676,40.45898337529866,272.5301569072306,0.0122153246775269,0.0072992211207747,-0.7430068254470825,0.6691326498985289,-0.0013123881942543,-0.0203003538731732,-0.0033325124011832,0.0065783569589257,0.0003949646488763,0.0012937349965795,0.0492877430375665,-0.2754727995581925,-9.811981036663056,14937.0
1.91,0.699999988079071,133.0,23.12287330627441,-0.0238553211092948,-79.78272001319756,40.458983476000746,272.50417767705017,0.0122050307691097,0.007299305871129,-0.7430064678192139,0.6691331267356873,-0.0055655399387203,-0.0159283240435492,-0.0060837537114397,0.0012791716726496,0.0002048017922788,-0.0016865170327946,0.048591663991101,-0.2706482801958919,-9.811785739660264,14937.0
2.1,0.6000000238418579,137.0,23.11786460876465,-0.0079517737030982,-79.78272010529028,40.45898351662124,272.481793050725,0.0122063774615526,0.0073105185292661,-0.7430102229118347,0.6691288948059082,0.0001902876128026,-0.0100893848586305,-0.0049382833394248,0.0050211385823786,-0.0003453847020864,0.0027086597401648,0.0513337797252461,-0.278271843418479,-9.813378521203996,14937.0
2.2,0.5,136.0,23.11410903930664,-0.0079517737030982,-79.78272012961158,40.458983518822,272.48088497908407,0.0122067388147115,0.0073122330941259,-0.7430128455162048,0.6691259741783142,0.0002056146651045,-0.0108812113274976,-0.0041064255741133,0.0034989935811609,0.0009018291602842,0.0083316769450902,0.0519858858827501,-0.2777431637607515,-9.81300897717476,14937.0
2.4,0.5,137.0,23.12036895751953,-0.0159035474061965,-79.7827202943277,40.45898361710754,272.45787589119374,0.0122082270681858,0.0072968467138707,-0.7430126667022705,0.6691263318061829,-0.0064490633626216,-0.0189265737731806,-0.0035536321854849,-0.0051326784305274,-0.0015120081370696,-0.0059078778140246,0.0496223088400438,-0.2688477763161063,-9.811322640180588,14937.0
2.5,0.5,137.0,23.12287330627441,0.0,-79.78272041012261,40.45898370462658,272.43225173333286,0.0122013473883271,0.0072995428927242,-0.7430153489112854,0.6691233515739441,-0.0083244794815849,-0.0145723414436857,-0.0063503051784816,-0.0024978567380458,-0.000701013370417,0.0011903835693374,0.04988967734389,-0.2755828003026545,-9.813300168514251,14937.0
2.7,0.5,135.0,23.12412452697754,-0.0079517737030982,-79.78272042643285,40.45898371348864,272.43164780417084,0.0122013473883271,0.0072995428927242,-0.7430153489112854,0.6691233515739441,-0.008243877610748,-0.0150541990801036,-0.0060061802369641,0.000202866460313,-0.0003102987247984,-0.0039251996204257,0.0501724221976473,-0.2678276381827891,-9.812048864364623,14937.0
2.8,0.5,134.0,23.12036895751953,-0.0079517737030982,-79.78272056491204,40.45898377999212,272.4076702153086,0.0122030610218644,0.0073017906397581,-0.7430180907249451,0.6691203117370605,-0.0060514154034675,-0.0150498570988825,-0.0044380734984602,-0.0037233787588775,0.0007493589073419,-0.0058804503642022,0.0504260954260826,-0.2785531858541071,-9.811654762029647,14937.0
3.0,0.6000000238418579,134.0,23.11911582946777,-0.0159035474061965,-79.78272058207187,40.45898378671568,272.40724856460093,0.0122027937322855,0.0073025044985115,-0.7430180907249451,0.6691202521324158,-0.0054969550872184,-0.0156037925656643,-0.0042273531808433,0.0055159199982881,0.0026046296115964,0.0092056943103671,0.0500924706598743,-0.2779737998731435,-9.81234473347664,14937.0
3.11,0.6000000238418579,133.0,23.121620178222656,-0.0079517737030982,-79.78272069722661,40.458983854964735,272.38375925326346,0.0122020067647099,0.007305902428925,-0.7430204749107361,0.6691175699234009,-0.0048876729758724,-0.0132871666014416,-0.0035137821902815,0.0026050226297229,0.0025663652922958,-9.393694199388848e-05,0.0494338457705453,-0.2742939643375576,-9.81210616707802,14937.0
3.3,0.6000000238418579,127.0,23.12412452697754,-0.0159035474061965,-79.78272071220236,40.45898386106565,272.38344604575644,0.0122008193284273,0.007306451909244,-0.7430235147476196,0.6691142916679382,-0.0055470103854327,-0.0135794069449512,-0.0029478627925496,-0.0038010845892131,9.063999459613116e-05,-0.000906765286345,0.0509701103204861,-0.275957515463233,-9.813090838193895,14937.0
3.4,0.6000000238418579,126.0,23.11661148071289,-0.0238553211092948,-79.78272081983162,40.458983904563226,272.3597210278511,0.0122021315619349,0.0073136701248586,-0.7430232167243958,0.6691145300865173,-0.0009548439220234,-0.0104644488444837,-0.0022188361044747,0.0024506244808435,-0.0002433985937386,0.0063339849002659,0.0514717557420954,-0.2784952070564032,-9.81286630511284,14937.0
3.6,0.699999988079071,124.0,23.121620178222656,0.0,-79.78272093852914,40.45898397889494,272.33403796756267,0.0122011341154575,0.0073087215423583,-0.7430256605148315,0.6691118478775024,-0.0046377320879018,-0.0120303810564601,-0.005785508378435,-0.0028129527345299,-0.0036999005824327,-0.0045890505425632,0.0495542298909276,-0.2660500846244394,-9.81113202095032,14937.0
3.7,0.699999988079071,121.0,23.12287330627441,0.0,-79.7827209664821,40.45898398957878,272.33298630321025,0.0122001012787222,0.0073093632236123,-0.7430286407470703,0.669108510017395,-0.0049182055303678,-0.0128457412442027,-0.0047918812037392,-0.0020591258071362,-0.0010027854004874,-0.002062477171421,0.0496560993511229,-0.2717016378231347,-9.81260551929474,14937.0
3.89,0.8000000119209291,124.0,23.12036895751953,-0.0079517737030982,-79.78272102641888,40.458984019475714,272.3055067142248,0.0121984099969267,0.0073204129002988,-0.7430276274681091,0.6691095232963562,0.0005836871317498,-0.0055905118860627,-0.0099540170438333,0.0016431706026196,-0.0011898948578163,0.000828709336929,0.049539383444935,-0.2723864015936852,-9.811765859127044,14937.0
4.0,0.8999999761581421,122.0,23.11160469055176,0.0,-79.78272108600638,40.458984058404326,272.2798676123619,0.0121959540992975,0.0073302406817674,-0.7430309653282166,0.6691057682037354,0.0027791846695118,0.0005120674794067,-0.0106401132051367,0.0003937513683922,-0.0007606036379002,-0.0049759023822844,0.0494276193995028,-0.2679058629646897,-9.810409305095671,14937.0
4.2,1.100000023841858,122.0,23.11911582946777,-0.0159035474061965,-79.78272108589043,40.458984056029664,272.2788128634691,0.0121959540992975,0.0073302406817674,-0.7430309653282166,0.6691057682037354,0.0031802684703687,9.53180921926121e-05,-0.0102927112921248,0.0077270045876502,0.0006290933233685,0.0025044113863259,0.0510345713049173,-0.2784638696350157,-9.813220646381376,14937.0
4.3,1.2000000476837158,121.0,23.11786460876465,-0.0159035474061965,-79.78272119762289,40.45898411208656,272.25276955270766,0.0121984239667654,0.0073239039629697,-0.7430341243743896,0.6691023111343384,0.0019112862132482,-0.0049733396211684,-0.010976385397682,0.0049964892677962,0.001178040751256,0.0044187204912304,0.0502908877003938,-0.2741866313852369,-9.813095515966417,14937.0
4.5,1.2999999523162842,126.0,23.12036895751953,-0.0159035474061965,-79.78272120361784,40.45898411147893,272.2516872217655,0.0121978409588336,0.0073241819627583,-0.7430341839790344,0.6691023111343384,0.0012144986416425,-0.005199034298534,-0.0105179142099399,-0.0017151897773146,-0.0026096522342413,0.0012709631118923,0.0507632559305056,-0.2764072577096522,-9.813232340812682,14937.0
4.6,1.399999976158142,122.0,23.11536026000977,-0.0159035474061965,-79.78272134658815,40.458984191111774,272.22550489807134,0.0122008770704269,0.0073134736157953,-0.7430366277694702,0.6690996289253235,-0.0024205249990591,-0.0125799882914861,-0.0112428557790415,0.0020984662696719,-0.0001096788182621,0.0046438765712082,0.0505634364718571,-0.2788370681740344,-9.813346946239472,14937.0
4.79,1.5,119.0,23.11786460876465,0.0079517737030982,-79.78272136106497,40.45898419490244,272.22440292739867,0.0122005203738808,0.0073147537186741,-0.7430408000946045,0.669094979763031,-0.0029847048744497,-0.0129480448364352,-0.0108166517088273,-0.0037647630088031,-0.0032399417832493,-0.0063053858466446,0.050023149177432,-0.2650918904319406,-9.811508581638336,14937.0
4.9,1.7000000476837158,117.0,23.13038444519043,0.0397588685154914,-79.78272147160915,40.45898425485841,272.1978534390926,0.0122001152485609,0.0073140426538884,-0.7430403232574463,0.669095516204834,-0.0023681283862377,-0.0137184689279716,-0.0113798399102774,-0.0039318301714956,-0.0028427806682884,-0.003455126658082,0.0496273155184462,-0.2709264066629112,-9.811264168024064,14937.0
5.1,2.0,113.0,23.11911582946777,-0.0159035474061965,-79.78272155826066,40.45898431237315,272.17333664798736,0.0122011061757802,0.0073142736218869,-0.7430428862571716,0.6690926551818848,-0.0016694692780152,-0.0139491592413679,-0.0118706037725126,0.0015361326513811,0.0019358972785994,4.018564141006209e-05,0.0490396155277267,-0.2716400410607457,-9.81272597193718,14937.0
5.2,1.8999999761581416,116.0,23.11786460876465,0.0,-79.7827215909588,40.458984318949646,272.171023332119,0.0122012142091989,0.0073153143748641,-0.7430460453033447,0.6690890789031982,-0.0021786142884898,-0.0146434799475744,-0.0112782379677162,-1.7326530723948966e-05,-0.0005129813216626,-0.0052221058867871,0.0494094747584313,-0.2669944282248616,-9.81058822989464,14937.0
5.4,2.200000047683716,118.0,23.11786460876465,0.0954212844371795,-79.78272165286774,40.458984410610405,272.1486080815792,0.0121920220553874,0.0073116202838718,-0.7430466413497925,0.6690886616706848,-0.0079288351419613,-0.0116524188760886,-0.0088189559088968,0.0056284363381564,0.001218540361151,0.0027697442565113,0.0525696892524138,-0.2772725177183747,-9.812783274650574,14937.0
5.5,2.200000047683716,108.0,23.11786460876465,0.0715659633278846,-79.78272172663974,40.45898445868125,272.12328022027015,0.0121939219534397,0.0073197898454964,-0.7430493831634521,0.6690854430198669,-0.0024957601727685,-0.0088425458073643,-0.0099423519384136,0.0040189796127378,-0.0010388511000201,0.0082820216193795,0.050714760585688,-0.2764023606665433,-9.8128686439991,14937.0
5.69,2.5999999046325684,103.0,23.11410903930664,0.0397588685154914,-79.78272173674245,40.458984462373145,272.1223098864555,0.0121939219534397,0.0073197898454964,-0.7430493831634521,0.6690854430198669,-0.0032423078302021,-0.0091960253519912,-0.0095717119533515,-0.000916006101761,-0.000764702737797,0.0003053582040593,0.0497726051229983,-0.2748204330168665,-9.812248839139937,14937.0
5.8,2.5999999046325684,101.0,23.11410903930664,0.0715659633278846,-79.7827218291623,40.45898450899042,272.0967377951145,0.0121996691450476,0.0073239365592598,-0.7430527210235596,0.6690816879272461,0.0012301152454132,-0.0106089259644786,-0.0104487145207944,0.0030021367128938,-3.1308238249039284e-05,0.0040143132209777,0.050427922680974,-0.2784702650271356,-9.812831221818923,14937.0
6.0,2.5999999046325684,86.0,23.11911582946777,0.0874695107340812,-79.78272184174388,40.45898450941018,272.0956994524002,0.0122029744088649,0.0073225614614784,-0.7430554628372192,0.669078528881073,0.0006629595628329,-0.0108782020411233,-0.0100699359796026,-0.0018150807591155,-0.0015076824929565,-0.0052402531728148,0.0502581067476421,-0.2671838962845504,-9.811817314624788,14937.0
6.1,2.5,84.0,23.11536026000977,0.1192766055464744,-79.78272192448475,40.458984570698426,272.069680475235,0.0121877621859312,0.0073127783834934,-0.7430540323257446,0.6690805554389954,-6.657001927000121e-05,-0.0118730846222234,-0.0129235130470318,-0.0046956883743405,-0.0003432566591072,-0.0051771216094493,0.0498297022702172,-0.2703932319581509,-9.81101741552353,14937.0
6.29,2.700000047683716,84.0,23.11536026000977,0.0636141896247863,-79.78272193851464,40.458984571831,272.06839408779143,0.0121899899095296,0.0073215155862271,-0.7430636286735535,0.6690697073936462,0.0003451704025057,-0.012293222593173,-0.0127003264265996,0.0079107657074928,0.0013065381208434,0.0013208532473072,0.0511072503682226,-0.2752942036651075,-9.81239501953125,14937.0
6.4,2.700000047683716,84.0,23.10784721374512,0.0636141896247863,-79.78272199035426,40.45898463626685,272.0440807869434,0.0121754854917526,0.0073190075345337,-0.7430559396743774,0.669078528881073,-0.0007663212615374,-0.0096927799385143,-0.0124120122244376,0.0008451296016573,-8.716854063095525e-05,-0.0010384843917563,0.05011525652837,-0.2712954390607775,-9.811889820098877,14937.0
6.6,2.5999999046325684,89.0,23.109100341796875,0.055662415921688,-79.78272207085169,40.458984682992565,272.0208122959137,0.0121765788644552,0.0073120514862239,-0.7430543303489685,0.6690804362297058,0.0029593632593659,-0.0137829124464641,-0.0122853179912054,-0.0034331195056438,-0.0021497462876141,0.0014690030366182,0.0509053204301744,-0.2778506611660123,-9.813240526914598,14937.0
6.7,2.5,83.0,23.09657859802246,0.0954212844371795,-79.78272210455398,40.458984681119226,272.01837044262885,0.0121672479435801,0.0072918240912258,-0.7430583238601685,0.6690763831138611,0.0025036972472988,-0.0145627438141497,-0.0116896211506999,-0.0010328706121072,-0.0009210568387061,0.003869813401252,0.0494755117502063,-0.2776578126847744,-9.813109549283984,14937.0
6.9,2.5999999046325684,72.0,23.11410903930664,0.055662415921688,-79.78272212832223,40.45898475123733,271.9928799202442,0.0121576897799968,0.0072974804788827,-0.7430715560913086,0.6690617203712463,0.0009011011310933,-0.0107771909845055,-0.0154655039218167,0.0019427693914622,0.002565819537267,-0.0008869844023138,0.0504642119631171,-0.2703173826076091,-9.81154249548912,14936.0
7.01,2.5,63.0,23.1103515625,0.0715659633278846,-79.78272218252476,40.458984798998976,271.9709103932381,0.0121488096192479,0.007296563591808,-0.7430672645568848,0.6690667867660522,0.0032558334987921,-0.0110800713288392,-0.0111122237167908,0.0005292601999826,-0.0019389963708817,0.0035772395785897,0.049542800411582,-0.2710482114739716,-9.811668795347217,14936.0
7.19,2.0,68.0,23.109100341796875,0.0715659633278846,-79.78272219597632,40.45898479764203,271.9698030581474,0.0121488096192479,0.007296563591808,-0.7430672645568848,0.6690667867660522,0.002623367851807,-0.0113339540051068,-0.0107753778398946,-0.0047695455141365,-0.0020079901441931,-0.0015367473242804,0.0498280714452266,-0.2758847724460065,-9.812089794874192,14936.0
7.31,1.8999999761581416,69.0,23.109100341796875,0.0636141896247863,-79.7827222456498,40.458984862579214,271.94826414489745,0.0121477292850613,0.0072961174882948,-0.7430712580680847,0.6690623164176941,0.0009694897733812,-0.011797095693476,-0.0077908155954702,-0.0086159743368625,0.001114132348448,-0.0018769807647913,0.0498497244156897,-0.2728912355750799,-9.81161383152008,14936.0
7.5,1.7999999523162842,71.0,23.109100341796875,0.055662415921688,-79.78272225971692,40.45898486287445,271.94748392009734,0.0121467616409063,0.0072960830293595,-0.7430713176727295,0.6690623164176941,0.0013992284082174,-0.0121336589192223,-0.0075853101925249,0.0011673090048134,0.0070213512517511,0.0009217765764333,0.0516064701089635,-0.2769400486908853,-9.812915421724322,14936.0
7.6,1.7000000476837158,71.0,23.112855911254893,0.055662415921688,-79.78272229865699,40.45898496632264,271.926028632164,0.0121399201452732,0.0072894180193543,-0.7430744171142578,0.6690590381622314,-0.0062795223260749,-0.0130835710086404,-0.0059196797945079,0.0014279474271461,0.0005740480846725,0.0040618479251861,0.050970229092054,-0.2770589298941195,-9.813120074272156,14936.0
7.8,1.7000000476837158,70.0,23.1103515625,0.0636141896247863,-79.78272231317105,40.45898497381163,271.92546828889846,0.0121394908055663,0.0072902808897197,-0.7430766820907593,0.6690565347671509,-0.0074305781644474,-0.0132753524472627,-0.0055259929467846,-0.0054417527280747,-0.0008772994042374,-0.0046013789251446,0.0500136428838595,-0.2686023394390941,-9.811360062360764,14936.0
7.9,1.600000023841858,73.0,23.11661148071289,0.0795177370309829,-79.7827222884703,40.458985036336585,271.9042968978882,0.0121328188106417,0.0072987750172615,-0.7430769801139832,0.6690561771392822,-0.0066697331175543,-0.0059535749287697,-0.0042234085938934,-0.006585600785911,-0.0028634013142436,-0.0081269554793834,0.049855868560262,-0.2667999900318682,-9.811465312242513,14936.0
8.1,1.5,68.0,23.109100341796875,0.0954212844371795,-79.78272230457674,40.458985096388105,271.8838272919655,0.0121353864669799,0.0072991945780813,-0.7430795431137085,0.6690532565116882,-0.0048119548486673,-0.0074843794838901,-0.0038924534716819,0.0067272661253809,-0.0011697699083015,0.0079809091985225,0.0513553230604156,-0.278494604062289,-9.812896710634233,14936.0
8.21,1.5,71.0,23.10158729553223,0.0715659633278846,-79.78272232151663,40.45898510764951,271.88311704301844,0.0121363010257482,0.0073011484928429,-0.743083119392395,0.6690492033958435,-0.0053529651102942,-0.0082219249040988,-0.0035292077660985,0.0044702906161546,0.0003674928739201,0.0055402289144694,0.049322141110897,-0.2666162960976362,-9.80992749452591,14936.0
8.4,1.399999976158142,79.0,23.1103515625,0.0238553211092948,-79.7827223491386,40.45898518683576,271.8629703154564,0.0121378395706415,0.0072951251640915,-0.7430827617645264,0.6690497398376465,-0.007720315101062,-0.0126213191152666,-0.0031173723196994,-0.0021679657511413,-0.002987248590216,-0.0050357109867036,0.049527287017554,-0.2672196008451283,-9.810059641599656,14936.0
8.5,1.399999976158142,82.0,23.11536026000977,-0.0238553211092948,-79.78272231977245,40.458985223390776,271.8426411976814,0.0121379280462861,0.0073107904754579,-0.7430857419967651,0.6690462231636047,-0.0005767913327079,-0.0053577950726433,-0.0027296693718658,-0.0037640165537595,-0.0029577126260846,-0.0066759008914232,0.0490908745955675,-0.2693474208936095,-9.811095768213272,14936.0
8.69,1.2999999523162842,86.0,23.11911582946777,0.0,-79.78272232621784,40.45898522423779,271.8423692216873,0.0121379280462861,0.0073107904754579,-0.7430857419967651,0.6690462231636047,-1.3656842501575524e-05,-0.0057120024659047,-0.0026993877301263,0.0054765711538493,0.0009074537083506,0.0043919621966779,0.0507571620354428,-0.2762211883440614,-9.811785739660264,14936.0
8.79,1.399999976158142,81.0,23.11410903930664,-0.0079517737030982,-79.78272229770691,40.45898531018733,271.8224306931496,0.012130350805819,0.0073085939511656,-0.7430898547172546,0.6690418720245361,-0.0048693320030525,-0.0042948949996869,-0.002692840616587,0.0078174993395805,0.0005255432915873,0.0043055550195276,0.0514619662240147,-0.2753346956335008,-9.812006764411926,14936.0
8.99,1.2999999523162842,81.0,23.11160469055176,0.0079517737030982,-79.78272230221066,40.45898531545518,271.8221836915016,0.0121302921324968,0.007308789063245,-0.7430898547172546,0.6690418720245361,-0.0058782587189028,-0.0045635475728276,-0.0024992689941131,-0.0058534839190542,-0.0035680674482136,-0.0023569094482809,0.0496802282519638,-0.2716329330392182,-9.810542621612552,14936.0
9.1,1.2999999523162842,77.0,23.10659599304199,-0.0159035474061965,-79.78272229365146,40.458985375904994,271.8030170431137,0.0121330032125115,0.0073091681115329,-0.7430935502052307,0.6690376996994019,-0.0049923509223868,-0.0066151164495263,-0.0022024199902169,-0.0023857851047068,0.0004511159786488,-0.0029914232436567,0.0501846328284591,-0.2733382186666131,-9.811638389825822,14936.0
9.3,1.2000000476837158,77.0,23.112855911254893,-0.0238553211092948,-79.78272230097737,40.45898538067043,271.8028062810899,0.0121342223137617,0.0073108584620058,-0.7430976629257202,0.6690331101417542,-0.0044600761404154,-0.00692175714393,-0.0021363516493619,0.0038768018130213,0.0008955617668107,0.0045163687318563,0.0507301460718736,-0.27427222000435,-9.812372800111769,14936.0
9.4,1.2000000476837158,76.0,23.11410903930664,-0.0079517737030982,-79.78272224231749,40.45898544122758,271.78387685918807,0.0121287237852811,0.0073157590813934,-0.743097722530365,0.6690330505371094,-0.0044197508374763,-0.002466731487288,-0.0019936156670815,0.0053987172432243,0.002387246582657,0.0022913583088666,0.0514988128188997,-0.274937541782856,-9.812551724910737,14936.0
9.6,1.2000000476837158,80.0,23.11661148071289,-0.0159035474061965,-79.78272225981529,40.458985527510976,271.76544752025603,0.0121325589716434,0.0073025757446885,-0.7430998682975769,0.6690307855606079,-0.0101221169824594,-0.0125012015686516,-0.0020199220279634,-0.0074629876762628,-0.0017900202656164,-0.0029214834794402,0.0506337218312546,-0.2709329116903246,-9.812181011438373,14936.0
9.7,1.2000000476837158,81.0,23.121620178222656,0.0079517737030982,-79.78272227333431,40.458985537554994,271.7652663221359,0.0121325589716434,0.0073025757446885,-0.7430998682975769,0.6690307855606079,-0.0095276151420272,-0.0127006216251931,-0.0020227975206921,0.0052223596721887,0.0020349309779703,0.0013905975501984,0.0518961676675826,-0.2753656493313611,-9.811949461698534,14936.0
9.9,1.2000000476837158,81.0,23.11911582946777,-0.0079517737030982,-79.78272221440383,40.45898558799406,271.7468934884071,0.0121295731514692,0.0073112128302454,-0.7431035041809082,0.6690266132354736,-0.0067427967558784,-0.0078282056742743,-0.0019248913072905,0.0023743375204503,0.0048338235355913,0.0027539373841136,0.0516163007402792,-0.2773999139294028,-9.812359936237335,14936.0
10.0,1.100000023841858,81.0,23.11661148071289,-0.0079517737030982,-79.78272217746164,40.45898564215724,271.7278116574288,0.0121309030801057,0.0073133874684572,-0.7431065440177917,0.6690232753753662,-0.0054580480435139,-0.0085195404831662,-0.0043463299201553,0.003930274862796,0.0001195996810565,0.0024837888777256,0.0515922769065946,-0.2774248011410236,-9.812047694921494,14936.0
10.19,1.100000023841858,85.0,23.12287330627441,-0.0079517737030982,-79.7827221868142,40.458985648425625,271.72740551137923,0.0121309030801057,0.0073133874684572,-0.7431065440177917,0.6690232753753662,-0.0065032216312363,-0.0087935782510012,-0.0040836487119499,-0.0057739377953112,0.0011166578624397,-0.00877280626446,0.0485702257230877,-0.266606794372201,-9.810435032844545,14936.0
10.3,1.0,86.0,23.121620178222656,-0.0159035474061965,-79.78272212216848,40.45898568365911,271.7098996272087,0.0121323252096772,0.0073224259540438,-0.7431099414825441,0.6690192818641663,-0.0024641579979523,-0.0058533338511777,-0.0033367700171276,-0.0023416245821863,0.0012214465532451,-0.0092099038884043,0.0490464037796482,-0.265382314324379,-9.810797560214995,14936.0
10.5,1.0,88.0,23.11536026000977,0.0,-79.78272212893359,40.4589856863451,271.70957806015014,0.0121319284662604,0.0073225018568336,-0.7431099414825441,0.6690192818641663,-0.0021568380943237,-0.0062340392996962,-0.0032021173897797,0.0015029138885438,-0.0023474227637052,0.0045551443472504,0.0512822237284854,-0.2788545001856983,-9.812641772031784,14936.0
10.6,1.0,89.0,23.12036895751953,-0.0079517737030982,-79.78272205162128,40.45898572920608,271.69258769655227,0.0121294828131794,0.0073267449624836,-0.7431129813194275,0.6690159440040588,-0.0023776650240965,-0.003934184158713,-0.0025906016176384,0.0014655339764431,-0.0015530834207311,0.0028007272630929,0.0503695830004289,-0.279003421459347,-9.812212586402891,14936.0
10.8,1.0,89.0,23.102840423583984,-0.0477106422185897,-79.7827220560358,40.458985731813705,271.69233974123,0.0121316332370042,0.0073340004310011,-0.7431191205978394,0.6690090894699097,-0.0025872970223734,-0.004253474752974,-0.0024684601358543,-0.0012680212967097,-0.0004425777879077,-0.0033973108511418,0.0492117475066334,-0.2672131689079106,-9.81076481580734,14936.0
10.9,0.8999999761581421,89.0,23.11661148071289,-0.0079517737030982,-79.78272200266213,40.45898575466501,271.6804955830574,0.0121725546196103,0.0073344344273209,-0.7431063652038574,0.6690224409103394,0.0011767934085612,-0.0059127543926589,0.0045118375985074,0.001321711577475,0.0005756063037551,-0.0024165790528059,0.0489459230331704,-0.2690013388171792,-9.811126173734666,14936.0
11.11,0.8999999761581421,87.0,23.11911582946777,-0.0159035474061965,-79.78272191822803,40.45898577954531,271.66595681810384,0.0121629303321242,0.0073283822275698,-0.7430931329727173,0.6690373420715332,0.0025217717120343,-0.0041375231646392,0.0053232222162235,-0.0008442483376711,-0.0044676181860268,0.0002997322299052,0.0489558815723285,-0.277352094668895,-9.81194478392601,14936.0
11.2,0.8000000119209291,86.0,23.12036895751953,-0.0159035474061965,-79.78272192935813,40.45898577571815,271.6670218338966,0.0121525274589657,0.0073265116661787,-0.7430918216705322,0.6690390706062317,0.0019262900035021,-0.0048085216963306,0.0054884541375121,-0.0045567750930786,-0.0019066585227847,-0.0010954904137179,0.0490424660453572,-0.2765314196795225,-9.811223237514495,14936.0
11.4,0.8000000119209291,83.0,23.109100341796875,-0.0318070948123931,-79.78272187642789,40.45898584031396,271.652709924221,0.0121409716084599,0.0073224753141403,-0.7431022524833679,0.6690276861190796,-0.0042139749058253,-0.0097099240831201,0.0060071602747756,0.004931348375976,0.0028375736437737,0.0005012668552808,0.0499756177095696,-0.273777618650347,-9.811098107099532,14936.0
11.5,0.8000000119209291,82.0,23.121620178222656,-0.0079517737030982,-79.78272180647028,40.45898585767735,271.63970472717284,0.0121287414804101,0.0073390211910009,-0.743086576461792,0.6690452098846436,0.0005809791858856,-0.0091796142241315,0.0069474493517474,0.0069166263565421,-5.305779723130399e-06,0.0026648500934243,0.0514558403519913,-0.2755784148909152,-9.811824331283573,14936.0
11.69,0.699999988079071,81.0,23.11786460876465,-0.0079517737030982,-79.7827218174356,40.458985858290326,271.64040239954,0.0121306283399462,0.0073299487121403,-0.7430903911590576,0.6690409779548645,-0.000393432993172,-0.009313808618042,0.0071021481689895,-0.0060122436843812,-0.0038893180899322,-0.002792480867356,0.0508074252493679,-0.2708659610711038,-9.809857912659645,14936.0
11.8,0.699999988079071,81.0,23.11661148071289,-0.0079517737030982,-79.782721742788,40.45898586864031,271.6277552475929,0.0121297677978873,0.0073506180197,-0.7430893182754517,0.6690419316291809,0.0027743588157596,-0.0088363476783882,0.0077584415254076,-0.0056432248093187,0.0004815006395801,-0.004896986298263,0.0497409387957304,-0.2690857397206128,-9.811579917669295,14936.0
12.0,0.699999988079071,81.0,23.129133224487305,0.0238553211092948,-79.78272175376736,40.458985866609176,271.62851395511626,0.0121292630210518,0.0073502925224602,-0.7430893182754517,0.6690419316291809,0.0033055519782217,-0.0091626192549767,0.0076336187925508,0.0045055719092488,0.0014912221813574,0.003242026316002,0.0506184962298721,-0.2782876857183873,-9.81147115945816,14936.0
12.1,0.699999988079071,81.0,23.11661148071289,-0.0079517737030982,-79.7827216995195,40.45898590683139,271.61660083436965,0.0121337948366999,0.0073543349280953,-0.7431020736694336,0.6690277457237244,-8.381258556664176e-05,-0.011960908156028,0.0076517716722699,0.0028449047822505,5.314376539899968e-05,0.0070863710716366,0.0498150613903999,-0.2795279897935688,-9.811381112337113,14936.0
12.29,0.699999988079071,79.0,23.11661148071289,-0.0159035474061965,-79.78272171353183,40.45898590823128,271.6173700919151,0.0121257035061717,0.0073506343178451,-0.7431005835533142,0.6690295338630676,-0.0009715176994478,-0.0120450735251467,0.0078452233861269,-0.0074296277016401,-0.000500452122651,-0.0056949956342577,0.0501513767894357,-0.2655775930546224,-9.810201144218444,14936.0
12.41,0.699999988079071,79.0,23.11911582946777,-0.0159035474061965,-79.78272161486757,40.45898591494304,271.60787805223464,0.012111741118133,0.0073572401888668,-0.7430899739265442,0.6690415143966675,0.001196820442294,-0.0080348458991901,0.0109414383869081,-0.0063111898489296,-0.0004775509878527,-0.0079319607466459,0.0490322334179654,-0.2678790023177862,-9.809822244644163,14936.0
12.6,0.699999988079071,75.0,23.11661148071289,-0.0159035474061965,-79.78272150369202,40.45898593499135,271.59737040901183,0.0120959626510739,0.0073550073429942,-0.7430964112281799,0.6690346598625183,0.0007101237652584,-0.004862430828366,0.0131457351444559,0.0038120883982628,0.001884689903818,0.0060157808475196,0.0504136335477233,-0.2786783345416188,-9.81218335032463,14936.0
12.7,0.699999988079071,76.0,23.109100341796875,-0.0079517737030982,-79.78272151564221,40.45898593511802,271.6000134577751,0.0121014658361673,0.0073567442595958,-0.7430960536003113,0.6690348982810974,0.000170577226835,-0.0052123978799268,0.01325829554298,0.0065759671851992,0.0008360459469258,0.0050643519498407,0.0501868757838383,-0.2772576073184609,-9.811331995725633,14936.0
12.9,0.699999988079071,77.0,23.109100341796875,-0.0159035474061965,-79.78272145317808,40.45898594919103,271.58984305763244,0.0121117793023586,0.007353373337537,-0.7430790662765503,0.6690536141395569,-0.0004511869315886,-0.0099836315462531,0.0152432276389987,-0.0045440876856446,0.0011167724151164,-0.0058112749829888,0.0508866915665566,-0.2712136876769364,-9.809849726557731,14936.0
13.01,0.699999988079071,78.0,23.1103515625,-0.0079517737030982,-79.78272134367748,40.45898594838157,271.5812204709053,0.0121189653873443,0.0073627890087664,-0.743088960647583,0.6690424084663391,0.0011386146937244,-0.0046534688683511,0.0158953327750482,-0.0032608255278319,-0.0014996279496699,0.000623831350822,0.0505717002321034,-0.2748812988772988,-9.809957315325738,14936.0
13.19,0.699999988079071,79.0,23.121620178222656,0.0079517737030982,-79.78272134958809,40.45898594732199,271.5828040471077,0.0121169751510024,0.0073660067282617,-0.7430874705314636,0.6690441370010376,0.0013503272628402,-0.0049158975288837,0.0159196188828416,-0.0005216764984652,0.00059721164871,0.0003730727476067,0.0493031742051243,-0.2710629391483962,-9.810477132797242,14936.0
13.3,0.699999988079071,82.0,23.11536026000977,-0.0159035474061965,-79.78272129064075,40.458985972173295,271.5705957045555,0.0121168140321969,0.0073596267029643,-0.7430905699729919,0.6690407991409302,-0.0026444634933927,-0.0098864287711622,0.0102356284793956,0.000737965805456,0.0037875522393733,-0.0039045752491801,0.0505543504469096,-0.2779739095084369,-9.81244062781334,14936.0
13.5,0.699999988079071,82.0,23.10659599304199,-0.0238553211092948,-79.78272130210291,40.45898597527153,271.57162454032897,0.0121175236999988,0.0073599792085587,-0.7430905103683472,0.6690407395362854,-0.0027094340169913,-0.0101010508900853,0.010303515716474,0.0002007807779591,-6.184991798363626e-05,0.0044626649469137,0.0512100791372358,-0.2793984374217689,-9.812417238950731,14936.0
13.6,0.699999988079071,81.0,23.10784721374512,-0.0079517737030982,-79.78272124494505,40.45898597714056,271.561807059288,0.0121211819350719,0.007360316812992,-0.7430940866470337,0.6690366864204407,-0.0015285156032991,-0.0131650252416633,0.0096486299304377,0.0024522149469703,0.0026077141519635,0.0066971904598176,0.0519410861609503,-0.2802968072891235,-9.811427890062332,14936.0
13.8,0.699999988079071,80.0,23.11160469055176,-0.055662415921688,-79.7827212603333,40.45898597985769,271.5627795090675,0.012121639214456,0.0073609161190688,-0.7430987358093262,0.6690315008163452,-0.0024599609157085,-0.0133417063029387,0.0098700832328162,-0.0043624360114336,-0.0011721245246008,-0.0072672548703849,0.0501693204324692,-0.2677925731614232,-9.810595246553422,14936.0
13.91,0.8000000119209291,80.0,23.10409164428711,-0.0397588685154914,-79.78272114463292,40.45898595155924,271.55322995090484,0.0121163418516516,0.0073666549287736,-0.7430949211120605,0.669035792350769,0.0011877769773537,-0.0077950574241001,0.0095089776702818,8.929155592340976e-05,-0.0027714264579117,-0.0038125438150018,0.0504703012900427,-0.2715838347002864,-9.809801194667816,14936.0
14.1,0.8000000119209291,78.0,23.112855911254893,-0.0318070948123931,-79.78272106116543,40.45898595500852,271.5446857442856,0.0120975859463214,0.0073620597831904,-0.7431021928787231,0.669028103351593,-0.0017154665651132,-0.0082129486170879,0.0090732968530323,-0.0044407295063138,-0.0015370155451819,-0.0002492523926775,0.0502289620321244,-0.2762309824302793,-9.81045023560524,14936.0
14.3,0.8000000119209291,79.0,23.11536026000977,-0.0238553211092948,-79.7827210708047,40.45898595691835,271.5455938210487,0.0121090458706021,0.0073574329726397,-0.7431067228317261,0.6690229773521423,-0.0016544918935516,-0.0083955254900652,0.0090424971650362,0.0017201061127707,0.0011404063552618,-0.0004142465477343,0.0494932132819667,-0.2708894230239093,-9.809668462872503,14936.0
14.4,0.8000000119209291,75.0,23.112855911254893,-0.0318070948123931,-79.7827210105162,40.458985941833,271.53710445070266,0.0121287805959582,0.0073702805675566,-0.7431095242500305,0.6690192818641663,-0.0009514643828063,-0.0118048186595943,0.0089201467948515,0.0010089469142258,0.0042344061657786,-0.0014491900801658,0.0499158527702093,-0.2692297456786036,-9.809594787955282,14936.0
14.6,0.8999999761581421,74.0,23.109100341796875,-0.0477106422185897,-79.782720931309,40.45898593723826,271.5282321801185,0.012129733338952,0.007360465824604,-0.7431070804595947,0.6690220832824707,-0.0032883544881772,-0.0140368545199279,0.0086534994681115,-0.002044060267508,-0.0018416831735521,0.0056821880862116,0.0514134343340993,-0.2788760435208678,-9.81111564874649,14936.0
14.7,1.0,74.0,23.112855911254893,-0.0159035474061965,-79.78272096391295,40.45898594571813,271.5299597015381,0.0121403448283672,0.0073598641902208,-0.7431134581565857,0.6690148115158081,-0.003580667423789,-0.0144107884482395,0.0087143907681825,-0.0004602342087309,0.0009038278949446,0.0045708948746323,0.0521543861925602,-0.2790528304316103,-9.812409052848816,14936.0
14.9,1.0,69.0,23.05526161193848,1.0257788896560671,-79.7827208315622,40.45898591504717,271.52367975616454,0.0121445609256625,0.0073718097992241,-0.7431125044822693,0.6690157055854797,-0.0030501384630811,-0.0087285728214241,0.0118970273602831,0.0016009246464818,-0.0024238221812993,-0.0044040400534868,0.0498597514769062,-0.2673672795854509,-9.808856869339944,14936.0
15.0,1.0,68.0,23.09657859802246,0.278312087059021,-79.78272074738742,40.45898588881851,271.5169491996765,0.0121409846469759,0.0073984437622129,-0.7431073784828186,0.6690211892127991,-0.0013617916183891,-0.0090194818639969,0.0110671875645653,-0.0024227295070886,-0.0020118691027164,0.010632200166583,0.0500191018078476,-0.256920534465462,-9.810155535936357,14936.0
15.19,1.100000023841858,66.0,23.102840423583984,0.3021674156188965,-79.78272075761838,40.45898589119745,271.5180501570701,0.0121389022096991,0.0073995501734316,-0.7431476712226868,0.6689765453338623,-0.0028387512695149,-0.0092074709660287,0.0109507756370595,0.0071570454165339,0.0010421390179544,-0.0034393854439258,0.0421145844412967,-0.2970256729982793,-9.810962451696398,14936.0
15.3,1.2000000476837158,66.0,23.09282302856445,0.3021674156188965,-79.78272066988923,40.45898586219693,271.5135897626877,0.0121347736567258,0.0074232993647456,-0.7431554794311523,0.668967604637146,-0.0017802860022846,-0.0088619076254746,0.0133600139992605,0.0057329391129314,0.0051025794818997,-0.0012575543951243,0.0511958265490829,-0.283960160985589,-9.811864092350008,14936.0
15.5,1.2000000476837158,64.0,23.09783172607422,0.2862638533115387,-79.78272067997366,40.45898586434186,271.51492824459075,0.0121395206078887,0.0074404114857316,-0.7430734634399414,0.6690583825111389,-0.001975433066432,-0.0087960498754869,0.0133523930640314,-0.0013670960906893,-0.0039143851026892,-0.0057089086621999,0.0491129067214205,-0.2701719513908029,-9.810575366020204,14936.0
15.6,1.2000000476837158,63.0,23.09783172607422,0.3180709481239319,-79.7827205921008,40.45898582857697,271.50900044345855,0.0121198613196611,0.007456021849066,-0.7430776357650757,0.6690539121627808,-0.000845825328165,-0.0083096159597774,0.0118922094540976,0.0011965949088335,0.0007061712094582,-0.0023279720917344,0.0514296740619465,-0.2790244531631469,-9.810088877677918,14936.0
15.79,1.2999999523162842,58.0,23.09407615661621,0.3816851377487183,-79.78272060178398,40.45898582991997,271.51019277477263,0.0121188638731837,0.0074681607075035,-0.7431274056434631,0.6689985394477844,-0.0005958405384678,-0.00811705322529,0.0119368487186412,0.0021586932707577,0.0013670368352904,-0.0002235986321466,0.0494529086071997,-0.2673621449992061,-9.810860710144045,14936.0
15.9,1.2999999523162842,57.0,23.09407615661621,0.4055404663085937,-79.78272048299513,40.45898578992964,271.5046166410446,0.0121106151491403,0.0074924253858625,-0.7431251406669617,0.6690009236335754,-0.0008550342776804,-0.0044638487493243,0.0109519796072871,-0.0067355711944401,1.7383150407113135e-05,-0.0033812131732702,0.0500996152264997,-0.2562738689593971,-9.80824583530426,14936.0
16.1,1.2999999523162842,53.0,23.04023742675781,0.9065022468566896,-79.78272037641574,40.45898574911482,271.4987896313667,0.0121717369183897,0.0075094429776072,-0.7431043386459351,0.669022798538208,-0.0010785341821515,-0.0034539201222346,0.0109104957891701,-0.0001114217666327,0.0043569603003561,-0.0123831229284405,0.0389151342166587,-0.2414373997785151,-9.807997328639033,14936.0
16.19,1.2999999523162842,53.0,23.09282302856445,0.2942156493663788,-79.7827203835923,40.458985748237744,271.50092103385924,0.0123417703434824,0.0075591118074953,-0.7430704832077026,0.6690567135810852,0.0019155343889386,-0.0043002848579515,0.0100321473115018,0.0112440166994929,0.0077516478486359,0.0202612020075321,0.0376860175095498,-0.2895630909316242,-9.801092351675036,14936.0
16.39,1.399999976158142,53.0,22.6571102142334,5.542386531829834,-79.78272030340867,40.458985719083685,271.49556168222426,0.0122992908582091,0.007591251283884,-0.7430837750434875,0.6690423488616943,-0.0026996942483102,-0.004165360385105,0.0103860329919799,-0.0001069110803655,0.0043043615296483,0.0012652422301471,0.0513458807207644,-0.2897124142013489,-9.821685075759886,14936.0
16.5,1.5,49.0,23.05526161193848,0.7077078819274902,-79.78272022582297,40.45898565582444,271.49182232522963,0.0124002797529101,0.0076816258952021,-0.7431337237358093,0.6689839959144592,0.0011868206579679,-0.0042304309189064,0.0093063609030651,-0.0124512854963541,0.005142365116626,-0.0208990257233381,0.0514107117243111,-0.2563480372354389,-9.813217138051987,14936.0
16.7,1.5,48.0,23.09407615661621,0.2465049922466278,-79.78272023181721,40.45898565393394,271.4927309384346,0.0123971868306398,0.0076804193668067,-0.7431035041809082,0.6690176725387573,0.0029866649415597,-0.0038418753613417,0.0091152508842032,0.0077292141504585,0.0141925420612096,-0.0036062039434909,0.060506462235935,-0.2784699361212551,-9.817473911046983,14936.0
16.8,1.600000023841858,50.0,23.09031867980957,0.4373475611209869,-79.78272013577588,40.45898558248789,271.4897682299614,0.0124129895120859,0.0076367789879441,-0.7431152462959291,0.6690047383308411,0.0070305819345025,-0.002963048714979,0.0091086421023467,0.0086879031732678,0.0005791632574982,0.0071287970058619,0.038349301898852,-0.2751708639599383,-9.80057604253292,14936.0
17.0,1.7999999523162842,46.0,22.886234283447266,4.15082597732544,-79.78272013890792,40.458985577198575,271.4906761279106,0.0123809464275836,0.0075831455178558,-0.7431560158729553,0.668960690498352,0.0048936300383454,-0.0014863542281975,0.0095394680060074,-0.0069853453896939,-0.0038391896523535,0.0063428543508052,0.0550321116484701,-0.2563659808784723,-9.809283716082572,14936.0
17.1,1.7999999523162842,43.0,22.863698959350582,4.9778103828430185,-79.78272002976641,40.45898550995221,271.4875427117348,0.0123978266492486,0.0075663919560611,-0.7431687116622925,0.6689465045928955,0.0068254423259407,0.0016229171949948,0.0092302537994823,-0.01057621371001,0.0180852562189102,-0.0004936230252496,0.0440381448017433,-0.2524769063852728,-9.805973022580147,14936.0
17.29,1.7999999523162842,47.0,22.751012802124023,7.220210552215576,-79.78272002821619,40.45898550304507,271.48848386907576,0.0124183893203735,0.0075884447433054,-0.7431622147560121,0.6689530611038208,0.0097105792773186,0.0034467457356573,0.0098239387467726,-0.0038265974726527,-0.0179113950580358,0.0103717353194952,0.0625367479864508,-0.3306925337389112,-9.813042891025544,14936.0
17.4,2.0999999046325684,48.0,22.6859073638916,8.285748481750487,-79.78271998874804,40.45898547135855,271.4849695196152,0.013032398186624,0.0080459583550691,-0.7431367635726929,0.6689643263816833,0.0028584437290399,-0.0053844413789746,0.0090542863657683,-0.0182257872074842,-0.1008049100637436,0.0050624059513211,0.0544216943113133,-0.2882951222173869,-9.822179750204088,14936.0
17.6,2.0999999046325684,44.0,22.539417266845703,10.62356948852539,-79.78271989914259,40.45898542664465,271.4806100358963,0.0135109033435583,0.0083731180056929,-0.7431511282920837,0.6689348220825195,0.0066046536518557,-0.0040274101694287,0.0102480974652668,0.0683134719729423,0.0167172271758317,-0.0280969366431236,0.0405759398918598,-0.3862757637351752,-9.823887137174609,14936.0
17.69,2.0999999046325684,53.0,22.475563049316406,12.182117462158203,-79.78271990437965,40.45898541686472,271.48272695446013,0.0145097915083169,0.0091603808104991,-0.7431606650352478,0.668893039226532,0.014052908539602,0.0005286062760593,0.0114466566355687,0.1476783603429794,0.0768521428108215,-0.0018315833294764,0.0383254105411469,-0.3849070036411285,-9.789612513184547,14936.0
17.89,2.200000047683716,50.0,22.300275802612305,15.171984672546388,-79.78271981695372,40.45898534256843,271.4782167305946,0.0150673296302557,0.0097161512821912,-0.7430587410926819,0.6689860820770264,0.0185498074797441,-0.0003396219692345,0.0104190794672189,0.0617654025554657,0.0063038668595254,0.0498925745487213,-0.1147477973531931,-0.4353250591456889,-9.71913309931755,14936.0
18.0,2.0,59.0,22.206371307373047,16.571496963500973,-79.782719771576,40.45898529156253,271.4733129968643,0.0164888426661491,0.0109382728114724,-0.743053138256073,0.6689398288726807,0.0124934621214322,-0.0022326950379273,0.0128050803910672,0.06681639701128,0.0685850083827972,-0.0561352558434009,0.0519837205857038,-0.4472848809510469,-9.88357902288437,14936.0
18.19,2.0,58.0,22.034839630126957,19.95895195007324,-79.78271977630533,40.45898527747773,271.47463586235045,0.0177723579108715,0.0119281094521284,-0.7427498698234558,0.6692268252372742,0.0237880111427622,-0.0035904386821905,0.0123375571457114,0.060219906270504,0.0501412786543369,-0.0683541372418403,0.1157905660383403,-0.3800576884299517,-9.823666112422943,14936.0
18.3,2.0,56.0,21.95345687866211,21.597017288208008,-79.78271973559791,40.45898520438058,271.4715937604904,0.0189730320125818,0.0131423948332667,-0.7423113584518433,0.6696575284004211,0.0061734902204584,-0.0028583929256789,0.0297329157406355,-0.0386951565742492,0.0663144290447235,-0.0477787628769874,0.0590119458921253,-0.4399161832407117,-9.999334012269976,14936.0
18.5,1.8999999761581416,53.0,21.735599517822266,25.24688148498535,-79.7827197403536,40.45898519656523,271.4751300444603,0.0180995985865592,0.0117477010935544,-0.7424792051315308,0.6695215106010437,0.0110870579727075,0.0002218051231087,0.0383721739809886,-0.0811843201518058,-0.0049236402846872,-0.0690905749797821,0.2206812460161745,-0.1698598970845341,-9.875735567808151,14936.0
18.6,1.8999999761581416,57.0,21.6279239654541,26.996273040771484,-79.78271971317152,40.45898509578908,271.4761412372589,0.0046805157326161,0.0119699090719223,-0.7401124238967896,0.6723604202270508,0.0606741342288489,0.0245576952536783,0.0924791120824686,-0.1391542851924896,-0.0589308813214302,-0.1672949492931366,0.1059293921571224,0.1264966808538884,-10.243680968284608,14936.0
18.79,1.8999999761581416,55.0,21.685518264770508,24.952667236328125,-79.78271967490045,40.45898501963986,271.48805799388884,-0.0027685058303177,0.0147842494770884,-0.7376943230628967,0.6749672889709473,0.0844213333235261,0.0587036878899639,0.158970007297897,-0.1384619623422622,-0.1962532848119736,-0.086353063583374,0.101332493936643,0.2805293254740536,-10.463308235406878,14936.0
18.91,1.8999999761581416,50.0,21.90713119506836,21.19147682189941,-79.78271970662773,40.4589847988326,271.5137587418556,-0.0108305932953953,0.0095810154452919,-0.7359605431556702,0.6768701076507568,0.1238749083470231,0.0840783863808539,0.3003523979094598,-0.2321987748146057,0.0486371107399463,-0.0135818626731634,-0.0554277488775551,-0.0730018296092748,-10.418409805297852,14936.0
19.1,1.7999999523162842,46.0,21.67550277709961,24.58688545227051,-79.78271919227113,40.458984513851405,271.50871249341964,-0.012337707914412,-0.0009301765239797,-0.7356353998184204,0.6772647500038147,0.1441421600947115,0.1148359343963064,0.2415830376919354,-0.0268849208950996,0.2661071121692657,-0.0230195242911577,0.0027417868282645,-0.0060526356473565,-9.8384794485569,14936.0
19.2,1.7999999523162842,49.0,21.783178329467773,23.27484130859375,-79.78271889805926,40.45898424349394,271.5494078030586,-0.0008823811076581,-0.0126134436577558,-0.7345461249351501,0.6784409880638123,0.1366182506264585,0.1438693082550389,0.1664590392119443,0.0107959350571036,0.1313041895627975,0.0027650455012917,0.0468340777605772,0.2865612583234906,-9.40908331990242,14936.0
19.4,1.8999999761581416,44.0,21.70304679870605,25.01628112792969,-79.7827184269634,40.458984063493965,271.53670056962966,0.0032514482736587,-0.0140267247334122,-0.7337368130683899,0.6792812347412109,0.1303293600418123,0.1494018099698658,0.0893757136801696,-0.0556094571948051,0.0077288099564611,-0.057740069925785,0.0395829867431894,0.1017579702381044,-9.388708112239838,14936.0
19.5,1.8999999761581416,47.0,21.577842712402344,26.59868431091309,-79.78271804484214,40.458983646409735,271.5590306749344,0.0013356144772842,-0.0136413527652621,-0.7322378754615784,0.680911123752594,0.1363722146838712,0.1244213882118614,0.059773463018285,-0.1574285328388214,-0.1218466460704803,-0.1021317094564438,-0.0018715201411396,0.2517763734050095,-9.598306235074997,14936.0
19.7,2.0,47.0,21.57909393310547,26.344226837158203,-79.78271792229351,40.45898350290036,271.5654193987846,0.0012727577704936,-0.0106239859014749,-0.7317046523094177,0.6815378665924072,0.1506263131022251,0.1106837673469507,0.0598465425472612,0.0596203729510307,-0.0450576692819595,0.0773812755942344,0.0463470046967268,0.0912648676615208,-9.818279657363894,14936.0
19.81,2.0,48.0,21.61415100097656,25.88302421569824,-79.78271749526421,40.45898318757565,271.5827599992752,-0.0023604750167578,-0.0082555767148733,-0.7328616976737976,0.6803234815597534,0.1302716850034143,0.116798788656274,0.0569151624122662,-0.2007867842912674,-0.0949552804231643,-0.0169788729399442,0.0349936259491369,-0.0040842984057962,-9.649998545050623,14936.0
20.0,2.0,52.0,21.62166404724121,25.843265533447266,-79.78271737951891,40.45898305969805,271.58918532037734,-0.00605254387483,-0.0119470367208123,-0.7343376278877258,0.6786523461341858,0.1421299779246361,0.1051918160096019,0.0659888950212291,0.0057985456660389,-0.0017956015653908,0.1475957036018371,0.1123712970502674,0.096249061692506,-9.906335216760636,14936.0
20.1,2.0,53.0,21.56782531738281,26.95651435852051,-79.78271704646745,40.45898275250861,271.6137493481636,-0.0097330324351787,-0.0164380110800266,-0.7373092174530029,0.6752853393554688,0.0891525798592589,0.1142286103471444,0.0916365927177019,-0.1461059898138046,-0.0030432362109422,-0.0188198592513799,0.0913022624328732,0.4166636703908443,-9.801429151296617,14936.0
20.29,2.0,56.0,21.45764541625977,28.43554306030273,-79.78271692910533,40.45898266473942,271.6235852470398,-0.010290483944118,-0.0175704192370176,-0.7385702729225159,0.6738690137863159,0.0861943950507057,0.1060172312591278,0.0922925427093949,0.037812989205122,-0.0007988305878825,0.0601216964423656,0.0681150328321382,0.0164098087325692,-9.82356320142746,14936.0
20.4,2.0999999046325684,60.0,21.50397109985352,27.11554908752441,-79.78271655240391,40.45898240940289,271.646737300396,-0.0048839026130735,-0.0179020855575799,-0.7409145832061768,0.6713428497314453,0.0550564876417513,0.0914402196726026,0.1399874136782653,0.0667293146252632,0.030741399154067,0.0316332876682281,0.089499045079574,0.0329996523214504,-10.094042533636092,14936.0
20.5,2.0999999046325684,65.0,21.451385498046875,27.20301818847656,-79.78271649298223,40.458982284368034,271.6623487701416,-0.002027035690844,-0.0198410172015428,-0.7420856356620789,0.6700083613395691,0.0396255160204934,0.0706367923764459,0.1748713086410835,-0.0342647619545459,0.0240999031811952,0.0764372870326042,0.0666530096484348,0.0216910230461508,-10.094587494134904,14936.0
20.7,2.0999999046325684,71.0,21.526508331298828,26.59073257446289,-79.78271642637849,40.45898225355213,271.68070837163924,-0.0007906061946414,-0.0199800357222557,-0.7428244352340698,0.6691876053810121,0.0255529144834248,0.0553950347260228,0.1807738137344695,0.0843186676502227,-0.0206984691321849,0.082889474928379,0.1215058356150984,0.0847446283511817,-9.951102669239043,14936.0
20.89,2.200000047683716,77.0,21.363740921020508,30.192886352539062,-79.78271637317162,40.45898212634872,271.70428045892714,-0.0029514618217945,-0.0154793495312333,-0.7429752349853516,0.6691333651542664,0.0104116313853973,0.0184274416410902,0.1661453024982193,0.083833172917366,-0.0128994360566139,0.0576639659702777,-0.0156641242839396,-0.0535348315816372,-9.89735272407532,14936.0
21.0,2.299999952316284,79.0,21.403806686401367,28.58662796020508,-79.78271636253852,40.45898213108622,271.72200115823745,-0.0041500478982925,-0.0150047549977898,-0.7428812384605408,0.669242262840271,-0.0051929398058538,0.0015603493716331,0.1943722461945622,-0.0165083073079586,-0.022512312978506,0.01283385977149,-0.0347546027367934,0.0688409052696079,-10.03622175693512,14936.0
21.2,2.400000095367432,81.0,22.191347122192383,11.490313529968262,-79.78271627756818,40.458981941193606,271.75487121248244,-0.0058930893428623,-0.0158845763653516,-0.7414367794990541,0.6708089113235474,-0.0046171475024389,-0.0013171933062472,0.2663326063555214,0.0053530381992459,-0.0001727822673274,-0.0486329048871994,0.0559088285453617,-0.0668262471165508,-10.159182854890824,14936.0
21.3,2.5,80.0,21.610395431518555,26.550973892211918,-79.78271628961306,40.45898196698963,271.782114528656,-0.007007859647274,-0.0154813816770911,-0.7404294013977051,0.6719193458557129,-0.0350071779180098,-0.013526256092386,0.2671469921304958,-0.0469775013625621,-0.0556642636656761,-0.0589735582470893,0.0580649025226011,0.3074093595519662,-9.787155513167384,14936.0
21.4,2.400000095367432,76.0,21.388782501220703,28.554821014404297,-79.7827165678082,40.458982018677226,271.7943774094581,-0.0009148293756879,-0.0007628754829056,-0.7397558093070984,0.6728744506835938,-0.0353657212291795,-0.0394737341459371,0.0498253557474074,0.2660925686359405,-0.1565458476543426,0.0102612869814038,0.0871019333414733,0.2486897561699152,-9.178546902537349,14936.0
21.6,2.5,78.0,21.17968940734864,34.494796752929695,-79.78271647596634,40.45898186221454,271.82883664274215,0.0015056548872962,0.0123039111495018,-0.7393979430198669,0.6731546521186829,-0.0179355064820451,-0.0166263410593428,0.1300815780103945,-0.0924418047070503,-0.0340680368244648,0.0752812251448631,-0.1113887912314385,-0.0764051466621458,-10.16806360602379,14936.0
21.8,2.5999999046325684,73.0,20.945556640625,36.62586975097656,-79.78271648594836,40.45898186617698,271.8469566335678,-0.0009320237440988,0.0079333074390888,-0.7390766143798828,0.6735740303993225,-0.0027995071128953,-0.0063313983473748,0.2498459100808261,-0.1997629553079605,0.049646470695734,-0.109739065170288,-0.0410230143461376,0.2682308402471245,-10.799597979784012,14936.0
21.9,2.5999999046325684,70.0,20.90924644470215,37.62779235839844,-79.78271654745821,40.45898198625533,271.8830094566345,-0.0033710799179971,-5.360547220334412e-06,-0.738438606262207,0.6743122935295105,-0.0038909177760273,-0.0161631790582192,0.4261858738194517,-0.1158377602696418,0.0557282045483589,-0.0608673468232154,-0.0437356199137866,0.2371710519678891,-11.373976989984511,14936.0
22.1,2.5999999046325684,66.0,20.71267509460449,41.40488815307617,-79.78271655870569,40.45898185513887,271.9854851295948,-0.0052548139356076,-0.0092753292992711,-0.7370629310607909,0.6757400035858154,0.0261839274740953,0.0074249410257736,0.7893807550635384,0.0630578994750976,-0.0104508362710475,-0.0245311092585325,0.1573240514472127,0.18753162631765,-11.814896811246872,14936.0
22.19,2.799999952316284,67.0,20.68638229370117,41.48440551757813,-79.78271655842417,40.45898183787102,272.19051566028594,-0.0038410115521401,-0.0068897060118615,-0.7359941005706787,0.676941990852356,0.0251526961896407,0.0049666175807961,1.2738123044936105,-0.0189432464540004,-0.0017821744550019,-0.030364641919732,0.019061701472383,0.2490499081090093,-12.219244637489322,14937.0
22.4,2.900000095367432,67.0,20.67636489868164,41.55596923828125,-79.78271659864839,40.458981774677255,272.3193026562929,-0.0025338912382721,-0.0060970853082835,-0.7361907958984375,0.676741898059845,0.0284019832686713,-0.0011908821392393,1.5142235233740804,0.0760031938552856,-0.0015832247445359,0.066754899919033,0.0415317038353532,0.1267498561553657,-12.399252340793607,14937.0
22.5,2.900000095367432,64.0,20.59623336791992,42.12849807739258,-79.78271660346302,40.45898177229829,272.4835433173701,-0.0042246510274708,-0.0063497009687125,-0.7370481491088867,0.6757972240447998,0.0229289147794995,0.0088256642521449,1.7659855181734987,-0.0602026395499706,-0.0173180736601352,-0.0711604058742523,0.0978198430873453,0.0718496174924075,-12.329200358390803,14937.0
22.7,3.0,62.0,20.57119369506836,42.23187255859375,-79.78271661976306,40.4589817213289,272.8621333172321,-0.0131020350381732,-0.0059727830812335,-0.7390942573547363,0.6734480857849121,0.0387565945864771,0.0107350507132642,2.240283152681954,0.0317194387316703,-0.0720475614070892,0.070262886583805,0.0507071866141632,0.3295232002437115,-12.302816551923751,14937.0
22.8,2.900000095367432,62.0,20.10668182373047,38.79670333862305,-79.78271658981211,40.45898173691344,273.0988149871826,-0.0138749983161687,-0.0048577762208878,-0.7396356463432312,0.6728469729423523,0.0425041255660612,0.009511038731772,2.489149815828784,0.0708326771855354,-0.0387014374136924,-0.030357003211975,0.0668735273368656,0.1637973942607641,-12.344359849691394,14938.0
22.9,3.0,64.0,20.065364837646484,39.79067611694336,-79.78271654950863,40.45898176355219,273.5864629974365,-0.0105036376044154,-0.0052544185891747,-0.7405111193656921,0.6719414591789246,0.0191418362342027,0.0302790536882998,2.837897745882464,0.0289007909595966,0.0644760802388191,0.0292726308107376,-0.0071830760221928,0.1866894262656569,-11.61586460709572,14938.0
23.1,3.0,68.0,20.210601806640625,36.80876159667969,-79.78271646060449,40.45898179872234,274.10689415836333,0.0002805007970891,-0.0068495855666697,-0.7414889335632324,0.6709302067756653,-0.0256162407637349,0.0592053176094681,3.0808170863295743,-0.0843937695026397,0.069000668823719,0.0148421879857778,0.0457182691292837,0.143258592467755,-11.24295608997345,14939.0
23.2,3.0999999046325684,69.0,20.286977767944336,35.74322509765625,-79.78271638595203,40.45898185482325,274.42039444351195,0.0013682669959962,-0.0097574014216661,-0.7417958378791809,0.67055344581604,-0.0429128963788515,0.087999967201705,3.1843600309826297,-0.0582326203584671,0.0394442416727542,0.0290448572486639,0.0401537709217518,-0.0692243821173906,-10.91747083067894,14939.0
23.4,3.0,71.0,20.625030517578125,30.328065872192383,-79.78271638159995,40.45898187937826,274.6633045902252,7.931797154014929e-05,-0.0114406235516071,-0.7415971159934998,0.6707479357719421,-0.0368314478717979,0.0945959362530576,3.1799013107362253,0.0205174125730991,0.0228518657386302,-0.0517701059579849,0.1164134406857192,0.0747086546989157,-10.508736423254014,14939.0
23.59,3.0999999046325684,75.0,20.91300392150879,34.78105926513672,-79.78271636300529,40.45898198581196,275.2408025493622,-0.0009576123557053,-0.0091439485549926,-0.7401953339576721,0.6723290681838989,-0.0318891800275807,0.0591794690951991,3.0980314005697585,-0.026574557647109,-0.0934332907199859,0.0231779534369707,-0.0108538312430027,0.122722348831594,-9.70462791144848,14940.0
23.7,3.0999999046325684,76.0,21.02193069458008,32.96010208129883,-79.78271634142772,40.45898205878672,275.55190875434874,0.0007853876450099,-0.0076555758714675,-0.7398027181625366,0.6727798581123352,-0.0420719415600967,0.0454070154434122,3.1310037722752866,-0.035863310098648,-0.0067860982380807,-0.0143007189035415,0.0319244133168831,0.1194828634522855,-10.03896994829178,14940.0
23.8,3.0,75.0,20.9843692779541,33.52467727661133,-79.78271636754519,40.45898224722257,276.1556849708557,0.0027991936076432,-0.0051885577850043,-0.7393371462821959,0.6733096837997437,-0.067204598021469,0.0249984643491371,3.145925779354444,0.0231918599456548,-0.0626188889145851,0.0154575044289231,0.0464605777245014,-0.1230466500297188,-9.999080243110658,14941.0
24.0,3.0,76.0,21.1208438873291,30.67794418334961,-79.78271640144806,40.45898239148341,276.7881527175903,0.0023287360090762,-0.007763969246298,-0.7388805747032166,0.6737876534461975,-0.0677955843859604,0.0117126729514602,3.134341509888118,0.0262336283922195,0.0356639996170997,0.0543717481195926,0.1020872689783573,0.0326830872637219,-9.747673943638803,14941.0
24.19,2.900000095367432,81.0,21.139623641967773,28.57072448730469,-79.78271642990043,40.45898247188276,277.1000929107666,0.0034245157148689,-0.0095739960670471,-0.7390065193176271,0.6736215949058533,-0.0655728485691904,0.0060531806094228,3.100483185931416,0.0086478097364306,0.0446239523589611,0.0753364339470863,0.0445881302515044,0.0277084931731224,-9.561362357139588,14942.0
24.3,2.900000095367432,84.0,21.19847106933593,29.62830924987793,-79.78271647442621,40.45898255084679,277.4086318244934,0.0055991513654589,-0.0099500194191932,-0.7393753528594971,0.6731966733932495,-0.0581192436861116,0.0064278115344108,3.069299102894753,-0.0284303184598684,-0.064757764339447,-0.0918687880039215,0.1119314585253596,0.0620617804862558,-9.540717008113864,14942.0
24.4,3.0,84.0,21.085786819458008,31.61625289916992,-79.78271662190755,40.45898272579792,277.95991327667235,0.00747657334432,-0.0016339771682396,-0.7401559352874756,0.6723917722702026,-0.0776589354891733,-0.0081302532979968,2.9139065506207813,0.1043986231088638,-0.0079709235578775,0.0047162193804979,0.0386759968008846,0.2684013414010405,-9.232187504768373,14942.0
24.6,2.900000095367432,86.0,21.153396606445312,31.186857223510746,-79.78271660662635,40.45898290077482,278.4097900619507,0.0056806630454957,0.0039645303040742,-0.740199863910675,0.6723513007164001,-0.0779132890042934,-0.0478523492190409,2.7501831373383965,0.0080183763056993,-0.0247077140957117,-0.0097879096865654,0.0093796830810606,-0.0472746928688138,-9.472882289886478,14943.0
24.7,3.0,81.0,21.03445243835449,31.592397689819336,-79.78271667245575,40.45898293697128,278.6833963623047,0.0068735359236598,0.003434524172917,-0.7398539185523987,0.6727237701416016,-0.0698307006930657,-0.0543336197232541,2.7229711995211887,-0.0805013850331306,-0.0062686088494956,-0.1750997602939605,-0.0211567154433578,0.1669296197779476,-9.538469338417054,14943.0
24.9,2.900000095367432,81.0,21.077022552490234,31.26637458801269,-79.7827168823602,40.45898319149943,279.1055259933472,0.007415457163006,0.0026848409324884,-0.7396512627601624,0.6729441285133362,-0.0619562324264984,-0.0529699988866753,2.729110452390865,-0.0575703270733356,-0.0151005750522017,-0.1756256222724914,0.0810986883938312,0.1836941717751324,-9.477807984352111,14944.0
25.09,2.900000095367432,84.0,21.077022552490234,30.60637855529785,-79.78271710692125,40.458983203454345,279.8632979621887,0.007467018906027,9.943722398020328e-05,-0.7390634417533875,0.6735944151878357,-0.0168625494187563,-0.0484166592537943,2.732068868237055,-0.0536327809095382,0.0008528846665285,0.0900231078267097,-0.0065515767317265,-0.0454525360185653,-9.449197558164595,14944.0
25.21,2.900000095367432,87.0,21.129608154296875,30.01794624328613,-79.78271719291266,40.45898318743394,280.13533975982665,0.0056850463151931,-0.0022426811046898,-0.7387920022010803,0.6739057898521423,-0.0010991957944205,-0.047620662359966,2.7138532679541703,-0.0869355127215385,-0.0229438934475183,0.0794259682297706,0.055561878522858,-0.0512168810935691,-9.586448666453364,14945.0
25.4,2.900000095367432,91.0,21.03695678710937,32.109264373779304,-79.78271733664877,40.45898320738348,280.8492155303955,0.0032489784061908,-0.0027818353846669,-0.7378496527671814,0.6749515533447266,0.0388803582356277,-0.0462679280617792,2.7277366891167247,0.0119650661945343,-0.0129372254014015,-0.0520030818879604,0.0816374727711081,0.1183051245845854,-9.540946218967438,14945.0
25.5,2.900000095367432,93.0,21.01817512512207,33.11913681030273,-79.78271751226599,40.458983130011504,281.5261364212036,0.0037550346460193,0.0021885887254029,-0.7375633120536804,0.6752641201019287,0.0395513486236878,-0.0543475708727444,2.7341322890819906,0.0537499375641346,-0.0040740370750427,-0.0900388956069946,0.0438669584272429,0.1041160335391759,-9.609400157332422,14946.0
25.7,3.0,93.0,20.97810935974121,32.80902099609375,-79.78271760270424,40.45898308606197,281.7996254196167,0.0040409346111118,0.0041456185281276,-0.7380117774009705,0.6747630834579468,0.040484613232194,-0.0639798373813451,2.740372205241248,0.0420805923640728,-0.0012241519289091,-0.0509454831480979,0.0696151862572878,0.0429617409221828,-9.803908955454826,14946.0
25.8,3.0,95.0,21.168420791625977,29.397708892822266,-79.78271769069649,40.45898303288431,282.07396986389165,0.0039989124052226,0.0051244846545159,-0.7385649681091309,0.6741510629653931,0.0435030202255295,-0.0661553484265658,2.7490152498321394,0.0432338751852512,-0.0141075886785984,-0.0476045869290828,0.0720288255158811,0.0302887232601642,-9.890023823976517,14947.0
26.0,2.900000095367432,99.0,21.06575393676757,31.68781852722168,-79.78271795876174,40.45898294000617,282.7571401824951,0.0044474839232862,0.004315092228353,-0.7395555377006531,0.6730670928955078,0.0635979787385179,-0.0683521589642609,2.8030234719335847,0.0224876403808593,0.0503806173801422,0.088995523750782,-0.0061944831605069,-0.0742723930254578,-9.675205307006836,14947.0
26.1,2.799999952316284,103.0,21.02193069458008,30.773365020751957,-79.78271789656485,40.458982730329325,283.13003828430175,0.0043171700090169,0.0028009233064949,-0.7396928668022156,0.6729250550270081,0.0975736845975887,-0.033508058856783,2.830728036088217,-0.0057196388952434,-0.0115615287795662,0.0816787853837013,0.0647590782260522,-0.1268049935717135,-9.614256269931792,14948.0
26.2,2.700000047683716,105.0,21.069509506225582,30.646137237548828,-79.78271799376584,40.45898249990316,283.69476416015624,-5.502755084307864e-05,9.644002420827746e-05,-0.7394922375679016,0.6731650829315186,0.1117807701213397,-0.0262838418698944,2.820224124266037,-0.097545102238655,-0.0137841636314988,-0.05671301856637,0.0631333467084914,0.0555863728746771,-9.798780947327614,14948.0
26.4,2.700000047683716,109.0,21.155900955200195,29.47722625732422,-79.78271800427262,40.45898229276416,284.3358288040161,-0.0013414468849077,0.0008135586394928,-0.7388577461242676,0.673859715461731,0.1414726577341682,-0.0046353131436445,2.836764717803741,-0.0588819868862629,0.003935829270631,-0.1048978865146637,0.0158667919761501,0.2268779424391687,-9.642470839619635,14949.0
26.49,2.700000047683716,115.0,21.013166427612305,31.46516990661621,-79.78271816057891,40.45898218493486,284.68192961120604,-0.0007440756307914,0.0021376919467002,-0.7386114597320557,0.6741276383399963,0.1360464538656936,-0.013643038773537,2.84657640572568,0.0751043185591697,0.0027197196613997,0.1494816988706588,0.0232203714363276,-0.1326559733692556,-9.599773301482204,14949.0
26.71,2.700000047683716,114.0,21.0382080078125,30.53481101989746,-79.78271817323724,40.45898207182484,284.96598436737065,-0.0004579178639687,0.0021480747964233,-0.7384173274040222,0.674340546131134,0.1270174702659113,-0.0055976293547269,2.8373542174480444,0.0727271288633346,0.0863061845302581,0.1273402273654937,0.0238229567022062,-0.1147815010696649,-9.657123962044716,14949.0
26.9,2.700000047683716,115.0,21.015670776367188,31.67191505432129,-79.78271826695855,40.45898202555431,285.5984287490845,-4.7153611376415945e-05,0.0002185475605074,-0.738692581653595,0.6740425229072571,0.0968802618905689,0.008359089118823,2.830533081721371,-0.1222751587629318,-0.0522849224507808,-0.1242016330361366,0.0398486467637121,-0.0020383028313517,-9.61061053097248,14950.0
27.0,2.5999999046325684,114.0,21.02443504333496,31.695770263671875,-79.78271847016832,40.45898184450119,286.21906378173827,0.0006844219751656,-0.0024230922572314,-0.7385042309761047,0.6742441654205322,0.1120962043921164,0.0160489860659084,2.843001608788089,0.01147719938308,0.0223381798714399,0.0434805676341056,0.0703580475971102,-0.0303669023606926,-9.700327869057656,14951.0
27.1,2.5999999046325684,118.0,20.91801071166992,33.11118698120117,-79.78271846857348,40.458981751705714,286.5032797088623,0.0007304167374968,-0.0027407736051827,-0.7381816506385803,0.6745960712432861,0.1082761737662282,0.0282639263427948,2.8482538144362413,0.0369953177869319,0.0245287828147411,0.0935888588428497,0.0096049196552485,-0.0343400945328176,-9.813383198976515,14951.0
27.3,2.700000047683716,119.0,20.930532455444336,33.413352966308594,-79.78271846980904,40.45898167343304,287.1170149078369,0.0006062440806999,-0.0013941657962277,-0.7376676797866821,0.6751623153686523,0.0931637618449737,0.0252655123135744,2.902950640634502,0.0513315759599208,-0.0103201642632484,0.1076372042298317,0.0323224625224247,0.039071844164282,-9.920428175926212,14952.0
27.5,2.5999999046325684,120.0,20.881702423095703,33.34178924560547,-79.78271845722308,40.45898160015017,287.40828993225097,-0.0003215765755157,-0.0008201077580451,-0.737641453742981,0.6751921772956848,0.0867236759959803,0.0298377648571068,2.924556313987781,0.0468137711286544,0.0240781567990779,0.1247450858354568,0.034898942168802,-0.084557161135599,-9.9747137260437,14952.0
27.6,2.700000047683716,120.0,20.894222259521484,33.01576614379883,-79.7827185053467,40.4589816050004,287.7275009384155,-0.0012473842361941,-0.0002579795545898,-0.7378062605857849,0.6750114560127258,0.0734246835482398,0.0262599408034017,2.954311537950411,0.0365811884403228,0.0447482131421566,0.1126652508974075,-0.071540098786354,0.0090937268268316,-10.009940861463546,14952.0
27.71,2.799999952316284,120.0,20.974353790283203,31.56854248046875,-79.78271846205676,40.45898147994514,288.32372572326665,0.0013442743802443,-0.0011429084697738,-0.7381474375724792,0.6746371984481812,0.0714168171053297,0.0279312597104494,3.0080081259173297,0.0128817856311798,0.0305512975901365,0.1150062382221222,0.0065224434365518,-0.037498349295929,-10.010451908111571,14953.0
27.9,2.799999952316284,120.0,20.99814224243164,31.234567642211918,-79.7827184819532,40.45898144038529,288.9360361328125,0.0018913559615612,-0.0011370789725333,-0.7383114099502563,0.6744564175605774,0.0588121358678422,0.0462774984404479,3.041113618940221,-0.0330312438309192,-0.0317809954285621,0.0071204393170773,0.0540209818817675,0.0801609320472925,-10.045818207263949,14953.0
27.99,2.799999952316284,118.0,20.936792373657227,32.2682991027832,-79.782718490996,40.45898150562951,289.24145033264165,0.0008199164876714,0.0005826514097861,-0.7384446263313293,0.6743134260177612,0.0394640472965583,0.0479427570633749,3.0219535946754137,-0.1118852719664573,-0.0445337705314159,-0.0065699517726898,-0.0137720201164484,0.1615408258326351,-9.83690888643265,14954.0
28.2,2.799999952316284,117.0,20.930532455444336,31.75143241882324,-79.78271845516444,40.45898145636381,289.54341413879393,-0.0011851891176775,0.0001473848969908,-0.738476037979126,0.6742786765098572,0.0452162178592144,0.0348170775489354,3.022195209162422,-0.0471492893993854,0.0007602957193739,0.0605434291064739,-0.0217314099473878,-0.0006344777159392,-9.80667761206627,14954.0
28.4,2.700000047683716,115.0,21.013166427612305,30.43143844604492,-79.7827184148372,40.458981390113685,290.1532125701904,-0.00023602040892,-0.0005657199653796,-0.738128662109375,0.674659788608551,0.0655458230799998,0.0398924422862552,3.0010762358931187,0.1138187572360038,0.1275620907545089,0.0604497455060482,0.0111949283396825,0.0804914093669504,-9.752068710923195,14955.0
28.5,2.700000047683716,114.0,21.02443504333496,30.34396934509277,-79.78271845392344,40.45898136278251,290.7661390533447,0.0022294232621788,-0.0023975430522114,-0.7370340824127197,0.6758476495742798,0.056881549338983,0.0564568352818995,2.9795604912396985,0.1594775468111038,0.0696502476930618,0.092996783554554,0.0696324720885604,-0.0650638506375253,-9.66963875770569,14955.0
28.6,2.700000047683716,115.0,21.053232192993164,30.0736083984375,-79.78271840163265,40.45898131663651,291.0627908935547,0.0016394645208492,-0.0025776603724807,-0.7367385029792786,0.6761709451675415,0.0519004428374622,0.0671958701278186,2.9490575138693624,0.0586134269833564,0.0373583994805812,0.0977887734770774,0.090821831440553,-0.0360601877770386,-9.560177126526831,14956.0
28.8,2.700000047683716,114.0,20.93929672241211,31.26637458801269,-79.78271834915584,40.45898127314215,291.3564844360352,-0.0010468066902831,-0.0043712202459573,-0.7369575500488281,0.6759241819381714,0.0464110400195357,0.0643125627402607,2.9250407966996805,-0.0624568201601505,-0.0776726230978965,0.0638367608189582,0.0390961786312982,-0.0336033636331558,-9.875886425971986,14956.0
28.9,2.799999952316284,113.0,20.983118057250977,31.210712432861328,-79.78271824476107,40.45898128030801,291.96859075927733,-0.0033722685184329,-0.0073346062563359,-0.7384442687034607,0.6742662787437439,0.0729761716403148,0.068358009468694,2.9496545706166684,-0.0354969464242458,-0.0591990202665329,-0.1343900710344314,0.0834211659058928,0.1870646713301539,-9.800446819067002,14956.0
29.1,2.900000095367432,116.0,20.933034896850582,31.878662109375,-79.78271817699155,40.45898130328278,292.57458021545415,0.0022838108707219,-0.0007743415771983,-0.739366352558136,0.6732990741729736,0.0178772414368304,0.0645347511807934,2.9218261374307595,0.0330265723168849,0.0486993640661239,0.0320853404700756,-0.0540293415728956,0.1021743376739323,-9.569269546866416,14957.0
29.29,2.799999952316284,118.0,21.099557876586918,28.95240974426269,-79.78271812333854,40.45898129547494,292.8658628692627,0.0032180482521653,-0.0010150582529604,-0.7393009066581726,0.6733668446540833,0.0041170184301243,0.0530088853915693,2.908342742015664,0.132262572646141,0.0919624716043472,0.0814264565706253,0.0143061906751245,-0.0926862252876162,-9.671104069948193,14957.0
29.4,2.799999952316284,120.0,20.881702423095703,32.72949981689453,-79.78271814122552,40.4589813708802,293.1747007598877,0.0032923268154263,-0.0026696017012,-0.7392063140869141,0.6734657883644104,-0.0033831317113518,0.0527195051855439,2.9122663442813925,0.1371532827615738,0.0570627301931381,0.1207866445183754,0.0662161175720393,-0.2383300980180502,-9.716228787302972,14958.0
29.6,2.799999952316284,122.0,20.941801071166992,31.560590744018555,-79.78271816872244,40.45898145754256,293.77571585083007,0.0042374078184366,-0.001705263974145,-0.7385889291763306,0.6741406321525574,-0.0214409877602071,0.0558895660853272,2.9170290850741334,-0.1752306073904037,-0.079541303217411,-0.1743295043706894,0.0739193216990679,0.0693586488068103,-9.759623898267746,14958.0
29.7,2.900000095367432,123.0,20.928028106689453,30.69384765625,-79.78271813757206,40.4589814641008,294.06746199035643,0.0025194967165589,-0.0005288938409648,-0.7378069162368774,0.6750069856643677,-0.0298549838282499,0.0483781161510714,2.919999238178745,-0.0986040160059928,-0.1171940043568611,-0.0258190538734197,0.0278254329180344,0.0039238540059886,-9.794095573425292,14959.0
29.9,2.900000095367432,125.0,20.826610565185547,33.993831634521484,-79.78271816666502,40.4589815631024,294.66635038757323,0.0010078763589262,0.0025109807029366,-0.7364317178726196,0.6765065193176271,-0.0341616725202331,0.0281488118043689,2.9335882513158538,0.019998587667942,-0.0077850725501775,0.0252638477832078,0.0048343134485185,0.0425275486148893,-9.774742459058762,14959.0
30.0,2.900000095367432,127.0,20.968093872070312,31.16300201416016,-79.78271813333797,40.45898158256241,294.95986273193364,0.0003801735001616,0.0014848916325718,-0.7359129190444946,0.6770745515823364,-0.0364069941756299,0.019557351953907,2.938850484600614,0.0500928945839405,0.0714118778705596,0.0574412755668163,-0.0270524401450529,-0.0641720040701329,-9.842041572332384,14959.0
30.2,3.0999999046325684,129.0,20.89297103881836,32.379623413085945,-79.7827181263701,40.4589817041888,295.568331741333,0.0048959115520119,-0.0020176013931632,-0.7356709837913513,0.6773183941841125,-0.0186064767793836,0.0398148377381763,2.967728485700512,0.1713119149208068,0.0786155089735984,0.0622842945158481,0.0794373299740254,0.0251994894817471,-9.808803659677508,14960.0
30.3,3.0999999046325684,130.0,20.855409622192383,33.11118698120117,-79.78271808867457,40.45898172019847,295.86449530029296,0.0076351468451321,-0.0005162046290934,-0.7357608079910278,0.6771983504295349,-0.0284834338284044,0.0567860082156564,2.9528027409171003,0.1817919909954071,0.0563322044909,0.0344892553985118,0.1173521928861737,-0.0515758955664932,-9.73865636765957,14960.0
30.39,3.0999999046325684,136.0,20.794057846069336,33.28612518310547,-79.7827182485166,40.458981819792655,296.4652319183349,0.0056169470772147,0.0022725963499397,-0.7360144257545471,0.6769387125968933,-0.0514000132560189,0.0317560115611821,2.9660539997480897,0.0790553390979766,-0.0174862295389175,0.0353599339723587,0.0871296071168035,-0.0271380059234798,-9.90568266749382,14961.0
30.6,3.0,139.0,20.90298652648925,31.186857223510746,-79.78271826716812,40.45898198653016,297.0693369140625,0.0034523457288742,0.0011563380248844,-0.737038254737854,0.6758412718772888,-0.0588306423562333,0.0213031509859641,2.9969746807408035,-0.0329652205109596,0.0173631273210048,0.0009861098369583,0.0021739582344889,0.0595257516950368,-9.88945898294449,14962.0
30.8,3.0999999046325684,137.0,20.963085174560547,31.60830116271973,-79.78271825153041,40.45898201156075,297.3687811126709,0.0028950588312,-0.0012526650680229,-0.737827718257904,0.6749817728996277,-0.0555797619666017,0.017911045939888,2.9845677672427526,-0.0395238809287548,0.0527650713920593,-0.0403042361140251,0.086195094147697,0.0558536819927394,-9.744165614247322,14962.0
30.9,3.0999999046325684,139.0,20.946807861328125,31.26637458801269,-79.7827182862743,40.45898220159401,297.95663359069823,0.0028884457424283,-0.0035341356415301,-0.7396562695503235,0.6729694604873657,-0.0575795568401807,0.0260570578013069,2.9280013334850814,-0.0042749824933707,0.026277020573616,0.0477633513510227,-0.0490859044622629,0.1204465028643608,-9.54851719379425,14962.0
31.1,3.2000000476837163,142.0,20.797813415527344,32.013843536376946,-79.78271834119927,40.458982247981545,298.2630224456787,0.0057223937474191,-0.0001613820495549,-0.7399184107780457,0.6726722717285156,-0.0356447396369743,0.0227972514432941,2.924541790231179,0.3535215258598328,0.0580466613173484,0.1061855107545852,0.0567756188800558,-0.2134385923482477,-9.672413261532784,14963.0
31.3,3.2000000476837163,145.0,20.887962341308597,32.4989013671875,-79.78271833986057,40.458982348519385,298.848303817749,0.0108223753049969,0.007022472564131,-0.7381211519241333,0.6745448112487793,-0.1042370151472762,0.0075672033928951,2.930570066152676,0.0577937290072441,0.0202534552663564,-0.084483653306961,0.0041284311795607,-0.141244354583323,-9.813100193738938,14963.0
31.4,3.2000000476837163,144.0,20.87168502807617,32.33191299438477,-79.78271843700941,40.45898250196327,299.1449690093994,0.0119524030014872,0.0077634681947529,-0.7368597388267517,0.6758953928947449,-0.1184658758821624,-0.001978374099668,2.9160502818124696,0.0391314588487148,0.0059466040693223,0.0797534510493278,0.0580722709279507,-0.247296492587775,-9.673514292240144,14964.0
31.5,3.0999999046325684,142.0,20.93178367614746,30.51890754699707,-79.78271861717913,40.45898270197291,299.73749639892577,0.0099221933633089,0.007885230705142,-0.7358678579330444,0.6770066022872925,-0.1028682974855255,-0.0131435084137327,2.918573875088259,0.0842209085822105,0.0019730916246771,0.1006500646471977,0.0887370523810386,-0.3205297074839473,-9.786787138581277,14964.0
31.69,3.0999999046325684,144.0,20.79656219482422,32.96010208129883,-79.78271863930193,40.45898272268574,300.0294161071777,0.0101502742618322,0.0080341976135969,-0.7359648346900941,0.6768960952758789,-0.0879972564980218,-0.0158675238032729,2.9163906410295493,0.0110188759863376,-0.0275118201971054,0.031712956726551,0.0027900491980835,-0.2030252677202224,-9.813232340812682,14965.0
31.81,3.0999999046325684,144.0,20.837879180908203,32.435287475585945,-79.78271866193509,40.458982727734586,300.32169439697265,0.0103804990649223,0.0080767888575792,-0.7360842823982239,0.6767621636390686,-0.0792362351851227,-0.014160668927617,2.9260985131626285,-0.0978206917643547,-0.0701528638601303,-0.0985413938760757,0.0629808622878044,-0.2362117066048085,-10.052931929826736,14965.0
31.9,3.0999999046325684,146.0,20.855409622192383,32.419384002685554,-79.78271871372536,40.45898281790849,300.9170274963379,0.0058030891232192,0.0055449898354709,-0.7359570264816284,0.6769806742668152,-0.0549716676980114,0.001435621885436,2.9810932736326547,-0.140236347913742,-0.0493316911160945,-0.0811243429780006,0.0380588711542077,-0.1096712904050946,-10.041088979244233,14965.0
32.11,3.0999999046325684,143.0,20.96183204650879,30.375776290893555,-79.78271886227742,40.458982827122654,301.5074377288818,0.0041771745309233,0.0045547629706561,-0.7359009385108948,0.6770610213279724,-0.0135592278131228,-0.0105344597175667,3.022848067724607,-0.000674148031976,0.0524413585662841,-0.0690685585141182,-0.0566704101115465,-0.17128318246454,-10.062652341127396,14966.0
32.21,3.0,143.0,20.948060989379886,30.510955810546875,-79.78271886942184,40.45898281073511,301.8096132507324,0.0067172325216233,0.0032016455661505,-0.7358359098434448,0.6771190762519836,-0.0210441108079107,-0.0058688362924074,3.0203347315444886,-0.0015676093753427,0.062566265463829,0.0885946452617645,-0.087731760693714,-0.1545710909552872,-9.801588780283929,14966.0
32.4,3.0,143.0,20.96934509277344,29.93842887878418,-79.78271888141822,40.45898287256763,302.3951311340332,0.0117466757073998,0.0040985830128192,-0.7361245155334473,0.6767318248748779,-0.0180302255893014,0.0243319531889235,2.9486914280205587,0.1618559807538986,0.0282357595860958,0.1086765229701995,0.053693729666993,-0.3449237795546651,-9.565232044458387,14967.0
32.6,2.799999952316284,143.0,20.74147224426269,34.51865005493164,-79.78271891451459,40.4589829678956,302.6885118713379,0.013911030255258,0.006583787035197,-0.7359483242034912,0.6768627762794495,-0.0368890915007131,0.0356949555084734,2.918430073850292,-0.0481752976775169,-0.0927908942103386,-0.0688372924923896,0.0933317304868251,-0.208810301888734,-9.51817306816578,14967.0
32.7,2.799999952316284,143.0,20.80657958984375,32.74540328979492,-79.78271891710291,40.45898289554133,303.2733221282959,0.010941507294774,0.0061988988891243,-0.7356371879577637,0.6772591471672058,-0.0450782802220753,0.0255050031330747,2.950497982328748,-0.2069488316774368,-0.0286926347762346,-0.0942536666989326,0.0367611844232305,-0.0904166742134839,-9.999469667673113,14968.0
32.8,2.900000095367432,147.0,20.804075241088867,33.0078125,-79.78271900008481,40.458982916664255,303.57234671020507,0.0066791642457246,0.0033908644691109,-0.7354558706283569,0.6775313019752502,-0.0194051753660185,0.0196599218967691,2.989514665064965,-0.1741364449262619,-0.0642247051000595,-0.0131016783416271,0.0647403123183175,-0.2151963384635746,-10.101474344730375,14968.0
33.0,2.799999952316284,147.0,20.940547943115234,30.200838088989247,-79.7827189917969,40.458982933008855,304.1660471191406,0.0029680971056222,9.523253538645804e-05,-0.7353997826576233,0.6776270866394043,0.0215445306996486,0.023327012594687,3.027432091534373,0.0206176396459341,0.0791293755173683,-0.0077733341604471,0.036386688533239,-0.0066889223456382,-9.954140882492066,14969.0
33.1,2.799999952316284,152.0,20.84914779663086,31.85480690002441,-79.7827189797262,40.45898289981186,304.4682531585693,0.0047312816604971,-0.0001146551803685,-0.7350700497627258,0.6779747009277344,0.0259513754787911,0.0303635570977417,3.017464306421625,0.0815682262182235,-0.012209789827466,0.1179817542433738,0.065293682757765,-0.2463731076009572,-9.781513534784317,14969.0
33.3,2.799999952316284,152.0,20.975605010986328,29.33409309387207,-79.78271896349573,40.458982871884864,304.76974966430663,0.0056565473787486,0.0002999175048898,-0.7347761392593384,0.6782860159873962,0.0079113923019637,0.0371171318063511,3.009121642247727,0.1331176161766052,0.0693171769380569,0.0069954115897417,0.0783905504643917,-0.0613927859254181,-9.715386203527451,14969.0
33.5,2.799999952316284,152.0,20.78404235839844,32.78516387939453,-79.78271895566563,40.4589828301554,305.3604402770996,0.00763128278777,0.0025597130879759,-0.7359055876731873,0.6770364046096802,0.00921942919085,0.0364178189841604,2.9349951160075216,-0.0086510991677641,-0.018773753196001,0.0265045948326587,0.0392293626721948,-0.2283509108796716,-9.4634700268507,14970.0
33.6,2.5999999046325684,152.0,20.831619262695312,32.17287826538086,-79.782718977091,40.45898281838836,305.951668762207,0.0091391038149595,0.0016098251799121,-0.7388412356376648,0.6738156676292419,-0.0043421091252825,0.0349538888257834,2.9345980320449843,-0.0028300175908952,0.0385680980980396,0.0311663001775741,0.0414115298492834,0.0965147080086171,-9.774209777712825,14970.0
33.7,2.5999999046325684,152.0,20.855409622192383,31.34589195251465,-79.78271897048836,40.45898277151343,306.2455835571289,0.0070829521864652,0.0002346497349208,-0.7398490905761719,0.6727355718612671,0.0146349648659425,0.0352794508330197,2.941763223301121,0.0998645648360252,0.0647771209478378,0.0700321719050407,0.1342458038963377,-0.0980650424212217,-9.89154643893242,14971.0
33.8,2.700000047683716,149.0,20.85791206359864,32.053600311279304,-79.78271905816901,40.458982901933176,306.5485162963867,0.0035587025340646,-0.0015075884293764,-0.7400147914886475,0.6725795865058899,0.0128333719375833,0.023248191902556,2.9595659311761304,0.0327234156429767,-0.0300853196531534,0.0768139958381652,0.0580807676631957,-0.3552024537697434,-9.870784145593644,14971.0
34.0,2.700000047683716,148.0,20.817846298217773,32.84877777099609,-79.78271909143547,40.45898296046886,307.144597076416,-0.0020006897393614,-0.0049877725541591,-0.738393247127533,0.6743489503860474,0.0272285920739497,0.0114583188661968,2.9692592860642497,-0.0640436559915542,-0.0313917025923728,-0.0290350914001464,-0.0017856163205578,0.0757379062660038,-9.74926964879036,14972.0
34.1,2.700000047683716,147.0,20.86918067932129,31.385652542114247,-79.78271909874327,40.45898295353381,307.44177725219726,-0.0023647076450288,-0.0042427410371601,-0.7371816039085388,0.6756772398948669,0.0322745950187742,0.0038163111808587,2.9739486877272583,0.0424762740731239,-0.008590537123382,-0.0409861244261264,0.0509997301222756,-0.1074779541324824,-9.880720903873444,14972.0
34.3,2.700000047683716,145.0,20.87669372558593,29.827104568481445,-79.78271910868648,40.458982958573,307.73957159423827,-0.001477436395362,-0.0025976065080612,-0.7362836599349976,0.6766664385795593,0.0073004573330378,-0.0002045107162814,2.9817762282200406,-0.0683825984597206,-0.0422602444887161,-0.1565204709768295,-0.0428756041266024,0.0266714163869619,-9.884839682579043,14972.0
34.5,2.700000047683716,142.0,20.880449295043945,31.66396331787109,-79.78271914508427,40.458983007173096,308.33693792724614,-0.0008013489423319,0.0023990159388631,-0.7358803153038025,0.6771069765090942,-0.0160694512403181,0.0006054515375731,2.983842299742458,0.0256174597889184,-0.0311776418238878,-0.0375931896269321,0.0128819048730656,0.111774862781167,-9.74332946240902,14973.0
34.6,2.799999952316284,141.0,20.906742095947266,30.11336708068848,-79.78271923028538,40.458983113982526,308.6318941345215,-0.0004635892692022,0.0045014158822596,-0.7360894083976746,0.6768692135810852,-0.0105724844778119,-0.0137696203460839,2.9722562593570965,0.2100141942501068,0.0958942398428917,0.0803283676505088,0.0230008496018126,-0.0420474008470773,-9.78362905740738,14973.0
34.8,2.700000047683716,134.0,20.78529357910156,31.329988479614247,-79.78271921215156,40.458983130246615,309.2255640258789,0.0047571770846843,0.0041618961840868,-0.7354660630226135,0.6775321364402771,-0.037091424478765,-0.0026704047204029,2.957026169636458,-0.0978345870971679,0.0094202766194939,-0.0551117323338985,-0.0923772182129323,-0.0295497631095349,-9.646818244457243,14974.0
34.91,2.799999952316284,133.0,20.83662796020508,31.306133270263672,-79.78271939950525,40.4589832989401,309.82185842895507,0.0078785065561532,-0.0001968428114196,-0.7341704368591309,0.6789195537567139,-0.0378134240213118,0.0007903930583587,2.95178221963492,-0.0066128587350249,0.0551972016692161,-0.0125195700675249,0.0264199427166022,0.036188399400562,-9.829874686002732,14974.0
35.0,2.799999952316284,128.0,20.9555721282959,29.93842887878418,-79.78271954034456,40.45898343118271,310.1218233337402,0.0077094305306673,-0.0019380816956982,-0.7336490750312805,0.679482102394104,-0.0386936987879718,0.0076837702849383,2.963360794265545,-0.0230342149734497,0.0022926733363419,0.0146341910585761,0.0081561463535763,-0.0570364960609004,-9.804860297441484,14975.0
35.2,2.799999952316284,125.0,20.82160377502441,33.32588577270508,-79.78271957259503,40.45898343146827,310.4179010620117,0.0050254766829311,-0.0014574583619832,-0.733235776424408,0.6799543499946594,-0.0287644816392963,0.0107253145009157,2.9614318927517784,-0.1159140616655349,-0.1010205149650573,-0.197252407670021,0.0525229617767036,0.1151596971508115,-9.769083523750306,14975.0
35.4,2.799999952316284,124.0,20.87669372558593,30.956254959106445,-79.78271967021398,40.45898350307857,311.01642706298827,-0.0034675407223403,0.0017873164033517,-0.7326209545135498,0.6806257367134094,-0.0164586762781396,-0.0250181276474863,3.0249013176035016,-0.0801005885004997,-0.0732770934700965,0.0320394225418567,-0.055173879219219,0.0575578392902389,-10.154714412689213,14976.0
35.5,2.799999952316284,121.0,20.914255142211918,30.375776290893555,-79.78271984382694,40.45898364488532,311.61544897460936,-0.0051068775355815,0.002948286710307,-0.731521487236023,0.6817929148674011,-0.0003807470480502,-0.0615432107583535,3.0722096110809125,-0.0058078984729945,0.0054919421672821,0.0379039645195007,-0.085270585399121,-0.0402583995368331,-10.07584365963936,14976.0
35.6,2.799999952316284,120.0,20.945556640625,29.24662399291992,-79.78271986606114,40.45898366347145,311.923275970459,-0.0042705284431576,0.002201335504651,-0.7311429381370544,0.682207465171814,-0.0190224211064433,-0.0519397818964987,3.082702713383014,-0.0143342111259698,0.0516260974109172,0.013943669386208,-0.06372198773548,0.0293004159070551,-9.969862875938416,14976.0
35.8,2.799999952316284,119.0,20.96934509277344,29.588550567626957,-79.78271992688019,40.45898374801681,312.52225592041015,9.686817065812647e-05,0.0032997329253703,-0.7318934202194214,0.6814111471176147,-0.0352906566608224,-0.0165044504850674,3.0660926964035218,-0.1395045518875122,-0.0444792360067367,-0.0209970921277999,-0.0093366946256719,-0.1659562593698501,-9.940330928564071,14977.0
35.99,2.700000047683716,118.0,20.850400924682614,31.26637458801269,-79.78271992682221,40.45898377265985,312.8282251586914,0.0015801771078258,0.0047701112926006,-0.7324275374412537,0.6808264851570129,-0.0414487750672538,-0.0143344954338273,3.053795007350492,0.0831638500094413,0.0003343878488522,-0.0185759123414754,0.0356813041912391,-0.0228583556972444,-9.788959379196168,14977.0
36.1,2.700000047683716,116.0,20.747732162475582,31.838903427124023,-79.7827201138291,40.4589839344419,313.1271829833984,0.0017990813357755,0.005005304235965,-0.7333282828330994,0.6798539161682129,-0.0540560510801867,-0.0281160548666214,3.0370610291881,0.0517372712492942,0.0221559908241033,-0.05120150744915,0.0033647654007654,-0.0838240482006222,-9.73771145761013,14978.0
36.29,2.700000047683716,116.0,20.84789657592773,30.76541328430176,-79.78272013231881,40.45898399366467,313.7369737854004,0.0017601726576685,0.0039838976226747,-0.7352790236473083,0.6777506470680237,-0.0459002740150622,-0.0185667980681632,3.0641484277836364,0.1975728273391724,0.0966686606407165,0.0799167975783348,0.0880184843949973,-0.0554538603499531,-9.943977252244949,14978.0
36.4,2.700000047683716,117.0,20.87919807434082,30.66999244689941,-79.78272021048427,40.45898410563352,314.04168798828124,0.0021745625417679,0.0036775276530534,-0.7359039783477783,0.6770725250244141,-0.0464873599997737,-0.0112753001196082,3.072898883779004,0.0860627889633178,0.0320948101580143,0.0260753408074378,0.039971159636043,-0.2319536362588405,-9.919167516231536,14979.0
36.5,2.5999999046325684,117.0,21.020679473876957,28.03000259399414,-79.78272029691054,40.45898423058788,314.6543970336914,-0.0004456977185327,0.0026846101973205,-0.7367147207260132,0.6761983036994934,-0.0430351275125409,-0.0019040053055733,3.0702548347296985,0.1051200926303863,0.0444282963871955,0.0438526384532451,0.0688671126728877,-0.1338186465203762,-9.807068206071854,14979.0
36.7,2.5999999046325684,116.0,21.03695678710937,25.57290458679199,-79.78272025646245,40.458984285155786,315.2657098999024,0.0003361885028425,0.0028437646105885,-0.7374936938285828,0.6753479242324829,-0.0509084790117179,0.008325764535072,3.0464735743709097,-0.0501500219106674,0.0437019653618335,-0.0693111941218376,4.9614538438618185e-05,0.2911453292146325,-9.67352715611458,14980.0
36.79,2.400000095367432,117.0,21.21725082397461,23.529298782348643,-79.78272034503698,40.45898443107953,315.57118322753905,0.0011198208667337,0.0036197563167661,-0.7379216551780701,0.6748757362365723,-0.0353985732761433,0.0145847826451355,3.0017542759131586,0.1184573993086814,0.0266872588545084,0.0788627117872238,0.0781311442237347,-0.2210366653650999,-9.365578866004943,14980.0
37.0,2.400000095367432,116.0,21.25356101989746,22.583038330078125,-79.782720310412,40.458984460891664,315.8667307128906,0.0030213857535272,0.0038794851861894,-0.7383724451065063,0.6743752360343933,-0.0428051830954832,0.018624144086818,2.902755198919332,0.0948727801442146,0.0819480940699577,0.0020783618092536,0.0274299441534094,-0.0783074195031076,-8.967771735191345,14980.0
37.19,2.299999952316284,114.0,21.38252258300781,21.95484733581543,-79.78272035716776,40.45898461604248,316.45752432250976,0.0061320699751377,0.0002005699061555,-0.7378708720207214,0.6749140024185181,-0.0535419014922367,0.0311386789804814,2.694011847989489,0.0399858392775058,0.0416817963123321,-0.0214487761259078,0.073637504177168,-0.1869133746251464,-8.488324025273322,14981.0
37.3,2.299999952316284,116.0,21.26107215881348,23.12375831604004,-79.78272032335374,40.45898464020351,316.71912100219726,0.004449896980077,-0.001840172917582,-0.7373918294906616,0.6754480600357056,-0.0486474977508477,0.046882329948313,2.533242119928956,-0.0585280284285545,-0.0638985633850097,-0.0253350995481014,0.0631903205160051,-0.0340325035806745,-8.26483350276947,14981.0
37.4,2.200000047683716,116.0,21.294878005981445,22.69436264038086,-79.7827203565961,40.45898477774724,317.20724966430663,0.0024711736477911,0.0010953268501907,-0.7365733981132507,0.6763522028923035,-0.0327352026762721,0.0266011295109517,2.249416459673376,-0.0306907314807176,0.013864666223526,-0.026917964220047,0.0050981182343093,0.1335538498777896,-8.347485650181769,14982.0
37.6,2.200000047683716,116.0,21.228519439697266,23.86327362060547,-79.78272036880031,40.458984922331226,317.64484503173827,0.0002069082693196,0.0017059736419469,-0.736151397228241,0.6768147349357605,-0.0135756992371688,0.016121095055362,1.9866909292260124,0.0890752151608467,0.031110705807805,0.0396395362913608,-0.0009326200472423,-0.1260446636751294,-8.47261723458767,14982.0
37.8,2.0999999046325684,117.0,21.26608085632324,23.69628715515137,-79.78272034690413,40.4589849323001,317.83755209350585,0.0012175422161817,0.0027392436750233,-0.7357732057571411,0.677221417427063,-0.0079993124718645,0.0172139892959605,1.8639826164608149,0.0776594504714012,0.0617882087826728,-0.0462412387132644,-0.0104119359143078,-0.043124307221733,-8.534267352819443,14982.0
37.9,2.0,116.0,21.19847106933593,24.14953804016113,-79.78272040244255,40.45898507374721,318.04677679443364,0.0037006735801696,0.0036435916554182,-0.7353332638740541,0.6776858568191528,-0.0230602154867977,0.0134590574560133,1.767344561313453,-0.0032429168932139,0.0341944433748722,-0.004139857366681,-0.0284491709433496,-0.0982344837673008,-8.53616945207119,14983.0
38.0,1.8999999761581416,115.0,21.31866836547852,22.46376037597656,-79.78272049191341,40.45898525012615,318.430974029541,0.0079674758017063,0.0004602267290465,-0.7346408367156982,0.6784092783927917,-0.028318198918692,0.0132895102041239,1.5966799396700175,-0.0173207037150859,0.0496429279446601,0.0381022430956363,0.0571586800273507,0.0039440063433721,-8.695068122148514,14983.0
38.2,1.8999999761581416,113.0,21.21975517272949,23.55315399169922,-79.78272048498769,40.45898525127054,318.5850000610352,0.0074698468670248,-0.0005393960163928,-0.7348577380180359,0.678179919719696,-0.0160118907037957,0.021122368579454,1.4852711235960707,-0.0249211620539426,0.0175183247774839,-0.0029433309100568,0.1485963877290487,0.108735534902662,-8.713569297194482,14983.0
38.29,2.0,112.0,21.268585205078125,22.805686950683597,-79.78272052944766,40.45898542528448,318.9341249694824,0.0039093471132218,0.0041133011691272,-0.7362747788429259,0.6766589879989624,0.0137798494045265,0.0035557342708768,1.3733621450403852,0.113589845597744,-0.0849548876285553,0.052263967692852,0.0588389048539102,-0.019696683967486,-8.959182760119438,14983.0
38.49,2.0,112.0,21.1020622253418,25.93868637084961,-79.78272053563198,40.4589854016774,319.06744482421874,0.0018507804488763,0.0074939844198524,-0.7367959022521973,0.6760711669921875,0.0248307181956557,-0.0060694515262448,1.29185283262882,0.1027874201536178,-0.0474215298891067,0.0755906626582145,0.0009400998009368,-0.0713829822745174,-8.995034962892534,14984.0
38.7,1.8999999761581416,110.0,21.165916442871094,25.70013236999512,-79.7827206206047,40.45898555264678,319.41196920776366,-0.0029322393238544,0.0045065367594361,-0.7357603311538696,0.6772207021713257,0.0127927875771198,-0.0240453214056122,1.253925256442634,-0.113184854388237,0.0884251669049263,-0.0803499445319175,-0.0645417171204462,0.287636579554528,-9.230173138976095,14984.0
38.8,1.8999999761581416,109.0,21.168420791625977,23.69628715515137,-79.78272062975559,40.45898552094201,319.5345010986328,-0.0041662906296551,0.000554934493266,-0.7342463731765747,0.6788700819015503,0.0179977090702365,-0.0122738363793133,1.2008862880315585,-0.1920177191495895,0.0322169438004493,-0.1237136870622634,-0.0105044361250475,0.4022649383917451,-9.236378204226494,14984.0
38.9,1.7999999523162842,106.0,22.07615852355957,10.416823387145996,-79.78272073603702,40.45898577264568,319.87540533447265,-0.0031637779902666,-0.0017072746995836,-0.7305968999862671,0.6827996373176575,0.0285675024226965,-0.010896840024028,1.108522641329938,0.0040285843424499,0.0372755415737628,-0.0723348334431648,-0.0731913433503359,0.1349326324649155,-8.537582139372827,14984.0
39.1,1.7999999523162842,107.0,21.34370803833008,22.209304809570312,-79.78272088295348,40.45898594422591,320.1169786682129,0.0006810699123889,0.0005667800433002,-0.6938101053237915,0.7201574444770813,-0.0127589126631995,-0.0253078018070077,0.7255350259719806,0.102679967880249,0.0471020229160785,-0.7445355057716371,-0.0531766576459631,-0.2165018755383789,-7.975313297510147,14985.0
39.3,1.7000000476837158,106.0,21.244796752929688,23.86327362060547,-79.78272091213023,40.458985968114256,320.1826067199707,0.0005482012056745,0.0013274732045829,-0.6634359955787659,0.7482316493988037,-0.0297282128775524,-0.0241249761441181,0.5938864212472583,-0.0156404431909322,0.0288566369563341,-0.9188109040260316,-0.1102089875657111,-0.0361012484785169,-8.334157506823539,14985.0
39.39,1.7999999523162842,105.0,21.25356101989746,23.17146873474121,-79.7827210794022,40.458986054451344,320.22062017822265,0.000238061271375,0.0019943094812333,-0.6312837600708008,0.7755492925643921,-0.0432532712068616,-0.0363326305574615,0.5017797103401584,-0.060585219413042,0.0196910127997398,-0.8909300565719604,-0.0773380333743989,0.158425721693784,-8.714013685584069,14985.0
39.6,1.7000000476837158,95.0,21.332439422607425,27.012176513671875,-79.78272126717188,40.45898615469395,320.2897844543457,0.0028745282907038,0.0039581609889864,-0.5742435455322266,0.8186699151992798,-0.0210928526964422,-0.0370170110438869,0.3592997451588968,0.1771715432405471,0.0021073136013001,-0.491666853427887,0.0103797031380236,-0.0458353002369403,-9.070142447948458,14985.0
39.7,1.7000000476837158,90.0,21.067005157470703,27.44157218933105,-79.78272130767304,40.45898616013034,320.322258972168,0.0052928966470062,0.0068117883056402,-0.5545043349266052,0.8321362137794495,-0.0282732502233438,-0.032793680601586,0.2902134849471454,-0.0546468719840049,-0.022390704602003,-0.4253475069999695,0.0183304454851895,0.3438361243531108,-9.089182151556017,14985.0
39.79,1.5,95.0,21.14087677001953,25.75579643249512,-79.78272133965156,40.45898617682384,320.3489122619629,-0.0015543870395049,0.0044129593297839,-0.5398226976394653,0.841765820980072,-0.0150655775200232,0.0002182338549626,0.2519049909364483,-0.0485563427209854,-0.1407710909843444,-0.2612437307834625,0.4324452688917518,0.2101547594927252,-9.640076404809951,14985.0
40.01,1.5,98.0,21.103315353393555,26.29651641845703,-79.78272127484563,40.45898635574922,320.3612489929199,-0.0519015006721019,0.0199447534978389,-0.5252563953399658,0.8491255640983582,-0.0236732302393257,0.1407740190359189,0.23557434226701,0.1255014389753341,-0.6091513633728027,-0.0369823388755321,0.1407049398031085,0.1332184846512973,-9.696914849281312,14985.0
40.2,1.600000023841858,87.0,20.92552375793457,29.18301010131836,-79.78272069862537,40.45898677856184,320.4058923950195,-0.087506964802742,0.0603904910385608,-0.5242161750793457,0.8449219465255737,-0.0540604833223242,0.3759917837526282,0.2997794107617894,0.1214783191680908,-0.3683044910430908,0.0593286156654357,-0.2406972153671085,-0.1707284096069634,-9.844392153024677,14985.0
40.31,1.7999999523162842,80.0,20.880449295043945,31.13914680480957,-79.78272018330253,40.45898703441903,320.4293527832031,-0.0951163694262504,0.0733871161937713,-0.5271298885345459,0.8412498235702515,-0.0633216283795522,0.5519883969458967,0.3677460642372696,0.124785378575325,-0.1781481653451919,0.0946201980113983,-0.2722130864672363,-0.16210488114506,-10.071973972320556,14985.0
40.4,2.0,83.0,20.881702423095703,29.92252540588379,-79.78271868250106,40.45898777836956,320.47253515625,-0.1023093611001968,0.0827128663659095,-0.5354753136634827,0.8342407941818237,-0.0788856391749674,0.9538742473018984,0.6053782686877826,-0.1172205582261085,-0.1265685856342315,0.0667140036821365,-0.2445983680151403,-0.1764644916169345,-10.582108454704285,14985.0
40.6,2.200000047683716,81.0,21.043216705322266,27.62446212768555,-79.7827178547027,40.45898830512528,320.47800161743163,-0.1042205914855003,0.084824800491333,-0.540667712688446,0.8304344415664673,-0.0692709478499571,1.138208036561797,0.7060624854094858,0.1489820927381515,0.0668061152100563,0.0991569012403488,-0.1229237671382725,-0.1193851601332426,-10.486439820528028,14985.0
40.8,2.400000095367432,75.0,21.026939392089844,27.966388702392567,-79.78271461381328,40.45898952785837,320.5562410583496,-0.1110827177762985,0.0833722352981567,-0.5488570928573608,0.8242971301078796,-0.0897988123487364,1.6073969664098768,0.8521620854958141,-0.1015286147594452,0.0169767271727323,-0.0320848040282726,-0.2771180050447583,-0.1406752469111234,-10.119053413867949,14985.0
40.91,2.5999999046325684,74.0,21.147136688232425,25.843265533447266,-79.78271312267671,40.45899050777882,320.52630712890624,-0.1130927801132202,0.0798799395561218,-0.550057053565979,0.8235694169998169,-0.1470982194335002,1.79661189202828,0.906740543172628,-0.1026167348027229,-0.0642967224121093,-0.0042313267476856,-0.2922304079867899,-0.1540581622347235,-10.14968697667122,14985.0
41.1,3.0,74.0,21.119590759277344,24.69025802612305,-79.78270894920891,40.458992726939066,320.5492639770508,-0.1148816868662834,0.0752009227871894,-0.5493083000183105,0.8242617249488831,-0.2112709989083265,2.2265045457140924,0.9798237590776788,-0.0074753472581505,-0.0414864867925643,-0.0875162482261657,-0.1783982389234006,0.0777910098619759,-9.874011808633805,14985.0
41.2,3.2000000476837163,73.0,21.17968940734864,25.06399154663086,-79.78270629155963,40.45899377524385,320.5821428527832,-0.1179842948913574,0.0797052010893821,-0.5491055846214294,0.8235350251197815,-0.2197751400354417,2.461536535774634,1.0247620360136096,0.0670583546161651,-0.1811855137348175,-0.053599514067173,-0.1942722965218127,0.092105468865484,-9.853209754228592,14985.0
41.39,3.700000047683716,69.0,21.067005157470703,26.821332931518555,-79.7827005805085,40.458996571767415,320.55802252197265,-0.1299044340848922,0.0956995412707328,-0.5478618741035461,0.8208616375923157,-0.2750639801738609,2.890364806726581,1.1146332072194032,0.2269777655601501,-0.0865931808948516,-0.0753471553325653,-0.4087083873152733,-0.1377181180939078,-9.682016728520392,14985.0
41.5,4.0,64.0,21.029443740844727,27.05193519592285,-79.78269372919513,40.45899973995387,320.55064108276366,-0.1435150206089019,0.1102298125624656,-0.5458362698554993,0.8181172013282776,-0.3379916731840343,3.344510481225529,1.307318448819614,-0.044057834893465,-0.1769191026687622,-0.0216397270560264,-0.7420748162269593,-0.063131839223206,-9.681612101197244,14985.0
41.7,4.599999904632568,61.0,21.000646591186523,27.680124282836918,-79.78268981360957,40.459001288093255,320.5594949951172,-0.1476675271987915,0.1155036017298698,-0.5460167527198792,0.8165285587310791,-0.3353283718301546,3.5853460193166984,1.4337248988996276,-0.111135609447956,-0.1061458066105842,-0.0735112056136131,-0.8658321587741376,0.0159978267084807,-9.767942731976513,14985.0
41.8,4.800000190734863,60.0,21.18219375610352,24.45965576171875,-79.78268558877754,40.45900292265883,320.56525900268554,-0.1501683443784713,0.1177693232893943,-0.5462036728858948,0.8156232833862305,-0.3371202757018106,3.840781303075355,1.558498747147643,-0.1076361611485481,-0.1011157855391502,-0.1197975277900695,-0.8828892908245326,-0.013607293087989,-9.880316276550293,14985.0
41.99,5.199999809265137,55.0,21.113330841064453,26.821332931518555,-79.78267625132527,40.45900700631485,320.535279296875,-0.1507189720869064,0.1208738163113594,-0.5454069375991821,0.8156008124351501,-0.3343215276791453,4.364380587802895,1.7327235619221364,0.0358089059591293,-0.0141339227557182,-0.0296645797789096,-0.9916720602661372,-0.0198111592023633,-9.762605978250503,14985.0
42.1,5.400000095367432,54.0,20.881702423095703,29.96228408813477,-79.782671171452,40.45900951319594,320.5025186767578,-0.1485542058944702,0.1239823922514915,-0.5448658466339111,0.8158929944038391,-0.3794608487645224,4.617693812693373,1.7901946122370902,0.0886834785342216,0.0219990778714418,0.0388206876814365,-1.0441056510061026,-0.1517251597344875,-9.701631798148156,14985.0
42.29,5.9000000953674325,56.0,20.95807647705078,29.310237884521484,-79.78266005389501,40.45901364433452,320.48286154174804,-0.1409864276647567,0.1263846009969711,-0.5477666258811951,0.8149242997169495,-0.3482423818495495,5.1432680799442485,1.9588159628647848,0.0079991808161139,0.0131225874647498,-0.0032623461447656,-1.1689126418530942,-0.4273584836348892,-10.071086364984511,14985.0
42.4,6.099999904632568,56.0,20.9167594909668,28.849035263061523,-79.78264784693825,40.45901895798718,320.45348455810546,-0.1333779543638229,0.1192903667688369,-0.5492031574249268,0.8163064122200012,-0.3802280796583301,5.639108062414842,2.1070686498201185,0.0011419652728363,0.1467619687318802,-0.026686605066061,-1.0897455080598593,-0.0698760543018579,-10.321745975017546,14985.0
42.5,6.699999809265138,57.0,21.019428253173828,27.028079986572266,-79.78264140702638,40.45902214549516,320.4360819091797,-0.1301418840885162,0.1171618029475212,-0.5480033159255981,0.8179417252540588,-0.4375434712811036,5.870870973847401,2.152193690535692,-0.0455363579094409,-0.0179394260048866,0.0300037693232297,-1.3172385227680208,-0.3696642991527915,-10.33875201702118,14985.0
42.7,6.9000000953674325,56.0,20.986873626708984,28.18903923034668,-79.78262756533046,40.45902713318757,320.43980505371087,-0.1225893273949623,0.1184542551636696,-0.5478348731994629,0.8190344572067261,-0.3461678027281105,6.291294713417512,2.3023292409797698,0.1367454826831817,0.0722881332039833,-0.185061514377594,-1.4391231483221054,-0.3248683049529791,-10.430132303237915,14985.0
42.9,7.400000095367432,57.0,21.009410858154297,26.19314384460449,-79.78262034652457,40.45903075284149,320.40838720703124,-0.1172216609120369,0.1188136637210846,-0.5451476573944092,0.8215574622154236,-0.4126777792261309,6.496771159681352,2.3522367292195563,0.0345227681100368,0.1601442694664001,-0.0362295247614383,-1.260962288081646,-0.168047406412661,-10.400920783281329,14985.0
43.01,7.599999904632567,57.0,21.040712356567383,27.72783470153809,-79.78261283825809,40.45903343214125,320.41929342651366,-0.113098569214344,0.1189393177628517,-0.5441122651100159,0.8228025436401367,-0.3273045846984461,6.704243459370012,2.4040975606740176,0.016406400129199,0.2289935499429703,-0.3497148156166077,-1.3777560353279117,-0.1485780238173902,-10.245400049686433,14985.0
43.09,8.0,58.0,20.78404235839844,32.84877777099609,-79.78259737170049,40.4590402610616,320.3878259887695,-0.1081411689519882,0.118022508919239,-0.5408271551132202,0.825761616230011,-0.2817547420446629,7.0677822702654325,2.423444029102193,-0.0388596765697002,-0.024169823154807,0.1428816169500351,-1.6938367791473867,-0.4129444392398,-10.063510712385176,14985.0
43.3,8.199999809265138,59.0,21.039459228515625,26.3521785736084,-79.78258103987001,40.45904744126479,320.3448572387695,-0.1149331107735634,0.1122669428586959,-0.5363938212394714,0.8285337686538696,-0.2945841671620644,7.434798534749834,2.509497163656852,-0.1660862267017364,-0.1872273534536361,0.0606786608695983,-1.6344879788160325,-0.5583015060424805,-10.181865373849869,14985.0
43.5,8.699999809265138,60.0,20.90298652648925,28.642290115356445,-79.78257256317073,40.45905044751244,320.3569650878906,-0.1212639883160591,0.1089426577091217,-0.5342517495155334,0.8294586539268494,-0.182331260263572,7.572035995984986,2.595662519122546,-0.1328457146883011,-0.0727579742670059,-0.0084808748215436,-1.6938005264103413,-0.1416961433552205,-9.914780935049055,14985.0
43.6,8.899999618530273,61.0,20.74397659301757,32.673839569091804,-79.78256387425994,40.45905464591885,320.3099375,-0.1250606179237365,0.1084392666816711,-0.5298362970352173,0.8317898511886597,-0.1838929691113148,7.737827035392335,2.6799650439805043,0.0156246097758412,-0.1190483570098877,0.2529934048652649,-1.6960525815188885,-0.5801824448257685,-9.861165475845338,14985.0
43.79,9.300000190734863,61.0,20.835376739501957,31.06758117675781,-79.7825460737918,40.45906102425846,320.32814886474614,-0.1242707967758178,0.1095572113990783,-0.5254729986190796,0.8345251083374023,-0.0453071347223719,7.983848446795488,2.8669462660196032,0.0027167254593223,0.0151407681405544,0.0802527442574501,-1.8609396775066849,-0.6544123359024525,-9.892699509859083,14985.0
43.9,9.399999618530272,61.0,20.800317764282227,31.099388122558597,-79.7825279791352,40.45906916078575,320.27244665527337,-0.0888324528932571,0.0905166566371917,-0.5221936106681824,0.8433442115783691,0.0206049967144881,8.26877444805156,2.7328174580889386,0.0299484990537166,0.5590775012969971,-0.0332534462213516,-1.87035530269146,-0.5937863574922085,-10.376571807861328,14985.0
44.0,9.699999809265137,61.0,21.029443740844727,26.3521785736084,-79.7825184376343,40.45907407556782,320.19997885131835,-0.0675804391503334,0.073745809495449,-0.5209674239158629,0.8476954698562622,-0.0262647064420268,8.491663934154634,2.359647589188094,0.0922019556164741,0.5700699090957642,-0.0357962176203727,-1.8845777776837351,-0.2829507853835821,-10.521675142049787,14985.0
44.2,9.899999618530272,62.0,21.199722290039062,24.141586303710927,-79.78250909218784,40.45907757626953,320.22379400634765,-0.0505215004086494,0.0649902299046516,-0.5234320759773254,0.8480817675590515,0.0614338687544715,8.615466244731923,1.962962589934405,0.0640809014439582,0.443745344877243,-0.1962148398160934,-1.5083885340392589,-0.1888800125196576,-10.391256505250931,14985.0
44.4,10.199999809265137,72.0,21.15464973449707,24.28471755981445,-79.78248977914217,40.4590853868194,320.2052469482422,-0.0329771339893341,0.0611195638775825,-0.5290386676788329,0.8457512259483337,-0.0312597894449959,8.705149420466135,1.4756563214611949,-0.0238076373934745,0.1702566146850586,0.2419009357690811,-1.8964490872621536,-0.8727213482558728,-9.810574196577072,14985.0
44.51,10.199999809265137,75.0,21.204730987548828,23.720142364501957,-79.78247059296916,40.45909284274128,320.2220163574218,-0.0207937490195036,0.042493812739849,-0.5347915291786194,0.8436586856842041,-0.1385869308955412,8.622312772744365,1.2522733177443126,-0.0199656784534454,0.2298185080289841,0.1569893211126327,-1.814825318902731,-0.5962767597287894,-10.333207687139511,14985.0
44.6,10.399999618530272,76.0,21.155900955200195,23.92688751220703,-79.78246141734587,40.45909627765664,320.258236907959,-0.0106836408376693,0.0325160883367061,-0.5367472767829895,0.8430486917495728,-0.1561397577662612,8.556374876849109,1.0674739341885082,-0.022416902706027,0.3446629047393799,0.1253029555082321,-1.6495688250660898,-0.7041449515521526,-10.211261665821077,14985.0
44.8,10.399999618530272,75.0,20.880449295043945,30.145174026489247,-79.78245236778571,40.459099677883856,320.2976274719238,-0.0006937512662261,0.0200324486941099,-0.5383247137069702,0.8424990773200989,-0.1988341017926801,8.466058137725671,0.8534687696800856,-0.1354735791683197,0.2803740501403809,0.0332999192178249,-1.6702192904055118,-0.3117644754052162,-10.395584614276888,14985.0
44.89,10.399999618530272,87.0,21.19095802307129,22.686410903930664,-79.78243387579191,40.459106961799314,320.32876303100585,0.0165586583316326,0.0026613173540681,-0.5383331179618835,0.8425652980804443,-0.2631543977876873,8.214655937050109,0.5178959644263772,0.0257885120809078,0.2521205842494965,0.0531531684100627,-1.9170973598957064,-0.5581131160631776,-10.634800053834915,14985.0
45.1,10.399999618530272,93.0,21.218503952026367,23.00448226928711,-79.7824245905886,40.4591107422734,320.34017279052733,0.0298181883990764,0.0034049949608743,-0.5368515253067017,0.8431428670883179,-0.2722554009324466,8.081732697967235,0.3115720488138716,0.1964688152074813,0.2631619572639465,-0.0040412992238998,-1.3484111988544465,-0.2251123574003577,-10.446884576082232,14985.0
45.3,10.399999618530272,93.0,21.204730987548828,24.05411529541016,-79.78240798295286,40.4591171213516,320.44999029541015,0.0374020785093307,0.0132165225222706,-0.5354816317558289,0.8436146974563599,-0.2364525569800422,7.7131087749457725,0.1165616905603314,0.0707414671778678,-0.221120148897171,0.1747713685035705,-1.5687141117453576,-0.6024455722421408,-9.952826428413392,14985.0
45.4,10.300000190734863,93.0,21.183446884155277,24.05411529541016,-79.78239927632218,40.459120656466624,320.45835592651366,0.0346972271800041,0.0195326823741197,-0.533681333065033,0.8447479009628296,-0.2035842820656382,7.555657554167896,0.1093009337977571,0.0703740417957305,-0.0396095514297485,-0.0489414930343627,-1.6011617732048036,-0.4533069283515215,-9.873553386926652,14985.0
45.6,10.199999809265137,94.0,21.18219375610352,23.091951370239247,-79.78238300684862,40.45912684649922,320.5395288696289,0.0246733780950307,0.0198434609919786,-0.5308196544647217,0.8468931913375854,-0.1159977123440925,7.272740036863967,0.1891651347530807,-0.1941057294607162,-0.0890960395336151,0.0378143675625324,-1.4395230978727342,-0.6881505509465933,-9.624475448727608,14985.0
45.7,10.100000381469728,93.0,21.24354362487793,23.68833541870117,-79.78236795950826,40.45913256065426,320.6200151672363,-0.0028483592905104,0.0083352159708738,-0.5274174809455872,0.8495606780052185,-0.0714924098297002,6.989759793685106,0.3536311858114797,-0.1973331123590469,-0.0856769233942031,-0.1275776326656341,-1.478919882774353,-0.2366253971122205,-9.377308380603791,14985.0
45.9,9.800000190734863,93.0,21.286113739013672,22.92496490478516,-79.78235969137755,40.45913547219017,320.6481905212402,-0.0098843891173601,0.0065608476288616,-0.5253199338912964,0.8508221507072449,-0.003894783462877,6.948317150753348,0.3955165556938324,0.0279936119914054,-0.1273113787174224,0.1505274027585983,-1.3795411902666093,-0.5134919901564717,-9.454710897803306,14985.0
46.0,9.699999809265137,93.0,21.269838333129886,23.33050537109375,-79.7823524284237,40.45913824191612,320.675602935791,-0.0118995727971196,0.0072154556401073,-0.5239878296852112,0.8516120910644531,-0.0074941718260321,6.833530170573738,0.4144536959152027,-0.0489994697272777,-0.0860215947031974,-0.0773023888468742,-1.4170488859713075,-0.4462463423609734,-9.276371405124666,14985.0
46.2,9.399999618530272,89.0,21.32117080688477,21.34256172180176,-79.7823379155586,40.459143457503295,320.80483724975585,-0.0101923197507858,0.0151170277968049,-0.523155152797699,0.852042555809021,0.0086547071025468,6.656493888147838,0.3901366728649455,0.0653967037796974,-0.0957259088754654,-0.0269143972545862,-1.3521980018913746,-0.3380812947079539,-9.110100565552711,14985.0
46.3,9.300000190734863,89.0,21.332439422607425,21.50954818725586,-79.7823309464672,40.45914615319812,320.8213472595215,-0.0106978779658675,0.0206017810851335,-0.523969292640686,0.8514208197593689,0.0008195383576151,6.572538809832097,0.3574584603291068,0.1604299545288086,-0.1226905733346939,0.1885652542114257,-1.2424644751846792,-0.4384626750648022,-9.202514639496805,14985.0
46.39,9.0,89.0,21.288618087768555,22.55918312072754,-79.7823172327964,40.45915127237309,320.95011236572265,-0.0169884283095598,0.0242703091353178,-0.52587890625,0.8500434756278992,-0.0498739480746341,6.429480526855872,0.3724977141771821,-0.0316171385347843,0.1161244139075279,-0.0932986661791801,-0.7537270013988019,-0.2495655594393611,-9.235074275135997,14985.0
46.6,8.899999618530273,89.0,21.278602600097656,23.115806579589844,-79.78230407235516,40.459156451683306,321.01624014282226,-0.0313088446855545,0.0263992566615343,-0.5265593528747559,0.8491513729095459,-0.096384743401974,6.315220291118869,0.3920211200794969,0.0846196413040161,-0.0432486832141876,-0.0184956882148981,-1.1793833240121605,-0.2689661458879709,-9.10930125117302,14986.0
46.79,8.699999809265138,85.0,21.278602600097656,22.82954216003418,-79.78229746809575,40.45915907427453,321.010750793457,-0.0360512509942054,0.0268835425376892,-0.526089608669281,0.8492392897605896,-0.1355197761890601,6.287259955490357,0.4300438009982279,-0.1243496537208557,-0.0221820455044508,-0.1824815422296524,-0.9608982373774052,-0.1506560511700809,-9.196963292956353,14986.0
46.9,8.600000381469728,84.0,21.20723533630371,24.39604187011719,-79.78229116237611,40.459161603751454,321.0686998596192,-0.0386884771287441,0.0285974964499473,-0.5254892110824585,0.8494389653205872,-0.1340935913722778,6.248809937600211,0.4711583997019035,0.0222757514566183,-0.0071615162305533,0.0125267021358013,-1.0876349555701017,-0.3668227350711823,-9.196753962635997,14986.0
47.01,8.5,84.0,21.153396606445312,25.11170196533203,-79.78227838412697,40.45916672658503,321.1110735168457,-0.0505466684699058,0.0361442603170871,-0.5231534242630005,0.8499701619148254,-0.1682492213909008,6.206027933821527,0.5092297721879303,-0.072069376707077,-0.1460108906030655,0.026255851611495,-0.9723464278131724,-0.1390358612313866,-9.412459502220154,14986.0
47.2,8.5,84.0,21.113330841064453,25.70013236999512,-79.78226539557771,40.459172065294034,321.07693197631835,-0.0725593119859695,0.0519032999873161,-0.5222962498664856,0.8480848670005798,-0.175717990102957,6.241746314483748,0.7259685714688537,0.0709686279296875,-0.2775959074497223,0.1507962197065353,-1.2373445069789888,-0.3019781367480755,-9.576644055247309,14986.0
47.3,8.5,76.0,21.35247230529785,21.565210342407227,-79.7822591103664,40.4591745341891,321.1528864135742,-0.08052908629179,0.0597515739500522,-0.5225670337677002,0.8466808795928955,-0.190962622962378,6.225106242098316,0.9792999778778246,0.0734131038188934,-0.1875998675823212,0.0910721644759178,-1.5148081921041012,-0.5116008178889752,-9.460572731494905,14986.0
