time,wind_speed,wind_angle,battery_voltage,battery_current,position_x,position_y,position_z,orientation_x,orientation_y,orientation_z,orientation_w,velocity_x,velocity_y,velocity_z,angular_x,angular_y,angular_z,linear_acceleration_x,linear_acceleration_y,linear_acceleration_z,node_ids
0.0,0.699999988079071,111.0,25.841073989868164,-0.0477106422185897,-79.78277871391651,40.45897532165787,270.1190925140381,-0.0031876708380877,0.0055107437074184,-0.8623276352882385,0.5063108205795288,-0.0012351465977394,-0.0068275497477526,-0.0005838892723255,-0.0017708552768453,0.0003383851726539,-0.0027549234218895,-0.1237715494539588,-0.0045267704618163,-9.812048864364623,14935.0
0.1,0.699999988079071,108.0,25.84357833862305,-0.0397588685154914,-79.7827787476434,40.458975328146856,270.09888540697096,-0.0031967805698513,0.0055104191415011,-0.8623415231704712,0.5062870383262634,-0.0013758069176256,-0.009015485457842,-0.0017331049628579,0.0037469912786036,0.0006825327291153,-0.0004146651481278,-0.126242345245555,0.0024974331707926,-9.811391637325286,14935.0
0.3,0.699999988079071,106.0,25.841073989868164,-0.055662415921688,-79.78277879210195,40.458975333464096,270.0779929060936,-0.0031842046882957,0.0055152587592601,-0.8623263835906982,0.5063128471374512,-0.002096282395316,-0.0105341779166798,-0.0025242896901122,0.0017255886923521,0.0010424394859001,-0.0096320174634456,-0.1240647233650088,-0.0037073311535641,-9.812199722528456,14935.0
0.4,0.699999988079071,105.0,25.841073989868164,-0.055662415921688,-79.78277880189796,40.45897533960419,270.07775353384017,-0.0031806270126253,0.0055109155364334,-0.8623344898223877,0.5062992572784424,-0.0015519456739017,-0.0106204967681646,-0.002511915300066,0.0040000355802476,0.0014878322836011,0.0046403417363762,-0.1232158172875642,-0.0062760027113836,-9.813328235149385,14935.0
0.6,0.8000000119209291,105.0,25.83982276916504,-0.0477106422185897,-79.78277882239641,40.45897534498422,270.0561399359703,-0.003165254369378,0.0055029881186783,-0.8623426556587219,0.5062854290008545,-0.0035293033305605,-0.0087355888792126,-0.0032240048402517,0.0080912187695503,0.001156524172984,0.0060832733288407,-0.1259861184284091,0.0045398661692161,-9.811508581638336,14935.0
0.7,0.8000000119209291,108.0,25.84232711791992,-0.0477106422185897,-79.78277882903609,40.45897535188706,270.05583929014205,-0.0031666529830545,0.0054989964701235,-0.8623401522636414,0.5062897801399231,-0.0040694770393496,-0.0084719883180234,-0.0031054338957171,-0.002015738049522,-0.0022234679199755,-0.0023686275817453,-0.123621805915609,-0.0016364061122294,-9.81151559829712,14935.0
0.9,0.8000000119209291,109.0,25.841073989868164,-0.055662415921688,-79.78277886760338,40.45897535157521,270.0343637366295,-0.0031631318852305,0.0055037103593349,-0.862346351146698,0.5062790513038635,-0.003362411800642,-0.0099044166943491,-0.0036999116224541,-0.0002348650887142,0.0007814678829163,0.0028175439219921,-0.12673514675349,0.0036745330702979,-9.81014384150505,14935.0
0.99,0.8000000119209291,109.0,25.84357833862305,-0.0318070948123931,-79.78277887591518,40.45897535854568,270.034008433342,-0.0031501064077019,0.0055094119161367,-0.8623438477516174,0.5062834024429321,-0.0035288793776258,-0.0097982965427588,-0.0036750881562763,-0.0002234515559393,-7.357550930464643e-05,-0.0053138518705964,-0.1253407776821404,0.0077250238345004,-9.81047479391098,14935.0
1.2,0.8000000119209291,110.0,25.83856964111328,-0.0397588685154914,-79.78277888884391,40.458975319908,270.0122433204651,-0.0031495145522058,0.0055157071910798,-0.8623436093330383,0.5062836408615112,0.0003702942910127,-0.0054095726248571,-0.0038914475900302,-0.0044565452262759,8.695083670318128e-05,-0.0037693518679589,-0.124277689922601,-0.0056874935893574,-9.81277041077614,14935.0
1.3,0.8000000119209291,113.0,25.83606719970703,-0.055662415921688,-79.78277892044295,40.4589752695634,269.9904881019592,-0.0031442698091268,0.0055199819616973,-0.8623430132865906,0.5062846541404724,0.0063126096644721,-0.004799970009013,-0.0041344457863155,0.0029391215648502,9.114301064983008e-05,0.0074869571253657,-0.1246587091125548,-0.0018836331280181,-9.811931920051576,14934.0
1.5,0.8000000119209291,114.0,25.83982276916504,-0.0715659633278846,-79.78277893728551,40.45897526412916,269.98967050504683,-0.0031445180065929,0.0055192941799759,-0.862343430519104,0.5062839984893799,0.0063200504226881,-0.0046670377027403,-0.0042276925896478,-0.0016338673885911,-0.0019871676340699,-0.0026344624347984,-0.123701857952401,-0.002397448067204,-9.811572901010514,14934.0
1.6,0.8000000119209291,116.0,25.84232711791992,-0.0636141896247863,-79.78277896436323,40.458975265305206,269.9669938583374,-0.0031472367700189,0.0055120335891842,-0.8623431921005249,0.5062844753265381,0.0010167579780718,-0.0089981401127963,-0.0047653445596153,0.0029944595880806,0.0020518316887319,0.0040781581774353,-0.1223172098770737,-0.0050390579301165,-9.812665160894396,14934.0
1.8,0.8000000119209291,117.0,25.83982276916504,-0.055662415921688,-79.78277897802703,40.45897524211468,269.94419752550124,-0.0031495380681008,0.0055120131000876,-0.862343430519104,0.5062839984893799,-0.000427682441434,-0.0078820615957912,-0.0050191880574301,0.0035163457505404,0.0019405932398512,0.0043908366933465,-0.1259188114944845,0.0067448431975208,-9.810893454551696,14934.0
1.9,0.8000000119209291,119.0,25.83731842041016,-0.0715659633278846,-79.78277898567053,40.45897524617371,269.94371073436736,-0.0031495380681008,0.0055120131000876,-0.862343430519104,0.5062839984893799,-0.0010035135362808,-0.0077359906838126,-0.0049302364720288,-0.0031404672190546,-0.0004889204283244,-0.003165473928675,-0.1246073997952044,0.0020112771604908,-9.811164765357972,14934.0
2.1,0.8000000119209291,121.0,25.83731842041016,-0.055662415921688,-79.78277903653655,40.45897523985272,269.9201827545166,-0.0031486866064369,0.0055051664821803,-0.8623425364494324,0.5062857270240784,-0.0021095990448636,-0.0133498150781242,-0.0051922390552085,-0.0004365523345768,-0.0001666536263655,0.0032249633222818,-0.1248054833617061,0.0015580551355378,-9.811469990015029,14934.0
2.2,0.8000000119209291,118.0,25.83982276916504,-0.0397588685154914,-79.78277904931241,40.45897524734762,269.9196787376404,-0.003148325253278,0.0055048298090696,-0.8623424768447876,0.5062857866287231,-0.0020893867774268,-0.0134592368024689,-0.0051521375876474,-0.0022418352309614,-0.0011177298147231,-0.0081488993018865,-0.1267543694749474,0.007261537205195,-9.810923860073087,14934.0
2.39,0.699999988079071,118.0,25.834814071655277,-0.0954212844371795,-79.78277905649603,40.4589751810712,269.8952211637497,-0.0031473138369619,0.0055141868069767,-0.8623424172401428,0.5062859654426575,0.0021029442491985,-0.0073169134154361,-0.005217780536309,-0.006017287261784,0.000770331476815,-0.0073125693015754,-0.1241794110182672,-0.0062856317736441,-9.812998452186584,14934.0
2.5,0.699999988079071,116.0,25.83982276916504,-0.055662415921688,-79.78277906557942,40.45897518243781,269.8946999211311,-0.0031487876549363,0.0055133663117885,-0.8623425364494324,0.5062856078147888,0.0029705942488674,-0.007507027556916,-0.0053673585128246,0.0070658577606081,0.0002587736235,0.0018862911965698,-0.1241575844585895,-0.0026178960915422,-9.81217867255211,14934.0
2.7,0.699999988079071,120.0,25.83856964111328,-0.0477106422185897,-79.78277909847536,40.45897512932456,269.8691523571014,-0.0031460276804864,0.0055145099759101,-0.8623421788215637,0.5062862038612366,0.0045336378117744,-0.0076926440994083,-0.0056618832032378,0.0028869961388409,0.002736689755693,-0.0009879256831482,-0.1250726737082004,-0.0018896899069659,-9.811413856744768,14934.0
2.81,0.699999988079071,119.0,25.84232711791992,-0.0397588685154914,-79.78277909866193,40.45897506780819,269.84274860215186,-0.0031459706369787,0.0055197607725858,-0.8623417615890503,0.5062869191169739,0.0064433179302981,-0.0041370504350365,-0.0083073487429927,0.0011537526734173,0.0013151039602234,0.0011562712024897,-0.1226590984035283,-0.0050274834124138,-9.813359810113909,14934.0
3.0,0.699999988079071,118.0,25.84232711791992,-0.0397588685154914,-79.78277911461272,40.45897506149472,269.8411089379788,-0.0031474004499614,0.0055188848637044,-0.8623416423797607,0.5062870979309082,0.006912783918127,-0.0041189083941252,-0.0082664065053243,0.0070588397793471,0.0012238890631124,0.0045761484652757,-0.1263538260664791,0.0071190855558961,-9.811451278924944,14934.0
3.1,0.699999988079071,117.0,25.83856964111328,-0.0238553211092948,-79.78277913350722,40.45897502570674,269.815804680109,-0.0031478609889745,0.0055156406015157,-0.8623414039611816,0.5062875151634216,0.0039776395854792,-0.0065272187816021,-0.0075676954280901,-0.0058670383878052,-0.0011016142088919,-0.0017697147559374,-0.1253151687048375,0.002273127354565,-9.812218433618543,14934.0
3.3,0.699999988079071,118.0,25.841073989868164,-0.0318070948123931,-79.78277915934534,40.458974952880666,269.78696232032775,-0.0031435880810022,0.0055199367925524,-0.8623412847518921,0.5062876939773561,0.0086207541701777,-0.0051742772616611,-0.010371755981193,-0.0028241022955626,8.797872578725219e-05,0.0006263075047172,-0.1244857594370842,0.0006252529338235,-9.812073422670364,14934.0
3.4,0.699999988079071,113.0,25.83982276916504,-0.0477106422185897,-79.78277916988725,40.45897494830472,269.78592481207846,-0.0031435880810022,0.0055199367925524,-0.8623412847518921,0.5062876939773561,0.0087175205336477,-0.0051780433936793,-0.0104658007320309,0.0004681223072111,-0.0031450928654521,-0.0052993898279964,-0.1267035535164177,0.0062626757420366,-9.811194001436236,14934.0
3.6,0.699999988079071,111.0,25.841073989868164,-0.0477106422185897,-79.78277918992156,40.45897489954573,269.755935867548,-0.0031460844911634,0.0055160424672067,-0.8623402118682861,0.5062897205352783,0.0057681942395549,-0.0071656476458595,-0.0125299166596778,-0.0022296339739114,0.0008369461284019,-0.0054773981682956,-0.123919739825651,-0.0050731636426644,-9.813371504545213,14934.0
3.7,0.699999988079071,105.0,25.84232711791992,-0.0397588685154914,-79.78277920111948,40.45897489792736,269.75468664360045,-0.0031459568999707,0.0055156350135803,-0.8623401522636414,0.5062897205352783,0.0065922118482751,-0.0072644711890689,-0.0126056030226759,0.0058953873813152,0.0012458827113732,0.0042960401624441,-0.1239782667998224,-0.00092365536344,-9.813898923397064,14934.0
3.9,0.699999988079071,106.0,25.83982276916504,-0.0636141896247863,-79.78277920146803,40.45897483516625,269.7254248161316,-0.0031477273441851,0.0055182357318699,-0.8623400926589966,0.5062897205352783,0.0055815726162837,-0.0050362711070894,-0.0137196927752247,0.000624410691671,-0.0015759209636598,-0.0043852180242538,-0.1258552595693618,-0.0020386077545117,-9.812427763938905,14934.0
4.0,0.699999988079071,106.0,25.83856964111328,-0.0477106422185897,-79.78277921006551,40.45897483304547,269.7240562636852,-0.0031487338710576,0.0055176708847284,-0.8623394966125488,0.5062906146049501,0.0061096054216319,-0.0051488995389371,-0.0138072379811812,0.0034673381596803,0.002542300382629,0.0024208626709878,-0.1243578150495886,-0.004798417026177,-9.812544708251954,14934.0
4.1,0.699999988079071,105.0,25.83731842041016,-0.0397588685154914,-79.78277925400405,40.45897480208949,269.6939095754623,-0.0031479257158935,0.0055102631449699,-0.862339198589325,0.5062913298606873,0.003136099318142,-0.0114300045189079,-0.0150008608115639,0.0065721441060304,0.001905137207359,0.004459167830646,-0.1259937015362084,0.0053490248846355,-9.810327444076536,14934.0
4.29,0.699999988079071,106.0,25.841073989868164,-0.0318070948123931,-79.78277925759252,40.4589747090852,269.6646721858978,-0.0031445689965039,0.0055175079032778,-0.8623392581939697,0.5062910914421082,0.0074586962692154,-0.0079246737358915,-0.0152956139104795,-0.0015112183755263,-0.0002369383873883,-0.0018828134052455,-0.1250304823927581,-0.0030128726537805,-9.810933215618132,14934.0
4.49,0.6000000238418579,107.0,25.83856964111328,-0.0477106422185897,-79.78277928329781,40.45897470394189,269.6616234381199,-0.0031452437397092,0.0055168489925563,-0.8623394966125488,0.5062907338142395,0.0081364109396284,-0.0079649668932398,-0.0153829383830424,0.0009282114915549,0.0003621189389377,0.0082932924851775,-0.1255147049389779,0.0044265743673895,-9.81180328130722,14934.0
4.59,0.6000000238418579,111.0,25.83982276916504,-0.0954212844371795,-79.78277923499395,40.45897460954843,269.6294200469256,-0.0031496114097535,0.0055254120379686,-0.8623390197753906,0.5062914490699768,0.0074606895099201,-2.884976384324696e-05,-0.0190900825082014,-0.0041839005425572,-9.977382433135062e-06,-0.0063383523374795,-0.1251487514656037,0.0061946767353219,-9.811536648273467,14934.0
4.79,0.6000000238418579,114.0,25.83982276916504,-0.0477106422185897,-79.78277924228894,40.4589745431856,269.5985761184692,-0.0031498239841312,0.005522146821022,-0.8623390793800354,0.5062913298606873,0.0055824514878785,-0.0028025412782337,-0.0187457304324605,-0.0032711799722164,-0.0008997327531687,-0.0031768537592142,-0.1244059997610748,-0.0036053766118129,-9.812763394117356,14934.0
4.9,0.5,117.0,25.834814071655277,-0.0636141896247863,-79.78277924887277,40.45897453987803,269.5966941167116,-0.0031498239841312,0.005522146821022,-0.8623390793800354,0.5062913298606873,0.0061536061527745,-0.0028926249475471,-0.018876768329875,0.0006465121405199,0.0021844075527042,0.0017881464445963,-0.126062790043652,0.0031908666947856,-9.81177755355835,14934.0
5.1,0.5,119.0,25.83606719970703,-0.0238553211092948,-79.78277925967434,40.45897446236167,269.565672208786,-0.0031480072066187,0.0055325338616967,-0.8623382449150085,0.5062927007675171,0.006471919300148,-0.0040662765699942,-0.018080289564576,-0.0014546766178682,-0.0020656858105212,-0.0075194328092038,-0.1241731983516365,-0.0048649325303267,-9.812688549757004,14934.0
5.2,0.5,122.0,25.841073989868164,-0.0318070948123931,-79.78277926800338,40.45897445892688,269.5638587970733,-0.0031505322549492,0.0055368752218782,-0.8623360395431519,0.5062964558601379,0.0073615425723111,-0.0040596185351652,-0.0183020726584797,0.0054627149365842,0.0011341237695887,0.0052913627587258,-0.1230248874239623,-0.0034022837973316,-9.81210850596428,14934.0
5.4,0.5,126.0,25.83856964111328,-0.0397588685154914,-79.78277924999361,40.458974391122815,269.53219189238547,-0.0031394667457789,0.0055628097616136,-0.8623446822166443,0.5062813758850098,0.0032450853346822,-0.0034202006542005,-0.0179830618980212,0.0033736226614564,0.0018488392233848,-0.0016940210480242,-0.1253476390242576,0.0006027457216987,-9.811852397918704,14934.0
5.5,0.5,129.0,25.83856964111328,-0.0397588685154914,-79.78277925546327,40.45897439021245,269.53039283049105,-0.0031438979785889,0.0055755241774022,-0.862334132194519,0.5062992572784424,0.0033879845574064,-0.0032501359066689,-0.0181151805018671,0.0023606517352163,-0.0022489714901894,0.000264074478764,-0.1232250540610402,-0.0055355179449543,-9.812264041900637,14934.0
5.69,0.5,128.0,25.83230972290039,-0.0397588685154914,-79.78277926035247,40.45897427318347,269.49879850935935,-0.0031052939593791,0.0055924719199538,-0.8623365163803101,0.5062951445579529,0.009063805967942,-0.0024676625558473,-0.0176136217365959,0.0030891448259353,0.0015461192233487,0.006367262918502,-0.1249897071998566,0.0061687148694181,-9.810702835321427,14934.0
5.79,0.6000000238418579,134.0,25.82980537414551,-0.0318070948123931,-79.7827792467182,40.45897421281956,269.4694243867397,-0.003097356762737,0.0055897794663906,-0.8623330593109131,0.5063012838363647,0.0043993827112322,-0.0054073294952076,-0.0174869053432533,-0.004256566055119,-0.0019924666266888,-0.0005041903932578,-0.125791186876595,-0.0002899299626005,-9.811927242279053,14934.0
5.9,0.6000000238418579,132.0,25.84858703613281,0.0,-79.78277926419075,40.458974210115855,269.4659155805111,-0.003107497934252,0.0055941212922334,-0.8623267412185669,0.50631183385849,0.0054594668968763,-0.005519750983828,-0.0177550527258782,0.0017269344534724,0.000243392350967,0.0054595097899436,-0.1269965172931552,0.0038644727901555,-9.812350580692293,14934.0
6.1,0.699999988079071,131.0,25.83856964111328,-0.0397588685154914,-79.78277923138653,40.458974103885055,269.4385134142339,-0.0030788611620664,0.0056023257784545,-0.8623273968696594,0.5063109397888184,0.0073829378389641,-0.0014262451474392,-0.0141154247355972,-0.0065780044533312,0.0004968538414686,-0.0061345538124442,-0.1265612012241035,0.0073589818534674,-9.811141376495364,14934.0
6.3,0.8000000119209291,133.0,25.83856964111328,-0.055662415921688,-79.78277919859882,40.45897402344384,269.40692232711984,-0.0030832672491669,0.0055934228003025,-0.8623243570327759,0.5063160061836243,0.0037514395412883,-0.0013915164130239,-0.015192671753894,-0.0036990807857364,-0.0012530295643955,-0.0009563426137901,-0.1245553230307996,-0.0025799702742369,-9.811958817243577,14934.0
6.39,0.8999999761581421,135.0,25.834814071655277,-0.0238553211092948,-79.78277920259696,40.45897402083783,269.40539745590456,-0.0030647472012788,0.0056008058600127,-0.8623244762420654,0.5063158869743347,0.0043871775536417,-0.0013322658406997,-0.0152509310048556,0.0026373579166829,0.0020841425284743,-0.0005317122559063,-0.1261685150116682,0.0052641586022218,-9.811096937656403,14934.0
6.6,1.0,139.0,25.83356285095215,0.0397588685154914,-79.78277918812857,40.458973918770745,269.3733949058205,-0.0030585525091737,0.005618009250611,-0.8623296022415161,0.5063070058822632,0.0061548818329306,-0.0024815475199834,-0.0159518469697986,-0.0034368764609098,-0.0005688125966116,-0.0032643000595271,-0.1232499047275632,-0.0052923748438479,-9.81251430273056,14934.0
6.7,1.100000023841858,139.0,25.834814071655277,0.0,-79.78277919479144,40.45897391480349,269.3717960913181,-0.0030505270697176,0.0056259743869304,-0.8623265624046326,0.5063120722770691,0.0072581472835585,-0.0026076700395724,-0.0160923768898654,0.007543200161308,0.0007900890777818,0.0057240864261984,-0.1248944706749171,-0.0036091007856884,-9.813044060468677,14934.0
6.9,1.2000000476837158,143.0,25.82229423522949,0.0079517737030982,-79.78277915929017,40.458973815634415,269.3410539973974,-0.0030572414398193,0.0056473053991794,-0.8623219728469849,0.5063197612762451,0.0069355665243799,-0.000879057824417,-0.0164055047678461,0.000473485852126,0.0011730707483366,-0.0032096032518893,-0.1253094037156552,-0.0011775498610222,-9.812515472173692,14934.0
7.0,1.2999999523162842,142.0,25.83356285095215,0.0318070948123931,-79.78277916433328,40.45897381064515,269.33941464614867,-0.0030585292261093,0.0056461193598806,-0.8623214364051819,0.5063206553459167,0.0073994341226647,-0.0007569355753806,-0.0164019456635677,0.0009158493485301,-0.0006287745200097,0.0048766140826046,-0.1231434214487672,-0.0054488900746218,-9.8139386844635,14934.0
7.2,1.2999999523162842,139.0,25.834814071655277,0.055662415921688,-79.78277912141158,40.458973688318274,269.3109179933071,-0.0030588565859943,0.0056499359197914,-0.8623213768005371,0.5063207149505615,0.0098864628777189,0.0023512550745542,-0.0132810127577262,0.0055080726742744,0.0008729475666768,0.0053116683848202,-0.1258925812505185,0.0064156518084928,-9.810763646364212,14934.0
7.3,1.2999999523162842,138.0,25.831058502197266,0.0318070948123931,-79.78277909420385,40.45897360925977,269.2814748187065,-0.0030594076961278,0.0056456732563674,-0.8623214960098267,0.5063205957412721,0.0064302326208481,-0.0013845256992659,-0.0144101724007834,-0.0047064460813999,-0.0009746138821356,-0.0051746512763202,-0.1258666250947863,0.0014705416176002,-9.811337842941285,14934.0
7.49,1.2000000476837158,141.0,25.831058502197266,0.0238553211092948,-79.78277910547344,40.45897359955768,269.27855206769703,-0.0030600181780755,0.0056444741785526,-0.8623219132423401,0.5063199400901794,0.0074445862815877,-0.0011530967026773,-0.0147596299394218,0.0009380263509228,-0.0011784026864916,0.0042730714194476,-0.1263979542721063,0.002164634380897,-9.810665413141251,14934.0
7.6,1.2000000476837158,154.0,25.827302932739247,0.0079517737030982,-79.78277907767718,40.45897350083144,269.2473360646963,-0.0030586260836571,0.0056446590460836,-0.8623213171958923,0.5063208341598511,0.0079305846032306,-0.0023690953434948,-0.0189978128749655,-0.0048357178457081,-0.0016467140521854,-0.0057187220081686,-0.1258971950691193,0.0067514275963185,-9.810242074728013,14934.0
7.8,1.2000000476837158,152.0,25.814781188964844,0.0,-79.78277905173611,40.45897339763983,269.2177210052013,-0.0030595106072723,0.0056437361054122,-0.8623215556144714,0.5063204765319824,0.0083651371393925,-0.0029415243041598,-0.0180932097464834,-0.0024102781899273,0.0013613611226901,-0.0037362813018262,-0.1235251624044031,-0.0049305401172023,-9.812191536426544,14934.0
7.9,1.100000023841858,142.0,25.83356285095215,0.0,-79.78277906013821,40.45897339206226,269.21590553712844,-0.0030595106072723,0.0056437361054122,-0.8623215556144714,0.5063204765319824,0.0092312891506759,-0.0029096270783539,-0.0182850380486669,0.0046119983308017,0.0016219930257648,-0.0010108894202858,-0.124758257959038,0.0010675057192565,-9.812055881023408,14934.0
8.09,1.0,144.0,25.83230972290039,0.0238553211092948,-79.78277903377413,40.45897329023297,269.1863798547983,-0.003059922484681,0.0056426534429192,-0.8623207807540894,0.5063217282295227,0.0091962307428889,-0.0035124054632197,-0.0173174954169377,-0.0031423061154782,0.0002117202820954,-0.0066404282115399,-0.1235457647033035,-0.0045610549027333,-9.813438162803653,14934.0
8.2,0.8999999761581421,143.0,25.834814071655277,0.0318070948123931,-79.78277904302584,40.458973284439615,269.1846456874609,-0.0030610850080847,0.005641121417284,-0.8623207807540894,0.5063216686248779,0.0101981149969681,-0.0035036897882546,-0.0174802455563074,0.0027733535971492,0.0019750518258661,0.0096402196213603,-0.1241923571191728,-0.0042167623940622,-9.81284408569336,14934.0
8.4,0.8999999761581421,142.0,25.82479858398437,-0.0159035474061965,-79.7827790130023,40.45897319704081,269.1551279027462,-0.0030629248358309,0.0056387861259281,-0.862321138381958,0.5063210725784302,0.0075018651019804,-0.005312022881371,-0.0173737910957645,0.0010957136983051,-0.0005024822312407,0.000991980661638,-0.125888670925051,0.0013546788110397,-9.811186984777454,14934.0
8.5,0.8999999761581421,141.0,25.83230972290039,-0.0318070948123931,-79.78277902290509,40.458973193689225,269.15339281153683,-0.0030643912032246,0.0056374426931142,-0.8623220920562744,0.5063197016716003,0.0077643560421536,-0.0052416477110132,-0.0174728735711405,0.001703318208456,0.0003702979010995,0.0063488683663308,-0.1245771495904773,-0.0044892429289757,-9.81229561686516,14934.0
8.7,0.8000000119209291,142.0,25.83356285095215,0.0159035474061965,-79.78277899756836,40.45897308790932,269.1218020815849,-0.0030643378850072,0.0056378794834017,-0.8623216152191162,0.5063204169273376,0.0090321446348419,-0.0050072055107839,-0.0206070886474632,0.0018657178152352,-0.0012056453851982,0.0046490486711263,-0.1269092932809144,0.0076676080597098,-9.811266506910323,14934.0
8.8,0.8000000119209291,149.0,25.83230972290039,0.0397588685154914,-79.78277895808017,40.458972978095325,269.0954122741222,-0.0030628049280494,0.0056418250314891,-0.8623217940330505,0.506320059299469,0.0106881665131248,-0.0035094383307851,-0.0192052073504504,-0.0066251005046069,0.0011142104631289,-0.0040358835831284,-0.124554071361199,0.0034514586525619,-9.811349537372587,14934.0
9.0,0.699999988079071,146.0,25.834814071655277,0.0397588685154914,-79.78277897896338,40.45897296336961,269.09152524662017,-0.0030634491704404,0.0056408089585602,-0.8623217940330505,0.506320059299469,0.0118652821086764,-0.0032793368629615,-0.0195958286310914,-0.0042890748009085,0.0009963613701984,0.0030065120663493,-0.1248817895259708,0.0003195891645736,-9.8119213950634,14934.0
9.1,0.8000000119209291,136.0,25.83606719970703,0.0238553211092948,-79.7827789178327,40.45897288358997,269.0644250411987,-0.0030684517696499,0.0056400788016617,-0.8623216152191162,0.5063202977180481,0.0074019793376509,-0.0025078658130233,-0.0188212241247551,-0.0015468859346583,-0.0002910790499299,-0.0077544995583593,-0.1257430204376578,0.0071557751210639,-9.811130851507189,14934.0
9.29,0.8000000119209291,133.0,25.83356285095215,0.0238553211092948,-79.78277885839944,40.45897280083501,269.035435189724,-0.0030746615957468,0.0056377919390797,-0.8623212575912476,0.5063208341598511,0.003324715763131,-0.0017247964924699,-0.0179180637559624,-0.0069684307090938,-0.0021818636450916,-0.0037613632157444,-0.1236101663019508,-0.0059786226879805,-9.813087329864503,14934.0
9.4,0.8000000119209291,140.0,25.82229423522949,0.0159035474061965,-79.78277886268148,40.458972798631294,269.03363578510283,-0.0030766772106289,0.0056389858946204,-0.862324059009552,0.5063160657882689,0.0045361237541422,-0.0017250182275723,-0.018128387765532,0.0036554816178977,0.0021810261532664,0.0064153643324971,-0.1240926803648472,-0.0025275446183513,-9.81295869112015,14934.0
9.59,0.8000000119209291,144.0,25.834814071655277,0.0,-79.78277881966352,40.45897271761414,269.00439869356154,-0.0030948517378419,0.0056415228173136,-0.8623315095901489,0.5063033103942871,0.0031371051753809,-0.0039657123612457,-0.0176394444113984,0.0031547669786959,0.0022992638405412,0.0012150355614721,-0.1242656026314944,-0.0003255157516105,-9.812780935764314,14934.0
9.7,0.8000000119209291,144.0,25.82479858398437,-0.0397588685154914,-79.78277882563526,40.45897271706529,269.0026298661232,-0.0030874451622366,0.0056349653750658,-0.8623293042182922,0.5063071250915527,0.0034365800468065,-0.0037309500458017,-0.0178599265430182,-0.0040065636858344,-0.0024117755237966,0.0030063076410442,-0.1223376294504851,-0.0042796325247036,-9.813139954805372,14934.0
9.9,0.8000000119209291,141.0,25.83731842041016,-0.0477106422185897,-79.78277877914584,40.45897262543326,268.9739197690487,-0.0030860493425279,0.005646682344377,-0.8623380064964294,0.5062922835350037,0.0055492733484666,-0.0037457215350745,-0.0175451915001585,0.0030982478056102,0.0041198735125362,0.0038922040257602,-0.1255235397163778,0.0074404945521382,-9.810594077110292,14933.0
10.0,0.8000000119209291,140.0,25.831058502197266,-0.0318070948123931,-79.78277878615025,40.45897262288656,268.97217293572425,-0.003071874147281,0.0056304712779819,-0.8623274564743042,0.5063104033470154,0.0052793627120919,-0.0033046653090008,-0.0175220874670734,-0.0062647094018757,0.0005656740977428,-0.0053889243863523,-0.1246562423184514,0.0056330099876504,-9.811695692539216,14933.0
10.2,0.8000000119209291,140.0,25.83982276916504,-0.0397588685154914,-79.78277871204972,40.458972545386295,268.9429828722477,-0.0030642175115644,0.0056342096067965,-0.8623268008232117,0.5063114762306213,0.0030479741282586,-0.0022541638743966,-0.0173822209947271,-0.0007535299519076,-0.0047909184359014,0.0035777406301349,-0.1247267012670636,-5.784689274150877e-06,-9.812403205633164,14933.0
10.3,0.8000000119209291,138.0,25.83356285095215,-0.0397588685154914,-79.78277865570107,40.45897243265228,268.9154546160698,-0.0030408855527639,0.0056403167545795,-0.8623283505439758,0.5063089728355408,0.0083791258570802,-0.0016263279148693,-0.0163501614206588,-0.0015894704265519,0.0010076095350086,-0.0041083586402237,-0.1271483073569834,0.0070241870731115,-9.810825626850129,14933.0
10.5,0.8000000119209291,139.0,25.83356285095215,-0.0477106422185897,-79.78277866941544,40.45897242023467,268.91216548275946,-0.0030362214893102,0.0056557180359959,-0.8623169064521791,0.5063283443450928,0.0090097338888901,-0.0013087063374199,-0.016500212771003,-0.0054953102953732,-0.0008390443399548,-0.0065630846656858,-0.1229934769123792,-0.0053564892208669,-9.812921268939974,14933.0
10.6,0.8000000119209291,140.0,25.83856964111328,-0.055662415921688,-79.78277860175784,40.45897234790725,268.8858260412216,-0.0030385246500372,0.0056521957740187,-0.8623169660568237,0.506328284740448,0.006241838305305,-0.0042297540519208,-0.0129712827226963,0.0029352279379963,0.0032354143913835,0.0052787368185818,-0.1242196745797991,-0.0011054363902076,-9.812996113300324,14933.0
10.8,0.8000000119209291,143.0,25.83982276916504,-0.0397588685154914,-79.78277854205685,40.45897224094108,268.85637133312224,-0.0030379996169358,0.0056548481807112,-0.8623172044754028,0.5063278675079346,0.0091588456182029,-0.0029484634785161,-0.0136618157911015,-0.0025387951172888,0.00220409152098,-0.0029027822893112,-0.1249449485912919,-0.0036145836923969,-9.812117861509323,14933.0
10.9,0.8000000119209291,145.0,25.83606719970703,-0.055662415921688,-79.78277855064098,40.45897223479536,268.8549973864555,-0.0030379996169358,0.0056548481807112,-0.8623172044754028,0.5063278675079346,0.010091331024449,-0.0028585514578802,-0.0139001637604542,0.0039957864210009,0.0026252383831888,0.0034171203151345,-0.1234308851882815,-0.0043128725752467,-9.812651127576828,14933.0
11.1,0.8000000119209291,143.0,25.83606719970703,-0.0477106422185897,-79.78277850418282,40.45897216773014,268.8246122498512,-0.0030393279157578,0.0056470576673746,-0.8623175621032715,0.5063273906707764,0.0063428065326955,-0.008523793377543,-0.0145179651434188,0.0060969372279942,0.0009729390731081,0.0015731651801615,-0.126107713105157,0.002672706315061,-9.811379942893982,14933.0
11.19,0.8000000119209291,142.0,25.83606719970703,-0.0397588685154914,-79.78277851655744,40.45897216672826,268.8231778640747,-0.0030413020867854,0.0056452038697898,-0.8623176217079163,0.5063273310661316,0.0065613741362365,-0.0082599465000737,-0.0145094377532767,-0.0013989630388095,-0.0032125983852893,0.003141674445942,-0.1240967185981571,-0.0046170933841494,-9.813313032388686,14933.0
11.4,0.8000000119209291,142.0,25.83230972290039,-0.0477106422185897,-79.7827784221784,40.45897208850496,268.7920505900383,-0.0030468499753624,0.0056468537077307,-0.8623173832893372,0.5063276290893555,0.0038451426473062,-0.0057732439553398,-0.0153983353996658,0.0026273720432072,0.0011697452282533,0.0045790066942572,-0.1258847240544855,0.007874491000548,-9.810863049030305,14933.0
11.5,0.8000000119209291,143.0,25.83731842041016,-0.0318070948123931,-79.78277843034161,40.45897208820063,268.79050992918013,-0.0030467989854514,0.0056461975909769,-0.8623183369636536,0.5063259601593018,0.0036063387405382,-0.0054652040379195,-0.0155960251157032,-0.0044158813543617,-0.0031441026367247,-0.0014254334382712,-0.1245241500623524,0.0010006681614322,-9.810877082347869,14933.0
11.7,0.8999999761581421,145.0,25.834814071655277,-0.0477106422185897,-79.78277835583913,40.458971989265045,268.7563850183487,-0.0030482595320791,0.0056467331014573,-0.8623179793357849,0.5063266158103943,0.0058809645627477,-0.0046726293002191,-0.0195039714759721,0.002384178340435,-0.0017092050984501,0.0038424532394856,-0.1254480466805398,0.0024109097965992,-9.811151901483536,14933.0
11.8,0.8999999761581421,144.0,25.834814071655277,-0.0318070948123931,-79.78277826884397,40.458971897146704,268.7270394463539,-0.0030483505688607,0.0056485957466065,-0.8623179197311401,0.5063266158103943,0.0062520888772148,-0.0043618924870945,-0.0185624817477275,-0.0003521152539178,0.0026298807933926,-0.0055541209876537,-0.1244874587841332,0.0072555175423622,-9.81142438173294,14933.0
12.01,1.0,146.0,25.834814071655277,-0.0477106422185897,-79.78277828620266,40.45897189022024,268.7233001489639,-0.0030480993445962,0.0056476215831935,-0.8623189330101013,0.5063250064849854,0.0071916173846009,-0.0040298093248705,-0.0188275225327437,-0.0053757280111312,-0.0002649524540174,-0.0011515461374074,-0.1237002042867243,-0.0056312712404178,-9.812686210870742,14933.0
12.11,1.0,147.0,25.8260498046875,-0.0397588685154914,-79.78277817488797,40.45897179799991,268.6931446094513,-0.0030515550170093,0.0056506819091737,-0.862318754196167,0.5063252449035645,0.0064883684230939,-0.0014767986481713,-0.0179922817668561,0.0008865725249052,0.002663847990334,0.0061357696540653,-0.1251760871987789,0.0008395465352805,-9.812117861509323,14933.0
12.29,1.0,147.0,25.83230972290039,-0.0477106422185897,-79.7827780629475,40.45897171270308,268.66047285985945,-0.0030582845211029,0.0056487224064767,-0.8623188734054565,0.5063250064849854,0.0027197963703411,-0.0006135326140609,-0.0178066665582569,-0.001940859016031,-0.0003733155608642,-0.0055535193532705,-0.1240163376554846,-0.0041601154938689,-9.812708430290222,14933.0
12.4,1.0,149.0,25.8260498046875,-0.0636141896247863,-79.78277806560345,40.45897171062096,268.658678044796,-0.0030582845211029,0.0056487224064767,-0.8623188734054565,0.5063250064849854,0.0037292517760073,-0.0005363861789341,-0.0181141373191671,0.0038309616502374,0.0034540670458227,0.0035959940869361,-0.1226703908387571,-0.0050344778015278,-9.812554063796998,14933.0
12.6,1.100000023841858,149.0,25.83356285095215,-0.0477106422185897,-79.78277799929157,40.45897161020255,268.62786464881896,-0.00305284303613,0.0056462571956217,-0.8623188734054565,0.5063250660896301,0.0073135040009731,-0.0052315286652358,-0.0137298688713182,0.0031980683561414,0.0009234450408257,0.000958836171776,-0.1252493692561984,0.0039542897912906,-9.810753121376038,14933.0
12.7,1.0,148.0,25.83606719970703,-0.0397588685154914,-79.78277800883106,40.45897160693739,268.6264912981987,-0.0030549666844308,0.0056446506641805,-0.8623189330101013,0.5063249468803406,0.0074918797717206,-0.0049484250317205,-0.0139515919059096,-0.0007531035807915,-0.0002931237395387,0.0049144616350531,-0.1231146604567766,-0.0032183092081686,-9.811974020004271,14933.0
12.89,1.100000023841858,151.0,25.83606719970703,-0.0715659633278846,-79.78277789504841,40.45897149295728,268.59363745641707,-0.0030567070934921,0.0056503233499825,-0.8623185157775879,0.5063255429267883,0.0096145701411645,-0.0011517683612354,-0.0147757382054016,0.0065203891135752,0.000636680109892,0.0086647747084498,-0.1252097452338785,0.0078628194099292,-9.811418534517289,14933.0
13.0,1.2000000476837158,155.0,25.83731842041016,-0.0397588685154914,-79.78277790172531,40.458971486049045,268.592155506134,-0.0030565937049686,0.0056492807343602,-0.8623186349868774,0.5063254237174988,0.0093868663998997,-0.0007544633718275,-0.0148598234681354,-0.0023240249138325,-0.0001067119956132,-0.0031438255682587,-0.1252510777395218,0.0031374697387218,-9.811437245607378,14933.0
13.2,1.2999999523162842,155.0,25.82980537414551,-0.0477106422185897,-79.78277783502169,40.45897138810597,268.5620103378296,-0.0030557443387806,0.0056447791866958,-0.8623186945915222,0.506325364112854,0.0110953304048043,-0.0051618581844314,-0.011332186617441,0.0044532492756843,-0.0015576709993183,0.0017089124303311,-0.125158353690058,-0.0001590979413595,-9.812901388406754,14933.0
13.3,1.2999999523162842,155.0,25.83606719970703,-0.0397588685154914,-79.78277771150734,40.45897130601954,268.53263848018645,-0.0030621439218521,0.0056450553238391,-0.862318754196167,0.5063251852989197,0.0060243260743108,-0.0035425527389112,-0.0099651301400633,-0.0052432408556342,0.0027527513448148,-0.0070702489465475,-0.1255943275708705,0.0068056262604659,-9.811126173734666,14933.0
13.5,1.2999999523162842,154.0,25.83606719970703,-0.0477106422185897,-79.78277772641073,40.458971298686215,268.53061162424086,-0.0030619155149906,0.0056441272608935,-0.862318754196167,0.5063252449035645,0.0067787315205018,-0.0030378013613147,-0.0103350818682331,-0.0048498213291168,0.0015301696257665,-0.0032914725597947,-0.1234953598771244,-0.0052644521050388,-9.811906192302702,14933.0
13.6,1.2000000476837158,153.0,25.83731842041016,-0.0397588685154914,-79.7827776559946,40.45897119968436,268.5027109284401,-0.0030584819614887,0.005642925389111,-0.862318754196167,0.5063253045082092,0.0093697563261283,-0.006876251066334,-0.008490892126495,0.0050082574598491,0.0008810990257188,0.0058566718362271,-0.124567967634648,-0.0007138548104558,-9.812816019058229,14933.0
13.8,1.2000000476837158,157.0,25.83606719970703,-0.0318070948123931,-79.78277759398902,40.4589711013054,268.4750260014534,-0.0030589855741709,0.0056411125697195,-0.8623192310333252,0.5063244700431824,0.0102431285048335,-0.0087092648627576,-0.0074259134582294,-0.0006864407332614,-0.0003528495726641,-0.0043923128396272,-0.1251949718780815,-0.0037565928034018,-9.812983249425889,14933.0
13.89,1.2000000476837158,157.0,25.827302932739247,-0.0795177370309829,-79.78277760903188,40.45897109677427,268.474281897068,-0.0030589855741709,0.0056411125697195,-0.8623192310333252,0.5063244700431824,0.0111928688588579,-0.0085069691808931,-0.0076905717875935,0.0059676459059119,0.0006054057157598,0.0066984635777771,-0.1228623622376471,-0.0055996511655393,-9.812801985740665,14933.0
14.1,1.2000000476837158,155.0,25.834814071655277,-0.0318070948123931,-79.78277751122846,40.45897098009742,268.44873689603804,-0.0030620337929576,0.0056463908404111,-0.8623190522193909,0.5063247084617615,0.0117344970013047,-0.0035280512001396,-0.0045547493005437,0.0019953974988311,0.0039997082203626,0.0033692060969769,-0.1253542354144156,0.0035493786726146,-9.812665160894396,14933.0
14.2,1.2999999523162842,153.0,25.83230972290039,-0.0397588685154914,-79.78277752143799,40.45897097263687,268.44827895355223,-0.0030638605821877,0.0056447866372764,-0.8623191118240356,0.5063245892524719,0.0117912270139713,-0.0033766691674033,-0.0047247438801641,-0.000534999766387,-0.0034833981189876,-0.0014446704881265,-0.125819417964667,-0.0035303255432518,-9.812828882932664,14933.0
14.39,1.2999999523162842,153.0,25.834814071655277,-0.0079517737030982,-79.78277746457846,40.45897090979845,268.4220063586235,-0.0030660857446491,0.005636996589601,-0.86231929063797,0.5063243508338928,0.0073238364324033,-0.0095606689726226,-0.0050810255058542,0.0027016929816454,0.0015555758727714,0.0064305434934794,-0.1260582767240703,0.006231486214092,-9.812075761556626,14933.0
14.5,1.100000023841858,147.0,25.834814071655277,-0.055662415921688,-79.78277747853245,40.45897090829898,268.42150633525847,-0.0030659134499728,0.0056363749317824,-0.8623194694519043,0.5063241124153137,0.0071464654313858,-0.0092339036115809,-0.0051913038308341,-0.0033353825565427,0.0001213055729749,-0.0028315242379903,-0.1257696161326021,0.0038734625987126,-9.811078226566314,14933.0
14.69,1.100000023841858,150.0,25.83356285095215,-0.0636141896247863,-79.7827773718301,40.45897082271928,268.3955772418976,-0.0030739929061383,0.0056369635276496,-0.86231929063797,0.5063242316246033,0.0037868410989935,-0.0062033058869522,-0.005781148766557,0.000262252491666,-0.0016694085206836,0.0028858331497758,-0.1258120267186314,0.0006489718443481,-9.811786909103397,14933.0
14.8,1.0,151.0,25.83356285095215,-0.0477106422185897,-79.78277727616052,40.458970713694335,268.3734548587799,-0.0030746159609407,0.0056434432044625,-0.862319827079773,0.5063232779502869,0.0057977177000419,-0.0021098778770273,-0.0030818143020041,0.0006986408843658,0.0019881827756762,-0.0063054761849343,-0.1255619668867439,0.0081489549635443,-9.811522614955903,14933.0
15.0,1.0,150.0,25.828554153442383,-0.0874695107340812,-79.7827772877667,40.45897070529914,268.37280063819884,-0.0030745279509574,0.0056426059454679,-0.8623194098472595,0.5063240528106691,0.0066314298912325,-0.00172452892834,-0.00353407482381,-0.0026637769769877,-0.0007880037883296,-0.0027464772574603,-0.1240538694709539,-0.0041993580767302,-9.812963368892673,14933.0
15.1,1.100000023841858,150.0,25.834814071655277,-0.055662415921688,-79.78277719013968,40.458970610047935,268.3519188661575,-0.0030771750025451,0.0056450208649039,-0.8623194098472595,0.5063239932060242,0.0060437578420937,0.0001301066307329,-0.000940894976392,0.0033850942272692,0.0025255947839468,-0.0008239024318754,-0.1256950641330331,0.0023697012016782,-9.812809002399446,14933.0
15.3,1.2000000476837158,154.0,25.823545455932607,-0.055662415921688,-79.78277712620513,40.45897051174414,268.3296180267334,-0.0030777417123317,0.0056429123505949,-0.8623195290565491,0.5063238143920898,0.0064881227052843,-0.0015706548430324,-0.0021177774233472,-0.0014164050808176,-0.0027792765758931,-0.0044500278308987,-0.1232799904793501,-0.0036094199842773,-9.812832391262054,14933.0
15.4,1.100000023841858,149.0,25.834814071655277,-0.055662415921688,-79.7827771318074,40.45897050690893,268.32938807201384,-0.0030777417123317,0.0056429123505949,-0.8623195290565491,0.5063238143920898,0.0075947266689475,-0.0014259008214034,-0.0024766663180112,0.0060800472274422,0.000888692040462,0.0020768949761986,-0.123627223726362,-0.0034180652839131,-9.812998452186584,14933.0
15.6,1.0,146.0,25.82980537414551,-0.0954212844371795,-79.78277704183692,40.45897042370228,268.3099772233963,-0.0030823033303022,0.0056411242112517,-0.8623195886611938,0.5063237547874451,0.0033863736474673,-0.0009091606050451,-0.0001687530315736,0.0030008135363459,7.732336962362751e-05,-0.0041373912245035,-0.1246612946782261,-0.0006960202316986,-9.811929581165314,14933.0
15.7,1.0,148.0,25.831058502197266,-0.055662415921688,-79.78277704465853,40.45897042132762,268.3099531431198,-0.0030838302336633,0.0056397216394543,-0.8623195886611938,0.5063236951828003,0.0041531002455632,-0.0007379098851243,-0.0003811198360135,0.0063171642832458,-0.0024153958074748,0.0055968249216675,-0.1229416102822869,-0.0043376193166477,-9.812438288927078,14933.0
15.9,1.0,149.0,25.81352996826172,0.2703603208065033,-79.7827770040126,40.45897035221692,268.29352109622954,-0.0030828611925244,0.0056344969198107,-0.8623208403587341,0.5063216686248779,0.0024915504828188,-0.0060236321600135,0.0030610726394049,0.0001808399974834,0.0027354115154594,-0.0027048336341977,-0.1246941395848989,0.0027259045571554,-9.811502734422684,14933.0
16.0,1.100000023841858,148.0,25.763446807861328,0.7077078819274902,-79.78277701123801,40.45897035306581,268.2938226957321,-0.0030743980314582,0.0056407288648188,-0.8621662855148315,0.5065847039222717,0.0048004392405991,-0.0052822685702515,0.0026697681159848,0.002347189001739,0.0022916046436876,0.0085790958255529,-0.1186950607784092,0.0240414986712858,-9.811895667314529,14933.0
16.2,1.100000023841858,147.0,25.80977249145508,0.2703603208065033,-79.78277696040594,40.45897023333636,268.2766953010559,-0.0030740725342184,0.0056761093437671,-0.8622215390205383,0.5064902901649475,0.0078170578476644,-0.0042340557908537,0.0036292574618903,0.007296395022422,0.000427771883551,0.0013078651390969,-0.1270604620780795,0.0321133400523103,-9.809707639217375,14933.0
16.29,1.100000023841858,149.0,25.81728553771973,0.2703603208065033,-79.7827769466241,40.45897016994506,268.2599981327057,-0.0030916607938706,0.0056710625067353,-0.8622828722000122,0.5063858032226562,0.0058616822242034,-0.0126586813707785,0.0042647340203217,0.0035694995895028,-0.0016620049718767,0.001097916974686,-0.124808900328353,-0.0200219102133996,-9.812882677316669,14933.0
16.5,1.100000023841858,147.0,25.81352996826172,0.2544567584991455,-79.78277697919958,40.45897017140172,268.26086442661284,-0.0030748643912374,0.0056485519744455,-0.8622617125511169,0.506422221660614,0.0071968894232136,-0.0114305638223378,0.00404292326348,0.0033993285614997,-0.00050147093134,0.0048622991889715,-0.1236043830402195,0.0117734338121954,-9.814322261810306,14933.0
16.6,1.2000000476837158,146.0,25.81352996826172,0.278312087059021,-79.78277691641273,40.45897007307672,268.24762385082244,-0.0030722159426659,0.0056670606136322,-0.8622046113014221,0.5065191984176636,0.0074000126224936,-0.009502649136915,0.0079200464089153,0.0001254026428796,0.0029215938411653,0.0001381835900247,-0.115145051702857,-0.0047910526179475,-9.814888272285463,14933.0
16.8,1.2000000476837158,143.0,25.807270050048828,0.3498780429363251,-79.7827768780772,40.45896999160947,268.23593096923827,-0.0030592854600399,0.0056594242341816,-0.8622031807899475,0.5065218806266785,0.00640336094997,-0.0104863410039979,0.0097431204731381,0.0043525914661586,0.0047889743000268,0.0057701249606907,-0.1300419482029974,-0.0034780948897241,-9.809021176099778,14933.0
16.9,1.2000000476837158,145.0,25.802261352539062,0.3657816052436829,-79.78277689117652,40.45896999068569,268.23690455150603,-0.0030667891260236,0.0056783217005431,-0.8622377514839172,0.5064626932144165,0.0063918448176159,-0.0088819730160549,0.0095711049590533,-0.005131225567311,-0.0006523276679217,-0.0085103148594498,-0.1285597429890185,0.0034362190612591,-9.811344859600068,14933.0
17.1,1.2000000476837158,144.0,24.734262466430664,13.040908813476562,-79.78277685789374,40.45896989490685,268.22655348968505,-0.0030578894075006,0.0056656384840607,-0.8623042702674866,0.5063496828079224,0.0070621565266341,-0.0061458169015727,0.0136922892709172,-0.0158463381230831,-0.00502898870036,0.0084880786016583,-0.1237395085394382,0.002850697786489,-9.813440501689913,14933.0
17.2,1.2000000476837158,149.0,25.749675750732425,1.248428463935852,-79.78277686863646,40.45896989104212,268.2278019685745,-0.0029705751221627,0.0059134047478437,-0.8623216152191162,0.5063178539276123,0.0088385193815125,-0.0093247067195733,0.0115331213884226,-0.0051979483105242,-0.0106308674439787,-0.0046960022300481,-0.178647677488625,0.0692351492168381,-9.779864035248757,14933.0
17.39,1.2999999523162842,152.0,25.801008224487305,0.1828908026218414,-79.78277680949238,40.45896978700751,268.21869521331786,-0.0030072482768446,0.0058896481059491,-0.8622642755508423,0.5064156651496887,0.0069242857934799,-0.0043095145857236,0.0123235884017278,-0.0045925443992018,-0.0203400049358606,-0.0063084573484957,-0.1466993042919785,0.0305227420781739,-9.780898992419244,14933.0
17.49,1.2000000476837158,153.0,25.24885368347168,6.592020511627197,-79.78277681801782,40.45896978235479,268.21997182559966,-0.0029418319463729,0.0058038574643433,-0.8623114824295044,0.5063364505767822,0.0141380952975484,-3.855991425270877e-05,0.014502099510172,0.0267289001494646,0.0140026835724711,0.0057514524087309,-0.0692176669556647,-0.0186322897206991,-9.829508650302888,14933.0
17.7,1.2999999523162842,158.0,25.797252655029297,0.2862638533115387,-79.78277678710567,40.45896965520989,268.2116730709076,-0.0029625103343278,0.0059427488595247,-0.8622850179672241,0.5063798427581787,0.0149806282636563,-0.0011535744097059,0.0127551876934551,0.0255926884710788,-0.0095638325437903,0.0211799666285514,-0.1615925188735127,-0.011526520284824,-9.812124878168104,14933.0
17.79,1.5,161.0,25.807270050048828,0.2146978974342346,-79.78277673922942,40.45896957110215,268.2030460138321,-0.0029867407865822,0.0059163835830986,-0.8622629046440125,0.5064176917076111,0.0101135530314487,-0.0021252469642829,0.0140507480378424,0.011478534899652,-0.0051352116279304,0.0272259376943111,-0.1402451019734144,-0.0086721014650538,-9.808408972620963,14933.0
18.0,1.600000023841858,159.0,25.641998291015625,3.188661336898804,-79.78277675327601,40.45896955837991,268.20582192134856,-0.0029693804681301,0.0057578734122216,-0.8622188568115234,0.5064946413040161,0.009114392390046,-0.000926643894704,0.0135854756738971,0.0076799215748906,0.002131929853931,0.0042203133925795,-0.1330420997366309,-0.0141449468513019,-9.82904087305069,14933.0
18.1,1.5,160.0,25.5581111907959,4.771064281463623,-79.7827767182243,40.45896947451257,268.1979966659546,-0.0029614618979394,0.0058006485924124,-0.8622541427612305,0.5064340233802795,0.0053448413627715,-0.0044131641927992,0.0150419750507352,-0.0122444946318864,-0.0127187557518482,-0.0120877036824822,-0.1056416908744722,0.0048001272225519,-9.827627016305923,14933.0
18.29,1.600000023841858,158.0,25.426645278930664,7.1486449241638175,-79.78277669908348,40.45896936876439,268.1928049821853,-0.0029286600183695,0.0060063148848712,-0.8623000383377075,0.5063537955284119,0.0141946306349178,-0.0054226864889826,0.0151412077375877,0.0610623396933078,0.0380026064813137,0.0239076800644397,-0.1311766095366329,0.0410339002171531,-9.80249509871006,14933.0
18.4,1.5,158.0,25.33274269104004,8.21418285369873,-79.78277670790355,40.45896936291536,268.1943980951309,-0.0029328423552215,0.0061094211414456,-0.8623467683792114,0.5062729120254517,0.0075325361720481,-0.0027644350242992,0.0165082247210147,-0.0618365406990051,-0.0130283059552311,-0.0483266301453113,-0.1676335697248578,0.0027023089863359,-9.80532573580742,14933.0
18.6,1.600000023841858,159.0,25.13366508483887,11.24380874633789,-79.78277670257445,40.4589692837744,268.19004397583006,-0.0028714153449982,0.0061105582863092,-0.8623780012130737,0.5062199234962463,-0.0008675336339266,-0.0052058590005583,0.017211225808492,-0.0515450462698936,0.0249439738690853,-0.0036376565694808,-0.1509662185516208,-0.0393577090557664,-9.806031494736672,14933.0
18.7,1.7999999523162842,160.0,25.042266845703125,12.889825820922852,-79.78277671246984,40.45896928211807,268.1918100614548,-0.0027246803510934,0.0057607074268162,-0.8624510169029236,0.5061004757881165,-0.0029238577146062,-0.0038605411143752,0.0196312250915858,-0.0194954816251993,-0.1031888648867607,0.1247676014900207,-0.123733606506139,-0.0677187971770763,-9.825099849700928,14933.0
18.89,1.8999999761581416,161.0,24.82440948486328,16.722579956054688,-79.78277672313264,40.45896916198858,268.1894456644058,-0.0017404297832399,0.0049964278005063,-0.8626331686973572,0.5058024525642395,0.0025189519035299,-0.0090720104458283,0.0239586627926838,-0.0471915788948535,0.0044262586161494,0.0085359616205096,-0.1217924222722649,-0.0423118320386856,-9.831972666978835,14933.0
18.99,1.8999999761581416,160.0,24.71172523498535,18.662813186645508,-79.78277674139399,40.458969162539375,268.19201426696776,-0.0008677968871779,0.003241708735004,-0.8626295924186707,0.5058251619338989,0.0078024976873861,-0.0159192562467894,0.029896103399127,-0.0203519333153963,0.064145341515541,-0.0419949442148208,0.0022680938383564,0.1300452555343508,-9.884401141405109,14933.0
19.2,2.0999999046325684,156.0,24.48510360717773,22.26496696472168,-79.78277670650725,40.45896901560111,268.19204073143004,0.0023459002841264,0.002832124242559,-0.8630563616752625,0.5050942301750183,0.0197451239329564,-0.006924618566666,0.0294663226853159,-0.0286309663206338,0.0674540400505065,-0.0353858061134815,0.1787976951152086,0.0669548036344349,-9.857444307804109,14933.0
19.3,2.5999999046325684,150.0,24.34988212585449,24.3801383972168,-79.78277674120301,40.45896898511887,268.19118135166167,0.0040244660340249,0.0012900681467726,-0.8626422286033629,0.5057969093322754,0.0064800772490664,-0.0189806897401531,0.0454814771288201,-0.0190007966011762,0.0915857106447219,0.0202320609241724,0.0167358229821547,-0.0878788821212947,-9.93894864678383,14933.0
19.5,2.5999999046325684,153.0,24.07192611694336,28.39578437805176,-79.78277675125901,40.4589689928682,268.2147644062042,0.0003077023138757,0.0004100808000657,-0.8603528738021851,0.5096986889839172,-0.0211042492410934,-0.0077780868034764,0.2227370836656262,-0.1223059669137001,-0.0389836058020591,-0.0680437609553337,-0.0258298421697691,-0.1638731339760124,-10.490273255109788,14933.0
19.6,2.5999999046325684,150.0,24.56273078918457,19.17967796325684,-79.7827768554595,40.45896881957344,268.2187723417282,-0.0044831242412328,-0.0021565754432231,-0.8593593239784241,0.5113481879234314,-0.0348885990365029,-0.0056754784369044,0.2995435677716692,-0.0961890965700149,0.0523417778313159,-0.0933082476258278,-0.0569109179684892,-0.0894331268593669,-10.808403886556627,14933.0
19.8,2.700000047683716,155.0,24.45630645751953,21.0483455657959,-79.7827768070302,40.458968764315216,268.2602283258438,-0.0022990449797362,0.0010018605971708,-0.8590924143791199,0.5118144154548645,-0.0609324865590842,0.0158061061412841,0.2977445966032553,0.0229868609458208,0.0304632447659969,-0.0177368000149726,0.0081804899568669,0.2631990370899439,-10.32941284418106,14933.0
19.9,2.799999952316284,158.0,24.41999626159668,21.756053924560547,-79.78277674148815,40.4589688075093,268.2889310617447,0.0018471599323675,0.0026651883963495,-0.8594375252723694,0.5112305879592896,-0.0857154115979411,0.0372205696002779,0.2788270103452592,-0.0185005515813827,0.0040338016115128,0.0823095068335533,0.0930276844091713,-0.0201639130432158,-9.694823300242424,14933.0
20.1,2.900000095367432,161.0,24.43251800537109,22.75002479553223,-79.7827765922968,40.45896894771063,268.3102077741624,0.001591233536601,0.001368025667034,-0.8601117730140686,0.5101014971733093,-0.0995310813469271,0.0399796724487468,0.1925514814437274,-0.0166969820857048,-0.059657022356987,0.0593827702105045,0.0842027193680405,-0.2372568964026868,-9.608180428147316,14933.0
20.2,3.0999999046325684,164.0,24.272254943847656,25.39796638488769,-79.78277648923667,40.45896901141037,268.32864849758147,0.0022373730316758,-0.0002061299601336,-0.8601454496383667,0.5100439786911011,-0.0963760982844895,0.048219728531254,0.1722701432884024,0.1920405775308609,0.0656483396887779,0.0890324190258979,0.1442947830352932,-0.2455392946489155,-9.61615369141102,14933.0
20.4,3.0,165.0,24.218416213989247,23.79170799255371,-79.78277627230041,40.45896906788688,268.3589592475891,0.0098394034430384,0.0007035695016384,-0.86115562915802,0.5082457661628723,-0.125394150892886,0.0492981962364636,0.1856468669428084,-0.0142314722761511,0.08220786601305,0.0106768123805522,0.0992218683566898,0.071948892250657,-9.784158230423929,14933.0
20.5,3.0,161.0,24.31858062744141,24.3801383972168,-79.78277615723913,40.458969151349095,268.3778938550949,0.0100825102999806,-0.0003076010325457,-0.8617143034934998,0.5072936415672302,-0.1401009975000522,0.0417473736091116,0.1837789842691422,-0.0332425683736801,-0.0664735436439514,0.0070381592959165,0.095779968816787,-0.1290698851458728,-9.841731669902805,14933.0
20.7,2.900000095367432,165.0,24.2221736907959,25.596759796142567,-79.78277574475035,40.45896935824849,268.4070203204155,0.0151443351060152,0.0014145183376967,-0.8619551062583923,0.5067564845085144,-0.1467242009970349,0.02254736257915,0.1758853878536092,-0.0246608089655637,0.0356472730636596,-0.0510740578174591,-0.0528201739210635,-0.2570023954845965,-9.761633001565931,14933.0
20.8,2.5999999046325684,173.0,24.18836784362793,24.70616149902344,-79.78277566044072,40.45896927136538,268.434153069973,0.017562074586749,0.0005772476433776,-0.8616414666175842,0.5072133541107178,-0.1140618686399067,0.0132765667491369,0.2098144940695901,0.1463613063097,0.1644472926855087,-0.1073254495859146,0.0188533738581463,0.1662698163092136,-10.051984680891035,14933.0
20.9,2.400000095367432,176.0,24.17459487915039,25.42182159423828,-79.78277559182304,40.45896934483968,268.4570641417503,0.0202035568654537,0.0011152152437716,-0.8612158894538879,0.5078363418579102,-0.0914507813462756,0.0029995122048141,0.2465964071628179,0.0306591801345348,0.0431349091231823,0.060084793716669,-0.0947810816578567,-0.2317072857543826,-10.157836825847626,14933.0
21.1,2.299999952316284,177.0,24.12576484680176,25.62856674194336,-79.78277542526999,40.45896961668056,268.5046230454445,0.02229212410748,0.0053019989281892,-0.8607308864593506,0.508544385433197,-0.112925152545172,-0.0349874584073916,0.3054596459558333,-0.1441799402236938,-0.0149795087054371,-0.088923767209053,-0.0221082721324637,0.1429673280380666,-10.087256255149844,14933.0
21.2,2.400000095367432,179.0,24.276010513305664,23.91893577575684,-79.78277542252594,40.4589696918324,268.5368329782486,0.0207060594111681,0.0065244305878877,-0.8600215911865234,0.5097956657409668,-0.0603459646686219,-0.0399102281537115,0.3384653728917673,0.0724581405520439,-0.0029429802671074,0.0916459858417511,-0.0574195480719208,-0.6279780972003937,-10.133057495355605,14933.0
21.4,2.5,178.0,24.20464515686035,24.348331451416016,-79.78277512806919,40.45896965647894,268.6001416940689,0.0190557092428207,0.0050225853919982,-0.8590035438537598,0.5115902423858643,-0.0484253874045423,-0.0140111610163277,0.3289927825082635,-0.0999039709568023,-0.01355507876724,-0.0431241057813167,0.0181045328266918,-0.1169284250680357,-9.761153529882431,14933.0
21.6,2.5,176.0,24.31732940673828,22.17749786376953,-79.78277497776155,40.45896956731107,268.6699370045662,0.021589582785964,0.0081500187516212,-0.8590758442878723,0.511327862739563,-0.0161404624717943,0.0033763399746765,0.3009209321985434,0.0573324933648109,-0.0833585485816001,-0.027912363409996,0.0562928946828469,-0.5843889317661524,-9.797819080352784,14933.0
21.7,2.900000095367432,176.0,24.277263641357425,22.583038330078125,-79.78277498374058,40.4589695626609,268.6988899607658,0.0237291119992733,0.010615075007081,-0.858676552772522,0.511858344078064,-0.0142642123941431,-0.0008801885443371,0.27737408667864,-0.1233408525586128,0.0619994401931762,-0.1306955218315124,0.0167921024328097,-0.0497450044378638,-9.554927496314049,14933.0
21.8,3.0999999046325684,173.0,24.98842811584473,12.587657928466797,-79.78277499468578,40.45896944710329,268.7417024273872,0.0233203340321779,0.0093887550756335,-0.8581916093826294,0.5127137303352356,0.0229721781557792,-0.0150813342995108,0.2329337653477793,0.0189851578325033,0.039068728685379,0.1764290332794189,-0.0012837881734594,-0.8153791661560535,-9.25065535068512,14933.0
22.0,3.400000095367432,175.0,23.99930763244629,26.376033782958984,-79.78277502144192,40.45896942765636,268.76018952322005,0.0075714737176895,0.0002145283069694,-0.8580507040023804,0.5135090947151184,-0.0114120161217107,0.0132649281732256,0.0260364879703033,-0.3484138250350952,-0.1626742780208587,0.0146222673356533,0.1470500732772052,-0.6512484806030989,-9.310929619073866,14933.0
22.2,3.5999999046325684,181.0,23.81275177001953,30.70975112915039,-79.78277470748236,40.45896946193293,268.8096257944107,0.0020170269999653,0.0007501007057726,-0.8610207438468933,0.508565366268158,-0.0423765651261184,0.0457169854719809,0.2183550380389265,-0.1487854868173599,0.0281554367393255,-0.1685890853404998,0.2199263156577945,-0.0414911479130387,-10.16282450079918,14933.0
22.3,3.799999952316284,184.0,23.83153343200684,30.26445198059082,-79.78277432126748,40.458969404128325,268.87758826208113,0.006834193598479,0.0055320896208286,-0.8633961081504822,0.5044501423835754,-0.0617162324111441,0.0724312593627093,0.4004215274751621,0.1084724739193916,-0.0773105397820472,-0.0114750172942876,0.1679962067306041,-0.1418747392483055,-11.063274661302566,14933.0
22.39,3.799999952316284,187.0,23.81024742126465,30.87673759460449,-79.78277419264458,40.45896941643455,268.925639023304,0.0115720219910144,0.0103461546823382,-0.8654967546463013,0.5006740093231201,-0.0984955396881145,0.0956096458112642,0.5684147653552065,-0.0058736302889883,-0.0604647323489189,0.1294957548379898,-0.0463029038999229,-0.3438878356665373,-11.463408983945849,14933.0
22.6,4.0,194.0,23.54230880737305,33.508773803710945,-79.78277385810148,40.45896940620742,269.07836308074,0.0240249279886484,0.0028344721067696,-0.8689238429069519,0.4943542182445526,-0.1209903804565575,0.1234016224593424,0.9981499572387692,0.0713614001870155,0.2374942451715469,-0.1274738311767578,0.2418228957429528,-0.2899968812428415,-12.111336611509325,14934.0
22.7,4.199999809265137,195.0,23.69505882263184,32.84082794189453,-79.78277367643028,40.45896941444683,269.1905969728232,0.0297963172197341,8.137256372720002e-05,-0.8695040345191956,0.4930263757705689,-0.1406428546537508,0.1541596799861531,1.234079706663057,0.0684462189674377,0.033456090837717,-0.0112602682784199,0.4267997456341982,-0.4765690891072154,-12.246931203603744,14934.0
22.9,4.099999904632568,205.0,23.66501045227051,32.944198608398445,-79.78277326656453,40.45896931724448,269.4838075016141,0.0305069461464881,-0.0085047427564859,-0.8682011961936951,0.4952007532119751,-0.1576722321741673,0.1645033000269883,1.6748278189854675,-0.091500237584114,0.0510753728449344,-0.0569433644413948,0.3566933110356331,-0.4808617128431797,-12.121904869079591,14934.0
23.0,4.099999904632568,205.0,23.49222755432129,34.03359222412109,-79.78277313127992,40.45896932693395,269.6616294879913,0.0279107633978128,-0.0093782292678952,-0.8665130138397217,0.4982854425907135,-0.1493582508550422,0.1698981452388499,1.862128900348996,-0.0687912926077842,-0.0564445108175277,-0.2172933220863342,0.2803230101242661,-0.317565826959908,-11.775308822393418,14934.0
23.2,4.199999809265137,207.0,23.394567489624023,36.41912460327149,-79.78277286694157,40.45896922163706,270.0713305373192,0.027286659926176,-0.0007834389107301,-0.8630896806716919,0.5043125748634338,-0.1255556901031908,0.11883241808221,2.2497484983541383,0.0633832067251205,-0.0872588008642196,-0.102288655936718,0.2002035841718316,-0.5898483308404684,-11.8894406247139,14935.0
23.29,3.900000095367432,202.0,23.46468162536621,34.66178131103516,-79.78277272089234,40.45896912572819,270.295914103508,0.0284595899283886,0.0013842264888808,-0.862369179725647,0.5054776668548584,-0.1294367480307216,0.0971599762912084,2.437678142951917,0.0131908385083079,-0.0344465710222721,-0.0031219555530697,0.1693481195345521,-0.5129373086616397,-11.898303834199906,14935.0
23.5,3.900000095367432,202.0,23.73011779785156,28.992168426513672,-79.78277269311823,40.45896911764935,270.82215266418456,0.0237000454217195,0.005245663691312,-0.8642246723175049,0.5025202631950378,-0.1257129843168251,0.0674823234356691,2.794558005619415,0.0140365017578005,-0.0677123069763183,0.0534599237143993,0.2470278678461909,-0.4601332968100906,-11.606912519931791,14935.0
23.6,3.799999952316284,199.0,23.732622146606445,29.71577835083008,-79.78277256978748,40.45896888339093,271.1101990242004,0.0203421525657176,0.0043073999695479,-0.8660081028938293,0.4995976388454437,-0.1077543985976469,0.0542306038257233,2.8873142905201927,-0.153995469212532,-0.0547465160489082,0.1339234709739685,-0.0255730900168418,-0.3506098678708077,-10.914769417047504,14936.0
23.8,3.700000047683716,193.0,23.556081771850582,33.84275054931641,-79.78277252815266,40.45896864279983,271.70992331695555,0.0162600148469209,0.0026976021472364,-0.8696115612983704,0.4934614896774292,-0.0345778685179004,0.0470097704038974,2.976519079078483,-0.0155706740915775,-0.0324617251753807,-0.0154699608683586,0.0555792739894241,-0.1417096924502402,-10.276632367372514,14936.0
24.0,3.700000047683716,192.0,23.795223236083984,29.604454040527344,-79.78277259400336,40.45896854921378,272.3142743606567,0.0128916865214705,-0.002601301530376,-0.872139573097229,0.4890805184841156,-0.0147824989305684,0.0348524350639919,3.06266985659281,0.0632298067212104,0.0786256939172744,0.0261070746928453,0.0911982276756316,-0.3002784607931971,-10.308173418045042,14937.0
24.1,3.900000095367432,187.0,23.59990310668945,31.66396331787109,-79.7827725113129,40.45896833863015,272.6173429985046,0.0123876873403787,-0.0072471923194825,-0.8719397783279419,0.4894028902053833,-0.0054803343277138,0.0473299058082458,3.0626781372149514,0.0164298694580793,0.0888696461915969,-0.0066453358158469,0.0708212658483535,-0.2933169302903116,-10.06486726641655,14937.0
24.19,3.799999952316284,187.0,23.77644348144531,30.526859283447266,-79.78277255748172,40.45896830707307,272.9254954357147,0.0138213541358709,-0.0103432461619377,-0.871113121509552,0.4907790422439575,0.0027328031441051,0.0574326667535618,3.096807896745746,0.0757949352264404,0.0442551262676715,-0.0622340589761734,0.2137670414149761,-0.0730388680659234,-10.083202965259554,14937.0
24.4,3.799999952316284,188.0,23.692556381225582,29.85095977783203,-79.78277257134611,40.458968104429886,273.56573538970946,0.0134390201419591,-0.0072837555781006,-0.8695428371429443,0.4936209321022034,-0.0086973071860151,0.0774194604771615,3.1242685039930373,0.0086266808211803,-0.0965227708220482,0.011178646236658,0.3223822881281376,-0.3438585264980793,-9.94903041601181,14938.0
24.5,3.799999952316284,190.0,23.89037895202637,25.81941032409668,-79.78277262470381,40.45896809429724,273.8782496948242,0.010803697630763,-0.0043959524482488,-0.8691731095314026,0.4943704903125763,-0.0188294932743554,0.0470965933797354,3.1215858482412013,0.0038043167442083,-0.0242085680365562,-0.0271213520318269,0.1138318584300577,-0.2947430479153991,-9.806500441432,14938.0
24.7,3.900000095367432,194.0,23.81400489807129,27.25072860717773,-79.78277264541958,40.458967882643385,274.5302510757446,0.0089597217738628,-0.0083782635629177,-0.8699131608009338,0.4930525124073029,-0.0283287735694281,0.0256427115136843,3.0271176777686466,-0.1046848967671394,0.0885389000177383,0.0086953863501548,0.1777354204840958,-0.2390811911411584,-9.371103315353396,14939.0
24.9,4.0,196.0,23.855321884155277,27.84711265563965,-79.78277270261924,40.458967814685934,275.1388788719177,0.0118068447336554,-0.0082333320751786,-0.872096061706543,0.4891230762004852,-0.0456530333247415,0.0388218951964646,2.949249346399136,0.1751260012388229,-0.02636712603271,0.2113940864801406,0.183543478064239,-0.3793836506456137,-9.416998695731165,14940.0
25.0,4.099999904632568,198.0,23.64873313903809,30.47914886474609,-79.78277271600754,40.45896786083119,275.43248372268675,0.0156226502731442,-0.0042757955379784,-0.8726722002029419,0.4880380034446716,-0.0706577102711539,0.0377813238178678,2.9233441834249483,0.2330604791641236,-0.0011984814191237,0.0026373928412795,0.2535127954557538,-0.4860144985467196,-9.619093086719513,14940.0
25.1,4.099999904632568,200.0,23.74639320373535,28.67409706115723,-79.78277286294087,40.458967923150354,275.6659331817627,0.0200858823955059,-0.0021315545309335,-0.8728495240211487,0.4875712394714356,-0.1215502678013753,0.0099820080804892,2.8772555202515258,0.0577343255281448,0.0266145579516887,0.0259710066020488,0.1815138364210725,-0.519916947260499,-9.752573325634003,14940.0
25.3,4.099999904632568,205.0,23.796476364135746,27.33024787902832,-79.78277299383355,40.458968272374,276.1061501998901,0.0247422512620687,0.0009730943129397,-0.8719189167022705,0.4890239238739014,-0.1648200635987447,-0.015944043789383,2.7644342920969547,0.0800658836960792,0.036163542419672,-0.0874036252498626,0.3171184784173965,-0.2740204790979624,-9.662479426860813,14941.0
25.49,4.0,204.0,23.587383270263672,31.60830116271973,-79.78277303971134,40.45896835470307,276.38165574264525,0.0264267101883888,0.0021953638643026,-0.8710808753967285,0.490423321723938,-0.1753534673927828,-0.0166974941533574,2.7334849305217817,0.0311815179884433,0.0387533716857433,0.0202722158282995,0.1891322650574148,-0.216628851480782,-9.45623234331608,14941.0
25.6,4.0,206.0,23.57736778259277,32.952152252197266,-79.78277327845693,40.45896861379307,277.0399904747009,0.0219912584871053,0.0008366890833713,-0.869063675403595,0.4942106604576111,-0.1723711974208331,-0.0276917510756705,2.7160246710839004,-0.056056410074234,-0.000680698081851,-0.041779413819313,0.2386333492398262,-0.2981497088447213,-9.826734731197355,14942.0
25.8,4.0,208.0,23.844053268432607,26.43169593811035,-79.78277316549759,40.45896848007239,277.7317367095947,0.0177513305097818,0.0024542983155697,-0.8685534000396729,0.4952715933322906,-0.1117485834162528,-0.0104135623381539,2.8323253865510307,0.0469338931143283,-0.0365141779184341,0.0417585186660289,0.2018824659660458,-0.1894243152067064,-10.243462282419204,14942.0
25.9,4.099999904632568,212.0,23.63871765136719,30.35192108154297,-79.78277320603142,40.458968514880034,278.0147986907959,0.0189057365059852,0.0042071077041327,-0.868823766708374,0.4947425425052643,-0.1148461834710956,-0.0057988080724138,2.821750820064912,-0.0461341477930545,-0.0173948239535093,0.0271758753806352,0.1113860868941992,-0.2112718334980309,-9.714999117851256,14943.0
26.09,4.099999904632568,208.0,23.73136901855469,29.397708892822266,-79.7827732359666,40.45896854293549,278.29665236663817,0.0185936894267797,0.0050450647249817,-0.8691721558570862,0.4941343069076538,-0.1137268749729505,-0.0045897049376166,2.8120340792371,-0.015997864305973,-0.0200815815478563,0.1436127573251724,0.1235786004737019,-0.4276388941705227,-9.669760964512824,14943.0
26.2,4.099999904632568,207.0,23.75891494750977,28.45939826965332,-79.78277330221744,40.45896860573242,278.9762464065552,0.0174858141690492,0.0014391153817996,-0.869551956653595,0.4935297966003418,-0.1036289926674042,-0.0015476768470988,2.790255740103332,-0.042335283011198,0.0757610350847244,0.040443655103445,0.116208130326122,-0.1317300302255898,-9.60562636435032,14943.0
26.4,4.0,205.0,23.628700256347656,30.10541534423828,-79.78277340608695,40.458968772259546,279.6725202102661,0.0203985460102558,-0.0041242474690079,-0.8698024153709412,0.492961198091507,-0.1035988025085437,0.0313235361209308,2.7793137244276247,0.0045548263005912,-0.007252003531903,-0.0209330543875694,0.2263441281951964,-0.2737713328935206,-9.630202211737632,14944.0
26.5,3.799999952316284,204.0,23.715091705322266,28.85698699951172,-79.78277343528161,40.458968798434135,279.9499459762573,0.0215787664055824,-0.0011721976334229,-0.8696799278259277,0.4931429326534271,-0.1002630966232906,0.0353955928613252,2.7661751333433,0.0314226932823658,-0.0714776813983917,-0.0672679096460342,0.224205710068345,-0.2699313932843507,-9.667748937606811,14944.0
26.6,3.799999952316284,204.0,23.56609916687012,31.512880325317383,-79.78277355414366,40.45896875502082,280.37414889526366,0.0205193236470222,0.0015676820185035,-0.8691454529762268,0.4941283166408539,-0.118948091044644,0.0085123616964893,2.8184516412691445,0.0414573848247528,-0.056436400860548,-0.0145204924046993,0.1952114141732454,-0.4468677186593414,-9.863785028457643,14945.0
26.8,3.700000047683716,204.0,23.616180419921875,29.80324935913086,-79.7827736428337,40.45896878937896,281.0629916687012,0.0173385199159383,0.0041163675487041,-0.8687545657157898,0.4949222207069397,-0.113816260072847,-0.0178406450054154,2.898156962864712,0.0016761538572609,0.012060790322721,0.1526783555746078,0.05836373178754,-0.3439791253209114,-9.907749073505403,14946.0
26.9,3.799999952316284,203.0,23.755157470703125,28.30036354064941,-79.78277369417333,40.45896882271357,281.3533826370239,0.0179549641907215,0.0046881032176315,-0.8690410256385803,0.4943918883800506,-0.1000179698078632,-0.024895910116514,2.9061459794236337,0.0275776032358408,0.0715941488742828,0.0148187614977359,0.1205939257889986,-0.2322228822670877,-9.872560529708863,14946.0
27.1,3.799999952316284,203.0,23.53479766845703,31.02782249450684,-79.78277390578256,40.45896895465508,282.0355210800172,0.0199931152164936,0.0019993565510958,-0.8696452975273132,0.4932681024074554,-0.1053849060128732,-0.0176130061586904,2.9218700737397745,0.0056094503961503,0.0999905094504356,-0.0437579751014709,0.1895129005238414,-0.3421352424100041,-9.8781036901474,14947.0
27.2,3.799999952316284,205.0,23.770183563232425,27.544944763183597,-79.78277395819549,40.45896898059436,282.32890277099614,0.0187700577080249,-3.502554682199843e-05,-0.8697527647018433,0.4931307733058929,-0.1036765917361231,-0.0064785440324905,2.9386216408546963,-0.0072979060932993,0.0248756892979145,0.0121382996439933,0.1129541639517992,-0.4061033065617085,-9.936412124633788,14947.0
27.4,3.799999952316284,201.0,23.62995338439941,30.0736083984375,-79.78277412179399,40.45896902654956,283.01223902893065,0.0210078172385692,0.0021417795214802,-0.8696038126945496,0.4932984709739685,-0.0756368986181714,-0.0073433053678516,2.934784765362098,0.0461448095738887,0.0084256045520305,-0.0900453925132751,0.1977142782881856,-0.2245913339406252,-9.62198921263218,14948.0
27.5,3.799999952316284,200.0,23.728864669799805,27.751691818237305,-79.7827741922473,40.45896903921589,283.30461459350585,0.0211254805326461,0.0042701275087893,-0.8691973090171814,0.4939955770969391,-0.0934706452821984,-0.0097230105640917,2.916807300936945,-0.055265512317419,-0.0062935133464634,-0.0932078883051872,0.1300645148009062,-0.1855945716798305,-9.647551485300063,14948.0
27.7,3.700000047683716,196.0,23.48346328735352,32.85673141479492,-79.7827743386544,40.45896900574277,283.9859052200317,0.0189809687435627,0.0045038927346467,-0.868393063545227,0.4954925775527954,-0.0748898100155702,-0.035852945065561,2.9349214303177167,-0.021741583943367,0.0522313639521598,-0.074303314089775,0.2098298187553882,-0.0845691936090588,-9.79527086377144,14948.0
27.8,3.700000047683716,196.0,23.53604888916016,30.48710060119629,-79.78277406162644,40.45896878296112,284.37235884857176,0.0186759382486343,0.0036019540857523,-0.8680017590522766,0.4961967468261719,-0.0479485130202376,0.0097225247714181,3.0057605976162867,-0.1089551746845245,-0.0207244139164686,-0.1286424845457077,0.1119404668919742,-0.2236745453439653,-10.08473961353302,14949.0
28.0,3.700000047683716,199.0,23.557334899902344,30.57457160949707,-79.7827741994207,40.45896866602124,284.9776177902221,0.0178478695452213,0.0023253425024449,-0.8678334355354309,0.4965292811393738,0.0031754920713286,0.0311206868511921,3.028681628622128,0.1496079266071319,0.031388446688652,0.0584419816732406,0.281328365765512,-0.348177608884871,-9.855320599079134,14949.0
28.19,3.700000047683716,200.0,23.765174865722656,27.58470344543457,-79.78277425409053,40.458968274069534,285.651626159668,0.0160081479698419,0.0004240509588271,-0.8692300319671631,0.4941486120223999,0.0352646182968525,0.0620508688596754,3.0356635320364966,0.0590712688863277,0.0711551904678344,0.2390131950378418,0.0791251434758305,-0.237370898835361,-9.827009550333024,14950.0
28.3,3.700000047683716,201.0,23.69505882263184,27.44952392578125,-79.78277422622631,40.4589681322856,286.02228312683104,0.0152438739314675,-0.0017482808325439,-0.8700970411300659,0.4926417469978333,0.0316643919806831,0.0829640369304416,3.0166502201939265,0.0677258148789405,0.0308500006794929,0.1106864660978317,0.2712156245671213,-0.2475894198194146,-9.587976543903352,14951.0
28.4,3.799999952316284,202.0,23.559837341308597,29.71577835083008,-79.78277424815491,40.45896802620822,286.3223643798828,0.014630320481956,-0.0022380764130502,-0.8707090020179749,0.4915758371353149,0.043348392460157,0.1051858597011756,2.985547767922601,0.1262107491493225,0.0624047257006168,0.0105679668486118,0.2833956123143434,-0.0088330780528485,-9.457298875451093,14951.0
28.6,3.700000047683716,202.0,23.66751480102539,29.588550567626957,-79.78277426185605,40.45896780736179,286.9902167816162,0.0185672920197248,-0.0015227023977786,-0.8712579607963562,0.4904717206954956,0.0243604896972107,0.0996346966024705,2.9706713217117824,0.1014213785529136,0.0657897070050239,0.0674738809466362,0.2903754884563386,-0.3288234347105026,-9.55278683066368,14951.0
28.7,3.799999952316284,202.0,23.636213302612305,28.38783264160156,-79.78277427947995,40.45896770501626,287.28580432128905,0.0203905869275331,-0.0026553156785666,-0.8711112737655641,0.4906550943851471,0.0261059065038779,0.1083374791313641,2.942812893374286,0.1392954885959625,0.0678663626313209,0.0879930183291435,0.3259459467977285,-0.382404651157558,-9.596267310976982,14952.0
28.9,3.799999952316284,207.0,23.51852035522461,32.10131072998047,-79.78277443476983,40.45896749879714,287.95702319335936,0.0212416034191846,-0.0037405206821858,-0.8704074621200562,0.491859495639801,0.0037206022138331,0.1137176278789286,2.9785030357881164,0.0762748420238494,0.064454972743988,-0.0052256495691835,0.2178798998147249,-0.2021480574645102,-9.781923424601557,14952.0
29.1,3.799999952316284,208.0,23.553577423095703,30.336017608642567,-79.7827744676274,40.45896740328004,288.2554183502197,0.024364011362195,-0.00409871712327,-0.8701722621917725,0.4921279251575471,0.0071193657507978,0.1103023367601022,2.9904049773794563,0.056151907891035,0.0498935393989086,0.1408206969499588,0.2353753903135657,-0.2443180305697024,-9.84777301311493,14953.0
29.2,3.799999952316284,211.0,23.48346328735352,32.04565048217773,-79.7827745419073,40.45896716793157,288.91099696350096,0.0255711898207664,-0.0048279194161295,-0.8702227473258972,0.4919708371162415,-0.0131343551566198,0.1086719051666699,2.9679595820466584,-0.0992492511868476,-0.027374604716897,0.0357032753527164,0.0942301643081009,-0.2020074502006173,-9.65863312840462,14953.0
29.3,3.799999952316284,212.0,23.48471450805664,31.576494216918945,-79.78277461380057,40.45896712433228,289.2685599822998,0.0256071891635656,-0.0053091952577233,-0.8702809810638428,0.4918608665466309,-0.009004536510699,0.100647776289219,2.9912808275042626,-0.1023499369621276,0.0128430221229791,-0.1512112766504287,0.2477184971049428,-0.0421571640484035,-9.803575079441073,14954.0
29.5,3.900000095367432,215.0,23.480958938598643,31.29818153381348,-79.78277477241211,40.458966946607646,289.8652682800293,0.0209110546857118,-0.003506836714223,-0.8696449995040894,0.4932220578193665,0.0145712068075513,0.0838481506225021,2.970299481739921,0.0109127750620245,-0.0952924787998199,0.0116147063672542,0.2460304790362716,-0.5563971409946681,-9.68410827755928,14954.0
29.6,3.900000095367432,214.0,23.43713760375977,31.79914474487305,-79.78277486441264,40.45896684676279,290.2125354309082,0.0183905977755785,-0.0020267688669264,-0.8694745302200317,0.4936312437057495,0.0243367204419971,0.0590837034329148,2.98110593247344,0.06556136906147,-0.0209840852767229,-0.0015445165336132,0.2532100193202496,-0.3478798394277692,-9.80006207227707,14955.0
29.8,4.0,213.0,23.487218856811523,29.78734588623047,-79.78277505934608,40.45896662549309,290.85669284057616,0.0172143708914518,-0.0016167018329724,-0.8702732920646667,0.4922656416893005,0.0257567066350574,0.0349198076369783,3.005357260397004,-0.1432861387729644,0.0239319037646055,-0.1267466247081756,0.1980434217117727,-0.1782100499421358,-9.88287150979042,14955.0
30.0,4.0,213.0,23.36076164245605,32.888538360595696,-79.78277525946844,40.45896646561832,291.45492892456053,0.01614436134696,-0.0041646584868431,-0.8709264397621155,0.4911305606365204,0.055723280195708,0.0343321212991686,2.965096828361088,0.0702474564313888,0.0325135476887226,0.0710318014025688,0.1418334067426622,-0.2457907066494226,-9.758381949663162,14956.0
30.1,4.099999904632568,212.0,23.41209602355957,30.93239974975586,-79.78277535241313,40.45896635063577,291.7903190155029,0.0167450793087482,-0.0045967637561261,-0.8712868690490723,0.4904669523239136,0.0648401319632886,0.0356164976958947,2.9716744961694013,0.1508816182613372,0.0550649501383304,0.0112637626007199,0.2042096212506294,-0.2277544400654733,-9.808206658959389,14956.0
30.2,4.099999904632568,211.0,23.5247802734375,28.864938735961918,-79.78277545827581,40.45896627110867,292.0879016418457,0.0165687762200832,-0.0056861969642341,-0.871250569820404,0.4905259907245636,0.0603327274714702,0.0376093940893865,2.9839646834943268,0.1056349575519561,0.0959928408265113,0.1148925721645355,0.1460417300742119,-0.2917305441386998,-9.838589376211166,14957.0
30.4,4.199999809265137,210.0,23.38204765319824,31.64010810852051,-79.78277563108583,40.458966046030326,292.72079425048827,0.0151958353817462,-0.0099231349304318,-0.870167076587677,0.4924226403236389,0.044859024371243,0.054182443677821,2.945932960180662,-0.0051880786195397,0.0133710047230124,-0.0354433394968509,0.280827405564487,0.029126296788454,-9.562638219594955,14957.0
30.6,4.199999809265137,209.0,23.433380126953125,30.542762756347656,-79.78277592083758,40.458965866075175,293.3476233978272,0.0161952655762434,-0.0056593427434563,-0.8686096668243408,0.4952000677585602,0.0518670200493402,0.0508282188076656,2.9698016236208127,0.1232024356722831,-0.0962940752506256,0.0257107950747013,0.2771547876857221,-0.2286590225994587,-9.74091105401516,14958.0
30.71,4.099999904632568,210.0,23.5247802734375,29.33409309387207,-79.78277602897631,40.45896581947292,293.6459918518066,0.0157318077981472,0.000215624080738,-0.8682027459144592,0.4959603548049927,0.0130466574703028,0.027138539776077,2.997818348536597,-0.0329740270972251,-0.1191528365015983,-0.0395771712064743,0.2005727627500892,-0.3405313146114349,-10.044899024963382,14958.0
30.79,4.099999904632568,209.0,23.61367607116699,27.099645614624023,-79.78277609189105,40.45896573880008,293.9813476104736,0.0155190639197826,0.0019805717747658,-0.86813884973526,0.4960748255252838,0.0033828262924637,0.0030113961294996,3.0027504344914657,0.008689846843481,-0.0141105474904179,-0.0894033089280128,0.2480093595385552,-0.1358634635154157,-9.89207034945488,14958.0
31.01,4.0,209.0,23.42336463928223,30.55071449279785,-79.78277626630616,40.458965633399664,294.57765345764165,0.0143926739692688,-0.0010218119714409,-0.868992805480957,0.4946144819259644,-0.0040513793712117,0.010687250372118,2.9604309465923864,-0.0642646700143814,0.0499004274606704,-0.084107793867588,0.1278473328519612,-0.230543452296406,-9.59389100253582,14959.0
31.1,4.0,209.0,23.32695770263672,33.5723876953125,-79.7827762656045,40.45896568794716,294.90588717651366,0.0126318046823143,-0.004311230033636,-0.8697160482406616,0.4933720827102661,0.0085395137391085,0.0109017500010453,2.961708584986619,0.0527037903666496,0.0472645238041877,0.1066725850105285,0.2707676547579467,-0.4643640862405301,-9.789075154066088,14959.0
31.3,4.0,211.0,23.40458297729492,31.75143241882324,-79.78277635746075,40.45896565339,295.534173538208,0.0130122145637869,-0.0038326638750731,-0.8708671331405641,0.4913313984870911,-0.0186985767454855,0.0340774005695744,3.0016119755883537,-0.0661863461136818,-0.0403672009706497,0.0645367503166198,0.1764490147680044,-0.2134204111620784,-9.842788846492768,14960.0
31.4,3.900000095367432,209.0,23.490976333618164,29.66011619567871,-79.78277640573896,40.45896564069489,295.83406405639647,0.0136162275448441,-0.0030635076109319,-0.8709838390350342,0.4911133944988251,-0.0392503813829048,0.0367293231413227,3.004050036719291,-0.1137071400880813,-0.0143698826432228,-0.1468003839254379,0.2956981540471316,-0.0475148215703666,-9.832296602725982,14960.0
31.6,3.900000095367432,208.0,23.46343040466309,29.326141357421875,-79.78277654555404,40.45896557980655,296.45844798278813,0.0175617262721061,-0.0018366887234151,-0.8708887100219727,0.4911630153656006,-0.0523524054249683,0.0263689533443122,2.9920334877215766,0.0754338577389717,0.0601585321128368,0.00308463932015,0.1241279098391533,-0.5142623973637821,-9.90183753848076,14961.0
31.69,3.900000095367432,207.0,23.53855323791504,28.23674964904785,-79.78277657940023,40.45896557941417,296.7578082580566,0.020568136125803,-0.0020315821748226,-0.8707628846168518,0.4912686347961426,-0.0749393039816856,0.0383566653616025,2.985205099539661,0.0363361537456512,0.0393147692084312,-0.0673573687672615,0.2419037334993481,-0.2707435532659292,-9.750188246369364,14961.0
31.9,3.900000095367432,208.0,23.6074161529541,28.58662796020508,-79.78277686138328,40.45896584228746,297.3693976898193,0.0218251589685678,-0.0010181695688515,-0.8708313107490541,0.4910962879657746,-0.1028808270979709,-0.0001605695979134,2.885858153266498,0.0284151900559663,0.0027514332905411,0.0350621715188026,0.1537383926287293,-0.480602352283895,-9.38595699727535,14962.0
32.0,3.799999952316284,209.0,23.47595024108887,29.326141357421875,-79.78277693012538,40.45896587539857,297.6556869049072,0.0213932320475578,0.0001348275109194,-0.870955765247345,0.490895539522171,-0.0997578705147247,-0.0052251328661439,2.84127724255748,0.0131969200447201,0.0223793443292379,0.015645757317543,0.148045251108706,-0.4558794839680195,-9.432959840297698,14962.0
32.2,3.799999952316284,208.0,23.457170486450195,30.81312370300293,-79.78277710798348,40.458965930636616,298.2599273223877,0.0168196614831686,-0.0029933983460068,-0.8708570599555969,0.491239458322525,-0.0967557682015359,-0.0122347813859794,2.816141244822959,-0.0816502273082733,0.0287948884069919,-0.0844006016850471,0.1368341104499995,-0.3141663654148579,-9.638276047110557,14963.0
32.39,3.799999952316284,209.0,23.32445335388184,32.196731567382805,-79.78277726382314,40.45896600169405,298.8691878814697,0.0188055671751499,-0.0021412321366369,-0.8701106905937195,0.4924929141998291,-0.0878043413271306,-0.0073002750029303,2.8378200236653166,0.0683024823665618,0.0029344011563807,-0.0615868121385574,0.101743525788188,-0.4015288470312953,-9.682830076217652,14963.0
32.5,3.900000095367432,207.0,23.480958938598643,29.24662399291992,-79.78277732427253,40.45896603966237,299.1544871826172,0.0183253083378076,-0.0010433536954224,-0.8699195981025696,0.4928520917892456,-0.1056214355257163,-0.0008873887419295,2.8660556076547827,-0.0329833328723907,-0.0591346621513366,-0.0218299906700849,0.2222031666152179,-0.2721807257831097,-9.982910352945328,14964.0
32.6,3.900000095367432,206.0,23.32445335388184,32.22058868408203,-79.78277734273169,40.45896603451772,299.47968630981444,0.017398677766323,0.0005586183397099,-0.869909405708313,0.4929042458534241,-0.0966621561064318,0.004468085505608,2.9001378358519814,-0.0213403180241584,-0.0267869159579277,0.122090920805931,0.1455890916287899,-0.3647927279770374,-9.910499603748322,14964.0
32.8,3.799999952316284,205.0,23.189231872558597,35.67165756225586,-79.78277744918387,40.45896607772007,300.08467440795897,0.016893845051527,0.0024320825468748,-0.8701075911521912,0.4925662577152252,-0.1010804481398075,-0.0082443067639076,2.938673619044616,-0.0032662013545632,-0.0195020865648984,-0.0772880166769027,0.1844345937296748,-0.1640893895924091,-10.130185343027115,14965.0
32.9,3.900000095367432,205.0,23.16669464111328,34.749252319335945,-79.78277748943803,40.45896609887009,300.3811851043701,0.018373591825366,0.0018947868375107,-0.8703427314758301,0.4921000897884369,-0.0933983584729875,-0.0017404218010438,2.990737566524904,0.0363982878625392,0.0337045863270759,0.1831623166799545,0.0774760916177183,-0.3928833001479505,-10.21269072532654,14965.0
33.1,3.900000095367432,203.0,23.45216178894043,30.23264503479004,-79.7827774842962,40.458966129621295,301.0017486114502,0.0177494753152132,8.336423343280329e-05,-0.8705424666404724,0.4917731881141663,-0.101476388800918,0.014966115922909,3.048826677515326,-0.0121304299682378,-0.0116873309016227,0.0194003973156213,0.2808729773014784,-0.2852580784074962,-10.174314279556276,14966.0
33.29,3.900000095367432,204.0,23.294403076171875,31.29818153381348,-79.78277751915766,40.458966111521455,301.6212459106445,0.0140844900161027,-0.0016653777565807,-0.8703007102012634,0.4923165142536163,-0.0818104089588165,0.0282689052120763,3.0063084945415306,0.0061723967082798,-0.0166697595268487,0.0038026084657758,0.1808328550681472,-0.3404720384627581,-9.837134588956834,14966.0
33.4,3.900000095367432,202.0,23.53229331970215,29.914573669433597,-79.78277754190695,40.458966125327954,301.92186694335936,0.014509592205286,-0.0010117958299815,-0.870164155960083,0.492547333240509,-0.0802088050465876,0.0292280196223546,3.004012289451808,-0.087047629058361,-0.0568763241171836,-0.1331750899553299,0.1520736720599234,-0.271295311152935,-9.770751734375954,14966.0
33.5,4.0,202.0,23.27186584472656,32.22058868408203,-79.78277756130423,40.45896614073725,302.2216907043457,0.0152743672952055,-0.0004469988052733,-0.8700062036514282,0.4928041398525238,-0.080450594341858,0.0286936436867017,2.99148973394887,-0.0113590424880385,-0.0117694549262523,-0.0668422281742096,0.1921200278028846,-0.2714746562205255,-9.7301206022501,14967.0
33.7,4.0,203.0,23.39957618713379,29.69987487792969,-79.78277755804466,40.458966208531926,302.8384013671875,0.0190765168517828,0.001260629040189,-0.870275616645813,0.4921939074993134,-0.105239329050638,0.028023183745368,2.983656311625827,-0.0199006907641887,-0.0077682612463831,0.073344700038433,0.1013797010667622,-0.273984664902091,-9.772546244859695,14967.0
33.79,4.0,203.0,23.33321762084961,31.56854248046875,-79.7827775466275,40.45896622940443,303.163043548584,0.0188764166086912,-0.001402711845003,-0.8701702952384949,0.492387592792511,-0.1152356646320776,0.0320576525270679,2.9747756940342285,-0.0895913615822792,0.0429052859544754,-0.1104671955108642,0.2060348661616445,-0.3667952531576157,-9.73450952231884,14968.0
34.0,4.0,203.0,23.369525909423828,31.58444595336914,-79.78277757901817,40.45896625902708,303.75871615600585,0.0193558931350708,-0.0032062421087175,-0.8695435523986816,0.4934665262699127,-0.096920563801101,0.0506770848391352,2.9763313281408195,-0.0345277190208435,-0.035530649125576,-0.0352515950798988,0.2285092973336577,-0.1354719010647386,-9.749967221617698,14968.0
34.19,4.0,203.0,23.39206314086914,30.90059280395508,-79.78277765592607,40.45896623095757,304.3844104309082,0.0178441647440195,-0.0021415166556835,-0.8698431849479675,0.4930009245872498,-0.071147736206541,0.0384428081259114,2.9728266569888766,0.0390093848109245,0.0275083240121603,0.0933283045887947,0.1650882584787905,-0.2828615970723331,-9.751805001497267,14969.0
34.29,4.099999904632568,202.0,23.16669464111328,34.081302642822266,-79.78277766795004,40.45896626918128,304.71431689453124,0.0181462820619344,-0.0014204091858118,-0.8702479600906372,0.4922775626182556,-0.0838181190742846,0.0329529899318289,2.981833076173248,-0.0046596671454608,0.0220596361905336,-0.0654543340206146,0.2081831880100071,-0.1695540146157145,-9.830735396146776,14969.0
34.4,4.099999904632568,202.0,23.553577423095703,27.21096992492676,-79.78277770040536,40.458966279423606,305.0135684509277,0.0188834220170974,-0.0004049824783578,-0.870569109916687,0.4916836023330689,-0.0832677816755116,0.0292222999872649,2.9991751978891736,0.0861406400799751,-0.0276351459324359,-0.0309102926403284,0.2808213390782476,-0.2798455484211445,-9.974033110141754,14970.0
34.6,4.0,204.0,23.33446884155273,31.17095375061035,-79.78277775019231,40.45896631657632,305.63998370361327,0.019070191308856,0.0009631544235162,-0.8710934519767761,0.4907461106777191,-0.0902936254456198,0.0195134410569498,2.9732476400764933,0.0711751654744148,0.0748275890946388,0.1102982088923454,0.0942110877670347,-0.2818617780134081,-9.60796992838383,14970.0
34.8,3.900000095367432,204.0,23.37328338623047,29.78734588623047,-79.78277780361624,40.45896637338187,306.26982073974614,0.0162512231618165,-0.0007759250584058,-0.8715914487838745,0.4899629056453705,-0.0933837128990739,0.0263776239269902,2.981826492531789,-0.1256262511014938,-0.0065881279297173,-0.1033466458320617,0.1420277078915387,-0.189722358752042,-9.680453183054924,14971.0
34.9,3.900000095367432,206.0,23.248077392578125,32.47504425048828,-79.7827778291796,40.45896637828928,306.5680232543945,0.0143553735688328,-0.0018075027037411,-0.8718742728233337,0.4895160496234894,-0.070386351885947,0.0332109140013564,2.9790853537433555,-0.0054154568351805,0.0012715150369331,-0.0244020596146583,0.2452035731077194,-0.4006087145581841,-9.812729480266572,14971.0
35.1,3.900000095367432,206.0,23.25058174133301,32.952152252197266,-79.78277793766722,40.458966343377575,307.1996417541504,0.0161325968801975,-0.0003558040771167,-0.8716217875480652,0.4899133145809174,-0.0792793650524959,0.031466462698111,2.9968455849788143,0.0048567298799753,0.0185483749955892,-0.0798531249165535,0.1719291170686483,-0.2875542617216706,-9.891441189050672,14972.0
35.2,3.900000095367432,206.0,23.370779037475582,29.381805419921875,-79.78277795483021,40.458966347913005,307.4998775024414,0.0160536896437406,-0.0016020935727283,-0.8713554739952087,0.4903869926929474,-0.0884818825551012,0.0337245063131147,3.0067611007610853,-0.0860343351960182,-0.0046667726710438,0.0218941867351532,0.1048049360420555,-0.1890821434557438,-9.830910812616349,14972.0
35.3,3.900000095367432,205.0,23.32445335388184,31.44926643371582,-79.78277800347911,40.4589663772344,307.82871585083006,0.0162799954414367,-0.002639714628458,-0.870951771736145,0.4910918474197388,-0.0706725095413335,0.0351237277113057,3.002732252147612,0.0177470576018095,0.0210472140461206,0.1113007292151451,0.142260390529409,-0.3469830592721701,-9.67186537742615,14972.0
35.5,3.900000095367432,206.0,23.51977348327637,27.19506645202637,-79.78277804775881,40.45896638607578,308.42720751953124,0.0162022095173597,-0.0029402065556496,-0.8700721263885498,0.4926494061946869,-0.0755548032864146,0.042077684633792,2.98031595740742,-0.0298294648528099,-0.0301047842949628,-0.094193547964096,0.1668191439472139,-0.2728818983025849,-9.701740556359294,14973.0
35.6,3.900000095367432,205.0,23.45216178894043,28.58662796020508,-79.78277805209531,40.45896639023426,308.7569041748047,0.0160254202783107,-0.0018870019121095,-0.8697963356971741,0.4931470453739166,-0.0703824499028413,0.0434313804071278,2.9483973392595666,-0.0131507227197289,-0.0215617381036281,-0.0129502955824136,0.2123912281170487,-0.2369929859787226,-9.42185071527958,14973.0
35.8,3.900000095367432,206.0,23.22303581237793,33.03961944580078,-79.78277815466637,40.45896634588375,309.3827319641113,0.0153919905424118,-0.0011076556984335,-0.8704487681388855,0.4920171797275543,-0.0703489758070512,0.0310311140474201,2.924252997783678,0.0722610875964164,0.0418930873274803,0.0286459792405366,0.1635579325072467,-0.1576685072667897,-9.568755576610563,14974.0
35.9,3.799999952316284,206.0,23.25934600830078,31.86275863647461,-79.78277817416944,40.45896635006464,309.67586093139647,0.0168136041611433,-0.0013397255679592,-0.8709127902984619,0.4911481440067291,-0.0766223852076259,0.0355316594896993,2.939308904897316,-0.0461498126387596,-0.0063636205159127,0.0047718095593154,0.2062779641523957,-0.0858344397135078,-9.830548285245897,14974.0
36.1,3.799999952316284,206.0,23.14666175842285,33.795040130615234,-79.7827782448642,40.45896639202451,310.2963519592285,0.0175761766731739,-0.0018024052260443,-0.8716508746147156,0.4898087382316589,-0.0619810807429189,0.0406230461229334,2.954447521356197,0.071719504892826,0.0225250590592622,-0.0079607749357819,0.1397965839877724,-0.3794334616139531,-9.74054092526436,14975.0
36.2,3.799999952316284,205.0,23.23305320739746,32.610225677490234,-79.78277827125186,40.45896638834712,310.5925174255371,0.0183655340224504,-0.0017496774671599,-0.8716651201248169,0.4897546768188477,-0.0690188757536494,0.0446051842139509,2.9682350320137907,0.069541111588478,-0.0298089440912008,0.0074892784468829,0.3466026613488793,-0.2521756834164262,-9.943615894317627,14975.0
36.4,3.900000095367432,205.0,23.34573745727539,29.779394149780277,-79.78277835284166,40.45896637774325,311.21971850585936,0.0176154766231775,0.00051365501713,-0.871856689453125,0.4894440472126007,-0.0613165044422478,0.0414172484632878,3.022571676904686,0.0450098551809787,0.0478063635528087,-0.0894051790237426,0.2130029199644924,-0.258025237955153,-9.998839337825776,14976.0
36.6,3.900000095367432,204.0,23.284387588500977,30.908544540405277,-79.78277843342832,40.45896642931598,311.84089236450194,0.0179802160710096,-0.000372142298147,-0.8716936111450195,0.4897213578224182,-0.0736657583646075,0.0342351926509629,3.0173890550711424,-0.0076512303203344,-0.021733995527029,-0.1021545901894569,0.2031168497353792,-0.3033533287793398,-9.895536578893664,14976.0
36.7,3.799999952316284,206.0,23.19799613952637,31.838903427124023,-79.78277846629298,40.458966416163,312.1433215637207,0.0182341523468494,0.0007467601681128,-0.8717402815818787,0.4896283745765686,-0.061096368264465,0.0451143386416153,3.029398438985226,-0.0009683089447207,-0.0249481871724128,0.142580047249794,0.1955410144105553,-0.3568363120034337,-9.901618852615355,14977.0
36.8,3.700000047683716,206.0,23.394567489624023,29.827104568481445,-79.78277849816153,40.45896637001378,312.46293978881835,0.0172242112457752,0.0019365628249943,-0.8719685077667236,0.4892550408840179,-0.0583840228012323,0.0496521907618522,3.022595462261616,-0.0328129418194294,0.0145237194374203,-0.0853774026036262,0.2642178413271904,-0.0546814431622624,-9.810298207998276,14977.0
37.0,3.700000047683716,207.0,23.261850357055664,31.218664169311523,-79.7827785551377,40.45896629278688,313.0639873046875,0.0158867612481117,0.0013622939586639,-0.8716142773628235,0.4899329841136933,-0.0381828459061242,0.0443777876536044,2.9985708943525924,-0.0214839056134224,-0.0403896868228912,-0.1031943634152412,0.2379316102713346,-0.2123598906956613,-9.785148748755455,14978.0
37.1,3.700000047683716,207.0,23.295656204223643,29.874814987182607,-79.78277867812818,40.458966324333296,313.38792376708983,0.0148194655776023,0.0002341349609196,-0.8713483214378357,0.4904412031173706,-0.028056185298167,0.0518734516988271,3.005797541381752,0.0195651985704898,0.0195897836238145,0.1453813165426254,0.212726273573935,-0.4191792156547308,-9.798446486592292,14978.0
37.3,3.5999999046325684,206.0,23.177963256835927,33.73142623901367,-79.78277869277575,40.45896625546911,314.0112414855957,0.0145005555823445,-0.0025680516846477,-0.8709793090820312,0.4910990595817566,-0.0320194636977296,0.0686035514369327,2.9867699203134577,-0.0611372888088226,-0.0058563817292451,-0.0566661357879638,0.2035194670781493,-0.1569185470417142,-9.731646725535391,14979.0
37.4,3.5999999046325684,207.0,23.294403076171875,31.10733985900879,-79.7827787049617,40.458966208212,314.31030612182616,0.0147839905694127,-0.0038414055015891,-0.8708271980285645,0.491351991891861,-0.0220159006978118,0.0724480283385979,2.9967575450022883,-0.0470258928835392,0.0103197144344449,-0.1158636510372162,0.1996686735749245,-0.0585896033328026,-9.860266174077989,14979.0
37.6,3.700000047683716,206.0,23.37203025817871,30.42348670959473,-79.78277871789673,40.45896613346617,314.9342380065918,0.0150465695187449,-0.005942746065557,-0.8704479932785034,0.4919945597648621,-0.0172200938433997,0.076632425122045,3.013059980086823,0.024132914841175,-0.0015651730354875,-0.0302640721201896,0.1662163325585425,-0.2027189649827778,-9.902198896408082,14979.0
37.7,3.700000047683716,206.0,23.25058174133301,31.27432632446289,-79.78277873720162,40.458966095572464,315.23533587646483,0.0145599078387022,-0.0067791803739964,-0.8703832030296326,0.4921130239963532,-0.0155205467949558,0.0777373509283821,3.0086872607726365,0.0039351759478449,-0.0014599899295717,-0.0108931111171841,0.1644694037921726,-0.275937781110406,-9.797165361642838,14980.0
37.9,3.5999999046325684,204.0,23.301916122436523,31.544687271118164,-79.78277882369258,40.45896605734326,315.85874514770506,0.0125158596783876,-0.0062202024273574,-0.8705234527587891,0.4919285476207733,-0.0146626460746316,0.0698354664468346,3.0162693337218256,-0.0489375069737434,-0.0565072260797023,-0.1117793098092079,0.1875110697001218,-0.126985937487334,-9.7755914747715,14980.0
37.99,3.5999999046325684,204.0,23.31944465637207,30.10541534423828,-79.78277885490408,40.4589660347818,316.15976290893553,0.0118846474215388,-0.0043116542510688,-0.8705629706382751,0.4918946325778961,-0.0218619060551281,0.0589202272558424,3.0064037794266785,-0.0829029828310012,-0.0751581415534019,-0.0975352525711059,0.123097895393148,-0.1717553085833788,-9.77610076725483,14981.0
38.2,3.5999999046325684,204.0,23.211767196655277,31.322036743164062,-79.7827788792886,40.45896599159421,316.7856517333984,0.0111874639987945,-0.0031938208267092,-0.870825469493866,0.4914547204971314,-0.0208145078103492,0.0431032759787012,3.024597934867641,0.0263988561928272,0.0091003123670816,0.2112458944320678,0.1568174633011222,-0.3605592342093587,-9.985154514312743,14981.0
38.39,3.5999999046325684,203.0,23.427120208740234,29.10349273681641,-79.78277896197257,40.45896600077135,317.41701846313475,0.0123689090833067,-0.0030787806026637,-0.871296226978302,0.4905920326709747,-0.03220216068299,0.039880732840246,3.039622148701576,0.0513640381395816,-0.0076715284958481,0.0086283795535564,0.2268683858960867,-0.2179003102518618,-10.003087924718857,14982.0
38.5,3.700000047683716,200.0,23.181718826293945,31.63215637207031,-79.78277898469199,40.45896599456013,317.71967654418944,0.0134725291281938,-0.0025524394586682,-0.8716961741447449,0.4898549914360046,-0.0411829999937011,0.0391722746317731,3.0169555211272154,0.0173335764557123,0.0348561629652977,-0.0451050326228141,0.1890706865675747,-0.1726989212818444,-9.650144725441931,14982.0
38.6,3.5999999046325684,200.0,23.276874542236328,30.90059280395508,-79.78277901150338,40.45896599201181,318.04333834838866,0.0129398759454488,-0.0026281194295734,-0.8718817234039307,0.4895386397838593,-0.0470137212954415,0.0426080657273755,3.0222373673753453,0.0423002056777477,0.0364203006029129,0.0778697207570076,0.1413530488405376,-0.1385885126888752,-9.736988741755487,14983.0
38.8,3.5999999046325684,198.0,23.453413009643555,27.67217254638672,-79.78277911877355,40.458966021873046,318.67215686035155,0.0106087615713477,-0.0013214752543717,-0.8722611665725708,0.4889234602451325,-0.0451287316118105,0.0226056015348748,3.014180336172483,-0.0548848211765289,-0.0137040596455335,-0.0779154077172279,0.1617704934999347,-0.1964761486463248,-9.680439734458924,14983.0
38.9,3.5999999046325684,196.0,23.43212890625,29.668067932128903,-79.78277914776058,40.45896602165164,318.97160678100585,0.0107073271647095,-0.0016449309187009,-0.8723340034484863,0.4887903928756714,-0.0485402487888089,0.0169084324922072,2.9729192405627045,-0.1651481091976165,-0.0082713142037391,-0.0878560468554496,0.0608202749909833,-0.1009573310986161,-9.445430197119713,14983.0
39.1,3.5999999046325684,193.0,23.211767196655277,32.125167846679695,-79.78277928253993,40.45896604082716,319.5909533996582,0.0100091258063912,-0.0031494239810854,-0.8719053268432617,0.489562064409256,-0.0315999613019162,0.0145926250830968,2.9284364870542388,-0.0450013913214206,0.017203951254487,-0.0184749793261289,0.21670274566859,-0.1966265134513378,-9.6202104896307,14984.0
39.29,3.5999999046325684,191.0,23.241817474365234,30.81312370300293,-79.78277942091408,40.45896601698229,320.21535830688475,0.0094716809689998,-0.0034344645682722,-0.8711232542991638,0.4909612238407135,-0.0246608553617226,0.0141797586791975,3.003759413189288,-0.013641633093357,-0.0533502027392387,-0.1007937267422676,0.0808560837619006,-0.1966702944785356,-9.897757351398466,14985.0
39.4,3.5,187.0,23.32445335388184,29.81120109558105,-79.78277947159454,40.458966017805686,320.51703982543944,0.0104106348007917,-0.0026237731799483,-0.8706961274147034,0.4917041659355164,-0.0195565392295369,0.0038840876683445,3.0246938649706667,-0.0052474574185907,0.0151699967682361,0.0290922578424215,0.0373255320964381,-0.1148378992918878,-9.96603178024292,14985.0
39.5,3.5,186.0,23.29816055297852,27.886871337890625,-79.78277953111811,40.45896601952335,320.8195262451172,0.011407982558012,-0.0029606167227029,-0.8703663349151611,0.4922637939453125,-0.0094430365317302,-0.0015350110048202,3.0251735607631987,0.0957941934466362,0.0129003599286079,0.1495626270771026,0.1050717883463949,-0.2077074439264834,-9.848015087842944,14985.0
39.7,3.2000000476837163,183.0,23.23806190490723,30.908544540405277,-79.78277969074475,40.45896605414117,321.4414821166992,0.0118170510977506,0.0004604129644576,-0.8711457252502441,0.4908822476863861,-0.0163306168581678,-0.009950881319951,2.9857953228530683,-0.0307997167110443,-0.050074715167284,0.0368233360350132,0.1335000280849635,0.1061707816645503,-9.650670974850655,14986.0
39.89,3.0999999046325684,181.0,23.43964195251465,26.5748291015625,-79.78277984023562,40.45896606360117,321.7649264831543,0.0104863848537206,0.0017946447478607,-0.8717941641807556,0.4897567927837372,-0.0108442784133407,-0.0247719146779587,3.0018785465663576,-0.0782746598124504,-0.0943067744374275,-0.0611295290291309,0.1812693679891527,-0.0625530288275331,-9.822820605039595,14986.0
39.99,2.799999952316284,176.0,23.443397521972656,28.03000259399414,-79.78278002510167,40.45896601670317,322.3653445739746,0.003260456258431,-0.0001657672983128,-0.8725619316101074,0.4884928166866303,0.02453341630972,-0.0292392027294539,2.9794653549171706,-0.1176812648773193,-0.0574484318494796,-0.0007596011855639,0.097043095305562,-0.2129300855845213,-9.598795062303545,14987.0
40.19,2.900000095367432,177.0,23.44965744018555,26.9724178314209,-79.78278012266581,40.45896595806147,322.9801440734863,3.821328573394568e-05,-0.003451268421486,-0.8729532957077026,0.4877917170524597,0.0438776619454333,-0.0163304053281638,2.923392202970509,-0.1677742600440979,-0.0252208840101957,-0.1045497357845306,0.0933699109777808,-0.0557791756745427,-9.530741073489189,14987.0
40.3,2.799999952316284,175.0,23.31694030761719,29.874814987182607,-79.78278028600705,40.45896598720961,323.30147509765624,0.0022245901636779,-0.0047375010326504,-0.8730701208114624,0.4875667691230774,0.0345045648488821,-0.0174694393738542,2.911862413390022,-0.1034028083086013,0.0061213001608848,-0.0856841802597045,0.1315268394816666,0.2483961893990636,-9.456618259549142,14988.0
40.49,2.799999952316284,177.0,23.37954330444336,28.78542137145996,-79.78278033735721,40.45896597619915,323.5917926330566,0.00422542123124,-0.005053324624896,-0.8729488253593445,0.4877675175666809,0.0314029509341252,0.0017792723186833,2.9026518945092787,0.0647515505552291,-0.0258337371051311,0.0177066959440708,0.1771069727092981,-0.0435660506598651,-9.722664232850075,14988.0
40.6,2.900000095367432,178.0,23.32695770263672,28.44349479675293,-79.78278045799881,40.45896598406791,324.20785861206053,0.0063704885542392,-0.0044673332013189,-0.8724184632301331,0.4886978566646576,-0.0088000731058776,0.0162525146509737,2.9475307146267857,-0.0234507508575916,-5.957929533906279e-05,0.0239769797772169,0.1773880227841437,-0.0604953022766858,-9.83089444041252,14989.0
40.8,2.900000095367432,179.0,23.47094345092773,26.55892562866211,-79.78278058808856,40.45896598434783,324.8227878112793,0.0088259112089872,-0.0010706448229029,-0.8712198734283447,0.4908125400543213,-0.0259487411133619,0.0198588408384912,2.9652716726555,0.0171061474829912,-0.019315518438816,0.0943040251731872,0.2799663116969168,-0.2405772926285863,-9.801447277665137,14989.0
40.89,2.900000095367432,183.0,23.35074615478516,29.326141357421875,-79.78278061488201,40.45896599219324,325.11848025512694,0.0100108683109283,-0.0006658991915173,-0.8709082603454591,0.4913433492183685,-0.0330375248136612,0.0083329422880121,2.94768330037729,0.088836058974266,0.0019450820982456,0.1187789216637611,0.1742519234865903,-0.2568390937149525,-9.684378418922424,14990.0
41.0,2.900000095367432,183.0,23.48346328735352,27.163259506225582,-79.78278063841555,40.4589659986825,325.41246752929686,0.010199905373156,-0.0006303969421423,-0.870992124080658,0.4911907017230988,-0.0499308520870939,0.0202666122457466,2.930691224919288,0.0052654636092484,-0.0028827709611505,0.0541147962212562,0.1599271587654948,0.0433440391905605,-9.585383303761482,14990.0
41.2,3.0,187.0,23.33071327209473,28.849035263061523,-79.78278073232552,40.458966060483625,326.0171657104492,0.0127674769610166,0.0025785313919186,-0.8707352876663208,0.4915795922279358,-0.0574543534745511,0.011702450610849,2.903947886850642,0.0212195236235857,0.0584766119718551,0.0219975262880325,0.0538433727063238,-0.0168579064495861,-9.639143189191818,14991.0
41.3,3.0,191.0,23.37703895568848,28.30036354064941,-79.7827807326003,40.45896608647021,326.3304439086914,0.012925861403346,0.0011491811601445,-0.8708797097206116,0.4913250505924225,-0.0529816918068487,0.0088696507578924,2.9061617787906706,0.0794707685708999,0.0734432563185691,0.1337508112192154,0.1344637588597834,-0.2373671712353825,-9.727474152445794,14991.0
41.5,3.299999952316284,197.0,23.311931610107425,29.26252746582031,-79.78278075996367,40.45896605881025,326.9078135986328,0.0126456376165151,-0.001371681690216,-0.8720947504043579,0.4891718327999115,-0.0266119860175444,0.0487657488652293,2.8682213219140267,0.1062226295471191,0.0151456939056515,0.18728968501091,0.1974196699820459,-0.1881001949496567,-9.610504696369173,14991.0
41.6,3.299999952316284,198.0,23.415851593017567,28.419639587402344,-79.78278078867065,40.45896612690364,327.2191348571777,0.0130682662129402,-0.0006009107455611,-0.8729348182678223,0.4876614511013031,-0.0343465519593188,0.0436968325012325,2.8739931906853444,0.0845075473189354,0.0147608947008848,0.1633945107460022,0.1194509504456073,-0.099172770017758,-9.688165660500529,14992.0
41.8,3.0999999046325684,200.0,23.16669464111328,32.037696838378906,-79.78278083306245,40.458966138780994,327.8169589538574,0.0147269843146204,-0.0017180149443447,-0.8736105561256409,0.4863998293876648,-0.0310036134801815,0.0457093585765025,2.8729920360787164,0.2187419980764389,0.0385777950286865,0.0082775652408599,0.266428399477154,-0.3181904192268848,-9.79022120833397,14992.0
41.9,3.0999999046325684,200.0,23.03522872924805,33.91431427001953,-79.78278084635448,40.45896611272329,328.10575823974614,0.0154120344668626,-0.0017545241862535,-0.8730358481407166,0.4874094426631928,-0.0311553925662645,0.0607786708547026,2.9074212583111168,0.0519953593611717,0.0142520768567919,0.0293656419962644,0.2182714074477553,-0.1999548947811126,-10.053453501462934,14993.0
42.1,3.0,202.0,23.23680877685547,29.62830924987793,-79.78278080682766,40.45896609944793,328.7098575134277,0.0131211914122104,-0.0034020054154098,-0.8711218237876892,0.4908799231052399,-0.038184468582204,0.0606148160613841,3.0137112263618064,-0.1347196102142334,-0.0391937345266342,-0.1908226460218429,0.1625899807736277,-0.0142924360139295,-10.309477347135545,14993.0
42.2,3.0,200.0,23.40583610534668,28.276508331298828,-79.78278083235763,40.45896606222893,329.0132213134765,0.0098318858072161,-0.0060819149948656,-0.8703096508979797,0.4923694133758545,-0.0059592933403403,0.0561206974778867,3.0423087474965484,-0.0158368255943059,0.0052720475941896,0.0286957994103431,0.1791466277092695,-0.2155826384201646,-10.106118203401566,14994.0
42.41,3.0,199.0,23.31318473815918,29.413612365722656,-79.78278083950714,40.458965938334416,329.6199260253906,0.0068885181099176,-0.0051031345501542,-0.8697240352630615,0.4934639930725098,0.0328148057957576,0.0597184713640826,3.0376793341181,0.0540252812206745,-0.0325209088623523,0.1808715164661407,0.1221741175465286,-0.050254744598642,-10.005151991844178,14994.0
42.61,2.900000095367432,199.0,23.33071327209473,28.841083526611328,-79.78278090263497,40.45896592476839,330.2291484375,0.0099304802715778,-0.0020786775276064,-0.8708862066268921,0.491380125284195,0.0055915685575751,0.0441333949001678,3.0266729850770564,-0.0339272581040859,-0.0166565347462892,-0.0340714268386364,0.1665922902524471,0.0192941671237349,-9.86856805086136,14995.0
42.7,2.900000095367432,199.0,23.265605926513672,30.15312576293945,-79.78278092689091,40.45896589286636,330.5319285888672,0.0115988664329051,-0.0020430535078048,-0.8717697262763977,0.4897744953632355,-0.0063996814098055,0.0411995982564753,3.0299927458438414,-0.0753214731812477,-0.009524056687951,-0.0485936775803566,0.1486711772717535,-0.1331230288557708,-9.879022872447967,14995.0
42.9,2.900000095367432,197.0,23.57235908508301,24.165441513061523,-79.78278092606942,40.45896588117393,331.1437182922363,0.0105191199108958,-0.0065581249073147,-0.8736315965652466,0.4864300191402435,-0.0127265028711886,0.0488548569266952,3.0309754978001715,-0.1268135756254196,0.0327634289860725,0.0223728064447641,0.1444533156696707,-0.2257008065655827,-9.885372948646546,14996.0
43.1,3.0,197.0,23.40458297729492,26.821332931518555,-79.78278097119275,40.458965854456814,331.7542834777832,0.0085884546861052,-0.0090807639062404,-0.8746013045310974,0.4846818745136261,-0.0058650972831142,0.0520872811457725,2.9635937984190885,-0.1436216384172439,-0.0388754568994045,-0.0175483766943216,0.1863941418752074,-0.0708572901785373,-9.564908108711244,14996.0
43.2,3.0,195.0,23.234304428100582,30.852882385253903,-79.78278101196761,40.4589658420808,332.0497470397949,0.0084968348965048,-0.0090081766247749,-0.8746068477630615,0.4846746325492859,0.0144861249002387,0.0421300248722332,2.9464067154663094,0.1432128250598907,0.0124606527388095,0.0089883636683225,0.2293936887010932,-0.1097270947694778,-9.690565942525865,14997.0
43.3,3.0,193.0,23.19423866271973,30.526859283447266,-79.78278100598814,40.45896581426653,332.37129931640624,0.0093629648908972,-0.008906815201044,-0.8742884397506714,0.4852347671985626,-0.0017074154272843,0.0412040545913313,2.9758019713612294,0.0055099544115364,-0.0153903514146804,-0.0635423064231872,0.1223983034491539,-0.0046562200505286,-9.985683102607728,14997.0
43.5,3.2000000476837163,192.0,23.34573745727539,28.62638664245605,-79.78278110931883,40.458965821445005,332.9735065002441,0.0119215324521064,-0.0063013206236064,-0.8732579350471497,0.4870716631412506,-0.0154983663696531,0.0240805961002242,3.032026997095212,0.0618420802056789,-0.0386029183864593,0.015418573282659,0.1216841939650476,-0.2118234634771944,-9.985815249681472,14997.0
43.6,3.299999952316284,193.0,23.47845458984375,25.811458587646484,-79.78278120135604,40.458965809920585,333.29537158203124,0.0125538641586899,-0.0047779944725334,-0.8726913928985596,0.4880874454975128,-0.028871998654436,0.0118135327641934,3.0237276541591207,-0.0031031516846269,-0.058910071849823,-0.058058675378561,0.0583065432775765,-0.2334287060424685,-9.813682576417923,14998.0
43.8,3.299999952316284,193.0,23.19173622131348,30.75746154785156,-79.78278138441712,40.45896581631322,333.91934924316405,0.012782503850758,-0.001711900695227,-0.8720989227294922,0.4891597628593445,-0.0519347809892122,-0.0052821867874543,2.9687404147366108,-0.1915046274662017,-0.0931917503476142,-0.0705191940069198,0.1310120652336627,0.1615927015990018,-9.492621905207637,14998.0
44.0,3.299999952316284,193.0,23.27311897277832,29.604454040527344,-79.7827815506824,40.45896582986904,334.5123286743164,0.0122178280726075,0.0021838108077645,-0.8720329403877258,0.4892899394035339,-0.0420604556618021,-0.0333798632689175,2.9664922835790963,-0.0614971481263637,-0.0609078332781791,0.0504684522747993,0.0585080392425879,-0.1349977284204215,-9.744278465509415,14999.0
44.09,3.400000095367432,189.0,23.33446884155273,27.966388702392567,-79.78278166863748,40.45896587145493,334.8413157958984,0.0115146180614829,0.0019708343315869,-0.8721030950546265,0.489182859659195,-0.0462603433639492,-0.0486479470578964,2.9914044235179333,-0.1051438003778457,-0.0472609512507915,-0.0260743293911218,0.0430315146502107,-0.0208259274903684,-9.812816019058229,14999.0
44.2,3.400000095367432,189.0,23.49848747253418,27.18711471557617,-79.78278176457059,40.45896587797585,335.13975482177733,0.0105211222544312,0.0022739495616406,-0.8719446659088135,0.4894862473011017,-0.0273407814833578,-0.0514304577518769,2.969141552467165,0.0188579838722944,-0.0428897477686405,0.0732542723417282,0.0739333641529083,-0.1326147048175335,-9.567020123004914,15000.0
44.4,3.5,186.0,23.12788009643555,30.94035148620605,-79.78278196786944,40.45896591894499,335.7514720458984,0.0091798966750502,0.0036068877670913,-0.8712642192840576,0.4907152056694031,-0.0186129570074055,-0.0652903048265901,2.8854851284734497,0.0088431360200047,-0.0556833855807781,-0.0175147093832492,0.0824717973545193,-0.3021282640099526,-9.475224684476853,15000.0
44.6,3.5999999046325684,184.0,23.35575485229492,27.78349876403809,-79.78278227136974,40.45896590773163,336.371841003418,0.0052986545488238,0.0006009986973367,-0.8706865906715393,0.4918094277381897,-0.0007431534986296,-0.0569743143909515,2.9093588335408,-0.0378741919994354,-0.0374417267739772,-0.0369902700185775,0.1324990944005549,-0.1691622694395482,-9.731166669130326,15001.0
44.7,3.5,187.0,23.20676040649414,29.636260986328125,-79.78278236536474,40.45896590750296,336.6614299316406,0.0031596000771969,0.0025947745889425,-0.8709008097648621,0.4914419949054718,0.0200770334419374,-0.0492924371781264,2.8837601965750617,0.049387376755476,-0.1081979051232338,-0.0019960852805525,0.1806437707319856,-0.3240307644009589,-9.598003934025764,15001.0
44.8,3.5999999046325684,186.0,23.22428894042969,29.779394149780277,-79.78278252499629,40.458965902832816,336.987205078125,0.0006568899843841,0.002802177099511,-0.8717349767684937,0.4899692833423615,0.0023537609453598,-0.0745857215669992,2.9246917595648423,-0.0392191968858242,0.0224099196493625,0.0226278342306613,0.1463355983421206,-0.1112208665069192,-9.790600107908247,15001.0
45.0,3.5999999046325684,187.0,23.22053337097168,29.34999847412109,-79.78278266505205,40.45896592825122,337.57488970947264,0.0006656885962001,-0.0023746495135128,-0.8733660578727722,0.4870582222938538,0.0149026290652902,-0.0520299422616859,2.9680933816577864,0.093704342842102,0.1109730452299118,0.0930583029985428,0.1026426356937736,-0.1073554549645632,-10.126747180223468,15002.0
45.1,3.5999999046325684,188.0,23.32570457458496,28.76156616210937,-79.78278280494268,40.45896598322491,337.902602722168,0.0032587731257081,-0.006687871646136,-0.8735990524291992,0.4865896701812744,0.0035867700680648,-0.0408274096701089,3.010433541450277,0.0619660057127475,0.1043102443218231,0.0822114273905754,0.1499368801899254,0.0010975680593401,-10.024852430820465,15002.0
45.3,3.5,187.0,23.450910568237305,24.626644134521484,-79.78278289915269,40.458965966589375,338.5167155761718,0.0090820454061031,-0.0059839482419192,-0.8729869723320007,0.4876223206520081,-0.0227933481191804,0.0206498452585824,3.0127484357014653,-0.0269131194800138,-0.0854986757040023,-0.0198909360915422,0.2210208047926426,0.0787363858614117,-9.866656011343002,15003.0
45.39,3.5,189.0,23.35199737548828,28.1572322845459,-79.7827829355475,40.45896598922679,338.8166499633789,0.0092256665229797,-0.0024547190405428,-0.8727958798408508,0.4879921674728394,-0.0321762665950211,0.0153837611986046,2.9786304294316204,0.0665718764066696,-0.0551717728376388,0.0606219619512558,0.2495669846981764,-0.174837485589087,-9.56193889260292,15003.0
45.6,3.5,191.0,23.246826171875,29.88276672363281,-79.78278297894775,40.4589660556358,339.424590637207,0.0057510896585881,-0.0025142328813672,-0.8725080490112305,0.4885595142841339,-0.0632329527895349,-0.0136873704208218,2.944588806365115,-0.0230083502829074,0.011715062893927,0.0084836222231388,0.1279776435345411,-0.2924256867170334,-9.779232535958291,15004.0
45.69,3.400000095367432,190.0,23.288143157958984,29.33409309387207,-79.78278299817008,40.45896609964975,339.71995501708983,0.0047018104232847,-0.0052346517331898,-0.8723402619361877,0.4888487756252289,-0.0606645457862043,-0.012531282100733,2.9605128840615182,0.0169704388827085,0.0353567749261856,0.0281447637826204,0.0969854636862874,-0.3801324962452054,-9.908193461894989,15004.0
45.9,3.400000095367432,188.0,23.11410903930664,31.22661590576172,-79.782783081854,40.45896623193181,340.33293109130864,0.0112695042043924,0.0010506897233426,-0.8720301389694214,0.4893214404582977,-0.086311811883855,-0.0115710189388904,2.975063374886705,0.0633885934948921,-0.0985280200839042,-0.1496554613113403,0.1786796179041266,-0.0403464092686772,-9.850550440549853,15005.0
45.99,3.400000095367432,189.0,23.14415740966797,31.95022773742676,-79.78278310312265,40.4589662984322,340.631736328125,0.0130088990554213,0.0069455271586775,-0.8717718124389648,0.4896901845932007,-0.1269649620835415,-0.025910800147039,3.00601274596427,-0.0950377359986305,-0.1120344325900077,-0.1389422863721847,0.0231927753193304,-0.0136726722680032,-10.06206995844841,15005.0
46.2,3.400000095367432,187.0,23.310680389404297,28.825180053710927,-79.78278311491718,40.458966394397976,341.2533107299805,0.0111791873350739,0.0105330608785152,-0.8717024922370911,0.4897948205471039,-0.1194879876823786,-0.0555970823084093,3.0527554059683664,0.0586894154548645,0.0378082618117332,0.072493202984333,0.0096929693582933,-0.4677130790054798,-9.95576757788658,15006.0
46.39,3.5,186.0,23.29189872741699,28.91264915466309,-79.78278305939213,40.45896646310985,341.8667216796875,0.0089686270803213,0.0039077014662325,-0.8716673254966736,0.4900004267692566,-0.0930992492750986,-0.0297796800474096,3.017050938641774,0.0233501251786947,0.0796947926282882,0.0012843094300478,-0.0310190747561864,-0.2996585828438401,-9.835565196275711,15006.0
46.49,3.5,184.0,23.23680877685547,30.28035545349121,-79.78278305328615,40.4589664933412,342.1677928466797,0.0105597134679555,0.000833399943076,-0.8718228936195374,0.4897068440914154,-0.0997165652910386,-0.0026325552009497,3.005452242087104,-0.1656154096126556,0.1052360236644744,-0.0729459226131439,0.0751183024048805,-0.2203462919220328,-9.693645671010016,15007.0
46.59,3.5,185.0,23.13288879394531,31.194808959960927,-79.78278296185469,40.45896652392708,342.47913317871087,0.0103513812646269,-0.0021950413938611,-0.8720912933349609,0.4892289638519287,-0.1061062637202918,0.0187477366870688,2.9997748931927504,-0.0144471703097224,0.0236869435757398,0.0221073441207408,0.1344041172601282,-0.2319015594944358,-9.810549638271333,15007.0
46.8,3.5,184.0,23.35575485229492,26.15338516235352,-79.78278298237775,40.458966623585006,343.09490924072264,0.0120233120396733,0.0007590274908579,-0.8720772266387941,0.489220142364502,-0.1394420320160497,0.0193729534147758,3.0273915129160214,-0.1244033128023147,-0.1116887256503105,-0.0491590648889541,0.0807300397194922,0.0087086876761168,-9.86233258008957,15008.0
46.9,3.5999999046325684,183.0,23.280630111694336,28.96831321716309,-79.78278296878496,40.45896669051872,343.3978953857422,0.0136226145550608,0.0035511716268956,-0.8720157742500305,0.4892752766609192,-0.1250927844006229,0.0007001074035524,3.0240397147586178,0.1514106690883636,-0.0635884925723075,0.1429513543844223,0.080136090517044,-0.3685516836494208,-9.77006351709366,15008.0
47.09,3.5999999046325684,179.0,23.2568416595459,29.04783058166504,-79.78278295931716,40.458966788748434,344.01328997802733,0.0174855310469865,0.0069892918691039,-0.872690737247467,0.4879101812839508,-0.1461181230002567,-0.02856086978357,3.0235766824145403,0.1346681714057922,0.0067387782037258,0.107332743704319,-0.0294727534521371,-0.5512867476046086,-9.90200476884842,15009.0
47.29,3.5999999046325684,178.0,23.35199737548828,27.58470344543457,-79.7827829494987,40.45896685399736,344.63426165771483,0.0154392421245574,0.0114329205825924,-0.8730708360671997,0.4872149229049682,-0.1704734034388025,-0.0293003265543595,3.0156161206833723,-0.16950024664402,-0.0258953515440225,-0.1366396397352218,0.0555958883045241,-0.1736507566273212,-9.900696161985396,15009.0
