time,wind_speed,wind_angle,battery_voltage,battery_current,position_x,position_y,position_z,orientation_x,orientation_y,orientation_z,orientation_w,velocity_x,velocity_y,velocity_z,angular_x,angular_y,angular_z,linear_acceleration_x,linear_acceleration_y,linear_acceleration_z,node_ids
0.0,1.100000023841858,60.0,22.84366607666016,0.0,-79.78275280309177,40.458986984535386,268.92785541772844,0.0184344500303268,0.0038607092574238,-0.7582170367240906,0.6517302393913269,-0.005334296184405,-0.010513926800014,-0.0042682601630848,-0.0022006449289619,-0.0027640149928629,0.0046076704747974,0.175996769182384,-0.3292704908922315,-9.806049036383632,14933.0
0.11,1.100000023841858,61.0,22.83615303039551,-0.0079517737030982,-79.78275294402492,40.4589870185072,268.9177440261841,0.0184378158301115,0.0038595998194068,-0.7582162022590637,0.6517310738563538,-0.0038968278269866,-0.0119440443373936,-0.0055770025062064,-0.0057297321036458,-0.0018046536715701,0.0016908561810851,0.1774993939697742,-0.318823855407536,-9.805294745564463,14933.0
0.3,1.100000023841858,60.0,22.84366607666016,0.0,-79.78275295717431,40.458987023602745,268.91719763040544,0.0184382982552051,0.003860026365146,-0.7582169771194458,0.6517301797866821,-0.0037107270010577,-0.0121066031778358,-0.0051759925189769,0.0013159182853996,0.0030238679610192,-0.0011343815131112,0.1770252944156527,-0.3213053040951491,-9.806415656805036,14933.0
0.41,1.100000023841858,58.0,22.84491729736328,0.0079517737030982,-79.782753076125,40.45898709135018,268.906739757061,0.0184329524636268,0.0038560184184461,-0.7582165002822876,0.6517308950424194,-0.0088829077791065,-0.0110568247263028,-0.0067575061701674,0.0032370002008974,0.0050572426989674,0.0020373705774545,0.1758218643441796,-0.327642626054585,-9.806155455708504,14933.0
0.6,1.100000023841858,58.0,22.83489990234375,0.0,-79.78275320800356,40.4589871096497,268.8967705821991,0.0184383075684309,0.0038565199356526,-0.7582157254219055,0.6517316699028015,-0.006017752855161,-0.0123940393670862,-0.0081025118980458,-0.0061445166356861,-0.0017309914110228,-0.0019706261809915,0.176038814317435,-0.3241456256434321,-9.805146226286888,14933.0
0.71,1.100000023841858,59.0,22.831144332885746,-0.0159035474061965,-79.78275322139956,40.458987116666336,268.8959682440758,0.0184383075684309,0.0038565199356526,-0.7582157254219055,0.6517316699028015,-0.0053841474020902,-0.0126774547326491,-0.0078451163863854,0.0017416458576917,-0.0001637515379115,0.0039475029334425,0.1770486467331647,-0.3268877505138517,-9.805717499256136,14933.0
0.9,1.100000023841858,57.0,22.8424129486084,0.0,-79.78275323498272,40.458987123797314,268.89520154953004,0.0184379033744335,0.0038565022405236,-0.7582155466079712,0.6517318487167358,-0.0062386419858088,-0.0127864019972579,-0.0074434318612754,-0.0064079649746418,-0.0025946055538952,-0.0056022643111646,0.1782748809456825,-0.3285271270573139,-9.805204698443411,14933.0
1.0,1.100000023841858,57.0,22.831144332885746,0.0,-79.78275331881792,40.45898714802893,268.88736002206804,0.0184344612061977,0.0038615898229181,-0.758215069770813,0.6517325043678284,-0.005315005445938,-0.0077221486369232,-0.00518249735519,-0.0038789212703704,0.0023101179394871,-0.0056640161201357,0.176241201069206,-0.3183137954771519,-9.8058139783144,14933.0
1.2,1.100000023841858,56.0,22.83489990234375,-0.0079517737030982,-79.78275342993173,40.45898719253428,268.8771322822571,0.0184332635253667,0.0038595986552536,-0.7582145929336548,0.6517331004142761,-0.0068326735277491,-0.0077022218367509,-0.0064671595551244,-0.0055875917896628,0.0002582161687314,-0.0044193821959197,0.1752406328357756,-0.3167369110509753,-9.804182020425795,14933.0
1.3,1.100000023841858,56.0,22.837404251098643,0.0079517737030982,-79.78275343760015,40.45898719955871,268.8765059566498,0.0184330735355615,0.0038599371910095,-0.7582148313522339,0.6517328023910522,-0.0062242787839084,-0.0077687779240621,-0.0061600055397532,0.0032262429594993,0.0015394745860248,0.0017598010599613,0.1785331451520324,-0.3310885364189744,-9.806787539720538,14933.0
1.5,1.100000023841858,56.0,22.8424129486084,0.0079517737030982,-79.78275354123066,40.45898724456138,268.8661901211739,0.0184323005378246,0.0038592801429331,-0.7582141160964966,0.6517336964607239,-0.0077468611055032,-0.0073007274234663,-0.0074893796807829,-0.0014296611770987,0.0042978445999324,0.0040129204280674,0.1774966165423393,-0.3310876227915287,-9.805877712965012,14933.0
1.61,1.100000023841858,56.0,22.83865737915039,-0.0079517737030982,-79.78275366807004,40.45898726654285,268.8558018064499,0.0184380151331424,0.0038588680326938,-0.7582132816314697,0.651734471321106,-0.004762342787727,-0.0099412082903555,-0.008300121031738,-0.0008899563690647,-3.0783125112066045e-05,0.0058569437824189,0.1761166919209063,-0.3166021692752838,-9.804725226759912,14933.0
1.8,1.100000023841858,57.0,22.837404251098643,0.0,-79.78275367865176,40.458987272466906,268.85498534202577,0.0184386447072029,0.0038598978426307,-0.7582125663757324,0.6517353057861328,-0.0051246279481961,-0.0101369487623433,-0.0080626027773998,-0.0008007358410395,0.001654130523093,-0.0025714840739965,0.1763711371645331,-0.3176170997321605,-9.804154538512226,14933.0
1.91,1.100000023841858,56.0,22.837404251098643,-0.0079517737030982,-79.78275377782164,40.45898729033701,268.8479217147828,0.0184415392577648,0.0038596373051404,-0.7582125663757324,0.6517351865768433,-0.0034991985354582,-0.0110727959854123,-0.0059452512269154,0.0001836585579439,-0.0001483992673456,0.0012535942951217,0.1760056496411562,-0.3298217006027699,-9.80570697426796,14933.0
2.1,1.100000023841858,56.0,22.837404251098643,-0.0159035474061965,-79.78275387001672,40.45898734996878,268.8388789153099,0.0184340067207813,0.0038540370296686,-0.7582121491432191,0.6517359614372253,-0.010844478848812,-0.0104809266527645,-0.0073862386389836,0.0002580178552307,-0.0025497393216937,0.0017651510424911,0.1762653756514191,-0.3276038882508874,-9.805494720339777,14933.0
2.2,1.100000023841858,55.0,22.8424129486084,-0.0079517737030982,-79.78275388029644,40.458987361158,268.83817140817644,0.0184340067207813,0.0038540370296686,-0.7582121491432191,0.6517359614372253,-0.0106816557004315,-0.0107295481886896,-0.0071226006425611,0.0066138529218733,0.0011949902400374,-0.0014080024557188,0.1767814107052981,-0.3205006906762719,-9.804878423810006,14933.0
2.4,1.100000023841858,56.0,22.833648681640625,0.0,-79.78275389072284,40.4589873725187,268.8374950146675,0.0184331890195608,0.003853989765048,-0.7582111358642578,0.6517371535301208,-0.0111007624174932,-0.010901520856853,-0.0067337565319686,-0.0016142958775162,-0.0038446965627372,0.0029866388067603,0.1769181076437235,-0.3219243415072561,-9.80493455708027,14933.0
2.5,1.100000023841858,56.0,22.833648681640625,0.0,-79.78275399183734,40.45898734527957,268.8280427908897,0.0184438824653625,0.0038635409437119,-0.7582095265388489,0.651738703250885,-0.0001574981541299,-0.0107316461655064,-0.0074485306187974,-0.0038924547843635,-0.0052496762946248,-0.0003351368650328,0.1762730683945119,-0.3269092755764723,-9.805491212010384,14933.0
2.7,1.100000023841858,56.0,22.84366607666016,0.0,-79.78275406247514,40.4589873991655,268.8185769176484,0.0184367429465055,0.0038589385803788,-0.7582095265388489,0.6517389416694641,-0.0065810924117131,-0.0096848903587019,-0.0082995480783811,-0.0057206247001886,-0.0027853967621922,-0.0001545794657431,0.1758112114481628,-0.3253005603700876,-9.805692356228828,14933.0
2.81,1.100000023841858,56.0,22.85368156433105,0.0079517737030982,-79.78275407255997,40.45898740630345,268.8177642083168,0.0184371620416641,0.0038599800318479,-0.758208692073822,0.6517398357391357,-0.0060781558005102,-0.0099746947670917,-0.0080420703012731,0.0031180984806269,0.001292522996664,0.0059715374372899,0.1762729770317673,-0.3244157304614782,-9.805422214865684,14933.0
3.0,1.100000023841858,56.0,22.83865737915039,0.0,-79.78275413586054,40.45898743859544,268.8106366848946,0.0184358917176723,0.0038604983128607,-0.758208692073822,0.6517398953437805,-0.0070746811837188,-0.0089075502086231,-0.0060791491197918,0.0019938477780669,0.0022293732035905,0.0018894368549808,0.1769473437219858,-0.325163516253233,-9.80521873176098,14933.0
3.11,1.100000023841858,56.0,22.83865737915039,-0.0238553211092948,-79.78275420308391,40.45898742943979,268.8041424012184,0.0184430908411741,0.0038651460781693,-0.7582085132598877,0.6517398357391357,-0.0011931848324178,-0.0093275183265046,-0.0039137420873598,-0.0055011929944157,-0.0024865979794412,-0.0029069378506392,0.1756461372412741,-0.3240509738400579,-9.804562674164773,14933.0
3.3,1.100000023841858,57.0,22.83615303039551,0.1431319266557693,-79.78275422475343,40.45898743380103,268.8033861374855,0.0184426140040159,0.0038650310598313,-0.7582094073295593,0.6517388224601746,-0.0012396319157797,-0.0096504596944545,-0.0032903498264384,-0.0037187850102782,-0.0002840770757757,-0.0019291475182399,0.1749561475217342,-0.3228486401215196,-9.804997707009315,14933.0
3.41,1.0,57.0,22.8424129486084,0.0795177370309829,-79.7827542629362,40.45898746102191,268.7967863535881,0.0184382982552051,0.0038640550337731,-0.7582096457481384,0.651738703250885,-0.0034852230451004,-0.0078343457245007,-0.0026339388622956,0.0039939125999808,6.328208837658167e-05,0.00095544999931,0.1779817709885537,-0.3269233088940382,-9.804762648940088,14933.0
3.6,1.0,59.0,22.83615303039551,0.0397588685154914,-79.78275432665397,40.458987453275256,268.7901644563675,0.0184442158788442,0.0038677884731441,-0.7582100033760071,0.6517381072044373,0.0025203296908735,-0.0087635959465353,-0.0015034176298009,0.0054905330762267,0.0025361112784594,0.0047417101450264,0.1774158518761396,-0.3283776576071978,-9.804962038993835,14933.0
3.7,1.0,60.0,22.837404251098643,0.0477106422185897,-79.78275433726415,40.45898745269448,268.79001180887224,0.0184442158788442,0.0038677884731441,-0.7582100033760071,0.6517381072044373,0.0016415920383181,-0.0088460229951045,-0.0011094868871959,-0.003235244192183,-0.002203574636951,-0.0014378728810697,0.176750658005476,-0.3200827974826097,-9.80417558848858,14933.0
3.8,1.0,62.0,22.837404251098643,0.1033730581402778,-79.78275434808396,40.458987452145095,268.7898875927925,0.0184444729238748,0.0038681579753756,-0.7582118511199951,0.6517359018325806,0.0023692014366698,-0.0091650004022018,-0.0008974139799549,0.0029110626783221,-0.0007380951428785,0.0060493070632219,0.1767195946723223,-0.3300072400644421,-9.8062531042099,14933.0
4.0,1.0,63.0,22.833648681640625,0.1272283792495727,-79.78275443308334,40.45898750028787,268.7771352386475,0.0184432044625282,0.0038640783168375,-0.7582119107246399,0.6517358422279358,-0.0022384727797352,-0.0107694167442563,-0.0003840947770774,-0.0012670909054577,-0.0019606468267738,-0.0070001748390495,0.1776420112140476,-0.3304430769011378,-9.804967886209488,14933.0
4.2,1.0,63.0,22.831144332885746,0.0318070948123931,-79.78275444543239,40.458987503436816,268.77709619760515,0.0184432044625282,0.0038640783168375,-0.7582119107246399,0.6517358422279358,-0.0015204144948009,-0.011007946567689,-9.77012128179536e-05,0.0029158180113881,0.0030455193482339,0.0060294773429632,0.1778025903739035,-0.3303953490033746,-9.805943786501883,14933.0
4.31,1.0,63.0,22.829893112182607,0.0636141896247863,-79.78275445800979,40.458987506635694,268.7770876741409,0.0184435304254293,0.0038644392043352,-0.7582114338874817,0.6517364382743835,-0.0023375238144447,-0.0111779836143165,0.0001767454968106,-0.0044671185314655,0.0011732369894161,-0.0047061420045793,0.176533196400851,-0.3171055414527655,-9.80319384098053,14933.0
4.5,1.0,64.0,22.8323974609375,0.0477106422185897,-79.78275448185039,40.45898752090783,268.77072738170625,0.018440356478095,0.0038677582051604,-0.7582103610038757,0.6517378091812134,-0.0019529573598561,-0.0081843806849247,0.0001331842061218,-0.0063381409272551,-0.0018453452503308,-0.0068496242165565,0.1761117035150528,-0.3174312679097057,-9.803320725560187,14933.0
4.6,1.0,66.0,22.831144332885746,0.0397588685154914,-79.78275451305656,40.45898753269447,268.7647924280167,0.0184419602155685,0.0038674874231219,-0.7582100629806519,0.6517381072044373,-0.0002288590522122,-0.0092199148283491,-0.0001171471627354,0.0047638453543186,0.0021277472842484,0.0037626349367201,0.1761892156675458,-0.3307935443893075,-9.80506611943245,14933.0
4.8,1.0,66.0,22.83865737915039,0.0715659633278846,-79.78275453472646,40.45898753638448,268.76479159355165,0.0184414573013782,0.0038675151299685,-0.7582091689109802,0.6517391800880432,-0.0002661060328397,-0.0096029993972326,0.000358483396275,0.0014467728324234,0.0001517968485131,0.0013794340193271,0.1779093934223056,-0.3306828127428889,-9.805605817437172,14933.0
4.9,1.0,66.0,22.83489990234375,0.0795177370309829,-79.7827545216467,40.458987648425534,268.7536155438424,0.018423480913043,0.0038589425384998,-0.7582065463066101,0.6517427563667297,-0.0163783223909521,-0.0061160588946998,-0.006839589588596,0.0051281373016536,0.0019117930205538,0.0065412758849561,0.1770866353623569,-0.3171237774565816,-9.804142844080925,14933.0
5.1,1.0,66.0,22.829893112182607,0.0636141896247863,-79.78275447807006,40.45898773071726,268.7392487382889,0.0184067450463771,0.0038572971243411,-0.7582051157951355,0.6517449021339417,-0.027457332843705,0.0013107192643195,-0.0196062199061084,-0.0006202958174981,0.0002007648581638,-0.0050738528370857,0.1758183377422392,-0.3174038590863347,-9.803799612522123,14933.0
5.2,1.0,64.0,22.833648681640625,0.0636141896247863,-79.78275447133456,40.45898775528784,268.73738591432567,0.0184067450463771,0.0038572971243411,-0.7582051157951355,0.6517449021339417,-0.0269125907188825,0.0011170533187493,-0.0194862569532168,0.0035349770914763,-0.0014908656012266,0.0064414995722472,0.1764954453147947,-0.3304525786265731,-9.80524329006672,14933.0
5.4,1.0,64.0,22.826135635375977,0.055662415921688,-79.78275449294405,40.45898782998993,268.7235402321816,0.0184103585779666,0.0038531564641743,-0.7582019567489624,0.6517484784126282,-0.0273361621288949,-0.00370526632876,-0.0254395499189316,0.0082376552745699,0.0017115988302975,0.0052937981672585,0.1773140372335911,-0.3296041841804981,-9.8054707467556,14933.0
5.5,1.0,63.0,22.831144332885746,0.055662415921688,-79.78275449178288,40.45898785594859,268.72109548807146,0.0184096377342939,0.003853008383885,-0.758201003074646,0.6517496705055237,-0.0282285659529561,-0.0039445530351898,-0.0252057047941596,-0.0027149470988661,-0.0013290990609675,-0.0082139894366264,0.1753743513487279,-0.3175790197402239,-9.804135242700577,14933.0
5.7,1.0,64.0,22.83489990234375,0.055662415921688,-79.78275448973531,40.458987863665975,268.706012711525,0.0184182412922382,0.0038625565357506,-0.7581993937492371,0.6517511010169983,-0.0178522662565421,-0.0031162054333198,-0.0307873478855873,-0.0013886548113077,-0.0026630423963069,-0.0051316763274371,0.1762355913966894,-0.3197735894098878,-9.804144013524056,14933.0
5.8,1.0,66.0,22.829893112182607,0.0795177370309829,-79.78275448955195,40.45898788047784,268.7029935574532,0.0184181109070777,0.0038630326744169,-0.7581989765167236,0.6517515778541565,-0.0171483365103128,-0.0033406565826444,-0.0306745722887634,0.0041271978989243,0.0013711587525904,0.002031204290688,0.1776014461554587,-0.3276140843331814,-9.805304101109504,14933.0
6.0,1.0,65.0,22.83615303039551,0.0954212844371795,-79.78275450369719,40.45898794989196,268.69149242401124,0.0184308290481567,0.0038690229412168,-0.7581902146339417,0.651761531829834,-0.0197436191455626,-0.0062346864147523,-0.0305455204381607,0.0020509541500359,-0.0004397937445901,0.0007642720593139,0.1776811692863703,-0.3260436683893204,-9.80625076532364,14933.0
6.21,0.8999999761581421,64.0,22.833648681640625,0.0795177370309829,-79.7827544883187,40.45898796768664,268.6827745294571,0.0184421371668577,0.0038860768545418,-0.7581775784492493,0.6517757177352905,-0.0132202962628792,-0.0046264324670136,-0.0271101049158087,0.0045473594218492,-0.000778024259489,0.0048199957236647,0.1778988684341311,-0.3241858617961407,-9.80596776008606,14933.0
6.3,0.8999999761581421,64.0,22.83990859985352,0.0318070948123931,-79.78275449060764,40.45898798111095,268.68011777162553,0.0184400398284196,0.0038887269329279,-0.7581642866134644,0.6517912149429321,-0.0137810134004212,-0.0046783060575022,-0.0267746463348031,-0.0047233393415808,-0.0007216667872853,-0.0031921847257763,0.1756724131666124,-0.3246363532170653,-9.805521032810212,14933.0
6.5,0.8999999761581421,64.0,22.8424129486084,0.0,-79.78275449408616,40.45898803343543,268.6718696808815,0.0184380039572715,0.0039064898155629,-0.7581737041473389,0.6517802476882935,-0.0152109252959799,-0.0072180562890343,-0.0248659286671785,-0.0061412793584167,-0.0031565097160637,0.0005518202669918,0.1752916680648923,-0.3253646604716778,-9.804907659888269,14933.0
6.6,0.8999999761581421,63.0,22.83865737915039,0.0,-79.78275446151103,40.45898803716543,268.6684094524384,0.0184418577700853,0.0039288862608373,-0.7581758499145508,0.6517775654792786,-0.0104141236940809,-0.0050269686210174,-0.0206241692590399,0.0012696832418441,0.0029330602847039,0.0024946792982518,0.175643816627562,-0.3229515145719051,-9.804558581113817,14933.0
6.8,0.8999999761581421,63.0,22.84366607666016,0.0159035474061965,-79.78275446854832,40.458988058363225,268.6643838739395,0.0184504780918359,0.0039453404024243,-0.7581790089607239,0.6517733931541443,-0.0103139003129156,-0.0051996219478702,-0.0202925670888986,0.0047249058261513,0.0007938385242596,0.0011570793576538,0.1761108447052538,-0.3218807066604495,-9.803754004240036,14933.0
6.91,0.8000000119209291,61.0,22.84366607666016,0.0079517737030982,-79.78275445081277,40.45898807840724,268.66105030536653,0.0184438396245241,0.0039442060515284,-0.7581661939620972,0.6517886519432068,-0.0101376304018798,-0.0063564905326437,-0.0179807450338127,-0.0015179342590272,-0.0012462493032217,-0.0026314426213502,0.1764133467525243,-0.32744703669101,-9.803886736035349,14933.0
7.1,0.8000000119209291,61.0,22.841161727905277,-0.0079517737030982,-79.78275442942703,40.45898807525345,268.6567469096184,0.0184547696262598,0.0039471150375902,-0.758161723613739,0.6517934203147888,-0.0027591518792201,-0.006805576859924,-0.0148192282516565,-0.0022238742094486,-0.002037247410044,0.0001413788995705,0.1762707843258977,-0.3279418573155999,-9.805509923100471,14933.0
7.2,0.8000000119209291,56.0,22.83615303039551,-0.0159035474061965,-79.78275443659855,40.45898807891422,268.6552706217766,0.0184547696262598,0.0039471150375902,-0.758161723613739,0.6517934203147888,-0.0025368875987924,-0.0070004594315164,-0.0146790112844921,0.0027595206629484,-0.0012054379330947,-0.0010754187824204,0.1758574958145618,-0.318844466842711,-9.804421756267546,14933.0
7.4,0.8000000119209291,57.0,22.841161727905277,0.0159035474061965,-79.78275438545023,40.45898809052989,268.6537732934952,0.0184517242014408,0.0039496310055255,-0.7581619024276733,0.6517933011054993,-0.0020193412860689,-0.0043153961508984,-0.0101001326094981,0.0019889357499778,0.0039988849312067,-0.0032062397804111,0.1773908915743232,-0.3191258275508881,-9.80391246378422,14933.0
7.5,0.699999988079071,56.0,22.83865737915039,0.0,-79.78275438985554,40.45898809319897,268.65276883602144,0.018451714888215,0.0039493553340435,-0.7581618428230286,0.651793360710144,-0.0020060381316651,-0.0043314262074646,-0.0099509413421985,-0.0010541992960497,0.0005012655165046,0.0019275601953268,0.1761423465795815,-0.3302227099612355,-9.80446327149868,14933.0
7.7,0.699999988079071,54.0,22.8424129486084,-0.0159035474061965,-79.782754325494,40.458988123176425,268.65268550872804,0.0184470657259225,0.0039487578906118,-0.7581626772880554,0.6517925262451172,-0.0048567551882131,-0.0028428147183533,-0.0063435372874972,-0.0006356979138217,-0.0014194122049957,0.0021065231412649,0.1768520706519484,-0.3297541652619839,-9.805579504966737,14933.0
7.8,0.699999988079071,53.0,22.84366607666016,0.0,-79.78275432781216,40.45898812803176,268.65207903146745,0.0184476561844348,0.0039492310024797,-0.7581623196601868,0.6517929434776306,-0.0049734168203712,-0.0028772614035667,-0.0060473020058611,0.0032583836000412,0.0025037615559995,-0.0026207738555967,0.1765094786323607,-0.3184179490059614,-9.803916556835173,14933.0
8.0,0.699999988079071,51.0,22.83990859985352,0.0079517737030982,-79.78275423346577,40.45898815422876,268.65266715049745,0.0184420756995678,0.0039510573260486,-0.7581630349159241,0.6517922878265381,-0.0069888120872126,0.0008808579596807,-0.0039784491242611,0.0004500033974181,-0.0014214636757969,-0.0032046765554696,0.1763447881489992,-0.3171282359585166,-9.80365635573864,14933.0
8.11,0.699999988079071,49.0,22.841161727905277,-0.0079517737030982,-79.78275417802651,40.45898817145714,268.65593390226365,0.0184437204152345,0.0039477916434407,-0.7581637501716614,0.6517913937568665,-0.0074786374403267,-0.002624264006634,0.0009308975698374,0.001802698825486,-0.0011719798203557,0.0020667728967964,0.176302140019834,-0.3301558324322105,-9.804199562072755,14933.0
8.3,0.699999988079071,48.0,22.83615303039551,0.0079517737030982,-79.78275418178539,40.45898818554839,268.65620295763017,0.0184428356587886,0.0039471047930419,-0.7581638693809509,0.6517913341522217,-0.0073244208733608,-0.0026916231058049,0.0013028812816427,-0.0009902995079755,0.0004605456488206,0.0060614137910306,0.1772317011281848,-0.3307341586053372,-9.80455448806286,14933.0
8.41,0.699999988079071,48.0,22.83615303039551,0.0,-79.78275409451052,40.45898819057389,268.6576454496384,0.0184427369385957,0.003950931597501,-0.7581639885902405,0.6517911553382874,-0.0053835490086797,-0.0010575323451005,0.0011795078945768,-0.0010983166284859,-0.000949939363636,-0.0051452689804136,0.1773437301255762,-0.3164070184528828,-9.803559876680373,14933.0
8.6,0.6000000238418579,48.0,22.841161727905277,0.0,-79.78275401755644,40.45898820262408,268.6602049922943,0.0184457432478666,0.0039512789808213,-0.7581632137298584,0.6517919301986694,-0.0033289490151041,-0.0032487475172493,0.0012724185206303,-0.0038831809069961,-0.0034566218964755,-0.0034994289744645,0.1755008887499571,-0.3156577708572149,-9.803231847882271,14933.0
8.7,0.6000000238418579,49.0,22.83990859985352,-0.0159035474061965,-79.7827540209304,40.45898820573841,268.660345659256,0.0184457432478666,0.0039512789808213,-0.7581632137298584,0.6517919301986694,-0.0026706569607834,-0.003377213477875,0.0013962073700746,0.0033048756886273,0.0006234513130038,0.003438038052991,0.1781798636913299,-0.3292052213475108,-9.804838662743569,14933.0
8.9,0.6000000238418579,50.0,22.84366607666016,0.0079517737030982,-79.7827539461058,40.45898822916165,268.6632932877541,0.0184448659420013,0.0039495779201388,-0.7581622004508972,0.6517931818962097,-0.0040664855388304,-0.0048865146050847,0.0015533961688073,0.0027879518456757,-0.0003982992493547,0.0032932260073721,0.177212332226336,-0.3297743747010827,-9.80607944190502,14933.0
9.0,0.6000000238418579,51.0,22.84366607666016,0.0079517737030982,-79.78275395110454,40.458988233755576,268.6634635782242,0.0184442363679409,0.0039489134214818,-0.7581612467765808,0.6517943143844604,-0.0047119542701084,-0.0049110533629369,0.0017026695341786,-0.0018961115274578,0.0004102429375052,-0.0031177483033388,0.1768579726852476,-0.3160293248668313,-9.802909081578257,14933.0
9.21,0.6000000238418579,50.0,22.83865737915039,-0.0159035474061965,-79.78275384590563,40.45898824710797,268.6669880604744,0.0184423960745334,0.0039526135660707,-0.7581614851951599,0.6517940759658813,-0.0033832364658171,-0.0027336237063652,0.00185080075122,-0.0034178711939603,-0.0040651368908584,-0.0032504289411008,0.1754901079460978,-0.3159482312947512,-9.804205409288407,14933.0
9.3,0.6000000238418579,50.0,22.83990859985352,-0.0079517737030982,-79.7827538486697,40.45898825020808,268.66717676877977,0.0184416528791189,0.0039521697908639,-0.7581608891487122,0.6517947912216187,-0.002667249958328,-0.0028602402500556,0.0017696925133619,0.0051643475890159,-0.0029141791164875,0.0022707642056047,0.1768638929910957,-0.3308907178044319,-9.804099574685097,14933.0
9.5,0.6000000238418579,48.0,22.831144332885746,-0.0079517737030982,-79.78275375940876,40.458988281607965,268.67145268678667,0.0184411983937025,0.0039501320570707,-0.7581611275672913,0.65179443359375,-0.0047913646625583,-0.0048925763936234,0.0016219233859059,0.0031735943630337,0.001442500972189,0.004294017329812,0.1773122830688953,-0.3295526190474629,-9.80380136668682,14933.0
9.6,0.6000000238418579,46.0,22.841161727905277,-0.0079517737030982,-79.78275362920112,40.4589882885457,268.6759784078598,0.0184390768408775,0.0039547807537019,-0.7581614255905151,0.6517941355705261,-0.0041213688257709,-0.0019255590518034,0.0016431060705311,-0.0025740996934473,-0.0028002792969346,-0.0055344542488455,0.1747955318167805,-0.321432517580688,-9.803379197716714,14933.0
9.8,0.6000000238418579,46.0,22.8424129486084,0.0079517737030982,-79.78275363258106,40.45898829560153,268.67634157896043,0.0184391438961029,0.0039544110186398,-0.7581614255905151,0.6517941355705261,-0.0040298483144548,-0.0020049507660473,0.0019874106345001,-0.0045283250510692,-0.0049216914921998,-0.0017587610054761,0.1749623967334628,-0.3244524948298931,-9.804484321475028,14933.0
9.9,0.6000000238418579,45.0,22.837404251098643,0.0079517737030982,-79.78275348820667,40.45898830744022,268.68323414087297,0.0184347163885831,0.0039579109288752,-0.758162796497345,0.6517927050590515,-0.003666055161292,0.0017269750283462,0.0043257129936792,-0.0018344323616474,-0.0001167278387583,0.0003677442145999,0.1771715844422579,-0.3239647639542818,-9.804576707482338,14933.0
10.1,0.6000000238418579,43.0,22.837404251098643,-0.0238553211092948,-79.78275335700853,40.458988334547854,268.68791429758073,0.018431082367897,0.0039568408392369,-0.7581629157066345,0.6517926454544067,-0.005712407248798,0.0017034862359117,0.0032814506814168,-0.0010058989282697,0.0033441488631069,0.0024286084808409,0.1760787032917142,-0.3204226668924093,-9.803679744601247,14933.0
10.2,0.6000000238418579,42.0,22.83990859985352,-0.0159035474061965,-79.78275335407247,40.45898833940667,268.688275680542,0.018431082367897,0.0039568408392369,-0.7581629157066345,0.6517926454544067,-0.0057750188536069,0.0017129772290242,0.0035237872965467,-0.0003080804017372,-0.0018849237821996,0.0030512905213981,0.1765224886871874,-0.3284255682304501,-9.805150319337846,14933.0
10.4,0.6000000238418579,43.0,22.8424129486084,-0.0079517737030982,-79.78275323488293,40.45898837411144,268.6933749175072,0.0184315834194421,0.0039543304592371,-0.7581649422645569,0.6517903208732605,-0.0066162224262676,-0.0011760317999456,0.0031223927509535,-0.0003639021306298,0.0024175737053155,0.0026729744859039,0.1776313583180308,-0.3299008207395673,-9.805264924764634,14933.0
10.5,0.6000000238418579,43.0,22.841161727905277,-0.0079517737030982,-79.78275323527065,40.45898838027839,268.6937097167969,0.0184312667697668,0.0039537493139505,-0.7581661343574524,0.6517888903617859,-0.0070767067616049,-0.0013023507116366,0.0032465282857865,-0.0032399846240878,-0.0001155159552581,-0.0064541604369878,0.1758155054971575,-0.3160027200356126,-9.80364290714264,14933.0
10.7,0.6000000238418579,42.0,22.83489990234375,-0.0159035474061965,-79.78275311367156,40.45898835561789,268.7013665890694,0.0184389688074588,0.003961581736803,-0.7581667304039001,0.6517881155014038,0.0025688387026208,-0.0018331443400206,0.0066328103645728,-0.0023395731113851,-0.0006024342728778,-0.0062608649022877,0.1762292325496673,-0.3172287715226412,-9.803031288385393,14933.0
10.8,0.6000000238418579,43.0,22.8323974609375,-0.0159035474061965,-79.78275311657048,40.458988353120034,268.7020190215111,0.0184382572770118,0.0039609693922102,-0.758167028427124,0.6517876982688904,0.0033697746623235,-0.0019698922959912,0.0066812053621437,0.0071457591839134,0.0004134664777666,0.0035976306535303,0.1762688657082617,-0.3296889322623611,-9.804418247938155,14933.0
11.0,0.6000000238418579,41.0,22.841161727905277,0.0079517737030982,-79.7827529488695,40.45898839077677,268.7072853302956,0.0184306968003511,0.0039623654447495,-0.75816810131073,0.6517866849899292,-0.0010320253879069,0.0020292051033791,0.0052851644833099,0.0011845633853226,-0.0021983459591865,0.0064950985834002,0.1777962497994303,-0.3257151645049453,-9.804445145130158,14933.0
11.11,0.6000000238418579,42.0,22.82863998413086,-0.0874695107340812,-79.78275281861514,40.45898841416538,268.71399943590166,0.0184324868023395,0.0039606522768735,-0.7581685185432434,0.6517861485481262,-0.0009488533179865,-0.0012625905469849,0.0077665053757952,-0.0061086481437087,-0.0052352724596858,-0.0019196677021682,0.1759322853572666,-0.3255007178708911,-9.804602435231208,14933.0
11.3,0.6000000238418579,43.0,22.82238006591797,-0.0874695107340812,-79.78275282218075,40.45898841518793,268.7155859923363,0.0184316933155059,0.0039600315503776,-0.758168637752533,0.6517860293388367,-0.0005458416507449,-0.0014487107537177,0.0081720084528083,-0.0001354420091956,-0.0007449386175721,6.0252175899222486e-05,0.175206773802638,-0.3281685831025243,-9.804588401913644,14933.0
11.4,0.5,45.0,22.826135635375977,-0.0954212844371795,-79.7827526554267,40.45898842274697,268.7232579445839,0.0184304565191268,0.0039648385718464,-0.7581701278686523,0.6517842411994934,0.0022419465158284,0.000808388264695,0.0095899868836422,0.0033135788980871,-0.0016476231394335,0.0024445049930363,0.176424255464226,-0.3180548003688455,-9.803834111094476,14933.0
11.6,0.5,45.0,22.829893112182607,-0.0079517737030982,-79.78275252866504,40.45898848737632,268.7277334189415,0.0184271931648254,0.0039540105499327,-0.7581697702407837,0.6517848372459412,-0.0053048743859837,-0.0058753830325193,0.0068309200977067,-0.0012198500335216,0.0006988547975197,-0.0026309648528695,0.175514922067523,-0.3162929246574641,-9.803576833605767,14933.0
11.7,0.5,46.0,22.83489990234375,-0.0477106422185897,-79.78275253477155,40.458988492500055,268.7284253692627,0.0184271931648254,0.0039540105499327,-0.7581697702407837,0.6517848372459412,-0.0047142299791494,-0.0058193856729366,0.0068788092128879,-8.102762512862682e-05,0.0016784509643912,0.002239390509203,0.1786364581435919,-0.3295392800867557,-9.804184944033622,14933.0
11.9,0.5,44.0,22.837404251098643,-0.0397588685154914,-79.78275236118772,40.45898853714471,268.7318543052673,0.018420310690999,0.0039577982388436,-0.7581691145896912,0.6517857909202576,-0.0066052147868201,-0.0009951936792982,0.0024586750562196,0.0030354938935488,0.0010414778953418,0.0075108250603079,0.1764437522739172,-0.3284505285322666,-9.804122378826143,14933.0
12.0,0.5,44.0,22.83990859985352,-0.0079517737030982,-79.7827523611531,40.45898854350676,268.73213414907457,0.0184194073081016,0.0039568697102367,-0.7581708431243896,0.65178382396698,-0.0073769428046201,-0.0009515136469172,0.0027298060369053,-0.0035872946027666,-0.0010654021752998,-0.0053170095197856,0.1749404148571193,-0.3210456877201795,-9.803648169636729,14933.0
12.2,0.5,43.0,22.82863998413086,-0.0238553211092948,-79.78275217233525,40.4589885777432,268.73694358825685,0.0184150375425815,0.0039627887308597,-0.7581712007522583,0.6517835259437561,-0.0060618145669627,0.003675575878266,0.0023616853082361,-0.0038322606123983,-0.0005661740433424,-0.0043856920674443,0.1761059476621449,-0.3245881867781282,-9.8044141548872,14933.0
12.31,0.5,42.0,22.83489990234375,-0.0079517737030982,-79.7827521671365,40.458988582255,268.73720674276353,0.0184154771268367,0.0039630346000194,-0.7581707239151001,0.6517840623855591,-0.0055931240851835,0.0036114299692302,0.0024368328313133,0.0018275186885148,0.0022661476396024,0.0016802996397018,0.1756554014235735,-0.3233631950989366,-9.804109514951708,14933.0
12.5,0.5,41.0,22.837404251098643,-0.0318070948123931,-79.78275199229074,40.45898863547856,268.740033493042,0.018412223085761,0.0039624543860554,-0.7581706047058105,0.6517843008041382,-0.0075030781341763,0.0036422319224812,-0.000683578892448,0.0016143725952133,0.0001253373920917,-0.000697536044754,0.1756630576215684,-0.317903905659914,-9.803747572302818,14933.0
12.6,0.4000000059604645,41.0,22.826135635375977,-0.0079517737030982,-79.7827518454491,40.45898864211544,268.7449673867226,0.0184193756431341,0.0039659491740167,-0.7581705451011658,0.6517840027809143,-0.0002103514747779,0.0005196025257537,0.0002516575316808,-0.0005862474790774,-0.0005986262112855,0.0034321695566177,0.1770242894254625,-0.3295984100550413,-9.804384918808935,14933.0
12.8,0.4000000059604645,43.0,22.82738876342773,0.2862638533115387,-79.78275184419333,40.45898864250728,268.745057926178,0.0184195265173912,0.0039727762341499,-0.758175253868103,0.6517785787582397,-0.0010436274291404,0.0007176655408365,0.0007288884028731,-0.0020573819056153,-0.0026246160268783,-0.0079257581382989,0.1754908753931522,-0.3355141477659345,-9.803333589434622,14933.0
12.9,0.4000000059604645,49.0,22.81612014770508,0.2942156493663788,-79.78275169092385,40.45898870135644,268.7495453214645,0.0184261668473482,0.0039831334725022,-0.7581210136413574,0.6518414616584778,-0.005335939284198,-0.0008025190534473,0.0008863829889482,-0.0080322176218032,-0.0015951904933899,0.0017039468511939,0.1806952079571784,-0.3055897974036634,-9.805509923100471,14933.0
13.1,0.4000000059604645,50.0,22.82488441467285,0.3021674156188965,-79.78275151844716,40.45898878600002,268.7526373124123,0.0184104423969984,0.0039826901629567,-0.7581234574317932,0.6518389582633972,-0.0128344317284818,-0.0006868367866626,-0.0019210104060859,-0.0027545411139726,0.0026185095775872,-0.0022630209568887,0.1773922802880406,-0.3178304865583777,-9.805603478550912,14933.0
13.21,0.4000000059604645,57.0,22.82863998413086,0.278312087059021,-79.78275151653328,40.45898879749439,268.7524942612648,0.0183905735611915,0.00396727072075,-0.7581452131271362,0.6518142819404602,-0.0130313608984067,-0.0004661416403123,-0.0017779615937066,0.0028024581260979,-0.0006516491994261,0.0040949392132461,0.1760260235331952,-0.3328515084832907,-9.803418958783151,14933.0
13.4,0.4000000059604645,62.0,22.81862449645996,0.326022744178772,-79.78275136885118,40.45898881938917,268.7552363729477,0.0184059981256723,0.0040255924686789,-0.7581579089164734,0.6517987847328186,-0.0044586468163927,-0.0016554199515062,-0.0038666666517111,0.0022441509645432,-0.0005586970364674,0.0010269922204315,0.1773350506648421,-0.3291447757557034,-9.802271735072138,14933.0
13.5,0.4000000059604645,68.0,22.814868927001957,0.3578298389911652,-79.78275136984553,40.458988823745045,268.75486557245256,0.0184040684252977,0.0040254383347928,-0.7581281661987305,0.6518335342407227,-0.0044017145247897,-0.0014172482331438,-0.0037247754178228,-0.0050597754307091,-0.0082359826192259,0.001583140110597,0.1741619311831891,-0.3215469402819872,-9.801304020881654,14933.0
13.7,0.4000000059604645,71.0,22.814868927001957,0.4055404663085937,-79.78275121862625,40.45898888101826,268.7602352356911,0.0184135567396879,0.0040490133687853,-0.7581314444541931,0.6518291831016539,-0.0061651551415459,-0.0025896078124564,-0.0019597225936917,-0.0009653166634961,0.0039826296269893,0.0067760497331619,0.1767096361331641,-0.3249697175994515,-9.805672475695609,14933.0
13.8,0.4000000059604645,76.0,22.814868927001957,2.07541298866272,-79.78275122046563,40.458988886844345,268.760069475174,0.0184231456369161,0.0040531670674681,-0.7581740021705627,0.6517793536186218,-0.0064703559582849,-0.0024839915755631,-0.0016647834121139,-0.0013775776606053,-0.0015256963670253,-0.0040571554563939,0.1739206421747803,-0.3190827774256468,-9.804314167499545,14933.0
14.0,0.4000000059604645,78.0,22.804851531982425,0.5327688455581665,-79.78275106218503,40.45898893999893,268.7639835929871,0.0187996998429298,0.0043125380761921,-0.7581086754798889,0.6518430113792419,-0.0078613156169099,-0.0003563617556903,-0.0007325017292494,-0.0238509103655815,-0.0058827712200582,-0.02174898609519,0.1743120767176151,-0.288638920225203,-9.787062542438507,14933.0
14.1,0.4000000059604645,86.0,22.82488441467285,0.2465049922466278,-79.78275091035859,40.45898900712452,268.76767228603364,0.0188324805349111,0.0042625474743545,-0.7581254839897156,0.6518228054046631,-0.0104371601455021,0.0006971702761156,-0.0050637954815979,-0.0068934774026274,-0.0044997446238994,0.0040520196780562,0.1788384063541889,-0.2819641956500709,-9.789892010092736,14933.0
14.3,0.4000000059604645,90.0,22.69091415405273,1.892522215843201,-79.7827509099208,40.45898901545517,268.76728408098217,0.0187923796474933,0.0043176678009331,-0.7580508589744568,0.6519104242324829,-0.0085197448622351,-0.0008673200491882,-0.0028683170098456,-0.0068872757256031,0.0021668740082532,-0.0186549499630928,0.1646338932774961,-0.2827771961688996,-9.818713520765304,14933.0
14.4,0.5,97.0,22.79358291625977,0.4691546559333801,-79.78275071836373,40.45898906263445,268.7737122631073,0.0189199745655059,0.004423449281603,-0.7580478191375732,0.6519094705581665,-0.0120926322810459,0.0053875347944156,-0.001904106390173,-0.0322046056389808,0.0023917867802083,0.0042417985387146,0.1752536063455045,-0.3215741663798689,-9.798335389494897,14933.0
14.6,0.5,98.0,22.82238006591797,0.2624085247516632,-79.78275054756024,40.458989105231865,268.7796437597275,0.0189294628798961,0.0044073732569813,-0.7580443024635315,0.6519135236740112,-0.0068633865724788,0.0046066776327132,-0.0016330476217176,0.0053123729303479,0.024822860956192,-0.0017178553389385,0.1977929964289069,-0.3240074851736426,-9.81260668873787,14933.0
14.71,0.5,101.0,22.80109596252441,1.1450554132461548,-79.7827505402294,40.458989112263,268.779572532177,0.0188037138432264,0.0044319564476609,-0.7580558657646179,0.6519034504890442,-0.0098256150615529,0.0058474743292561,-0.0010821330994138,-0.0178849752992391,0.003338414710015,-0.0147154126316308,0.1770341931469738,-0.2885438298806548,-9.816700909137728,14933.0
14.8,0.5,104.0,22.70343589782715,3.2602272033691406,-79.78275053235397,40.4589891192834,268.77952335834505,0.0187819674611091,0.0044199125841259,-0.7580623030662537,0.6518967747688293,-0.0095028316197083,0.0056434598781896,-0.0012968443932508,-0.0210833698511123,-0.0087577234953641,0.0122911566868424,0.1701585253514349,-0.3210795284807682,-9.794234737157822,14933.0
15.0,0.6000000238418579,106.0,22.602020263671875,5.2402191162109375,-79.78275026746128,40.45898916911431,268.79040800094606,0.0188371520489454,0.0044348328374326,-0.7580691576004028,0.651887059211731,0.0022162419264559,-0.0027910813907654,-0.0010684066299953,-0.005304214078933,-0.0381923466920852,-0.005153760779649,0.1872533171251416,-0.3910673376917839,-9.808016624450683,14933.0
15.2,0.6000000238418579,105.0,22.52313995361328,7.538281440734862,-79.78275027075986,40.458989167732135,268.7904558634758,0.0193194262683391,0.0046943547204136,-0.7581703066825867,0.6517535448074341,0.0011265142000145,-0.0072556972966267,-0.0007300554508424,0.0060119489207863,0.1361198425292968,-0.0744345337152481,0.1681042705848813,-0.2414035772904753,-9.855210671424867,14933.0
15.3,0.6000000238418579,104.0,22.47430992126465,8.754902839660645,-79.7827502756424,40.45898916468006,268.7905824637413,0.0199304316192865,0.0051174326799809,-0.7580971717834473,0.6518170237541199,0.0090314766397823,0.0032777668025185,0.0027614423394075,0.009025334380567,0.0235608946532011,-0.0796691849827766,0.2359035217948258,-0.4081379183381796,-9.801531477570537,14933.0
15.5,0.6000000238418579,107.0,22.34660148620605,11.068869590759276,-79.78275006337428,40.4589892292442,268.7918649172783,0.0207249987870454,0.0059979809448122,-0.7581467628479004,0.651727020740509,0.0002805182044905,0.0013303276883621,-0.0017860530122964,0.0156903285533189,-0.0159567240625619,0.0077542699873447,-0.0330580011382699,-0.1618412996269762,-9.687551118135454,14933.0
15.61,0.6000000238418579,116.0,22.28650283813477,12.43657398223877,-79.7827498747697,40.458989252176025,268.7981121993065,0.0214996561408042,0.0066077085211873,-0.758204460144043,0.651628851890564,0.011382299324418,0.0074229812041846,0.0001989359859944,0.0715865120291709,0.0677841827273368,-0.1084475442767143,0.1210264004766941,-0.4436589859798551,-9.797446612715722,14933.0
15.8,0.6000000238418579,119.0,22.15253257751465,15.688850402832031,-79.78274986763003,40.4589892486414,268.7983955001831,0.0221996381878852,0.0071038845926523,-0.7583986520767212,0.6513742208480835,0.0151602439805336,0.0009089405483688,0.0069736925652185,0.1035069301724434,0.0398739799857139,-0.0814865827560424,0.2775214263796806,-0.2041553883254528,-9.901686680316926,14933.0
15.9,0.6000000238418579,121.0,22.073654174804688,16.953182220458984,-79.78274970896925,40.45898927851688,268.8043047046661,0.0232349224388599,0.0073030823841691,-0.7589333057403564,0.6507127285003662,0.0076097712626833,0.0042189122809882,0.0100907158074273,-0.0081799663603305,-0.0020892124157398,-0.0136108687147498,0.2370520976744593,-0.3336163973808289,-9.847071347236634,14933.0
16.1,0.6000000238418579,123.0,21.92716407775879,20.40425109863281,-79.78274958917933,40.45898928990603,268.8080986595154,0.023219084367156,0.0072573581710457,-0.7603490948677063,0.6490589380264282,0.0072435622174145,0.0070105279825017,0.0137745651138356,-0.0621690601110458,-0.060824729502201,0.0831262022256851,0.3151447507739067,-0.5888688491284848,-9.826049437522888,14933.0
16.21,0.699999988079071,125.0,21.83952140808105,22.54327964782715,-79.78274958603535,40.45898927906599,268.8107429599762,0.0184866581112146,0.0078443381935358,-0.7630156874656677,0.6460679769515991,0.0106916736304621,0.0115053351084285,0.0460769734320319,-0.1277005672454834,-0.149235650897026,0.1292981952428817,0.0500333635322749,-0.3689787131175399,-10.06209451675415,14933.0
16.3,0.699999988079071,127.0,21.759389877319336,23.942790985107425,-79.78274958624756,40.45898926176271,268.81684534311296,0.0103990174829959,0.0048693865537643,-0.7672117352485657,0.6412912011146545,0.0235032860097516,-0.0017705976641657,0.0812762803093276,-0.270750105381012,-0.0220882408320903,0.172056034207344,-0.0062568770628422,-0.2240970980376005,-10.143984771966933,14933.0
16.51,0.699999988079071,133.0,21.96347427368164,17.81992530822754,-79.78274936195898,40.45898913247019,268.86774878263475,-0.0095986574888229,-0.0059137740172445,-0.7728567719459534,0.6344804763793945,0.0313211368649333,-0.0060862692174486,0.3432657111221458,-0.0087316026911139,0.0331606119871139,-0.0051985937170684,-0.0463934991974383,0.0233062798250466,-10.967190874814989,14933.0
16.7,0.699999988079071,135.0,21.93467712402344,19.99871063232422,-79.78274935833505,40.45898911423079,268.9029695248604,-0.0092350086197257,-0.0043956479057669,-0.7728648185729979,0.6344882845878601,0.0242189670167164,0.0068589152475997,0.3477516241846204,0.0760047510266304,0.0232361890375614,0.0417606979608535,0.0470526996720582,0.1016987763158977,-10.027459119558335,14933.0
16.8,0.699999988079071,144.0,21.922155380249023,19.6885929107666,-79.78274933685907,40.45898910410197,268.93534605264665,-0.0069121257402002,-0.0010304347379133,-0.7727246880531311,0.6347029805183411,0.0023215458663976,0.0260291035596402,0.2988727638811273,0.1044028401374816,0.0177599396556615,-0.0558730587363243,0.0398658229596912,0.024981886264868,-9.521757411360742,14933.0
17.0,0.8000000119209291,148.0,21.8570499420166,21.326658248901367,-79.78274899657917,40.45898926434565,268.9525259590149,-0.0012807234888896,0.0036823686677962,-0.7716551423072815,0.6360291838645935,-0.0152086563029289,0.0603908223520558,0.1404635322853263,0.106913149356842,0.0296453945338726,-0.0528205968439579,0.0983003014884889,0.0666878051497042,-9.28177598655224,14933.0
17.1,1.0,153.0,21.85078811645508,20.8734073638916,-79.7827488930921,40.458989255644624,268.9778478598595,0.0009688842692412,0.0038140800315886,-0.7710191607475281,0.6367999315261841,-0.0039145849312494,0.056988444004172,0.0989081237375518,0.0744592472910881,0.0561541207134723,0.0049344170838594,0.0209113859175704,-0.0517955864220857,-9.501590949296954,14933.0
17.3,1.0,155.0,21.75563240051269,22.980627059936523,-79.78274873198829,40.45898923458881,268.99562524318696,0.0035991750191897,-0.0041073919273912,-0.7704823017120361,0.6374381184577942,0.0007365800334848,0.0794933955626255,0.0687824632079961,-0.08195810765028,0.0645901635289192,0.06199986115098,0.1046938480809331,-0.1418340097367763,-9.585480367541312,14933.0
17.41,1.100000023841858,160.0,21.79820251464844,22.71026611328125,-79.78274850899486,40.458989480479815,269.04744945526124,0.003550753230229,-0.0056685106828808,-0.7704242467880249,0.6374965906143188,-0.0356353540134045,0.0851972751785622,0.1035447091776916,0.0574284233152866,-0.0451911389827728,-0.0379364527761936,0.1914371461048722,0.1760085732489824,-9.714084613323212,14934.0
17.6,1.2000000476837158,163.0,21.816984176635746,21.50954818725586,-79.78274820899615,40.458989461739066,269.08060215473176,0.004638903774321,-0.0043155928142368,-0.7706503868103027,0.6372267007827759,-0.0287124553782538,0.0873864554331663,0.13375949415744,0.0884075462818145,0.0251356195658445,0.012210976332426,0.1113299353513866,-0.0985042048618197,-9.969534262418748,14934.0
17.7,1.100000023841858,166.0,21.783178329467773,22.105932235717773,-79.7827481023029,40.458989478065966,269.0945674037933,0.0052700396627187,-0.0066966107115149,-0.7709289193153381,0.6368642449378967,-0.0373094781759631,0.0884712614570374,0.1421880438900976,-0.0409071557223796,0.0338921323418617,0.0037797631230205,0.0871437957510352,-0.046997096305713,-9.862005136013034,14934.0
17.8,1.2000000476837158,173.0,21.769405364990234,22.185449600219727,-79.78274799472003,40.45898949588883,269.10903011322023,0.005489672999829,-0.0080524627119302,-0.7711532711982727,0.6365750432014465,-0.0431274005644186,0.0905341666520404,0.1475901885541546,-0.0822225660085678,-0.0176299437880516,0.0463615618646144,0.1741984397359192,-0.0075526154832914,-9.87881354212761,14934.0
18.01,1.2000000476837158,177.0,21.759389877319336,22.956771850585927,-79.78274744027884,40.45898950562903,269.18378125190736,0.0076315947808325,-0.0065357163548469,-0.7710549831390381,0.6366893649101257,-0.0380600550084157,0.0850205302682304,0.1890638095202041,0.0278226714581251,0.0221981778740882,0.0098397145047783,0.1365750787965953,-0.0747714802902192,-9.95341231942177,14934.0
18.2,1.2999999523162842,175.0,22.356616973876957,6.289853096008301,-79.78274733818209,40.45898952722645,269.2038197374344,0.0080092055723071,-0.0077335843816399,-0.7708380818367004,0.6369339227676392,-0.0420634491141033,0.0843218702413467,0.2093605595448868,-0.0467837341129779,0.0301051717251539,-0.0946469008922576,0.1705868704430759,0.0655028440570458,-9.947540545463562,14934.0
18.31,1.2999999523162842,174.0,21.739356994628903,24.96857070922852,-79.78274724011763,40.45898954966177,269.223351225853,0.0083700576797127,-0.0081311929970979,-0.7704600095748901,0.6373816132545471,-0.0384492297115763,0.076191362461213,0.1395628475158163,0.0406143330037593,0.0233974363654851,0.0126415332779288,0.1772119667753577,-0.0526804985571652,-9.121508483290674,14934.0
18.5,1.399999976158142,173.0,21.564069747924805,26.36808204650879,-79.78274695299633,40.45898954027154,269.253150806427,0.0054350597783923,-0.0033947578631341,-0.7704328894615173,0.6374889612197876,-0.0364563574832264,0.0778935170932985,0.0390787399946547,0.019988052546978,-0.0390560962259769,-0.1021776497364044,0.1176717614941299,0.0339775306172668,-9.699523876905443,14934.0
18.6,1.399999976158142,175.0,21.481433868408203,28.91264915466309,-79.7827466971175,40.45898958931072,269.29995916843416,0.0046371244825422,-0.0039184670895338,-0.7705854773521423,0.6373078227043152,-0.0513159798392782,0.074924128602019,0.1472135859179979,-0.0049951784312725,0.0277150683104991,-0.0158866252750158,0.0536806419538334,-0.002066058833152,-10.267863882780077,14934.0
18.8,1.399999976158142,174.0,21.421335220336918,29.055782318115234,-79.78274650431732,40.45898965034077,269.35533605575563,0.0054639331065118,-0.005122322589159,-0.7705051898956299,0.6373898386955261,-0.0367259546583931,0.0849614526100929,0.4391286831626185,0.0370715111494064,0.0051427436992526,0.0971122980117798,0.1638901822641492,-0.3812675869837404,-11.372036883831026,14934.0
18.91,1.399999976158142,177.0,21.401302337646484,29.77144241333008,-79.78274620432144,40.45898973610566,269.4593654727936,0.0061736344359815,-0.003617946524173,-0.7702223658561707,0.6377353072166443,-0.047145008742538,0.091397709391543,0.767723756636222,0.0376258753240108,0.0151404058560729,0.0505114719271659,0.1644074781239032,0.1625964127108455,-11.610897982120516,14934.0
19.1,1.399999976158142,178.0,21.256065368652344,33.0078125,-79.78274607551623,40.45898978308579,269.5549336528778,0.0077035436406731,-0.0027150597888976,-0.7701630592346191,0.6377948522567749,-0.0544747379655879,0.0907718409698126,0.9679381760271966,0.0694237947463989,-0.0304400641471147,0.1188327968120575,0.1822812834754586,-0.2683462679386139,-11.888550678491592,14934.0
19.2,1.5,180.0,21.226015090942383,33.381546020507805,-79.78274597353688,40.45898981899615,269.66324506759645,0.0088228909298777,-0.003155521582812,-0.7698721289634705,0.638129472732544,-0.0625325370435025,0.099347072230267,1.1942883467803231,0.0538318343460559,-0.0025111094582825,0.0372405014932155,0.2733196903020144,-0.1309010777715593,-12.006294890642168,14934.0
19.3,1.600000023841858,184.0,21.24104118347168,32.912391662597656,-79.78274586728423,40.4589898552291,269.794285402298,0.0082094445824623,-0.0030372347682714,-0.7694185376167297,0.6386850476264954,-0.0650763013509702,0.1093592216681569,1.4220895262249509,0.0065164896659553,-0.0483949780464172,0.0871799513697624,0.2445335918292403,-0.2458117748983205,-12.10383580327034,14934.0
19.5,1.7000000476837158,183.0,21.153396606445312,34.64587783813477,-79.78274561687188,40.4589899528818,270.1275888538361,0.0054622292518615,-0.0002414149348624,-0.7685714960098267,0.6397407054901123,-0.0676780890794329,0.1156355076473158,1.871326590095553,0.0749062299728393,-0.0537577904760837,0.0486308299005031,0.2243809803575277,-0.1600649520568549,-12.149113132953644,14935.0
19.7,2.0,187.0,20.93929672241211,39.51236343383789,-79.7827453654961,40.458990045171646,270.54478655815126,0.0091885393485426,0.0059964810498058,-0.7679504156112671,0.6404154300689697,-0.0886081976742184,0.1342295685799671,2.33210739118618,0.0163138527423143,-0.0428525879979133,-0.0499275773763656,0.2567762726917863,-0.127886874647811,-12.097167638540268,14935.0
19.81,2.200000047683716,191.0,21.18094253540039,33.92226791381836,-79.7827452068701,40.45899006455274,270.790317401886,0.0110781313851475,0.0060749286785721,-0.7680331468582153,0.6402854919433594,-0.0870973778560437,0.1449227512924535,2.5820919153801016,0.1042344495654106,0.0228535719215869,0.0749287381768226,0.1758768464438617,-0.1827109441906214,-12.280564388036726,14935.0
20.0,2.400000095367432,193.0,21.256065368652344,31.91046905517578,-79.78274486277334,40.45899011098216,271.34671793937684,0.011225008405745,0.0056517138145864,-0.7680804133415222,0.6402301192283629,-0.0851842073429568,0.1911592231022014,2.9731676772230164,-0.0665326863527298,-0.0517934970557689,-0.0850923657417297,0.2851516042649746,-0.0668766884878277,-11.650121104717256,14936.0
20.11,2.5999999046325684,195.0,21.36749649047852,30.336017608642567,-79.7827447072506,40.45899012241103,271.6424687957764,0.0098879728466272,0.0036638977471739,-0.7684998512268066,0.6397630572319031,-0.06993818914298,0.1895468201131372,3.0852062336705925,-0.0898388773202896,0.0090296594426035,-0.0057696346193552,0.1600903874449432,-0.0998369497619569,-11.216371139287949,14936.0
20.3,2.700000047683716,194.0,21.57909393310547,25.67627716064453,-79.78274429702464,40.45899002477928,272.276524887085,0.0160363037139177,0.0027140674646943,-0.7687721252441406,0.6393160223960876,-0.0360982149193675,0.2216600468793464,3.2201699400781743,0.030555235221982,0.0375023819506168,-0.0849643275141716,0.2187149553000927,0.0558928035199642,-10.352235696315766,14937.0
20.41,3.0999999046325684,198.0,21.45013236999512,27.958436965942383,-79.78274389792422,40.4589899344438,272.9075392341614,0.0220724195241928,0.0037980922497808,-0.7682580351829529,0.6397484540939331,-0.0502266064163681,0.2548112249088416,3.1163581662636943,-0.1347592025995254,-0.0220365896821022,-0.1065084934234619,0.1890889042988419,-0.1989342998340726,-9.674643389582632,14937.0
20.6,3.2000000476837163,199.0,21.461400985717773,27.370006561279297,-79.78274374353565,40.45898996478035,273.1990717506409,0.0205014236271381,0.006588234566152,-0.7681881189346313,0.6398620009422302,-0.0286962384689626,0.2509451761043115,3.066877502169081,0.0268511902540922,-0.0555796325206756,0.10553028434515,0.1979308628104627,-0.3069607684761286,-9.526857352852822,14938.0
20.7,3.299999952316284,204.0,21.497711181640625,26.19314384460449,-79.78274355520902,40.4589898443123,273.5044878578186,0.0206798985600471,0.0068676983937621,-0.7682129740715027,0.6398233771324158,-0.0105592826322512,0.2244945424880848,3.035862628691673,0.0626138746738433,0.0792765468358993,0.0156246041879057,0.0679576787771657,-0.0141481057181954,-9.459984501600266,14938.0
20.9,3.400000095367432,207.0,21.43260383605957,27.457475662231445,-79.78274338412723,40.45898972682439,273.8032730674744,0.0212696585804224,0.0005747795803472,-0.7677610516548157,0.6403830051422119,0.0018684007275502,0.2153847419895984,2.9878043993840566,-0.1444895565509796,0.1307092756032943,-0.0427768491208553,0.2048985146172345,-0.1497642046026885,-9.409180383682251,14938.0
21.0,3.5,214.0,21.443872451782227,27.20301818847656,-79.78274320843978,40.45898954589688,274.3565925216675,0.0216991640627384,-0.0105308601632714,-0.7667016386985779,0.6415504813194275,0.0755003231844645,0.2577701830065538,2.8915190869777545,-0.0975104719400406,-0.0525212883949279,-0.0101420981809496,0.2565577878244221,0.1145685345120728,-9.581979639530182,14939.0
21.2,3.5999999046325684,220.0,21.401302337646484,27.9266300201416,-79.78274319094686,40.45898937166286,274.8309453582764,0.0160110928118228,-0.01219919975847,-0.7663796544075012,0.6420724987983704,0.1262586593034699,0.2148342833501287,2.8211662046828616,-0.019859304651618,0.0011969805927947,-0.0723072737455368,0.2633459849283099,0.1517584249097854,-9.864166266918184,14939.0
21.31,3.2000000476837163,223.0,21.34746551513672,28.06976127624512,-79.78274312877403,40.45898920566181,275.11430488586427,0.0142586501315236,-0.0130554037168622,-0.7664689421653748,0.6419904828071594,0.1486675266483719,0.1895657350841186,2.834576036395013,-0.0770215094089508,-0.0153622878715395,0.0324656441807746,0.2202497763186692,0.0110533846076577,-9.870162001848223,14940.0
21.51,3.2000000476837163,229.0,21.39754676818848,26.95651435852051,-79.78274348518181,40.4589891969259,275.5629309272766,0.0100012887269258,-0.0156207801774144,-0.7669040560722351,0.6414936780929565,0.1814987885512625,0.1337854590497363,2.743261421349233,0.0612394697964191,-0.0056422101333737,0.0945610851049423,0.3375533276796341,-0.243957750722766,-9.72304371714592,14940.0
21.6,3.0999999046325684,244.0,21.31866836547852,29.23072052001953,-79.78274366664425,40.45898913394846,275.866868839264,0.0079456828534603,-0.014572637155652,-0.7672151923179626,0.6411750912666321,0.1438071116545131,0.0974671472864592,2.726895053812949,-0.1056764721870422,-0.0341657772660255,-0.0646713152527809,0.256821990609169,0.3109647224843502,-9.733944681286811,14940.0
21.8,3.0999999046325684,251.0,21.467660903930664,26.224950790405277,-79.7827437615978,40.45898888452765,276.41238723754884,0.0072655836120247,-0.0166432186961174,-0.7672260403633118,0.6411197185516357,0.1678316158089886,0.060991665716261,2.7317447570744413,0.1039710864424705,0.0756275057792663,0.0207635983824729,0.25559645075351,0.0614956603758037,-9.850870867967606,14941.0
21.9,2.700000047683716,263.0,21.40631103515625,27.71988296508789,-79.78274346636286,40.45898843135648,276.7926219558716,0.0063505489379167,-0.0204534493386745,-0.7671622037887573,0.6410956382751465,0.1760934960090825,0.0765937351325789,2.745137037109032,-0.1460039168596267,0.0473390519618988,-0.0227198377251625,0.2342555936984718,-0.1044711057096719,-9.761731234788895,14941.0
22.1,2.700000047683716,269.0,21.431352615356445,27.38591003417969,-79.78274337628551,40.45898803116785,277.4365419006348,0.0034731505438685,-0.0271817594766616,-0.7674378156661987,0.6405375003814697,0.1969270338286356,0.092373998715232,2.7611986383102107,-0.0138037661090493,-0.0721844956278801,0.0274444371461868,0.250154246147722,0.0109475591406226,-9.808978491425515,14942.0
22.2,2.5,274.0,21.38627815246582,27.696027755737305,-79.78274344566552,40.45898793598133,277.71345458984376,0.0037717910017818,-0.0259480644017458,-0.7674175500869751,0.6406114101409912,0.1959410429433929,0.0807880640291438,2.7655883420877365,0.1259977519512176,0.0159079059958457,-0.0351672992110252,0.3224009626731277,0.0657122885808348,-9.856780064105989,14942.0
22.4,2.5999999046325684,280.0,21.41883087158203,25.89097595214844,-79.78274343056327,40.458987548774985,278.3656552886963,0.005405789706856,-0.0207534972578287,-0.7673367857933044,0.6408857107162476,0.1411420374299931,0.0482453422347343,2.821879513896004,0.0390370413661003,-0.0101832412183284,0.011935843154788,0.1823867709003389,0.18800945347175,-9.91628133058548,14943.0
22.5,2.5,279.0,21.38252258300781,27.21096992492676,-79.7827435365798,40.45898749763704,278.64878498077394,0.0060758995823562,-0.0220797006040811,-0.7672306895256042,0.6409623622894287,0.1318389605963736,0.0214047908775031,2.832299654481913,0.0368763618171215,0.0551424473524093,0.048842079937458,0.3178311443701386,-0.3023213317617774,-9.913237270116808,14943.0
22.7,2.5999999046325684,282.0,21.37125396728516,27.139404296875,-79.78274376416553,40.45898736144515,279.29547344207765,0.0044496837072074,-0.0254109930247068,-0.7673718929290771,0.6406832337379456,0.10523770236281,0.0096254955777602,2.845278160955821,-0.0284307524561882,-0.0101085724309086,0.0176934767514467,0.2699066705256701,-0.1037700610980391,-9.73469897210598,14944.0
22.81,2.5999999046325684,281.0,21.358732223510746,27.55289649963379,-79.78274393948546,40.458986959024905,279.95443855285646,0.009740499779582,-0.0099160438403487,-0.7674897909164429,0.6409105658531189,0.0908123016657922,-0.0150027034339827,2.890749778525912,0.1648608893156051,-0.0994195342063903,0.022574920207262,0.2657574497535825,0.3861923678219318,-9.77208080649376,14944.0
23.0,2.700000047683716,284.0,21.45764541625977,25.779651641845703,-79.78274409212142,40.45898694694064,280.2450393295288,0.009884363040328,-0.0082459822297096,-0.767815887928009,0.6405411958694458,0.0337202370918711,-0.0506662176318312,2.9240359233456803,0.0055276015773415,0.0758170038461685,0.0555726215243339,0.2119970709644258,-0.2377499080449343,-10.086425950527191,14945.0
23.1,2.900000095367432,279.0,21.468914031982425,24.761823654174805,-79.78274415168364,40.45898684752171,280.5954621887207,0.0076510477811098,-0.012718359939754,-0.7679035067558289,0.6403936743736267,0.0088785466575938,-0.0496818254746314,2.9736144305079804,-0.1922587007284164,0.0378001891076564,-0.1057372316718101,0.1551862363144755,0.3072767373919487,-10.05218114733696,14945.0
23.31,2.900000095367432,276.0,21.50897979736328,24.077970504760746,-79.78274447024903,40.45898684080351,281.19152103424074,0.0001794963172869,-0.021940654143691,-0.7678670287132263,0.6402333974838257,0.0646148745630271,-0.0400347302842331,2.978648402283536,-0.001224176492542,-0.0858041569590568,0.0489380806684494,0.2636528906598687,-0.0916721079591661,-9.810290021896364,14946.0
23.4,2.799999952316284,270.0,21.53902816772461,23.942790985107425,-79.78274470353107,40.45898674251313,281.5244268035889,-0.0022358363494277,-0.0225268937647342,-0.76784747838974,0.6402325630187988,0.0807596563036138,-0.0589267287420988,2.9748801594828462,0.0885909423232078,-0.0941439196467399,0.0565572902560234,0.2842364967428148,-0.0041849390370771,-9.75917307794094,14946.0
23.6,2.900000095367432,271.0,21.54403686523437,23.266889572143555,-79.7827451015022,40.45898669942645,282.1652244186401,0.0022500334307551,-0.0168921686708927,-0.7676613926887512,0.6406290531158447,0.0409837563192819,-0.0906717511869797,2.9657291745063947,0.1090500652790069,-0.0222564116120338,0.1016498431563377,0.2676310255564749,-0.078897074656561,-9.672779297232626,14947.0
23.7,2.900000095367432,262.0,21.496458053588867,24.21315193176269,-79.78274529530655,40.45898677304989,282.4607137298584,0.0049379840493202,-0.0121018374338746,-0.7673481106758118,0.6410976648330688,-0.0023053782484554,-0.0897104820252371,2.9487757383737985,0.036858282983303,-0.0430389642715454,0.0593934915959835,0.2706196105666458,-0.1326882244180888,-9.614843915104869,14947.0
23.9,3.0999999046325684,267.0,21.408815383911133,26.21699905395508,-79.7827456498388,40.45898673724341,283.1095985031128,0.0061816582456231,-0.0066074859350919,-0.7666982412338257,0.6419438719749451,-0.0524519232798392,-0.1073341135334276,2.933610557063848,0.0245025586336851,0.0146870836615562,-0.0462748333811759,0.1782337677106261,-0.1188078115414828,-9.556745980381969,14948.0
24.01,3.0999999046325684,265.0,21.467660903930664,24.92881202697754,-79.78274582730063,40.45898681842536,283.40165172576906,0.0060269311070442,-0.0055467057973146,-0.7660430669784546,0.642737090587616,-0.0705162620149644,-0.1008419719163754,2.914802464398248,0.0400494411587715,-0.0596079416573047,-0.0308636911213398,0.2966962920315564,0.042176427883096,-9.580361714959144,14948.0
24.2,3.2000000476837163,264.0,21.38001823425293,27.03603172302246,-79.78274629752728,40.45898701104906,284.0462907409668,0.0039868215098977,-0.0039597013965249,-0.764306902885437,0.6448282599449158,-0.0825204663841623,-0.0822623352097505,2.9218894929061863,-0.0191639438271522,-0.0252289846539497,-0.0946394503116607,0.3192981011420489,0.0761872008349746,-9.61029595077038,14949.0
24.31,3.0999999046325684,260.0,21.361236572265625,26.84518814086914,-79.78274641924338,40.45898709600477,284.3377240753174,0.0040876767598092,-0.0044593783095479,-0.7637962698936462,0.6454291343688965,-0.0888510802770112,-0.0709369153800228,2.9106306505422066,-0.084758311510086,-0.0564053766429424,-0.0602282024919986,0.4009072514623404,0.0555046306271106,-9.688276757597924,14949.0
24.5,3.0999999046325684,258.0,21.32117080688477,27.98229217529297,-79.78274675117387,40.45898734745671,284.9745763397217,0.0052442885935306,-0.0072136973030865,-0.7630500197410583,0.6462779641151428,-0.0959195077001414,-0.0311066150204047,2.9136648769983187,-0.0414655283093452,0.0135385068133473,-0.0465849041938781,0.3696154749020935,0.0530599645804613,-9.614347486495973,14949.0
24.6,3.0999999046325684,256.0,21.337448120117188,27.24277687072754,-79.78274691901541,40.45898749522641,285.6149476623536,0.009251857176423,-0.0102847749367356,-0.7623911499977112,0.6469686031341553,-0.1008490051343427,0.0116360296453055,2.9606885016852003,-0.1323740035295486,0.0469284728169441,-0.0952416360378265,0.2884995920397341,0.2123684605211019,-9.727695177197456,14950.0
24.81,3.0999999046325684,259.0,21.37250518798828,25.81941032409668,-79.78274695309894,40.45898758711261,285.91065536499025,0.0113143669441342,-0.0114736082032322,-0.7627021074295044,0.6465492844581604,-0.0998628438110479,0.0407191011624592,2.9514476431107,0.0588935241103172,0.056356992572546,0.063610553741455,0.3785651500895621,0.0777418658416718,-9.696348254084588,14950.0
24.9,3.2000000476837163,262.0,21.32743263244629,26.86109161376953,-79.78274701684097,40.45898761608549,286.2462247467041,0.0121320849284529,-0.0117935901507735,-0.7632956504821777,0.6458277106285095,-0.0918881106859255,0.0643617708128594,2.975950956480078,-0.0589237138628959,0.008488074876368,-0.0572646968066692,0.3248139989376068,0.0317560272105038,-9.759392348527909,14951.0
25.11,3.5,262.0,21.342456817626957,27.012176513671875,-79.78274703195937,40.45898778075429,286.8676885223389,0.0102426772937178,-0.0077532986178994,-0.7650836110115051,0.6438029408454895,-0.0925954527894309,0.072403695562167,2.999521316369873,0.0869869366288185,-0.0124971698969602,0.1310558468103408,0.3284829805791378,-0.3189515074342489,-9.880035610198975,14951.0
25.2,3.5999999046325684,266.0,21.37125396728516,26.550973892211918,-79.78274702537557,40.45898786398509,287.16755615234376,0.0083387056365609,-0.0080062691122293,-0.7656256556510925,0.6431824564933777,-0.1136601371903744,0.0710196549618562,2.9971881905946662,-0.0634064674377441,-0.0075510167516767,0.0661251917481422,0.3884960246086121,-0.1262037353496998,-9.828371951580046,14952.0
25.4,3.700000047683716,268.0,21.37125396728516,26.06591415405273,-79.78274707892245,40.45898807805378,287.789500579834,0.0125866383314132,-0.0122343031689524,-0.7653723955154419,0.6433483362197876,-0.1077171203461178,0.0770592161178367,2.9755645712140715,-0.0115572838112711,-0.0181458480656147,0.0486083216965198,0.3977420074492693,-0.0006185440532863,-9.657981163859368,14952.0
25.5,3.5999999046325684,268.0,21.281105041503903,27.05988693237305,-79.78274705429548,40.45898816366998,288.08619247436525,0.0161612890660762,-0.0113863125443458,-0.7650349140167236,0.6436854004859924,-0.0951839176339524,0.1067827064196453,2.9549550494380266,0.1501583904027938,0.0492023788392543,0.0163584295660257,0.3860829152539373,-0.2096238140389323,-9.659576869010923,14953.0
25.7,3.700000047683716,269.0,21.297382354736328,28.212894439697266,-79.7827469853561,40.45898830708595,288.7004178619385,0.0145167084410786,-0.0091679291799664,-0.7640614509582521,0.6449151039123535,-0.1151046492689862,0.1203154163839891,2.9563073911829663,0.0989523753523826,0.0404011458158492,-0.0910238400101661,0.37364895734936,0.1069394712522626,-9.77625805735588,14953.0
25.81,3.700000047683716,274.0,21.377513885498047,25.79555511474609,-79.78274695290499,40.458988374768985,288.99705825805665,0.0136067597195506,-0.0070243263617157,-0.7636588215827942,0.645438551902771,-0.0985425501051708,0.1120235105427354,2.970189680505982,0.0015662212390452,-0.0277177095413208,-0.0794478952884674,0.3660077062994242,-0.0662800714932382,-9.94689618229866,14953.0
26.0,3.799999952316284,275.0,21.415075302124023,25.14350891113281,-79.78274683907415,40.4589885020736,289.6164449310303,0.014081722125411,-0.0035603211726993,-0.7635361552238464,0.6456018090248108,-0.1109699863785314,0.1101568790415787,3.0182633115771367,-0.0081936223432421,-0.0070860576815903,0.0392267070710659,0.2559754965081811,0.1556083321943879,-9.941833662986756,14954.0
26.1,3.799999952316284,277.0,21.342456817626957,26.686153411865234,-79.78274664705751,40.45898861453144,290.2267831420898,0.0133299091830849,-0.0102977333590388,-0.7639210820198059,0.645089864730835,-0.0911449867126298,0.1359481180484446,3.007189204587477,-0.162407636642456,0.0509608499705791,0.0363757833838462,0.2872739790938795,0.0198757686512544,-9.837741529941557,14955.0
26.31,3.799999952316284,276.0,21.336196899414062,26.63049125671387,-79.78274656767356,40.45898864445629,290.5279515838623,0.0144632589071989,-0.014318280853331,-0.7641927599906921,0.6446669101715088,-0.072970175801916,0.1595862291838955,3.006392711365382,-0.0760457292199134,0.0338186509907245,0.0059465342201292,0.3291079382970929,0.1407224723137915,-9.749774848222732,14955.0
26.41,3.799999952316284,274.0,21.312406539916992,27.32229423522949,-79.78274647873322,40.45898864928372,290.8371385192871,0.0156272687017917,-0.0178094431757926,-0.7640586495399475,0.6447115540504456,-0.0447373382572939,0.1825270364241705,2.9932987526893315,0.0040318686515092,0.1173627004027366,-0.0083582596853375,0.3498571484908461,-0.0832936143781989,-9.756542415618895,14955.0
26.61,3.799999952316284,274.0,21.37250518798828,26.86904335021973,-79.78274634876432,40.458988729670985,291.44317756652833,0.018243608996272,-0.0187154170125722,-0.7634100317955017,0.6453852653503418,-0.0474751088084864,0.2019615677502808,2.9770166987068123,0.0550133772194385,-0.1012439876794815,-0.0465512797236442,0.3925131713971496,0.0589461555797606,-9.72978964984417,14956.0
26.71,3.5,277.0,21.40005111694336,25.71603775024414,-79.78274629625254,40.45898876163019,291.7409909820557,0.0193453468382358,-0.0140398405492305,-0.7631651163101196,0.6457614302635193,-0.0429912145911936,0.1878183687910556,2.9650977337649835,0.0823677703738212,-0.0836133658885955,0.0997525677084922,0.4090678448975086,-0.2812674633599817,-9.72742152750492,14956.0
26.9,3.5,276.0,21.311155319213867,27.79940223693848,-79.78274623994534,40.45898877074935,292.34760223388673,0.0171968229115009,-0.0084307072684168,-0.7628351449966431,0.6463094353675842,-0.0630874612965311,0.1377621844927687,2.9549029462969445,0.0070024779997766,-0.0158803388476371,-0.0823105126619339,0.3810759079456329,-0.0108976750820875,-9.743961546421051,14957.0
27.0,3.5,276.0,21.34621238708496,26.5748291015625,-79.78274614067708,40.4589887937429,292.95343910217287,0.0159567594528198,-0.0120535576716065,-0.7626728415489197,0.6464751958847046,-0.0536223631729579,0.1228415795372074,2.9585699195260515,-0.0311663690954446,0.0521123073995113,-0.0026507324073463,0.338443566262722,-0.1576933762058615,-9.799059274792672,14957.0
27.2,3.5,275.0,21.34621238708496,26.07386589050293,-79.78274611787155,40.458988798888896,293.249669418335,0.0152256703004241,-0.0145402383059263,-0.7625468373298645,0.6465904712677002,-0.0388926219350665,0.1350139921664125,2.964335564955386,-0.0960625112056732,0.0029203640297055,-0.0647297576069831,0.3764449862390757,0.1381861511617899,-9.83959392786026,14958.0
27.31,3.400000095367432,275.0,21.312406539916992,27.44952392578125,-79.7827460981004,40.45898880148955,293.54720626831056,0.0142438448965549,-0.0158891920000314,-0.7625388503074646,0.6465904712677002,-0.005732912097416,0.1433652977051808,2.9774747959650387,-0.011167068965733,-0.0001094226900022,0.045723021030426,0.4065581833943725,-0.1759745497629046,-9.880281193256376,14958.0
27.5,3.400000095367432,275.0,21.358732223510746,25.41386985778809,-79.7827460869032,40.45898873493669,294.1497987365723,0.0152485892176628,-0.0143983289599418,-0.7624471187591553,0.6467106342315674,0.0131360202713057,0.1317709503629366,2.9873298564429835,0.1731828451156616,-0.0087600192055106,0.0965083241462707,0.390141431093216,-0.0807702393271029,-9.84806186556816,14959.0
27.6,3.299999952316284,275.0,21.29112243652344,26.94856262207031,-79.78274612291783,40.45898870152016,294.4543470001221,0.016547018662095,-0.0135737191885709,-0.7622380256652832,0.6469430327415466,0.0072256816970129,0.1261961100372528,2.9779691732685403,0.0722252577543258,0.0569052584469318,-0.076087437570095,0.3563964917510748,-0.0031009885948151,-9.759047362804411,14959.0
27.8,3.299999952316284,275.0,21.408815383911133,25.366159439086918,-79.78274613236455,40.45898866406257,295.0507596588135,0.0148225100710988,-0.010999783873558,-0.7621904611587524,0.6470897197723389,-0.001678617130243,0.1181813857580921,2.997850823512674,-0.0083499802276492,-0.0035956613719463,0.0393505617976188,0.3109183102101088,0.0932982825860381,-9.925497711896895,14960.0
27.91,3.299999952316284,275.0,21.26608085632324,28.34012222290039,-79.78274622246437,40.45898863627352,295.6529916381836,0.0102273868396878,-0.0112271960824728,-0.7621785998344421,0.6471886038780212,0.020111060604819,0.0943586670799502,3.0003069345693127,-0.028833957388997,-0.0488340035080909,0.0228348970413208,0.3693355759978295,0.0303796885767951,-9.861067242622378,14960.0
28.1,3.299999952316284,276.0,21.302391052246094,27.28253555297852,-79.78274626726937,40.45898856663826,295.9564393615723,0.0110632833093404,-0.0117207150906324,-0.7622533440589905,0.6470780968666077,0.0296721770355664,0.0867676736066253,3.000184732893384,0.1113429591059684,0.015719125047326,0.1000281125307083,0.2606093235500157,0.0811311038956046,-9.827170933485034,14960.0
28.21,3.400000095367432,277.0,21.31991958618164,26.185192108154297,-79.78274627886714,40.4589885336702,296.25661407470704,0.0136453537270426,-0.0115221692249178,-0.7625407576560974,0.6466935873031616,0.0489946754934338,0.090823390959161,2.999090729497401,0.0997742637991905,0.0227169748395681,0.0278661549091339,0.3640807563811541,-0.2011800691857934,-9.841984269618989,14961.0
28.41,3.299999952316284,277.0,21.32367515563965,27.370006561279297,-79.78274632827922,40.458988440771655,296.8586114501953,0.0133109092712402,-0.0131249828264117,-0.7630252242088318,0.6460984349250793,0.009614353492316,0.1118298819600709,2.995062829172132,-0.0746563747525215,0.0045954477973282,-0.004410252906382,0.3205429002642632,0.1322987541742623,-9.805909287929538,14961.0
28.5,3.299999952316284,277.0,21.331188201904297,26.48735809326172,-79.78274638343325,40.45898832578107,297.46382461547853,0.0089404108002781,-0.0155591359362006,-0.7625500559806824,0.6466804146766663,0.0484836077475176,0.1091390955182101,2.9963546511714734,0.0407400988042354,-0.0148202069103717,-0.0310889184474945,0.3275181899964809,-0.101297547686845,-9.801450201272964,14962.0
28.7,3.400000095367432,277.0,21.29237365722656,27.25072860717773,-79.78274639323485,40.458988290199215,297.7634423828125,0.0092082032933831,-0.0133662922307848,-0.7620986104011536,0.6472575664520264,0.0593252131517877,0.1070790292721848,2.991481723397516,-0.022059915587306,-0.1236588656902313,-0.0357600674033165,0.3663813433796168,-0.1141636970546096,-9.779971624016762,14962.0
28.81,3.400000095367432,274.0,21.218503952026367,28.37988090515137,-79.78274639980462,40.45898826076954,298.0629113769532,0.0094848424196243,-0.0115915248170495,-0.7619522213935852,0.6474601626396179,0.0389435416301491,0.095273360199905,2.9937835156008306,0.0065306555479764,-0.0541014447808265,0.0878331661224365,0.3116852821782232,-0.173289142884314,-9.79893882215023,14963.0
29.0,3.400000095367432,274.0,21.272340774536133,27.370006561279297,-79.78274655880234,40.458988186300935,298.6667741394043,0.0138730248436331,-0.0136138498783111,-0.7617309689521791,0.647601842880249,0.0384161451894056,0.0859240035336335,2.972002559091334,0.055409736931324,0.0280646588653326,-0.0677871257066726,0.4133929937705398,-0.1101527720689773,-9.669529999494555,14963.0
29.1,3.400000095367432,272.0,21.357481002807614,25.596759796142567,-79.78274664382428,40.4589881248184,298.96917282104494,0.015031517483294,-0.0115486271679401,-0.7618152499198914,0.6475170850753784,0.0155573393410058,0.096820168043007,2.9585887825364114,0.091403067111969,-0.0134888011962175,0.0404130890965461,0.2882759543135762,0.1497800834476947,-9.610303552150729,14963.0
29.3,3.400000095367432,270.0,21.17718505859375,29.055782318115234,-79.78274669498404,40.458988069693866,299.5564015960693,0.0131023982539773,-0.0088583696633577,-0.7618903517723083,0.6475129127502441,0.0072194403192112,0.079886250706492,2.9230119574316933,-0.0406525209546089,0.01865915954113,-0.0246540829539299,0.3224366306886077,-0.0150567813031375,-9.685586453676224,14964.0
29.41,3.400000095367432,266.0,21.35372543334961,27.696027755737305,-79.78274676834354,40.458987992354366,300.15692459106447,0.0111674331128597,-0.0133402189239859,-0.7609126567840576,0.648621141910553,0.0284266519828784,0.0813062838751262,2.932476061268628,0.023172341287136,0.0410011187195777,0.1180482134222984,0.3180899202078581,-0.0821685095876455,-9.81454913377762,14965.0
29.6,3.400000095367432,262.0,21.258569717407227,27.544944763183597,-79.78274682233456,40.45898794636377,300.4579919433594,0.011613130569458,-0.0136226080358028,-0.7604148387908936,0.6491909623146057,0.0221913512903224,0.0779949737785823,2.928796873912044,-0.0185873787850141,-0.0579329133033752,-0.0109763043001294,0.3313325845822692,0.0805996650829911,-9.586988364458085,14965.0
29.7,3.400000095367432,259.0,21.26608085632324,27.57675170898437,-79.78274685341606,40.45898792031708,300.74986968994136,0.0122435186058282,-0.0125944623723626,-0.7603327035903931,0.6492964029312134,0.044331934783706,0.0791066162721985,2.9097613534373044,0.1473528444766998,0.1006609126925468,0.049431525170803,0.3467602803558111,-0.2558190469443798,-9.655490249991418,14965.0
29.91,3.400000095367432,258.0,21.304895401000977,26.86904335021973,-79.78274685132547,40.45898784555031,301.3428109741211,0.0120873115956783,-0.0085298661142587,-0.7610905170440674,0.6484769582748413,-0.0043478735522869,0.0883903135521698,2.9156019968310383,0.0856292694807052,0.0035580624826252,0.0116747254505753,0.235589599404484,0.1614741127565503,-9.704909162521364,14966.0
30.0,3.400000095367432,256.0,21.27985382080078,27.07579040527344,-79.78274693290756,40.458987778042,301.9293283081055,0.0156602803617715,-0.0057872300967574,-0.7614192962646484,0.648044764995575,-0.0155425568547566,0.0825516504829672,2.902022931979672,0.0331066437065601,0.0018633009167388,-0.0217579025775194,0.2554616358876228,-0.0613357938453555,-9.712549134492876,14966.0
30.21,3.400000095367432,257.0,21.17092514038086,28.60253143310547,-79.78274693252807,40.458987760413706,302.2192338562012,0.0162528920918703,-0.0058378973044455,-0.761562168598175,0.6478618383407593,-0.0296316078073642,0.0881071951245366,2.898728781582556,0.0002815314510371,-0.0397769138216972,0.0152901839464902,0.3471872732788325,-0.0940681233443319,-9.784961637854575,14967.0
30.31,3.400000095367432,256.0,21.272340774536133,27.44157218933105,-79.782746928148,40.45898773999773,302.5105470275879,0.0149825755506753,-0.0081159025430679,-0.7619357109069824,0.6474285721778871,-0.0233967982741892,0.0950355033926429,2.925330045939924,0.07191863656044,0.0948463678359985,0.101507730782032,0.2399639562517405,-0.0831541674211621,-9.97307182788849,14967.0
30.5,3.299999952316284,255.0,21.1208438873291,30.852882385253903,-79.78274701703,40.45898774266895,303.104384765625,0.0165818929672241,-0.0105760488659143,-0.7621106505393982,0.647148072719574,-0.0115041467587408,0.1117152056942028,2.9480474851755423,-0.0315944999456405,-0.0694627240300178,-0.0250783096998929,0.4355025952309369,-0.0096106663718819,-9.936037902832034,14968.0
30.6,3.400000095367432,255.0,21.31365966796875,25.11170196533203,-79.78274708670793,40.45898776551033,303.3943780517578,0.0183966755867004,-0.0088969748467206,-0.7619040608406067,0.6473675966262817,0.004882483203234,0.1049631515192064,2.959739131480588,0.2201458364725113,0.0332196243107318,0.1218578144907951,0.3364337320625782,-0.1394236778095364,-10.013733365535735,14968.0
30.8,3.400000095367432,259.0,21.272340774536133,26.805429458618164,-79.78274711691947,40.45898769285065,303.986823425293,0.0194898042827844,-0.0071396250277757,-0.7606715559959412,0.6488050818443298,0.0109030337041443,0.1068999656184294,2.942098436622381,-0.0050942939706146,-0.0745084509253501,-0.0025162149686366,0.3323395847529173,-0.0884797840286046,-9.654775720238684,14968.0
30.91,3.400000095367432,262.0,21.15464973449707,29.64421272277832,-79.78274719117285,40.45898777484985,304.2674325561524,0.0172363594174385,-0.0055197905749082,-0.7604994773864746,0.6490862369537354,-0.0063995104776877,0.0946177569421359,2.9141653836845545,-0.0216643717139959,-0.113092191517353,-0.0431501679122448,0.4459795996919274,-0.0050129538809414,-9.716397771835329,14969.0
31.1,3.400000095367432,263.0,21.16716957092285,29.898670196533203,-79.7827473096002,40.4589876856864,304.85541473388673,0.0067995861172676,-0.0109475404024124,-0.7617847919464111,0.6477020978927612,0.0115048093287009,0.0696906993799439,2.9506741563616847,-0.2478961795568466,0.0185119062662124,-0.0463751815259456,0.2311521657183766,0.0607234259136021,-9.932993842363356,14969.0
31.2,3.400000095367432,261.0,21.16967391967773,28.87289047241211,-79.78274733251114,40.45898761736086,305.44657836914064,0.0043999226763844,-0.0200580693781375,-0.7625657320022583,0.6465847492218018,0.0606388684694112,0.0958815478651597,2.9546065621429323,0.042843785136938,0.0471989512443542,-0.003731599310413,0.3723148420080543,-0.2556148877553642,-9.903804541826249,14970.0
31.4,3.400000095367432,262.0,21.24730110168457,27.33819961547852,-79.7827473910319,40.45898761324733,305.7344125366211,0.0082561429589986,-0.0162900891155004,-0.7622730135917664,0.6469979882240295,0.0668054887297588,0.1059837850532577,2.926636719297821,0.1381345838308334,0.0379584766924381,-0.111533910036087,0.3728113071620465,0.1892623473331332,-9.637714714407922,14970.0
31.5,3.299999952316284,260.0,21.29988670349121,26.40784072875977,-79.78274739495171,40.45898760448432,306.02618728637697,0.0147685231640934,-0.0087685398757457,-0.761549711227417,0.6478790044784546,0.0218975126154157,0.1032236008129996,2.908404947020852,0.1123922914266586,-0.0548286996781826,-0.086673267185688,0.2904867865517736,0.0852602614089846,-9.626234875917437,14971.0
31.7,3.299999952316284,261.0,21.174680709838867,28.316267013549805,-79.78274744880078,40.458987632734974,306.5979531860352,0.0219489764422178,-0.0036639517638832,-0.7601487636566162,0.6493680477142334,-0.0607521371210433,0.0940893612881832,2.8554420525500364,0.1478039175271988,-0.0123023819178342,-0.0349647365510463,0.4114878247305751,0.0778547445125878,-9.613961570262909,14971.0
31.8,3.400000095367432,261.0,21.108322143554688,30.01794624328613,-79.78274745053228,40.4589876150125,306.88381134033204,0.022473145276308,-0.0018543335609138,-0.7588829994201659,0.6508365869522095,-0.0439545846713096,0.100928855672138,2.8589253279868565,0.0357736684381961,-0.0005000592791475,0.0210344474762678,0.3296760683879256,-0.2179021009616553,-9.780420690178872,14971.0
32.0,3.299999952316284,260.0,21.199722290039062,28.729759216308597,-79.78274747896663,40.45898762977712,307.4684251403809,0.013917626813054,-0.011435410939157,-0.7581909894943237,0.6517837047576904,-0.0337604530850167,0.0964097189521907,2.953077224673073,-0.171591505408287,0.00094177830033,0.0668150559067726,0.3466401566192508,-0.4603708034008742,-10.189891262054443,14972.0
32.11,3.299999952316284,256.0,21.192211151123047,26.702056884765625,-79.78274751106638,40.4589875425431,308.0563691711426,0.0145982848480343,-0.0128728449344635,-0.7584949731826782,0.6513882279396057,0.0277611620272597,0.1181905224860967,2.975203758698659,0.1531589180231094,0.0365553833544254,0.076114997267723,0.4172931597009301,0.208041575755924,-10.001913803815842,14973.0
32.3,3.299999952316284,254.0,21.19346237182617,28.17313575744629,-79.78274752116451,40.45898753116441,308.3545068359375,0.0173375383019447,-0.0112071502953767,-0.7586320638656616,0.6511921882629395,-0.0108794042988723,0.107144525421685,2.9763515418841604,-0.1039463058114051,0.0037685446441173,-0.1002957597374916,0.3206476750597358,-0.0699147646967321,-9.803284472823144,14973.0
32.42,3.2000000476837163,246.0,21.194713592529297,27.7039794921875,-79.78274759546078,40.45898766858576,308.6321786499024,0.0191157702356576,-0.0091106621548533,-0.7590556740760803,0.6506813764572144,-0.034206356184593,0.0994991458454402,2.9331630610783965,0.0732651501893997,-0.0545581802725791,0.0174164921045303,0.3273716806992888,0.0377504191081971,-9.644140219688415,14973.0
32.6,3.0999999046325684,244.0,21.174680709838867,28.690000534057607,-79.78274774974463,40.45898772277845,309.21186767578126,0.0175059717148542,-0.0056740068830549,-0.7594267725944519,0.6503325700759888,-0.0573085417559144,0.0527439588577022,2.913506750158959,-0.0466977767646312,-0.0315096750855445,-0.0164636299014091,0.270526987016201,0.161331257969141,-9.709638390541077,14974.0
32.7,3.0,237.0,21.056989669799805,30.66204071044922,-79.78274786602657,40.45898769641774,309.79204879760744,0.0094344485551118,-0.0055301096290349,-0.7597424387931824,0.6501321792602539,-0.0131873434569364,0.0324649141943353,2.9069191373967143,-0.1636558324098587,-0.1405483484268188,-0.0673596635460853,0.2193836940452457,-0.1850907244160772,-9.66762263774872,14974.0
32.9,3.0,236.0,21.133363723754886,28.95240974426269,-79.7827479251285,40.45898772601624,310.08528457641603,0.0052197417244315,-0.0030605806969106,-0.7601602673530579,0.6497074365615845,0.0119532614988627,0.0234399588223313,2.9454186125082904,0.0727933272719383,-0.0166993699967861,0.086622916162014,0.1841669557057321,0.0486423109285533,-10.01049400806427,14975.0
33.0,2.900000095367432,235.0,21.20097541809082,27.696027755737305,-79.78274796531659,40.45898770186621,310.38119064331056,0.0022882299963384,-0.0023480323143303,-0.7604058980941772,0.6494399309158325,0.0113730768628635,0.0092452799397552,2.9751653988602498,-0.1011035367846489,-0.0234920922666788,-0.0171384774148464,0.1475589820370078,0.034017218593508,-10.065205235481264,14975.0
33.2,2.900000095367432,232.0,21.089542388916016,29.723730087280277,-79.7827481397792,40.45898766401088,310.9649842834473,0.0061791199259459,-0.006473961751908,-0.7604556083679199,0.6493282318115234,0.0383386809081582,0.0115009967588488,2.9450296953208057,0.0390247143805027,0.063861645758152,-0.0342042632400989,0.295038460213691,-0.0945755885727703,-9.69033029973507,14975.0
33.31,2.799999952316284,225.0,21.10581970214844,28.30831527709961,-79.78274816370626,40.458987637839385,311.25904403686525,0.0106428172439336,-0.0088323447853326,-0.7604795694351196,0.6492146849632263,0.0225410717041798,0.0365302710788649,2.9431487667349576,0.0973283052444458,0.1677949428558349,-0.0389037132263183,0.1877740664966404,0.2199942895397544,-9.767056294083597,14976.0
33.5,2.799999952316284,226.0,21.172178268432614,28.093616485595703,-79.78274823025356,40.45898772808897,311.8245881652832,0.0188539139926433,-0.0119244335219264,-0.7607057690620422,0.6487134695053101,-0.0195127560399899,0.0693291887881955,2.932608807636424,0.0178043190389871,-0.0232439022511243,-0.0159119628369808,0.3343328640237451,0.1353317414782941,-9.861768908500672,14976.0
33.6,2.700000047683716,227.0,21.142127990722656,27.74374008178711,-79.78274829208979,40.45898784383535,312.40022598266603,0.0091996015980839,-0.0040228287689387,-0.7606642246246338,0.6490678787231445,-0.0451752330326501,0.0642305076685695,2.9467041015294453,-0.0162299573421478,-0.180282637476921,-0.0517556779086589,0.3405752783641219,-0.3766361536458135,-9.866848969459534,14977.0
33.8,2.700000047683716,229.0,21.39379119873047,23.219179153442383,-79.78274832947827,40.45898784468853,312.6954721069336,0.0065038781613111,0.0021969077643007,-0.7597767114639282,0.6501479148864746,-0.0149598468887377,0.0253283695867648,2.9568748855138933,0.0554485619068145,-0.0361593700945377,-0.01728156208992,0.1222920394409448,-0.1480435700342059,-9.896784374713896,14977.0
33.9,2.5,227.0,21.37876510620117,23.15556526184082,-79.78274847561896,40.45898794649904,312.97981582641603,0.0062004895880818,0.0038861096836626,-0.7585136890411377,0.6516160368919373,-0.0463219625379936,-0.0061384368712982,2.9149251156894795,-0.060639601200819,-0.0433845929801464,-0.0123353525996208,0.1955687886849046,-0.1756876159273088,-9.568459122776986,14977.0
34.1,2.5,231.0,21.433856964111328,21.70834350585937,-79.78274869717113,40.458988105314376,313.5619958496094,0.0107805943116545,-0.001214642310515,-0.7565805912017822,0.6538106203079224,-0.0418116258637601,0.0090150696746023,2.7528696365945504,-0.0353663228452205,0.0558151975274086,-0.0941333100199699,0.1492227707058191,0.0261837220564484,-8.716574181318283,14978.0
34.2,2.5,226.0,21.46014976501465,21.42207908630371,-79.78274871490085,40.4589880868804,314.0835870361328,0.0085024563595652,-0.0117942951619625,-0.7550276517868042,0.6555318236351013,0.0046952347855983,0.0549230098544917,2.464011589840725,-0.0155926309525966,0.0203668903559446,-0.0554006993770599,0.1659838509187102,0.0313348175492137,-8.494593409895897,14979.0
34.4,2.5999999046325684,228.0,21.463905334472656,21.08015251159668,-79.78274883552842,40.45898816318581,314.3283456420898,0.0073699196800589,-0.0132610341534018,-0.7547264099121094,0.6558641791343689,0.0318992787289395,0.0595920297868369,2.324532392078533,0.0317211896181106,0.0254792235791683,-0.0121330060064792,0.1632418539561331,0.0026109645143151,-8.249194539785385,14979.0
34.51,2.5,221.0,21.415075302124023,22.86134910583496,-79.78274884896663,40.45898814970406,314.5527528381348,0.0065845013596117,-0.0117883523926138,-0.7545495629310608,0.6561042666435242,0.0245494429975284,0.0540636865673374,2.1649629641063592,-0.0502140745520591,-0.0063847433775663,0.0040557314641773,0.1721421018987894,-0.0771558743342757,-8.22921460390091,14979.0
34.7,2.5,222.0,21.37250518798828,22.241111755371094,-79.78274894606945,40.45898819323385,314.97114883422853,0.0082552535459399,-0.010279843583703,-0.7549560070037842,0.6556429862976074,0.0111985293807231,0.02975203004218,1.939180278470584,0.0349616669118404,0.0462005324661731,0.1097330823540687,0.1793670677393675,-0.1285749183408916,-8.625753473639486,14979.0
34.8,2.299999952316284,227.0,21.38502693176269,23.767852783203125,-79.78274896585816,40.45898819787636,315.1601594543457,0.0102537209168076,-0.0076600443571805,-0.7563685774803162,0.6540204286575317,-0.0015993724648087,0.0307875073867477,1.8431632885451568,0.0622519142925739,0.0147069245576858,0.1236208155751228,0.2361627179011703,-0.0979808425158262,-8.805361227393151,14980.0
35.0,2.299999952316284,229.0,21.468914031982425,21.87532997131348,-79.78274906539556,40.45898819131705,315.5434526062012,0.0129543133080005,0.000882476044353,-0.7599313259124756,0.6498737335205078,-0.0099291941970645,0.0293998006127546,1.7305552934538846,-0.0969234257936477,-0.0313097275793552,0.0608266927301883,0.2229663927108049,-0.0205349417170509,-9.046799778342248,14980.0
35.1,2.200000047683716,235.0,21.463905334472656,21.445934295654297,-79.78274914363516,40.45898816487448,315.7649987792969,0.009297952055931,8.88761569513008e-05,-0.7611693739891052,0.6484866142272949,-0.0042815238399418,0.0212293076101481,1.7018341903104262,-0.1763607710599899,0.0111091285943985,0.0327284485101699,0.2341375164873898,-0.0060303088766522,-8.987459310293199,14980.0
35.3,2.0999999046325684,240.0,21.364994049072266,23.79170799255371,-79.78274915530353,40.45898808841851,316.0901483154297,0.0060869818553328,-0.0063027036376297,-0.7608093023300171,0.6489163637161255,0.041291241077282,0.0298394408773236,1.5661670515541175,-0.0240458436310291,0.0389642864465713,0.0012683486565947,0.220931525118649,-0.0072752244863659,-9.202489496469498,14981.0
35.41,2.0999999046325684,234.0,21.42634391784668,21.946895599365234,-79.78274926717624,40.45898807761926,316.3091539001465,0.0060464893467724,-0.0095853023231029,-0.7589942812919617,0.6509986519813538,0.0500578051306718,0.0367848687270636,1.5978163194397288,-0.0527485087513923,0.0347671508789062,-0.0554580241441726,0.2148934161476791,0.0698625828651711,-9.381168712377551,14981.0
35.6,2.200000047683716,231.0,21.500215530395508,21.104007720947266,-79.78274933533031,40.458987923471135,316.71458755493165,0.0063137696124613,-0.0131159145385026,-0.7546025514602661,0.6560207605361938,0.0759996628723204,0.0357072098323256,1.593999399385276,0.0263268183916807,0.0747090727090835,-0.0357086211442947,0.1465019242186099,0.0760359132662415,-9.335188547372818,14981.0
35.7,2.0999999046325684,216.0,21.511484146118164,19.784013748168945,-79.7827493543513,40.45898786631333,316.8715661621094,0.006358559243381,-0.0122255496680736,-0.7531696557998657,0.657681941986084,0.0746144141581453,0.0334003131174819,1.5416943351181225,0.0152208060026168,-0.0686599165201187,-0.0352521985769271,0.1855098784156144,0.1705188600160181,-9.265702575445175,14981.0
35.9,2.0999999046325684,218.0,22.26521682739257,5.264074325561523,-79.78274946016019,40.45898766835011,317.28673110961915,0.0012377152452245,-5.794176104245707e-05,-0.7529762983322144,0.6580466032028198,0.0848654165915859,0.0024049417294877,1.4785355633521298,0.048807393759489,-0.0631963387131691,-0.0156002240255475,-0.0260530778998509,0.1492298421822488,-8.915224562287332,14982.0
36.0,2.0,221.0,21.456392288208008,21.175573348999023,-79.78274958635859,40.45898756623338,317.57253204345704,0.0076380316168069,-0.00126676436048,-0.7342732548713684,0.6788099408149719,0.0594312520148203,-0.0243662720530257,0.991521356788254,-0.0316936373710632,0.0526746772229671,-0.7781497836112976,-0.0306969959568232,-0.1101558327209204,-7.520297593474388,14982.0
36.2,1.8999999761581416,341.0,21.51398658752441,20.777984619140625,-79.78274962904067,40.45898751143656,317.661513671875,0.0072684762999415,-0.0025370644871145,-0.7039957642555237,0.7101624608039856,0.0559141253364812,-0.018073909047486,0.8031175187102998,-0.0581091754138469,-0.0800996795296669,-0.9426006078720092,0.0862245951779186,-0.0231992026884108,-7.805512493848799,14982.0
36.42,1.7999999523162842,63.0,21.441368103027344,21.54930686950684,-79.78274974297514,40.45898750723742,317.79046951293947,0.0089135253801941,-0.0014268273953348,-0.6296052932739258,0.7768626809120178,0.0798397221937753,-0.051338771419193,0.5933067236962649,0.0595578923821449,0.0386474691331386,-1.0083200931549072,0.0546885968651622,0.0352281632507219,-8.771253249049186,14982.0
36.52,1.7000000476837158,83.0,21.441368103027344,21.74015045166016,-79.7827497571642,40.45898747414053,317.88142333984376,0.0111333802342414,-0.0009231028379872,-0.5635766983032227,0.825988233089447,0.1017138842750241,-0.065580657253329,0.4951363651458471,-0.0710537806153297,-0.0357825234532356,-0.6682984828948975,0.08928560343571,0.0697714439593255,-9.056372839808462,14982.0
36.7,1.600000023841858,90.0,21.159656524658203,30.88468933105469,-79.78274980061647,40.45898735133056,317.92864166259767,0.0093211354687809,-0.0002746591635514,-0.5394325256347656,0.8419772386550903,0.1257210691938967,-0.0736299337644601,0.4528367818111379,-0.0292230658233165,-0.0674773380160331,-0.5299639701843262,0.1512812555674463,0.1097907380573451,-9.345534610748294,14982.0
36.81,1.600000023841858,82.0,21.332439422607425,24.38809013366699,-79.7827498293695,40.45898721249885,317.9724496459961,0.0048922603018581,0.0015352172777056,-0.5230554342269897,0.852283239364624,0.1401557302997222,-0.064278763929349,0.4436940526608305,0.1475110203027725,-0.1886621117591858,-0.2335200160741806,0.2419330609403551,0.0669843138009309,-9.700727818608282,14982.0
37.0,1.600000023841858,77.0,21.38502693176269,23.815563201904297,-79.78274959388406,40.45898712400289,318.07298599243165,-0.0385646931827068,0.0281726159155368,-0.5070545077323914,0.8605897426605225,0.179581068201554,0.058008826488922,0.534384110824587,0.020443482324481,-0.6387693285942078,-0.0888276174664497,0.2971642520092428,0.0524363316223025,-10.084511572122574,14983.0
37.1,1.399999976158142,74.0,21.37626266479492,23.473636627197266,-79.78274921288303,40.458987135541264,318.17955718994136,-0.0615819096565246,0.0481079369783401,-0.5057100057601929,0.8591569662094116,0.1812560392104675,0.107442521142572,0.6507731978569518,0.2349062263965607,-0.4932110607624054,0.0474254041910171,0.0895267279911786,0.2849433702975512,-10.096746286153794,14983.0
37.31,1.2999999523162842,72.0,21.297382354736328,24.984474182128903,-79.78274826360347,40.45898709911857,318.3105310058594,-0.088753156363964,0.0670756921172142,-0.5126774311065674,0.8513435125350952,0.2178632531101045,0.4035828949051753,0.7611571407189949,0.0033997064456343,-0.1966301947832107,0.1494937092065811,-0.0183420896669849,-0.0444800618290901,-10.09979619383812,14983.0
37.4,1.2999999523162842,54.0,21.269838333129886,25.501338958740234,-79.78274671595122,40.45898772778168,318.32158981323244,-0.105221726000309,0.0650886967778205,-0.524372935295105,0.8424517512321472,0.2073906267098635,0.804758513026975,0.86131003040475,-0.083472803235054,-0.0237577334046363,0.1983309090137481,0.0734488401096314,0.0101507869292981,-10.167604014873506,14983.0
37.6,1.2999999523162842,54.0,21.390033721923828,22.86930084228516,-79.782745492886,40.458988363964906,318.2824891662598,-0.1093281134963035,0.0625884383916854,-0.5288166403770447,0.8393349051475525,0.1716739895973436,1.0255590681412494,0.8929642326752494,-0.1570385247468948,0.0417359583079814,0.0814509466290474,-0.0382120933290571,0.2380602490156889,-10.207435247898102,14983.0
37.7,1.399999976158142,62.0,21.375009536743164,23.4179744720459,-79.78274398563337,40.45898875303008,318.3442758178711,-0.1109364107251167,0.0613408908247947,-0.5313774943351746,0.8375967741012573,0.1491837035260715,1.2658320268414691,0.9630111375476718,-0.2361529022455215,-0.0474746040999889,0.013345661573112,-0.0858164047077298,0.1821562626957893,-10.140148998498915,14983.0
37.9,1.600000023841858,67.0,21.33369255065918,23.79170799255371,-79.78274029586963,40.45899012967244,318.37610946655275,-0.1184611096978187,0.0640275478363037,-0.529962956905365,0.8372614979743958,0.1016389774461459,1.7229473854935011,1.0160222190881594,0.0233876090496778,-0.1750226318836212,0.0709808990359306,-0.1283609193842858,-0.2497075736895204,-9.955505622625347,14983.0
38.0,1.8999999761581416,68.0,21.312406539916992,24.89700508117676,-79.78273569460553,40.4589921782428,318.397166595459,-0.1253680735826492,0.0749033689498901,-0.5242637991905212,0.8389397263526917,0.0341327995177186,2.191860236196578,1.1204373742030451,0.00196961639449,-0.2259523868560791,-0.0544062778353691,-0.1862575362995267,-0.0374219883140176,-9.928286833763122,14983.0
38.2,2.0,61.0,21.37375831604004,23.227130889892567,-79.78273297401479,40.45899315532213,318.44361434936525,-0.127346470952034,0.0829273238778114,-0.5221698880195618,0.8391928672790527,0.0451230290101139,2.43650904769181,1.2071396430510914,0.1363305896520614,-0.0575694479048252,0.0870621129870414,-0.2634170103259384,-0.1139667920675128,-9.951731829643249,14983.0
38.3,2.400000095367432,58.0,21.38627815246582,23.36231231689453,-79.7827299743834,40.45899424461186,318.4871324157715,-0.1317737400531768,0.0893687009811401,-0.5199138522148132,0.8392488956451416,0.0301508669769418,2.6909415597508866,1.285654761594292,0.0016439999453723,-0.158975601196289,-0.1323672980070114,-0.2055733381211757,-0.0333892367687076,-9.929638710021973,14983.0
38.5,2.700000047683716,54.0,21.417579650878903,22.93291664123535,-79.78272323784745,40.458997277982434,318.49551330566413,-0.1438230723142624,0.0980421155691146,-0.5170164108276367,0.8380911946296692,0.0261009129999906,3.1943072834856827,1.4527324404159945,0.0175097696483135,-0.1190952509641647,-0.1532362252473831,-0.3578711229935289,-0.035263132341206,-9.845327707529073,14983.0
38.6,3.2000000476837163,49.0,21.3061466217041,24.65049934387207,-79.7827195223296,40.45899937100957,318.46907363891603,-0.1478314250707626,0.1002693772315979,-0.5162832736968994,0.8375820517539978,-0.0194345607062697,3.432794375883593,1.5235073678415652,0.0801143869757652,-0.0602883771061897,0.2272799909114837,-0.5933596569299698,-0.2146779645234346,-9.816270554065705,14983.0
38.8,3.5,51.0,21.41006660461425,21.8355712890625,-79.7827110696393,40.45900261989058,318.51960693359376,-0.1302818357944488,0.0917295292019844,-0.5200130343437195,0.8391655683517456,-0.0048895601876371,3.9039910319544218,1.7148680964806693,0.1934460252523422,0.5361848473548889,0.1451097875833511,-0.9390687540918587,-0.1173335000686347,-10.069891194105148,14983.0
38.9,4.0,56.0,21.405059814453125,21.088104248046875,-79.78270669526101,40.45900517728589,318.50771270751954,-0.1073524504899978,0.0798901244997978,-0.5220527648925781,0.8423502445220947,-0.0982936839694809,4.1452119663807485,1.6121083153540443,-0.0285683050751686,0.4969713389873505,0.0110884839668869,-0.8789425664395094,-0.0629778792941942,-9.92327460050583,14983.0
39.1,4.199999809265137,58.0,21.52901268005371,19.48184585571289,-79.78269709537021,40.45900975336482,318.51936660766603,-0.0731346756219863,0.0624851770699024,-0.5265160202980042,0.8447057604789734,-0.1673526209534599,4.59932525227866,1.176044093683854,-0.0011930462205782,0.2264732420444488,0.0081584425643086,-0.6862487440556289,0.0153864683350548,-9.35838796019554,14983.0
39.2,4.699999809265137,69.0,21.48268699645996,20.6507568359375,-79.7826920906003,40.459011766717246,318.53070388793947,-0.0667572170495987,0.0590542331337928,-0.5278910398483276,0.8446225523948669,-0.150640563959922,4.741829678773869,0.9957578531761534,-0.029029780998826,0.0172803178429603,-0.0014055502833798,-0.7663186148554088,-0.0232281372696161,-9.206764395833016,14983.0
39.41,4.900000095367432,71.0,21.47892951965332,21.024490356445312,-79.78268130565745,40.459016481387685,318.5250505065918,-0.0579753182828426,0.0532481633126735,-0.5281563401222229,0.8454906344413757,-0.166377622844284,4.954409368980718,0.8304611856057705,0.040380734950304,0.120998241007328,-0.1219928786158561,-0.8494174895435572,0.22569631151855,-9.390444150567054,14983.0
39.51,5.300000190734863,71.0,21.56156539916992,18.02667236328125,-79.78267604137984,40.45901859074439,318.52444396972663,-0.0492610670626163,0.0470948703587055,-0.5287395715713501,0.8460437655448914,-0.1487459754645194,5.00410193012733,0.7626411332801077,-0.0313854813575744,0.2785220146179199,-0.1068326234817504,-0.7248815902322531,0.1981627049110829,-9.587348552942276,14983.0
39.7,5.5,71.0,21.57283401489257,18.750282287597656,-79.78266481399605,40.459023444083634,318.511969909668,-0.0230071656405925,0.0306804981082677,-0.5289942026138306,0.8477585315704346,-0.1523059677320232,5.106126679793995,0.469235380968016,-0.0652854964137077,0.2592355310916901,0.0283855646848678,-0.755914298593998,0.1414706326927989,-9.34609711289406,14983.0
39.8,5.9000000953674325,77.0,21.594118118286133,18.034624099731445,-79.7826536980981,40.459028213384215,318.47478805541994,-0.0049141095951199,0.0195328332483768,-0.5300332307815552,0.8477376699447632,-0.1525638771669233,5.091748743614468,0.0951936988528764,-0.0245198346674442,0.198577046394348,-0.2065733671188354,-0.7762616588920356,-0.0345244462788105,-9.301851232051847,14983.0
40.01,6.0,82.0,21.600378036499023,16.66691780090332,-79.7826484049638,40.45903032564164,318.4582666015625,-0.0005273839342407,0.0170291140675544,-0.5303036570549011,0.8476366400718689,-0.1309927963583481,5.047198682299976,-0.0431313610315766,-0.0322679430246353,0.0310119744390249,-0.0345933362841606,-0.8420777720957995,0.006667104922235,-9.228616025447844,14983.0
40.1,6.199999809265138,82.0,21.495206832885746,19.768110275268555,-79.78264242553195,40.45903293187215,318.4320672607422,0.0007629509200342,0.0190319530665874,-0.5296307802200317,0.8480144739151001,-0.1435734467368744,5.052541858424402,-0.1338641059066294,0.0149153778329491,0.0347652956843376,0.0441654585301876,-0.6868575853854418,-0.2343292503431439,-9.271335783004762,14983.0
40.3,6.300000190734862,82.0,21.55530548095703,17.644987106323242,-79.78263200609575,40.45903707061564,318.3805879211426,0.0016808286309242,0.0208001341670751,-0.5292249917984009,0.8482248783111572,-0.1046492377486977,4.918516391539273,-0.1550461295455577,-0.0683033168315887,-0.0184854548424482,0.1417382508516311,-0.9602333358675242,-0.347682166993618,-9.624685363769531,14983.0
40.4,6.4000000953674325,82.0,21.526508331298828,19.35461807250977,-79.7826261747982,40.45903963905766,318.3523324584961,0.0090821469202637,0.0184835288673639,-0.5290245413780212,0.8483566045761108,-0.0845826703812057,4.889048255016268,-0.1784799459432471,0.0694939196109771,0.113854207098484,-0.0562018230557441,-0.8743370801210404,-0.2519025270827115,-9.643771845102313,14983.0
40.6,6.4000000953674325,84.0,21.477678298950195,20.809791564941406,-79.78261540399977,40.45904403653221,318.2720750427246,0.0250405836850404,0.0049010044895112,-0.5294138789176941,0.8479800224304199,-0.053921310817197,4.774294549990861,-0.3534159198588249,0.0259049292653799,0.2751793265342712,0.1941437721252441,-0.6420758803188801,-0.3645676467195153,-9.9639677131176,14983.0
40.7,6.4000000953674325,85.0,21.431352615356445,21.92304039001465,-79.78260557823648,40.459047829832905,318.2240441894532,0.03809479996562,-0.0054716621525585,-0.5302341580390929,0.8469774127006531,-0.050848228269085,4.53154364256625,-0.4552592263207717,-0.0780782774090766,0.0361010655760765,-0.087653249502182,-0.8423695481568575,-0.2845283824391663,-10.022568508386613,14983.0
40.9,6.4000000953674325,84.0,21.42008399963379,22.392194747924805,-79.78260026830426,40.459049967249726,318.1642106628418,0.0393061190843582,-0.0059033832512795,-0.5290196537971497,0.8476782441139221,-0.0330442830292639,4.437633976068881,-0.5004986348132863,0.14873106777668,0.0991648286581039,0.0449627749621868,-0.6574134924262762,-0.5923423510417343,-10.311374183893202,14983.0
41.01,6.4000000953674325,91.0,21.41632652282715,22.105932235717773,-79.78259562635381,40.45905174259682,318.1482652282715,0.0372104234993457,-0.0027280650101602,-0.5280095934867859,0.8484184741973877,-0.0453005733901662,4.315391877806096,-0.4456719914651391,-0.112796664237976,-0.1086184903979301,0.00059510092251,-0.5519573866948486,-0.4672354345768689,-10.449773100614546,14983.0
41.2,6.300000190734862,93.0,21.51398658752441,19.22739028930664,-79.78258646467073,40.45905541962486,318.0944398498536,0.0258519239723682,0.0054233665578067,-0.5253850817680359,0.850454568862915,0.0137165007228802,4.108008029552511,-0.2510588802608688,-0.0006775970105081,-0.1453132629394531,0.0101627437397837,-0.7398376715183258,-0.2322857215628028,-10.505582435131071,14983.0
41.3,6.300000190734862,93.0,21.38377380371093,21.95484733581543,-79.78258215560929,40.45905704776853,318.09235321044923,0.018320133909583,0.0065088556148111,-0.5240482687950134,0.8514666557312012,0.0259208743709805,4.01723417422824,-0.1667071874031641,-0.0433534868061542,-0.0200831945985555,-0.1066465452313423,-0.5969643191993237,-0.1537002030014992,-10.161808254718784,14983.0
41.5,6.199999809265138,94.0,21.542783737182614,19.17172622680664,-79.78257364693154,40.45906043165221,318.06331192016603,0.0102066565304994,0.0047181057743728,-0.5224750638008118,0.8525804877281189,0.0372180864474075,3.8751312765885055,-0.0350759334252516,0.000794191902969,0.0808403193950653,-0.0323232449591159,-0.40747484408319,-0.1078945956565439,-10.178654083013535,14983.0
41.6,6.099999904632568,89.0,21.45889663696289,20.8177433013916,-79.78256539075109,40.45906364443982,318.0182908630371,0.0078198006376624,0.0033724070526659,-0.5217688083648682,0.8530445098876953,0.0380266737392375,3.747844641665645,-0.0708378358229577,0.0008537252433598,0.0400111526250839,-0.0740934684872627,-0.8073156365007162,-0.3313400032371282,-9.789637656211854,14983.0
41.8,6.0,89.0,21.405059814453125,21.604969024658203,-79.782561464444,40.4590651411396,318.01560150146486,0.0084752989932894,0.0027926140464842,-0.5222028493881226,0.8527747392654419,0.0423355946331179,3.6977600122906846,-0.0580005035233442,0.0578477084636688,0.087646298110485,0.0347520783543586,-0.4879269766062498,-0.5149105977639556,-9.7842798525095,14983.0
41.9,5.800000190734862,90.0,21.51273536682129,20.213409423828125,-79.7825573560132,40.459066796628406,317.93511520385744,0.0099927112460136,0.0021585123613476,-0.5221903324127197,0.8527677655220032,0.0262418587546882,3.6357078723808254,-0.1342940241960341,0.013672674074769,0.0901714488863945,0.0749407932162284,-0.6844847852736712,-0.1687880659103393,-9.922320334911348,14982.0
42.1,5.699999809265138,90.0,21.48018264770508,20.905214309692383,-79.78254975476074,40.45906959344185,317.85391174316413,0.0070664077065885,-0.001598366186954,-0.5198096632957458,0.8542513847351074,0.0480760629101326,3.512041044983558,-0.1870270754602677,-0.1312000155448913,-0.0501352809369564,-0.0676079168915748,-0.4419240074604749,-0.1637421380728483,-10.054711822271347,14982.0
42.21,5.599999904632568,90.0,21.42634391784668,21.14376640319824,-79.78254246733937,40.45907237935672,317.8312371826172,-0.000138954463182,-0.0007044921512715,-0.5181284546852112,0.8553025722503662,0.0347678359230266,3.403387571559505,-0.1123895298204161,0.0610535107553005,0.0064446055330336,0.136000782251358,-0.5414750466495752,-0.3481947119906545,-9.911738044023512,14982.0
42.4,5.5,88.0,21.39379119873047,22.344484329223643,-79.78253882342634,40.45907374881229,317.7982057189941,-0.0022474247962236,0.0031866370700299,-0.5173775553703308,0.8557483553886414,0.0314457761926758,3.3668809411737124,-0.0858895288427268,-0.0752719491720199,0.0244470797479152,-0.2012362033128738,-0.1874216803908348,0.1990668854489922,-10.212121206521989,14982.0
42.5,5.400000095367432,88.0,21.45013236999512,20.8256950378418,-79.78253531027623,40.45907512235589,317.7911637878418,-0.0055699991062283,0.0057827346026897,-0.5171927809715271,0.8558313250541687,0.0301517092933044,3.3285788214634784,-0.0327840426400468,0.0681743770837783,-0.0427538603544235,0.0345022454857826,-0.4686365736275912,-0.3179276234284044,-10.191443113088608,14982.0
42.7,5.300000190734863,88.0,21.41257095336914,22.392194747924805,-79.78252841964122,40.459077875523576,317.76312957763673,-0.0133606316521763,0.0089306542649865,-0.5140162110328674,0.8576299548149109,0.0035678537918745,3.2733815659848324,-0.0143642047244463,0.0371198020875454,-0.0393789522349834,-0.0512211732566356,-0.4368283051997424,-0.5091361434012651,-9.6989508497715,14982.0
42.81,5.199999809265137,86.0,21.34370803833008,23.46568489074707,-79.78252501020202,40.45907925254543,317.7539323425293,-0.0138642378151416,0.0126221757382154,-0.5120997428894043,0.8587213754653931,0.0061093641395065,3.262185882569638,0.0106069794249932,0.1045057028532028,0.0476699024438858,0.0979139059782028,-0.3610823772847653,-0.0725494104344397,-9.692431204319,14982.0
43.0,5.099999904632568,83.0,21.44011688232422,21.68448829650879,-79.78251826440696,40.45908202805129,317.74858032226564,-0.0158312041312456,0.0143230389803648,-0.5104067325592041,0.8596680760383606,0.0242099082206712,3.2283637721806,0.0708020105820999,0.1954299062490463,0.1081276834011078,-0.0763681232929229,-0.3378570905327797,-0.028064698241651,-9.929816465377806,14982.0
43.1,5.0,82.0,21.37375831604004,22.90906143188477,-79.78251491943851,40.459083477764494,317.7518685913086,-0.015781108289957,0.0161903370171785,-0.5104544162750244,0.8596075177192688,0.0040816983981818,3.22241185622536,0.0536335946933494,-0.0673695132136344,-0.0447889454662799,-0.0443585030734539,-0.2603888104297221,-0.1632224667817354,-9.72766652584076,14982.0
43.3,4.900000095367432,82.0,21.33995246887207,23.282794952392567,-79.78250824974008,40.459086263499024,317.7356561279297,-0.0223135109990835,0.0139822354540228,-0.5089241862297058,0.86040860414505,-0.0038257188614,3.2235213171355688,0.0973633035509344,0.0323687493801116,0.0953231155872345,0.0423917546868324,-0.4888392153382302,-0.187062734439969,-9.962560873031617,14982.0
43.41,4.800000190734863,81.0,21.297382354736328,24.23700714111328,-79.7825016525853,40.45908916288249,317.74909912109376,-0.0211530327796936,0.0135355545207858,-0.5102840065956116,0.8596392869949341,-0.0270478659968057,3.2250714439597523,0.186525578238056,0.0335588753223419,-0.0636124685406684,0.0761544778943061,-0.4942103214561939,-0.1394603416789323,-10.07652895331383,14982.0
43.6,4.800000190734863,82.0,21.34996795654297,22.90110969543457,-79.78249842407797,40.45909064128919,317.7742608642578,-0.0213097911328077,0.0180490538477897,-0.5126959085464478,0.8581160902976991,-0.0240685197402832,3.2209510970835664,0.2316163380056443,0.2033641636371612,0.0594467706978321,0.0219419952481985,-0.3516119344532489,-0.172452863138169,-10.29187488913536,14982.0
43.7,4.699999809265137,82.0,21.421335220336918,21.000635147094727,-79.78249509660455,40.45909206524608,317.7837632751465,-0.0210937540978193,0.0213372260332107,-0.5159116983413696,0.8561161756515503,-0.0599928388138635,3.2231023882676584,0.2998290499415794,-0.0337012894451618,-0.05799026414752,0.203075885772705,-0.594078023917973,-0.3234079993888736,-10.324971299171448,14982.0
43.9,4.599999904632568,82.0,21.334943771362305,23.64062309265137,-79.78248856922748,40.45909508110404,317.8194955444336,-0.0223464090377092,0.0202665850520134,-0.5229004621505737,0.8518597483634949,-0.1131709200286575,3.2328556274269062,0.3195204105051125,-0.1415628045797348,-0.0960241332650184,0.1043713241815567,-0.4640830544382334,-0.137195230834186,-9.872816637754443,14982.0
44.0,4.599999904632568,79.0,21.39754676818848,22.14569091796875,-79.7824852178502,40.4590965073626,317.8329042053223,-0.0226699337363243,0.0205965638160705,-0.5257891416549683,0.8500633239746094,-0.1219597977154688,3.244315766261616,0.3319776445807651,0.0292086340487003,-0.0573982447385788,0.1388047933578491,-0.4887663078680634,-0.2063244495168328,-9.935651986598971,14982.0
44.2,4.599999904632568,79.0,21.411319732666016,21.65267944335937,-79.78247853648091,40.45909940754478,317.885390625,-0.0239190366119146,0.0177280455827713,-0.5277906656265259,0.8488525748252869,-0.1494320491641161,3.2594887928999,0.3459309473107765,-0.0118363108485937,-0.0259306114166975,0.0861277431249618,-0.5604010584577919,-0.0572699096007272,-9.836793111562727,14982.0
44.31,4.5,78.0,21.4238395690918,22.52737617492676,-79.78247514341237,40.45910083154462,317.90074859619136,-0.0253058616071939,0.0152194369584321,-0.5274807214736938,0.849053680896759,-0.144413692031913,3.270603732840069,0.3461154660760544,-0.085064448416233,0.04732496291399,0.0032210929784923,-0.3849793629348278,0.2569569699279964,-9.790462698340416,14982.0
44.5,4.400000095367432,76.0,21.40005111694336,22.495569229125977,-79.78246832826683,40.45910381571176,317.95739685058595,-0.0243498757481575,0.0134132709354162,-0.5258942246437073,0.8500956296920776,-0.1394109131126744,3.303639069728985,0.3350154796372782,-0.0519767776131629,0.0226591788232326,-0.1029515862464904,-0.3534944820776582,0.2283702797815204,-9.843304570913316,14982.0
44.61,4.300000190734863,75.0,21.334943771362305,22.69436264038086,-79.78246481900703,40.45910529839544,318.00927673339845,-0.024338312447071,0.0135795241221785,-0.5254685878753662,0.85035640001297,-0.1161245973729079,3.330630877056274,0.352377283954738,-0.0176988765597343,-0.0004676459939219,0.0595580525696277,-0.3807721816375852,-0.088911116681993,-9.89960974931717,14983.0
44.8,4.300000190734863,76.0,21.3061466217041,24.165441513061523,-79.78245785326483,40.459108179614645,318.04486404418947,-0.0235746707767248,0.015782568603754,-0.5242756605148315,0.8510759472846985,-0.1015826280229486,3.3612725828600265,0.3803135842048681,0.0636150762438774,0.006032804492861,-0.0212601013481616,-0.3919651776552199,-0.0226091158459894,-9.918757041692736,14983.0
44.91,4.199999809265137,75.0,21.401302337646484,22.73412132263184,-79.78245089647253,40.45911118926326,318.13027130126954,-0.0252878796309232,0.0107858693227171,-0.5187664031982422,0.8544738888740541,-0.0932102360715872,3.3828847040798182,0.4328893553649159,-0.0512774437665939,0.0507283210754394,-0.1372585743665695,-0.4340174024552107,0.070628746272996,-9.978343677520751,14983.0
45.1,4.199999809265137,75.0,21.4138240814209,21.461837768554688,-79.78244731064386,40.4591127428691,318.1905931091309,-0.0275098048150539,0.007800169289112,-0.5161659717559814,0.8560110926628113,-0.0765193539485941,3.408392174841996,0.4527929666336201,-0.0698325335979461,-0.0441653802990913,-0.1972331255674362,-0.4480621586367488,0.2463100673072041,-9.898032170534137,14983.0
45.2,4.300000190734863,73.0,21.468914031982425,20.444011688232425,-79.78244376088466,40.45911423363437,318.2172692871094,-0.0279651321470737,0.0087857516482472,-0.5149996280670166,0.8566890954971313,-0.0474842004999838,3.423278245715525,0.4574102961053834,0.0510995425283908,0.0531394630670547,0.0298611223697662,-0.4275586411356926,0.0418621034966781,-9.805810469985008,14983.0
45.4,4.300000190734863,73.0,21.456392288208008,19.58521842956543,-79.78243657474556,40.45911728474729,318.309089050293,-0.0290719475597143,0.0188753064721822,-0.5160686373710632,0.8558456897735596,-0.0646545463351022,3.4550268100090293,0.4620282091668506,0.0663756728172302,-0.0460040122270584,-0.0432054586708545,-0.3411974586546421,0.1078995657898485,-9.636252910494807,14983.0
45.5,4.400000095367432,72.0,21.522750854492188,18.81389617919922,-79.78243297497484,40.45911881433165,318.3320916748047,-0.0309549700468778,0.0211038347333669,-0.5167532563209534,0.8553142547607422,-0.0771281565860989,3.482016322806976,0.454511572749273,-0.0047525507397949,0.0010580598609521,0.0213822238147258,-0.4492113923281432,-0.0135260579036548,-9.397832692265512,14983.0
45.7,4.400000095367432,72.0,21.53902816772461,19.100160598754886,-79.78242567898587,40.4591220071343,318.4118493652344,-0.0311000850051641,0.0205075182020664,-0.5188588500022888,0.8540478944778442,-0.0971911435124274,3.529259558676393,0.3831883816026559,0.0217099003493785,-0.0077822497114539,-0.0343958996236324,-0.4381665135920048,-0.0690214563254267,-9.23949477016926,14983.0
45.8,4.400000095367432,71.0,21.43635940551757,20.595094680786133,-79.78242200934748,40.45912356589312,318.42008911132814,-0.0313116870820522,0.0221258513629436,-0.5209304094314575,0.8527377843856812,-0.0970210438607533,3.5509125434419464,0.3068552793173863,0.1061053797602653,0.03053705021739,0.0012505650520324,-0.5185624032095075,-0.0299549728701822,-9.069918499588969,14983.0
46.0,4.5,71.0,21.427595138549805,20.420154571533203,-79.78241461061458,40.45912670193571,318.4800218200684,-0.0251026265323162,0.0192456841468811,-0.5240510106086731,0.8510993123054504,-0.1257205097380036,3.5849690397404506,0.2541939423821344,-0.0478689298033714,0.053704310208559,0.0707556679844856,-0.4079440831393004,0.1662026464194059,-9.356977611780168,14983.0
46.1,4.5,71.0,21.49145126342773,19.47389411926269,-79.78241095284943,40.45912824928927,318.537001953125,-0.0221952404826879,0.0191098805516958,-0.5249735116958618,0.8506145477294922,-0.1206491459224472,3.6029999242516313,0.2294698608158703,-0.015903839841485,0.0358034297823905,-0.0186362564563751,-0.2515554217435419,0.2303621703386307,-9.440493977665902,14983.0
46.3,4.599999904632568,72.0,21.467660903930664,20.80183982849121,-79.78240343895966,40.459131361954505,318.529303894043,-0.0239966940134763,0.0232739020138978,-0.5258830189704895,0.8498997092247009,-0.1139448387990093,3.640480946582372,0.1300067056963838,-0.040938377380371,-0.0015411000931635,-0.1232934817671775,-0.1897434270009398,0.1344379854295402,-9.42385689496994,14983.0
46.4,4.699999809265137,72.0,21.510231018066406,20.181602478027344,-79.78239582763291,40.45913451665947,318.5690721130371,-0.0318224728107452,0.0214915107935667,-0.5251706838607788,0.8501301407814026,-0.1064042478890577,3.676342668720935,0.1717633638853291,-0.0423002541065216,0.0062149357981979,-0.0528342835605144,-0.3554313722625375,0.0291074966196902,-9.489908212423323,14983.0
46.6,4.699999809265137,71.0,21.41883087158203,20.68256378173828,-79.78239201146803,40.45913610951383,318.6324380493164,-0.0334113538265228,0.0189040452241897,-0.5243692994117737,0.850625216960907,-0.0964277648628199,3.6930016937000025,0.2621786953058128,-0.0416850298643112,0.1400417685508728,0.0257386956363916,-0.4188516253978014,-0.0584892002446577,-9.845217779874805,14983.0
46.7,4.800000190734863,71.0,21.433856964111328,20.833646774291992,-79.78238814239081,40.45913768629089,318.630622253418,-0.0319305881857872,0.0159763023257255,-0.5237683653831482,0.8511121869087219,-0.0920828074455052,3.721799448931888,0.2705614841819767,0.0278401747345924,0.0974690690636634,0.0139729715883731,-0.5288007316365838,-0.0536329094879329,-9.875307551622392,14983.0
46.9,4.800000190734863,71.0,21.45388984680176,20.78593635559082,-79.78238029128326,40.459140912948605,318.6923440551758,-0.0271219629794359,0.0126471715047955,-0.5238381028175354,0.851292073726654,-0.1022613979414861,3.771563427666541,0.2800122272311002,-0.0426337979733944,0.0902211442589759,-0.050732709467411,-0.3457395026832819,-0.0339668914256617,-9.913088750839234,14983.0
47.0,4.800000190734863,72.0,21.35497665405273,22.38424301147461,-79.78237635888212,40.45914253646317,318.6961396789551,-0.0257300790399312,0.0114914160221815,-0.523777961730957,0.851388692855835,-0.1131520353249285,3.791893493382888,0.2638667622012619,0.0184560101479291,0.0441506952047348,-0.0501311793923378,-0.262127224188298,-0.1184435482788831,-9.851795897483829,14983.0
47.2,4.800000190734863,74.0,21.51523971557617,19.664737701416016,-79.7823684073693,40.4591459768321,318.7373918151856,-0.0228649843484163,0.016645424067974,-0.5228794813156128,0.8519372940063477,-0.1339645945845619,3.8263171589643137,0.293586394236868,-0.0830910950899124,0.0083088157698512,-0.1358380615711212,-0.3409939755499363,0.1545706341415643,-10.02768248319626,14983.0
47.31,4.800000190734863,74.0,21.4238395690918,21.62882423400879,-79.7823644468367,40.45914763997308,318.7447465515137,-0.0213818196207284,0.0167814921587705,-0.5228219032287598,0.852008581161499,-0.1306148370307264,3.826611252941624,0.2787841743566941,-0.0497778579592704,0.0672288686037063,-0.0945047363638878,-0.3103772965818644,-0.0177484785066917,-9.798689730763437,14983.0
47.5,4.800000190734863,74.0,21.358732223510746,21.95484733581543,-79.78235647958283,40.45915103252235,318.7715562438965,-0.0199501309543848,0.0157209243625402,-0.5229597091674805,0.8519789576530457,-0.1280936868801117,3.833008570740304,0.2454307186409422,0.0704788938164711,-0.0559710152447223,0.0698200836777687,-0.5824824836477638,-0.2489315750822425,-9.728961099386217,14983.0
47.6,4.900000095367432,77.0,21.42884826660156,20.77003288269043,-79.78234843151004,40.45915440574795,318.79772888183595,-0.0169700533151626,0.0193515624850988,-0.5234749913215637,0.8516522645950317,-0.1147712929735159,3.86211458478847,0.2602579956640065,0.0774407982826232,-0.0810917392373085,-0.0585994683206081,-0.5949753522500396,-0.2736399167217314,-9.923921302556993,14983.0
