time,wind_speed,wind_angle,battery_voltage,battery_current,position_x,position_y,position_z,orientation_x,orientation_y,orientation_z,orientation_w,velocity_x,velocity_y,velocity_z,angular_x,angular_y,angular_z,linear_acceleration_x,linear_acceleration_y,linear_acceleration_z,node_ids
0.0,2.200000047683716,165.0,25.60694122314453,-0.0318070948123931,-79.78279413601746,40.4589590506744,271.04492219257355,0.0021541845053434,0.013053904287517,-0.8535029888153076,0.5209200382232666,0.0027656330159098,-0.0193748799176072,0.0012462863110589,0.0068518542684614,0.0028081648051738,0.0057446458376944,-0.2266722118109465,-0.1782019917480647,-9.808882597088814,14936.0
0.2,2.200000047683716,171.0,25.62071418762207,-0.0238553211092948,-79.78279413252422,40.45895905228042,271.0415401058197,0.0021513788960874,0.0130602438002824,-0.8534820675849915,0.5209542512893677,0.002352899882488,-0.0133265344437605,0.0011698110725655,-0.0010292711667716,-0.0027877755928784,-0.0056061120703816,-0.2260546727478505,-0.1826872995123268,-9.807251223921776,14936.0
0.3,2.200000047683716,171.0,25.615705490112305,-0.0159035474061965,-79.78279418324684,40.45895907069266,271.0383699731827,0.0021557549480348,0.0130723556503653,-0.8534514307975769,0.5210040211677551,0.0025311091964281,-0.0193973343122681,0.0010409002053087,-0.0039080330170691,4.026898386655376e-05,0.0017981730634346,-0.2238516246154904,-0.1795928433537483,-9.807490375041963,14936.0
0.5,2.0999999046325684,175.0,25.62071418762207,-0.0238553211092948,-79.7827942061655,40.458959077728615,271.0385378198624,0.0021704784594476,0.0130668254569172,-0.8534290194511414,0.5210407376289368,0.0009045027979938,-0.0223000586725855,0.0016298355432846,2.6910882297670472e-05,-0.003282479243353,-0.0061004594899713,-0.2258779223822057,-0.1733661616779863,-9.808641107082368,14936.0
0.6,2.0,176.0,25.62071418762207,-0.0238553211092948,-79.78279419947978,40.45895908648545,271.03451104927063,0.0021649780683219,0.0131137892603874,-0.8533974289894104,0.5210914015769958,-0.0024518549204277,-0.0135369131252116,-0.0008725390364795,-0.0078960945829749,-0.0029223458841443,-0.0073552778922021,-0.2241895936802029,-0.1932072079181671,-9.810035083293917,14936.0
0.8,2.0,176.0,25.621965408325195,-0.0079517737030982,-79.78279421286739,40.45895909366206,271.03447683620453,0.0021877398248761,0.013132294639945,-0.8533934950828552,0.5210973024368286,-0.0026642715855468,-0.0162315222953106,-0.0005005151914641,0.004963903222233,-9.152690472546964e-05,0.0059870462864637,-0.2233850350789726,-0.1928357635438442,-9.81101975440979,14936.0
0.9,2.0,178.0,25.62071418762207,-0.0238553211092948,-79.78279424242326,40.45895907601847,271.0315510826111,0.0022262537386268,0.0131425252184271,-0.8533554077148438,0.5211591720581055,0.0058001620700037,-0.0143091778456745,0.0005708027360532,0.0066572567448019,-7.499381172237918e-05,0.0039192158728837,-0.2249918133951724,-0.181909364014864,-9.808215429782868,14936.0
1.1,2.0999999046325684,177.0,25.61820983886719,-0.0159035474061965,-79.78279426044746,40.458959078025984,271.0316559867859,0.0022300686687231,0.0131593607366085,-0.8533385396003723,0.5211864113807678,0.0036577056084766,-0.0168650896374408,0.0010659690560678,-0.0036015608347952,-0.0012998085003346,-0.0021775802597403,-0.2265275480411947,-0.189754226077348,-9.80893873035908,14936.0
1.21,2.0999999046325684,177.0,25.61946105957031,-0.0238553211092948,-79.78279425832733,40.45895909724767,271.02609237003327,0.0022186741698533,0.0131629658862948,-0.8533111214637756,0.5212312340736389,-0.000777008228752,-0.014553262150885,-0.003098810118039,0.0002589988871477,-0.0017345532542094,0.0025961608625948,-0.2256712598539889,-0.181063089184463,-9.808021886944774,14936.0
1.4,2.0999999046325684,177.0,25.61946105957031,-0.0318070948123931,-79.78279426960607,40.45895910846935,271.02153952884674,0.002204340416938,0.0131718637421727,-0.8532942533493042,0.5212587714195251,-0.0003313976866192,-0.0152030963336271,-0.0052654188766283,-0.0023050475865602,0.0012794920476153,-0.0051125553436577,-0.2245588270761072,-0.1733187078684568,-9.806861214637756,14936.0
1.51,2.0999999046325684,174.0,25.61820983886719,-0.0318070948123931,-79.78279430485189,40.45895912506624,271.020657737732,0.0022086452227085,0.0131938317790627,-0.8532686829566956,0.5212998986244202,-0.0033200084146886,-0.0205001493880918,-0.0042572327698195,-0.0103829931467771,-0.0017617259873077,-0.0086000906303524,-0.2242359145916998,-0.1953009862080216,-9.810672429800034,14936.0
1.7,2.0999999046325684,175.0,25.611949920654297,-0.0318070948123931,-79.78279428446727,40.458959122477935,271.01798589992524,0.0021926360204815,0.0132112866267561,-0.8532530069351196,0.5213253498077393,-0.001862949475598,-0.0136586150749562,-0.0027465450914974,0.0038856377359479,0.0007785414927639,0.0066931867040693,-0.2214695785939692,-0.1945290806517004,-9.809932757019997,14936.0
1.81,2.0999999046325684,172.0,25.613201141357425,-0.0079517737030982,-79.7827943012202,40.45895911343124,271.01369508075715,0.002200732473284,0.0132590774446725,-0.8532189130783081,0.521379828453064,0.0036896127040478,-0.0133443068832375,-0.0053089733411221,0.0094595225527882,0.0056059374473989,0.0043268213048577,-0.2237821523845196,-0.1763903964310884,-9.806849520206452,14936.0
1.91,2.0999999046325684,168.0,25.61445426940918,0.0318070948123931,-79.78279431760845,40.45895911758261,271.01321943569184,0.0021973010152578,0.0132552087306976,-0.8531996607780457,0.5214112997055054,0.0010230623221417,-0.0156751964364523,-0.004670503146198,-0.0085046039894223,-0.0029973627533763,-0.0047476706095039,-0.2243721364438534,-0.1830578668043016,-9.809185482859611,14936.0
2.1,2.200000047683716,170.0,25.61946105957031,-0.0238553211092948,-79.78279433530726,40.458959104938494,271.00897987651825,0.0021940134465694,0.0132978418841958,-0.8531622290611267,0.5214716792106628,0.0046839751133901,-0.0143602347462789,-0.0064544804787289,-0.0035312236286699,-0.0016599401133134,-0.00087728590006,-0.2224011496827006,-0.1887833507359028,-9.809415278434754,14936.0
2.3,2.200000047683716,174.0,25.61946105957031,-0.0159035474061965,-79.78279435340593,40.45895910734429,271.0083802537918,0.0022169800940901,0.013312941417098,-0.8531513810157776,0.5214887857437134,0.0041335028608302,-0.0166888489617144,-0.0060709527306466,0.0031097140163183,0.0032017058692872,0.0008601858280599,-0.2241827232018112,-0.1808589117228985,-9.807469325065613,14936.0
2.41,2.200000047683716,175.0,25.61695671081543,-0.0238553211092948,-79.78279434291285,40.45895911326699,271.0036036567688,0.0021774843335151,0.0133198266848921,-0.8531240820884705,0.5215335488319397,-0.0007433903065584,-0.0133468221834502,-0.0070708500776028,-0.0033930968493223,-0.0006998516619205,-0.0050632683560252,-0.2218256557546556,-0.1938675230182708,-9.809885394573213,14936.0
2.6,2.0999999046325684,177.0,25.615705490112305,0.0874695107340812,-79.78279435706361,40.45895911962985,271.00295158195496,0.0021694509778171,0.0133298067376017,-0.8531137108802795,0.5215502977371216,-0.001392333269882,-0.0158109016864655,-0.006639076709125,0.0005525333690457,0.0050990818999707,0.0022354761604219,-0.2234314108081162,-0.1945425840653479,-9.809448022842409,14936.0
2.7,2.0999999046325684,174.0,25.61445426940918,0.0795177370309829,-79.78279435646276,40.45895909621707,270.9988770084381,0.0021559880115091,0.0133537724614143,-0.853087306022644,0.5215928554534912,0.0025802383454412,-0.0125423185190661,-0.0066265563996214,0.0079110981896519,0.0031123405788093,0.0024075740948319,-0.2269880710914731,-0.1707273497991264,-9.80690156042576,14935.0
2.9,2.200000047683716,175.0,25.613201141357425,0.0079517737030982,-79.7827943397281,40.45895909189394,270.99690254497534,0.0021327834110707,0.0133587205782532,-0.8530731797218323,0.5216159820556641,-0.0007986974168925,-0.0093322498637586,-0.0034900162889927,-0.0043742987327277,-0.0022996612824499,-0.0063577974215149,-0.2236505900323391,-0.180958606749773,-9.807654681801797,14935.0
3.01,2.299999952316284,171.0,25.61069679260254,0.0477106422185897,-79.78279436213165,40.45895910337757,270.99633570480347,0.0021439993288367,0.0133608886972069,-0.8530547618865967,0.5216459631919861,-0.0028664046065288,-0.0137634012404469,-0.0025759854441837,-0.0008112851064652,-0.0004631914780475,-0.0002072165952995,-0.2242902023345232,-0.1847913835197688,-9.808686715364455,14935.0
3.2,2.799999952316284,169.0,25.60944557189941,0.0874695107340812,-79.7827943621169,40.45895907776941,270.9925686912537,0.002170346211642,0.0133807640522718,-0.8530450463294983,0.5216612219810486,0.0026073917741382,-0.0122707569188447,-0.0051416098234537,0.0006073890835978,-0.0030376820359379,-0.0021445448510348,-0.2245038997940719,-0.1742637092806399,-9.807429563999175,14935.0
3.3,2.900000095367432,167.0,25.613201141357425,0.0636141896247863,-79.78279435214102,40.45895905715643,270.99015506076813,0.002159402705729,0.0134385470300912,-0.8530201911926271,0.5217005610466003,0.0028688058572097,-0.0084402327529062,-0.0023161346004059,-0.0075645297765731,-0.0021347415167838,-0.0086850076913833,-0.2226341064088046,-0.1962695409357548,-9.809850896000864,14935.0
3.5,3.0999999046325684,167.0,25.60443687438965,0.1590354740619659,-79.7827943637683,40.45895905881826,270.98995288181305,0.0021553188562393,0.013444191776216,-0.853001058101654,0.5217317342758179,0.0029885954960187,-0.0107107130243942,-0.0020317895052215,0.005640554241836,0.000229832570767,0.0069580292329192,-0.2239610040932894,-0.1928421406634152,-9.809355052113531,14935.0
3.6,3.0,163.0,25.611949920654297,0.055662415921688,-79.78279437412012,40.45895903837704,270.986493309021,0.0021625796798616,0.0134773924946784,-0.8529788255691528,0.5217671394348145,0.0044673230028567,-0.0120246734406833,-0.0039046097127155,0.0041653723455965,-0.0024609696120023,-0.0007479496416635,-0.2225460509955883,-0.1871830043569208,-9.809093096852305,14935.0
3.8,3.0999999046325684,160.0,25.60569000244141,0.0238553211092948,-79.78279438942758,40.45895903983812,270.98615737724305,0.0021549614612013,0.013513121753931,-0.8529681563377379,0.521783709526062,0.0035133618688228,-0.0142241500535634,-0.0032740245096218,0.0005902854027226,0.0021992933470755,0.0038447345141321,-0.2266403262130917,-0.1926954486407339,-9.810550807714463,14935.0
3.91,3.2000000476837163,162.0,25.60694122314453,0.0318070948123931,-79.78279437755224,40.45895901639529,270.9822526769638,0.0021644942462444,0.0135080255568027,-0.8529322743415833,0.5218424201011658,0.0045821017860175,-0.0096734839178665,-0.0053325687641296,0.0054264473728835,0.0030645842198282,0.0031827078200876,-0.2248522659391165,-0.1702739713154733,-9.808840497136115,14935.0
4.1,3.299999952316284,156.0,25.60569000244141,0.0397588685154914,-79.7827943902055,40.4589590172917,270.981764038086,0.0021514904219657,0.0135346166789531,-0.8529199957847595,0.5218619108200073,0.0024860286757515,-0.0115204781576873,-0.0047683270339646,-0.0085419798269867,-0.001736641395837,-0.0070569193921983,-0.2247962605766952,-0.1801307141035795,-9.807574574947358,14935.0
4.21,3.299999952316284,155.0,25.60944557189941,0.0715659633278846,-79.78279440272733,40.458958988265394,270.977753241539,0.0021467260085046,0.0135572208091616,-0.8529070615768433,0.5218824148178101,0.005246563956929,-0.0127068866047273,-0.0059807922513193,-0.0037597080226987,0.0004226770543027,0.0022659602109342,-0.2247550011612475,-0.1846913961321115,-9.808438208699226,14935.0
4.41,3.400000095367432,159.0,25.61069679260254,0.0477106422185897,-79.78279436200165,40.458958937762986,270.9759727315904,0.0021646036766469,0.0135992681607604,-0.8528960347175598,0.5218991041183472,0.0108276902639693,-0.0018949923370649,-0.0032546848528377,0.0003566626983229,0.0021134631242603,1.2010911632387432e-05,-0.2247979599237442,-0.1797248807922006,-9.809291317462922,14935.0
4.51,3.299999952316284,161.0,25.608192443847656,0.0238553211092948,-79.78279437977355,40.45895892463471,270.97540231513983,0.0021400477271527,0.0135789206251502,-0.8528622388839722,0.5219550132751465,0.0085704685934212,-0.0054401384888917,-0.0023072893437553,-0.0030047935433685,-0.0025761988945305,-0.0044509009458124,-0.2218420827761292,-0.1948583885282278,-9.809678403139117,14935.0
4.7,3.299999952316284,167.0,25.61069679260254,0.0238553211092948,-79.7827943740358,40.45895891677211,270.97234006690985,0.0021331121679395,0.0135787250474095,-0.8528497815132141,0.5219754576683044,0.0052175803296882,-0.0093602441400073,-0.0039965014246214,0.0073935417458415,0.0026466955896466,0.0064027742482721,-0.2217774710431695,-0.1961809008009732,-9.809301842451095,14935.0
4.81,2.799999952316284,164.0,25.603185653686523,0.055662415921688,-79.78279435935097,40.45895885425897,270.9685661392212,0.0021537481807172,0.0136178247630596,-0.8528170585632324,0.522027850151062,0.0134641880513147,-0.0020961529075724,-0.0055992115702225,0.0100837498903274,0.0025517037138342,0.0044742501340806,-0.2268590668961405,-0.1755090565793216,-9.80762836933136,14935.0
5.0,2.799999952316284,161.0,25.61445426940918,0.0477106422185897,-79.7827943691856,40.45895884572865,270.96801694202424,0.0021476570982486,0.0136059774085879,-0.8527881503105164,0.5220754146575928,0.0113818378104317,-0.0038011303979651,-0.0050664805383849,-0.0039558908902108,-0.001229839050211,-0.0058210464194417,-0.2240185443498194,-0.1839489459246397,-9.808795473575591,14935.0
5.11,2.799999952316284,164.0,25.61445426940918,0.0715659633278846,-79.78279432997006,40.45895873532715,270.96273871231085,0.002143592108041,0.0136656695976853,-0.8527498245239258,0.5221364498138428,0.0233381291312463,0.007835644822331,-0.0075936557421805,0.0004381038888823,0.0013961477670818,0.0020783899817615,-0.223214625287801,-0.1806388188712299,-9.807563465237616,14935.0
5.3,2.900000095367432,169.0,25.61069679260254,0.0636141896247863,-79.78279433419557,40.458958713928325,270.96194930839545,0.0021287878043949,0.0136649189516901,-0.8527491688728333,0.5221375823020935,0.0217639153002346,0.0062900031869661,-0.0070695802921658,-0.0037978442851454,-0.0011846184497699,-0.0065417601726949,-0.2252813602052629,-0.1727948338910937,-9.806520321965216,14935.0
5.4,2.900000095367432,170.0,25.613201141357425,0.055662415921688,-79.78279439850606,40.45895868455636,270.9556983308792,0.0020993265789002,0.013620744459331,-0.8527275323867798,0.5221742987632751,0.0188006820822376,-0.0105133066536905,-0.010733001830433,-0.004762043710798,-0.0035981221590191,-0.0018947954522445,-0.223116519972682,-0.1940631489269435,-9.809481351971629,14935.0
5.6,2.900000095367432,166.0,25.613201141357425,0.055662415921688,-79.78279442043458,40.458958673308906,270.9546339111328,0.0021077885758131,0.0136476354673504,-0.8527259826660156,0.5221759676933289,0.0185971777166647,-0.0123607090214903,-0.0102937876041662,0.0041575953364372,0.0023418711498379,-0.00019991476438,-0.225581614729017,-0.1825170724466443,-9.80895451784134,14935.0
5.71,2.799999952316284,164.0,25.60944557189941,0.055662415921688,-79.78279439080913,40.45895865364493,270.950707157135,0.0020960448309779,0.0136407567188143,-0.8526904582977295,0.5222342610359192,0.0081111422003875,-0.010499181087458,-0.0093934268926587,-0.0043909046798944,0.0023335218429565,-0.009619097225368,-0.2232916258089244,-0.1962938616983592,-9.809698868393898,14935.0
5.9,2.799999952316284,164.0,25.61820983886719,0.0,-79.78279435170042,40.458958587359376,270.9479807214737,0.0020949335303157,0.0136604560539126,-0.8526847362518309,0.5222430825233461,0.0127876899230076,-0.0027619358389853,-0.0091942208496481,0.0079067191109061,0.0011955433292314,0.0057728071697056,-0.2216958658397197,-0.190263244472444,-9.809857912659645,14935.0
6.0,2.799999952316284,164.0,25.61445426940918,-0.0318070948123931,-79.78279437278776,40.45895857253275,270.946223695755,0.0020868356805294,0.0136725669726729,-0.8526679277420044,0.5222702622413635,0.0101587406713273,-0.0060288373795947,-0.0082734561891582,-0.0015376799274235,-0.0016235788352787,-0.0036861395929008,-0.2233681146986782,-0.1913240207545459,-9.809687173962594,14935.0
6.2,2.5999999046325684,163.0,25.62071418762207,-0.0079517737030982,-79.78279436999023,40.458958554551,270.9435518579483,0.0020697023719549,0.013647498562932,-0.8526422381401062,0.5223127603530884,0.0066551679189824,-0.0128934411302095,-0.0086944402065816,0.0061909388750791,0.0003829014895018,0.0024425750598311,-0.2243443621695041,-0.196074317023158,-9.809580754637716,14935.0
6.3,2.700000047683716,162.0,25.61820983886719,-0.0079517737030982,-79.78279435959341,40.45895851488488,270.93971939849854,0.0020826621912419,0.0136740105226635,-0.8526173830032349,0.5223526358604431,0.0048395403304162,-0.0127039557947609,-0.0089621568509549,0.0077105215750634,0.0030980217270553,0.0053506619296967,-0.2272009280137717,-0.1757520266622305,-9.807390387654303,14935.0
6.5,2.5999999046325684,166.0,25.60569000244141,-0.0397588685154914,-79.78279437592192,40.45895851760845,270.93887015151984,0.0020815641619265,0.0136721152812242,-0.8525977134704591,0.5223848223686218,0.0026510548368138,-0.0142741313342626,-0.008446057277506,-0.0059361369349062,-0.002129283035174,-0.0061197625473141,-0.2255030793137848,-0.1828975251875818,-9.808227708935735,14935.0
6.61,2.5,170.0,25.61445426940918,-0.0159035474061965,-79.78279433802189,40.4589584619917,270.93680413532263,0.0020692718680948,0.0137046910822391,-0.8525617718696594,0.522442638874054,0.0037431583718885,-0.0086899292945596,-0.0055282752143549,-0.0031133668962866,-0.0006113127456046,0.0001266841136384,-0.2251261349022388,-0.1854311237297952,-9.809818151593207,14935.0
6.8,2.400000095367432,165.0,25.611949920654297,-0.0159035474061965,-79.78279434946715,40.458958462670175,270.93628390598303,0.0020635933615267,0.0137028871104121,-0.8525463938713074,0.5224678516387941,0.0031739304790553,-0.0103992417092279,-0.0051052481532414,0.0011146521428599,0.0032645994797348,-7.016447489149868e-05,-0.2249682235345244,-0.1793554646708071,-9.806898052096368,14935.0
6.9,2.5,165.0,25.61946105957031,-0.0079517737030982,-79.78279430927695,40.45895838757088,270.9328460292816,0.0020511797629296,0.0137220593169331,-0.8525223731994629,0.522506594657898,0.007497149255794,-0.0043401628885555,-0.0062177109369337,-0.0021978276781737,-0.0004691549693234,-0.0055652703158557,-0.2239483960345387,-0.1923822206072509,-9.808414819836615,14935.0
7.1,2.299999952316284,164.0,25.61820983886719,-0.0079517737030982,-79.78279431824723,40.458958383203736,270.932247956276,0.0020309865940362,0.013722981326282,-0.8525064587593079,0.5225327610969543,0.0069988347544541,-0.0057401396264175,-0.005776837347003,0.0015713807661086,-0.0027270738501101,0.002493952633813,-0.2196224431693554,-0.1956370914727449,-9.80893697619438,14935.0
7.2,2.400000095367432,166.0,25.61695671081543,-0.0159035474061965,-79.78279430368467,40.45895832350004,270.92888148593903,0.0020332057029008,0.0137341953814029,-0.8524901270866394,0.5225590467453003,0.0084029251319184,-0.0080220305189594,-0.0067541771591433,0.0062416498549282,0.004475378897041,0.0045335474424064,-0.2244913282804191,-0.1718921151570976,-9.806046697497369,14935.0
7.4,2.400000095367432,170.0,25.61695671081543,-0.0159035474061965,-79.78279426905371,40.45895826528104,270.9281825618744,0.0020317863672971,0.0137474294751882,-0.8524841666221619,0.5225683450698853,0.0090256260432438,-0.0071247590287454,-0.0031962001028929,-0.0102092307060956,-0.0031157084740698,-0.0071091009303927,-0.2234792666137218,-0.1744476407580077,-9.806695153713228,14935.0
7.5,2.299999952316284,170.0,25.615705490112305,-0.0397588685154914,-79.78279429637844,40.45895825833633,270.927638133049,0.0020371016580611,0.0137258134782314,-0.8524573445320129,0.5226126313209534,0.0070335805915538,-0.0101793208492323,-0.0022116057188361,-0.0042614005506038,-0.0022637245710939,-0.0067212409339845,-0.2210598349571228,-0.1955399728752672,-9.810485318899156,14935.0
7.7,2.299999952316284,170.0,25.61820983886719,-0.0159035474061965,-79.78279424679633,40.45895820423864,270.9253949718476,0.0020313584245741,0.0137264877557754,-0.8524367213249207,0.522646427154541,0.0078610593575079,-0.0075014014765805,-0.0040370127252978,0.0084859933704137,0.0034328373149037,0.0052454997785389,-0.2262542455270886,-0.1925025818869472,-9.810102910995484,14935.0
7.81,2.299999952316284,170.0,25.61445426940918,-0.0159035474061965,-79.78279422319673,40.45895814176952,270.922918756485,0.0020464775152504,0.0137414662167429,-0.8524124026298523,0.5226854681968689,0.0097731237848871,-0.0078688528488874,-0.0061066634627372,0.0063168392516672,0.0019200354581698,0.0031669312156736,-0.2265603289939463,-0.1823160744085908,-9.809779559969902,14935.0
8.0,2.299999952316284,168.0,25.61445426940918,-0.0159035474061965,-79.78279423694481,40.45895813851133,270.9223414258957,0.0020428418647497,0.0137337381020188,-0.8523919582366943,0.5227191448211671,0.0076527953099842,-0.0093124981003369,-0.005569720368785,-0.0063890940509736,-0.0001280075666727,-0.0060539226979017,-0.2252673817053437,-0.1811869770660996,-9.808220692276953,14935.0
8.1,2.400000095367432,167.0,25.615705490112305,-0.0238553211092948,-79.78279419138158,40.45895807483984,270.9200447397232,0.0020090935286134,0.0137504078447818,-0.8523647785186768,0.5227631330490112,0.0064946886778556,-0.0051553444906944,-0.0067485463359643,-0.0049581322818994,-0.0025995690375566,-0.0022153928875923,-0.2237977571412921,-0.1854911855980754,-9.80800726890564,14935.0
8.3,2.5,167.0,25.61695671081543,-0.0159035474061965,-79.78279420088172,40.45895807177811,270.9193894462585,0.0020215816330164,0.0137422727420926,-0.8523649573326111,0.5227630138397217,0.0064828141813947,-0.0067265966987344,-0.0063554909984418,0.0051193595863878,0.0023530309554189,0.0047606062144041,-0.2256066481210291,-0.1843584885634482,-9.80892118871212,14935.0
8.4,2.5,167.0,25.615705490112305,-0.0318070948123931,-79.78279413083486,40.458957989836094,270.91711886692053,0.001993790268898,0.0137750850990414,-0.8523345589637756,0.5228118896484375,0.0072359845243632,0.0009164490504971,-0.006738989066904,0.0002373876341152,0.0011673816479742,0.0044668926857411,-0.2272408718056977,-0.1879711724817753,-9.808575033545496,14935.0
8.6,2.5,168.0,25.61695671081543,-0.0238553211092948,-79.78279413380598,40.45895798418177,270.9164548711777,0.0020000778604298,0.0137807270511984,-0.8523200154304504,0.5228353142738342,0.005682147394372,-0.0004172591635628,-0.0062246544720407,-0.0072840438224375,8.689516835147515e-05,0.0007280825520865,-0.2259186884388328,-0.1948095277324319,-9.810812762975694,14935.0
8.7,2.5,167.0,25.61445426940918,-0.0397588685154914,-79.78279408589984,40.45895793307496,270.9148118095398,0.0019983097445219,0.0137880956754088,-0.8523026704788208,0.5228633880615234,0.0027848380042833,-0.0026862277790745,-0.0061240551392951,-0.000100704106444,2.861567190848291e-05,0.0031321961432695,-0.2265959787368774,-0.1783946026861667,-9.809249217510224,14935.0
8.9,2.5,167.0,25.61820983886719,-0.0159035474061965,-79.7827940324373,40.4589578567937,270.9140402870178,0.001991368131712,0.0138086294755339,-0.8522966504096985,0.5228726863861084,0.0080917468355702,0.0012583240351829,-0.006963526555479,0.0004103710816707,0.0007647041929885,-0.0063487300649285,-0.227410897873342,-0.1719487600587308,-9.807515518069268,14935.0
9.02,2.5,167.0,25.613201141357425,-0.0318070948123931,-79.78279404004357,40.45895784455215,270.9127046661377,0.0020135308150202,0.0138072511181235,-0.852280855178833,0.5228983759880066,0.0059168889763231,-0.0011351074037293,-0.0061242151659729,-0.0032290255185216,-0.0034225031267851,-0.0067596780136227,-0.225020976383239,-0.194844958204776,-9.810907487869263,14935.0
9.2,2.5,167.0,25.62822532653809,0.0477106422185897,-79.78279400229816,40.45895779903311,270.91408129501343,0.0020068178419023,0.0137950340285897,-0.8522732853889465,0.5229111313819885,0.0055282929210877,-0.0053373358806852,-0.0032446092222817,0.0086710164323449,-0.0019243869464844,0.0053552668541669,-0.221738733239472,-0.1936766479723156,-9.80951292693615,14935.0
9.31,2.400000095367432,166.0,25.61445426940918,-0.0079517737030982,-79.78279394818556,40.45895772795743,270.91317959594727,0.0020313777495175,0.0138176847249269,-0.8522456288337708,0.5229554176330566,0.0065011780499069,-0.0020035617849836,-0.0056701688743722,0.0031146765686571,0.001847255625762,0.0065491562709212,-0.22333864107728,-0.1814055350236594,-9.8076663762331,14935.0
9.51,2.400000095367432,166.0,25.613201141357425,-0.0318070948123931,-79.78279395390504,40.45895772484524,270.91263337898255,0.0020168968476355,0.0138085056096315,-0.8522323966026306,0.5229772925376892,0.0044049022842919,-0.0033670451558701,-0.0052431441387978,-0.0060787326656281,-0.0022939029149711,0.0004783616459462,-0.2269806524366141,-0.1883655671775341,-9.808660987615584,14935.0
9.6,2.400000095367432,166.0,25.615705490112305,-0.0238553211092948,-79.78279392287695,40.458957671613895,270.9136503534317,0.0019825813360512,0.0138148609548807,-0.8522078394889832,0.5230173468589783,0.0029836260877837,-0.0065444927059018,-0.0031192969510577,-0.0024731457233428,-0.0004124979313928,0.0020317884627729,-0.2248759837076068,-0.1822177863679826,-9.80864929318428,14935.0
9.8,2.200000047683716,167.0,25.61695671081543,-0.0238553211092948,-79.78279393166522,40.45895767199608,270.9133604364395,0.0019956675823777,0.0138214603066444,-0.8522079586982727,0.5230169296264648,0.00231588891836,-0.0079331973462006,-0.002786536890534,4.907259062747471e-05,0.0005794173921458,-1.9863175111822784e-05,-0.2227711322531105,-0.1760224238410592,-9.808002006411552,14935.0
9.9,2.200000047683716,167.0,25.61069679260254,-0.0238553211092948,-79.78279388359887,40.45895760297408,270.91511472034455,0.0019850563257932,0.0138433249667286,-0.8521780371665955,0.5230650901794434,0.0026545830974264,-0.0049649247000674,-0.0007410865295192,-0.0038717319257557,-0.0037575878668576,-0.0036638828460127,-0.2231842197664082,-0.1939672911353408,-9.808242326974868,14935.0
10.1,2.200000047683716,168.0,25.613201141357425,-0.0159035474061965,-79.78279389065143,40.4589576023246,270.91506298351294,0.0019789328798651,0.0138750858604908,-0.8521645665168762,0.5230861902236938,0.0027154121220495,-0.0062666050271698,-0.0004492872910389,0.0034518102183938,0.0026878044009208,0.0042087566107511,-0.2240808902867138,-0.1967103296332061,-9.80976143360138,14935.0
10.2,2.0999999046325684,168.0,25.61695671081543,-0.0079517737030982,-79.78279386594785,40.45895752926824,270.9171912269593,0.0019730536732822,0.0139028625562787,-0.8521468043327332,0.5231145024299622,0.0067960749950673,-0.0074522518878307,0.0009429344168797,0.0050213965587317,0.0012059579603374,0.0032282632309943,-0.2261458344943821,-0.1784158902056515,-9.807220818400385,14935.0
10.41,2.0999999046325684,167.0,25.615705490112305,-0.0159035474061965,-79.78279380539128,40.458957431345546,270.9178990917206,0.0019674124196171,0.0139385750517249,-0.8521380424499512,0.5231277346611023,0.0136603792137997,0.0011247088846642,-0.0025735955420287,-0.0062481611967086,-0.0015742508694529,-0.0004549200821202,-0.2246639490500092,-0.1833335995674132,-9.808532348871232,14935.0
10.51,2.0999999046325684,168.0,25.613201141357425,-0.0318070948123931,-79.78279381930804,40.4589574097857,270.91740902233124,0.0019747449550777,0.0139030180871486,-0.8521104454994202,0.5231735706329346,0.0123853868929767,-0.0010516944641864,-0.0017860846023519,-0.0029234671965241,0.0010597251821309,-0.0011456662323325,-0.223696052134037,-0.1820771060138941,-9.808784948587418,14935.0
10.7,2.0,168.0,25.61069679260254,-0.0477106422185897,-79.78279376128407,40.45895734685817,270.918554265976,0.0019808849319815,0.0138971684500575,-0.8520995378494263,0.5231915116310121,0.0102989086324701,-9.639095760160914e-05,-0.0037099164812467,0.0010323678143322,0.0008910248288884,-0.0041118366643786,-0.2253569171950221,-0.1718580185808241,-9.807253562808036,14935.0
10.8,1.8999999761581416,167.0,25.61445426940918,-0.0477106422185897,-79.78279373986294,40.458957284481365,270.92109950351715,0.001966236392036,0.0138959232717752,-0.8520646691322327,0.5232484340667725,0.0080923890375444,-0.0082689688804614,-0.0015408498200125,-0.0067638312466442,-0.0041422257199883,-0.0083326492458581,-0.2236360085383057,-0.1938218599185348,-9.809327570199969,14935.0
11.0,1.8999999761581416,169.0,25.59817695617676,-0.0795177370309829,-79.78279375369115,40.45895728156457,270.92096181678767,0.0019350316142663,0.0139019787311553,-0.8520539402961731,0.5232658386230469,0.0083486511815326,-0.0096391413197861,-0.0013051446774294,0.0058487872593104,0.0016751429066061,0.0028222748078405,-0.2252203481644392,-0.1924412043951452,-9.809339849352837,14935.0
11.1,1.8999999761581416,168.0,25.60944557189941,-0.0318070948123931,-79.78279370048789,40.45895719685389,270.9238985376358,0.0019531545694917,0.0139302536845207,-0.8520357012748718,0.5232947468757629,0.0100904891887853,-0.0040315842328105,0.0005071515732962,0.0031919621396809,0.0011209432268515,0.0008754566661082,-0.2228900317288935,-0.1782407478243112,-9.80776636362076,14935.0
11.3,1.8999999761581416,168.0,25.615705490112305,-0.0238553211092948,-79.78279371022273,40.45895719037402,270.9239595727921,0.0019278153777122,0.0139193041250109,-0.8520159125328064,0.5233272910118103,0.0093783802626392,-0.0049808078115952,0.0009038567920954,0.0004765323537867,0.0011725394288077,-0.0004272919904906,-0.2217460422590375,-0.1932876071333884,-9.810157874822618,14935.0
11.41,1.8999999761581416,169.0,25.613201141357425,-0.0238553211092948,-79.78279365217138,40.45895712757103,270.9252742128372,0.0019138907082378,0.013917239382863,-0.8519838452339172,0.5233796834945679,0.0053721443119433,-0.00445039469292,-0.0017033426321528,0.0040987362153828,0.0045278598554432,0.0051362193189561,-0.2251678511314094,-0.1716894543170929,-9.808145847916602,14935.0
11.6,1.7999999523162842,169.0,25.608192443847656,-0.0795177370309829,-79.78279365929981,40.458957125822224,270.9251359300613,0.0019177731592208,0.0139115005731582,-0.8519688248634338,0.5234043002128601,0.0031836031891669,-0.0052225246805025,-0.0011841947545532,-0.0056899096816778,-0.0009158350876532,-0.0072917598299682,-0.2230616475082934,-0.179700578302145,-9.807946457862856,14935.0
11.71,1.7999999523162842,170.0,25.611949920654297,-0.0477106422185897,-79.78279360111564,40.45895703523824,270.92802103328705,0.0019214323256164,0.013922831043601,-0.8519455194473267,0.5234418511390686,0.0059568718151433,-0.0027708870078312,0.0003817962850766,-0.0047001205384731,-0.0008970042108558,-0.0006444192258641,-0.2233987029455602,-0.1897422575578092,-9.808787872195245,14935.0
11.9,1.7999999523162842,170.0,25.60569000244141,-0.0318070948123931,-79.78279357169045,40.4589569555646,270.9306286172867,0.0019518164917826,0.0139244524762034,-0.8519374132156372,0.5234548449516296,0.0115456213363114,-0.008197811336301,0.0007293505891098,0.0038853865116834,-0.0005832253373228,0.0021445455495268,-0.2252044327743352,-0.1805046252720058,-9.807524288892749,14935.0
12.01,1.7999999523162842,170.0,25.60944557189941,-0.0477106422185897,-79.78279360175583,40.45895694569557,270.9308771686554,0.0019461465999484,0.0139418840408325,-0.8519161343574524,0.5234890580177307,0.0094165058586303,-0.0101592404530216,0.0016631128182845,-0.0039343298412859,-0.0019327452173456,-0.0032066765706986,-0.2239621552638709,-0.1916332653723656,-9.80880190551281,14935.0
12.2,1.7999999523162842,168.0,25.59316825866699,0.4532511234283447,-79.78279354200741,40.45895684900637,270.9335044221878,0.001946352305822,0.0139581020921468,-0.851898193359375,0.523517906665802,0.0148269519589808,-0.0062999247564056,0.0017531805560853,0.0029954875353723,0.0007358183502219,0.0045399912633001,-0.221308250259608,-0.1934777147322893,-9.808287935256956,14935.0
12.3,1.7999999523162842,169.0,25.578144073486328,0.3101191818714142,-79.78279344942133,40.45895677438158,270.93434735107417,0.0019263055874034,0.0139573318883776,-0.8518766760826111,0.5235530138015747,0.0061655984361647,-0.0005375249455511,-0.0024967184609404,0.0116392662748694,0.0110732438042759,0.0037149516865611,-0.2240703470259905,-0.1755087276734411,-9.807030783891678,14935.0
12.5,1.7999999523162842,168.0,25.59316825866699,0.2465049922466278,-79.78279345259556,40.45895677110085,270.9341176347733,0.0019465473014861,0.0139420395717024,-0.8518543243408203,0.5235896706581116,0.0038125421525044,-0.0009718505618224,-0.0020264276565902,-0.0041843433864414,-0.0006515763816423,-0.0054722465574741,-0.2214004718139768,-0.1736290488392115,-9.807762270569803,14935.0
12.7,1.7999999523162842,168.0,25.596923828125,0.2544567584991455,-79.78279338474472,40.45895669235797,270.93508656787867,0.0019595690537244,0.0139874825254082,-0.8518196940422058,0.5236447453498839,0.004509304649916,-0.0008090293793396,-0.0034586134926674,-0.001814791932702,-0.0021872294601053,-0.000340376747772,-0.2265703606233001,-0.1862380577623844,-9.811074718236924,14935.0
12.8,1.7999999523162842,167.0,25.595672607421875,0.2862638533115387,-79.78279333333411,40.45895659627532,270.93779917526246,0.0019773554522544,0.0140164056792855,-0.851803183555603,0.5236707329750061,0.0118277109229775,-0.0011292638413699,-0.0009951053747511,0.0007366188801825,0.0029037212952971,0.0130144711583852,-0.219913451783359,-0.1812750872969628,-9.807765194177628,14935.0
13.0,1.7999999523162842,164.0,25.59316825866699,0.3339745104312897,-79.78279334082303,40.45895658832363,270.9377101259232,0.0019863995257765,0.0140105932950973,-0.8517905473709106,0.5236914157867432,0.0089641711827364,-0.002319217890208,-0.0006111105117012,-0.0037381493020802,6.359063263516873e-05,-0.0168525110930204,-0.2249798083305359,-0.1787756218761206,-9.806478806734086,14935.0
13.11,1.7999999523162842,164.0,25.589412689208984,0.3975887000560761,-79.78279329119945,40.45895650076916,270.9384048776626,0.0019970799330621,0.0140201104804873,-0.8517682552337646,0.5237273573875427,0.0096741745477297,-0.0035416841473497,-0.0038553032071832,-0.0039247120730578,-0.0052547892555594,-0.0150129236280918,-0.2253526048734784,-0.1776837274432182,-9.806677027344705,14935.0
13.3,1.8999999761581416,171.0,25.57939529418945,0.4612028896808624,-79.7827933013489,40.4589564937858,270.93802078533173,0.001989786978811,0.0140171041712164,-0.8517690896987915,0.5237260460853577,0.0109907255368237,-0.0048253681328807,-0.0034046419791504,0.0074922377243638,0.0063226870261132,0.0048459526151418,-0.2270372059755027,-0.2014487670175731,-9.81310604095459,14935.0
13.42,1.8999999761581416,171.0,25.104867935180664,4.771064281463623,-79.78279322951572,40.45895640900213,270.938650806427,0.0020213786046952,0.0141459349542856,-0.851838231086731,0.5236101150512695,0.0061752883520395,0.0012717915578119,-0.0040002237968483,-0.0060492120683193,-0.053007923066616,-0.0162058416754007,-0.2207490554451942,-0.172261312007904,-9.806198140382769,14935.0
13.6,1.8999999761581416,174.0,25.58815956115723,0.2385532110929489,-79.78279323744738,40.45895640384915,270.93811949062354,0.0020146875176578,0.0140520203858613,-0.8517882823944092,0.5236939191818237,0.0165979672318201,-0.004573112645751,-0.0068047097506377,0.060021448880434,0.023216450586915,0.0522372052073478,-0.2105001289397478,-0.3255369340628385,-9.82290012717247,14935.0
13.72,2.0,177.0,25.59191703796387,6.3534674644470215,-79.78279318889756,40.45895634209714,270.94021399784094,0.0019847226794809,0.0139626190066337,-0.8517672419548035,0.5237305760383606,0.0033903170018786,-0.0046000521941812,-0.002926132865199,-0.0134743340313434,-0.0028329950291663,-0.0092974714934825,-0.2367456487566233,-0.1988149252720176,-9.801563052535055,14935.0
13.9,2.0999999046325684,174.0,25.54809379577637,0.7077078819274902,-79.78279314185227,40.458956247237246,270.9420705633164,0.0020295898430049,0.0140738477930426,-0.85179603099823,0.5236806869506836,0.0116105012684323,-0.0047937345639473,-0.004386814277007,-0.0507510043680667,0.0182118266820907,-0.0222357530146837,-0.2511940089985729,-0.1408171972073614,-9.80027257204056,14935.0
14.0,2.0999999046325684,174.0,25.581899642944336,0.2226496636867523,-79.782793167345,40.45895622769351,270.94103427696234,0.0019912663847208,0.0138983288779854,-0.8517237305641174,0.5238030552864075,0.008474440631243,-0.0044784749665031,-0.0041442662479444,-0.0353926382958889,-0.0411868132650852,-0.0192654151469469,-0.2075710210762918,-0.0702199116954579,-9.799803040623663,14935.0
14.2,2.0999999046325684,172.0,25.575639724731445,0.9065022468566896,-79.78279309596157,40.45895618113527,270.94158204364777,0.0019743021111935,0.0137806590646505,-0.8517105579376221,0.5238276124000549,0.0075206200221043,-0.0032891900202325,-0.0064488270855834,-0.0009301110985688,0.020447626709938,-0.0058848373591899,-0.1922084303945303,-0.176389628984034,-9.810774171352389,14935.0
14.31,2.0999999046325684,171.0,25.42539405822754,3.506732225418092,-79.78279304568655,40.458956112062815,270.9421376781464,0.0019530019490048,0.0137615865096449,-0.8516852259635925,0.5238694548606873,0.0031850711647772,-0.0067353777149524,-0.0073046974537245,-0.0130059523507952,-0.0032925384584814,0.0027665882371366,-0.2464750136062503,-0.1943718819133936,-9.811818484067915,14935.0
14.5,2.200000047683716,173.0,25.293928146362305,5.9956374168396,-79.78279305505598,40.45895611112133,270.94144662189484,0.0019022192573174,0.0136652514338493,-0.8517051339149475,0.5238397717475891,0.0050442445356731,-0.0066861806146225,-0.0063393399465799,-3.1356790714198723e-05,0.0288485046476125,0.0063635371625423,-0.1916319680213928,-0.1970810979232192,-9.822420655488967,14935.0
14.6,2.200000047683716,172.0,25.213796615600582,7.450812339782715,-79.78279298265218,40.45895603693776,270.9441319303513,0.0018416357925161,0.0132010960951447,-0.8517621159553528,0.5237591862678528,0.0012645317899037,-0.0049273975761967,-0.0033179370239811,-0.0288671310991048,-0.0279159490019083,0.0134289842098951,-0.2394284792058169,-0.1327056107483804,-9.793814907073974,14935.0
14.8,2.0999999046325684,170.0,25.06480407714844,10.05899429321289,-79.78279298868506,40.45895603440636,270.9437719182968,0.0018819408724084,0.0129064051434397,-0.8517935276031494,0.5237153172492981,0.0026913885259508,-0.0031348367325082,-0.0023291720394983,-0.0230660922825336,0.0582972802221775,0.0612215064465999,-0.2384191949665546,-0.0604880937561392,-9.788638367056848,14935.0
14.91,2.200000047683716,166.0,24.96088218688965,11.498265266418455,-79.78279299668701,40.45895598063503,270.9466266231537,0.0022558532655239,0.0124996500089764,-0.8518121838569641,0.5236933827400208,0.01909560424849,-0.0133290759983779,0.005099194656176,0.0635176822543144,0.1007938086986541,-0.0765538662672042,-0.2354598277620971,-0.3810108576714993,-9.784672785401344,14935.0
15.1,2.200000047683716,161.0,24.76806640625,14.845961570739744,-79.78279302019313,40.45895597703115,270.9472723798752,0.0030537880957126,0.011652716435492,-0.8518348336219788,0.5236719250679016,0.0081036563334795,-0.0172363680125767,0.0074404741162827,-0.0236752741038799,-0.0049420865252614,-0.0052078384906053,-0.1985994371026754,-0.3081843714416027,-9.850201946496965,14935.0
15.21,2.299999952316284,162.0,24.66039085388184,16.77029037475586,-79.78279298211459,40.45895596441817,270.94713683891297,0.0052974694408476,0.0094254277646541,-0.8518828749656677,0.5236208438873291,0.0078785339035899,-0.0242322631900325,0.0092261094933271,0.0305140558630228,0.0783490687608718,-0.0169740356504917,-0.2149104827083647,-0.3093809310346841,-9.814449731111528,14935.0
15.4,2.299999952316284,158.0,24.431264877319336,20.80183982849121,-79.78279288409298,40.45895584223568,270.9469495611191,0.0071969074197113,0.0085890013724565,-0.8518425226211548,0.5236781239509583,0.024465143674852,-0.0111756061374454,0.0001652419682586,0.0561224967241287,0.0475582741200923,0.0358878076076507,-0.0421983412373811,-0.1441992358770221,-9.812164639234544,14935.0
15.51,2.200000047683716,160.0,24.298547744750977,22.54327964782715,-79.78279291545347,40.45895582946703,270.94981904792786,0.0052707735449075,0.0037962114438414,-0.8510218262672424,0.525090217590332,-0.0102270380916177,-0.0101904595095013,0.0422577747494392,-0.1855664551258087,-0.0019389783265069,-0.0388499535620212,0.0951984449476003,-0.1532987916469574,-9.901848063468933,14935.0
15.7,2.200000047683716,162.0,24.03937339782715,26.7418155670166,-79.78279291506767,40.45895573665008,270.95508547592163,0.0001758441649144,-0.0015956081915646,-0.8504324555397034,0.526081919670105,-0.0241807362298905,-0.014094627313275,0.1051621883523386,-0.1901746243238449,0.0069781085476279,-0.0514583066105842,0.0885754316858947,-0.1833454036340116,-10.46566817164421,14935.0
15.8,2.200000047683716,163.0,24.49386787414551,17.811973571777344,-79.78279314398785,40.45895566588681,270.9973618583679,-0.0027698671910911,-0.0036973971873521,-0.8494746685028076,0.5276092886924744,-0.0779958337326907,-3.726145072971421e-05,0.3626678051083853,-0.2087342739105225,-0.1295161843299865,0.0240378528833389,0.2324160596542061,-0.6423745999485254,-11.162104300260545,14935.0
16.0,2.299999952316284,160.0,24.34111785888672,20.99268341064453,-79.78279312211062,40.45895572025931,271.03399296569825,-0.0033287324476987,-0.0033007538877427,-0.8491930365562439,0.5280616879463196,-0.0767933726063857,-0.0085829067621186,0.3527808862146857,-0.0419404432177543,0.0026171368081122,-0.0106636304408311,0.0662871429696679,-0.2020522179454564,-10.002541794776915,14936.0
16.1,2.299999952316284,162.0,24.40121650695801,20.316781997680664,-79.78279309717657,40.458955832398864,271.08605380821234,-0.0012632849393412,-0.0033834881614893,-0.8490653038024902,0.5282755494117737,-0.1253468719719559,-0.0141973178008672,0.3013116046524146,-0.1110836938023567,-0.0355138219892978,0.0050930450670421,0.0626307648187503,-0.2853186336345971,-9.866416275501251,14936.0
16.3,2.299999952316284,161.0,24.31732940673828,21.310754776000977,-79.78279304372947,40.45895593499788,271.1149477558136,-0.0012642630608752,-0.0025241281837224,-0.8491297960281372,0.5281768441200256,-0.1282151444725549,-0.0157295026488053,0.2799855398852228,0.0630785152316093,0.0686992332339286,-0.0764149129390716,0.040651295883581,-0.1301628942042589,-9.745826223492625,14936.0
16.41,2.299999952316284,160.0,24.28853225708008,21.35846519470215,-79.78279299937913,40.45895627256414,271.14817186164856,0.0072228102944791,0.0040756165981292,-0.8493884801864624,0.5277031660079956,-0.1745630594192394,-0.0435092508040068,0.2294420358994897,-0.0365488640964031,-0.0515479892492294,-0.0113521115854382,-0.1782119502872228,-0.2202854626066983,-9.721554431319236,14936.0
16.6,2.299999952316284,160.0,24.302305221557607,21.86737823486328,-79.78279295332399,40.45895642046106,271.1705581741333,0.0094073330983519,0.0065341992303729,-0.8495867848396301,0.5273244380950928,-0.1565856061160724,-0.0462134245754067,0.2201052967934888,0.1382428854703903,0.0745516642928123,0.1497023850679397,-0.0596350215375423,-0.554348495900631,-9.802992696762086,14936.0
16.7,2.400000095367432,161.0,24.27475929260254,22.121835708618164,-79.78279265608144,40.45895655262101,271.23083515930176,0.0114810401573777,0.0054015628993511,-0.8493375778198242,0.5276975631713867,-0.1405099122757917,-0.0224905347317784,0.2327078238197993,0.0792749151587486,0.0428028292953968,0.1711245030164718,-0.1133184637594968,-0.3087977443635464,-9.803528301715849,14936.0
16.9,2.400000095367432,162.0,24.16457939147949,23.354360580444336,-79.78279255058423,40.45895647546481,271.2644048528672,0.0141265057027339,0.0070757772773504,-0.8491011261940002,0.5279940366744995,-0.1268676043509122,-0.0287870028026659,0.2486910982742734,0.0007838673191145,-0.0549851953983306,-0.0805272683501243,0.0403763305675238,-0.1088610124960541,-9.827340502738952,14936.0
17.0,2.5,162.0,24.23719787597656,22.090028762817383,-79.78279250414752,40.45895667197257,271.31621797847754,0.0153262224048376,0.0100073618814349,-0.8486484885215759,0.5286405682563782,-0.0996686939157716,-0.0310787595909242,0.2676124661808869,0.0585754811763763,0.037461943924427,0.029947243630886,0.0937026540935039,-0.2019169645383954,-9.855946251153949,14936.0
17.2,2.5999999046325684,164.0,24.22092056274414,22.972675323486328,-79.78279220897167,40.45895678571706,271.34596236515046,0.0141267552971839,0.010867515578866,-0.8483896851539612,0.5290722846984863,-0.1298541513155656,-0.0370345705089715,0.2867351144690848,-0.1057107895612716,-0.032869353890419,0.014154752716422,-0.0097678605420514,-0.2397848669998348,-9.968564794063573,14936.0
17.31,2.5999999046325684,165.0,24.32734489440918,19.609073638916016,-79.78279205190717,40.458956843311256,271.41615744400025,0.0143098542466759,0.0118479961529374,-0.847889244556427,0.5298479199409485,-0.1042765976613468,-0.0166958101425428,0.3241881551008127,-0.0015798609238117,0.0609918907284736,0.1079675033688545,-0.0767898112256079,-0.058268426740542,-9.991970028877258,14936.0
17.5,2.700000047683716,165.0,24.23719787597656,22.082077026367188,-79.7827920201876,40.45895691654796,271.4483047323227,0.0138658415526151,0.0113530503585934,-0.8476837277412415,0.5301992297172546,-0.0894065998927755,-0.0080569535360795,0.3099741839620032,0.04950388148427,0.0309794805943965,-0.067566841840744,0.0397765021724626,-0.2494497845694423,-9.72190467953682,14936.0
17.6,2.700000047683716,166.0,25.07356834411621,9.263816833496094,-79.78279179497851,40.45895699932627,271.528511841774,0.0149680869653821,0.0150173902511596,-0.8478612899780273,0.5297939181327821,-0.0662785932329239,0.0010758516928774,0.229491947252632,0.1676361858844757,0.0416910015046596,-0.0758543983101844,0.0505860350467264,-0.1935717452690005,-9.706413066387176,14936.0
17.8,2.799999952316284,166.0,23.95673751831055,28.14132881164551,-79.78279176027094,40.45895706206271,271.54353054332734,0.0135690998286008,0.0132867582142353,-0.8475446701049805,0.5303841233253479,-0.0815326424239402,-0.0078452640804515,0.0876645830230454,-0.143239215016365,0.1039421111345291,0.0112894587218761,-0.0896724424324929,-0.3085559985414147,-8.726243137121202,14936.0
17.9,2.799999952316284,165.0,23.93545341491699,26.02615547180176,-79.78279165320667,40.45895728499881,271.58084293174744,0.0053297542035579,-0.002377777127549,-0.8466784358024597,0.5320729613304138,-0.0810831390038899,-0.0188607082263062,0.201234040424606,-0.0709152743220329,0.087609514594078,-0.1177866831421852,-0.1140983178745955,0.1176812084019184,-9.64559734582901,14936.0
18.1,2.900000095367432,166.0,23.84154891967773,28.43554306030273,-79.78279162794794,40.45895735695801,271.60674830245966,0.0050389380194246,-0.0033775584306567,-0.8461631536483765,0.5328893661499023,-0.0772069855871261,-0.0205415796190122,0.3289938391383648,0.0627951323986053,0.0571479946374893,-0.1019748523831367,0.0211482415487989,-0.1873966835439205,-10.998141356706617,14936.0
18.21,2.900000095367432,166.0,23.75140190124512,29.055782318115234,-79.78279157267166,40.45895741367512,271.72140498924256,0.006978690624237,0.0053939926438033,-0.846022367477417,0.5330744981765747,-0.0995124190116187,-0.023017426118636,0.678615218721554,0.1685695201158523,0.016208903864026,-0.0541853606700897,-0.1087783657573163,0.015999133195728,-11.2916177880764,14936.0
18.4,2.900000095367432,165.0,23.34323310852051,37.19839859008789,-79.78279154351705,40.45895753081199,271.79639931488043,0.0097227953374385,0.0107170054689049,-0.8460057377815247,0.5329775810241699,-0.1318447593688676,-0.031189057448687,0.8445879653426663,0.0570460818707943,-0.0712333247065544,0.0774785131216049,-0.0919105555862188,-0.4330389440059662,-11.70905753016472,14936.0
18.51,2.900000095367432,164.0,23.20050048828125,38.46273040771485,-79.78279148244327,40.45895772430632,272.01447721290594,0.0128618851304054,0.0139834210276603,-0.8468829989433289,0.5314397215843201,-0.1524891690719831,-0.0286432610773635,1.3774818391603671,-0.0443696454167366,-0.0315642245113849,0.0400857403874397,-0.18130878187716,-0.4016317580267787,-12.0583269238472,14937.0
18.7,2.900000095367432,164.0,23.533544540405277,32.4989013671875,-79.78279140516746,40.45895776077976,272.1686458187104,0.0126377455890178,0.0142005812376737,-0.8473492860794067,0.5306956171989441,-0.1488238120488488,-0.0191093795841911,1.6564097869035403,-0.0384223461151123,-0.0046178298071026,0.0435076579451561,-0.0395069683715701,-0.4208837886527181,-12.645763936042789,14937.0
18.81,2.900000095367432,163.0,23.38329887390137,33.93021774291992,-79.78279131486038,40.45895784912757,272.5495144920349,0.0081835109740495,0.0140231000259518,-0.8477516174316406,0.5301450490951538,-0.1443966115604073,-0.0075603508594073,2.1201592026497886,-0.1178337857127189,-0.0218100771307945,0.0515002608299255,0.0442072435375303,-0.3204758400097489,-12.4276815032959,14937.0
19.0,2.900000095367432,164.0,23.606164932250977,30.67794418334961,-79.78279125765441,40.45895789009375,272.773335893631,0.0059878444299101,0.0116576664149761,-0.8478924632072449,0.5300062894821167,-0.1331084037460941,-0.0032106175253449,2.346739432984916,-0.1174658685922622,0.0217044316232204,-0.0281220320612192,0.0445788340922445,-0.2582498806715012,-12.102943518161776,14937.0
19.11,2.900000095367432,164.0,23.46217918395996,33.98588180541992,-79.78279108512714,40.45895793636535,273.28098436164856,0.0042877537198364,0.0092093739658594,-0.8479733467102051,0.5299416780471802,-0.1096815182811086,0.0269501107073894,2.7029989899918165,0.0577728897333145,-0.0284680966287851,0.0104844802990555,-0.0585450320178642,-0.1667045202478766,-11.797417144775393,14938.0
19.3,3.0,163.0,23.70132064819336,29.69192314147949,-79.78279098390111,40.458957964738936,273.5605947570801,0.0044739628210663,0.010342938825488,-0.8479568958282471,0.5299454927444458,-0.1131516764494666,0.0381604876885057,2.8822594072132324,0.0654976293444633,-0.0297536775469779,0.0604439415037632,-0.0248043136345222,-0.1843565516732633,-11.603832206726077,14938.0
19.4,3.0999999046325684,163.0,23.718849182128903,27.79940223693848,-79.78279055466868,40.45895792236642,274.18518896865845,0.0101447459310293,0.0111881736665964,-0.84763503074646,0.5303648710250854,-0.1293183211939057,0.0635331479140154,3.1243514806738792,0.0679383352398872,0.0384721532464027,-0.0688620135188102,-0.0306991932308301,-0.2547598969191313,-11.261744363307953,14939.0
19.61,3.0999999046325684,161.0,23.76016616821289,27.823257446289062,-79.7827904183556,40.45895792734978,274.50110550689703,0.0123934680595994,0.0119857341051101,-0.847586989402771,0.5303764939308167,-0.1426944003243114,0.0834318790480079,3.182411576869604,0.0692508146166801,-0.038948755711317,0.1057268604636192,0.077714959513396,-0.2795729950815439,-10.478995145559312,14939.0
19.71,3.2000000476837163,161.0,23.89914321899414,25.7876033782959,-79.78278955187402,40.45895754704709,275.25033016967774,0.0103443451225757,0.0117845116183161,-0.8478610515594482,0.5299866795539856,-0.1329973275622422,0.1259948098944961,3.2978992577816864,-0.0615042485296726,-0.0475679002702236,0.0046025686897337,0.0545150167867541,-0.0912015715520829,-10.210469952821732,14940.0
19.9,3.299999952316284,161.0,23.7927188873291,26.39988899230957,-79.78278910380294,40.45895736017647,275.60048504638667,0.0100289480760693,0.0103497263044118,-0.8479457497596741,0.5298871397972107,-0.1149330111942249,0.1438521693695404,3.3073724151630755,0.0014270660467445,0.0201743282377719,0.0226588901132345,-0.0298586902418173,-0.1896954615600407,-9.936751263141634,14940.0
20.0,3.299999952316284,161.0,23.84280204772949,25.35820770263672,-79.78278872276191,40.45895723039764,276.2623393135071,0.0107961073517799,0.009517727419734,-0.8480448722839355,0.5297289490699768,-0.0969057044638236,0.1600714084186682,3.30636352469204,-0.0383910723030567,0.0320175886154174,0.0113476365804672,0.0190890189330093,-0.3339154824614525,-9.85919964194298,14941.0
20.2,3.299999952316284,161.0,23.84530639648437,26.01820373535156,-79.78278831016155,40.458956996480325,276.6336390571594,0.0128162903711199,0.0088409027084708,-0.8480112552642822,0.5297495722770691,-0.0735501468218353,0.1676971598836993,3.2900568938319767,0.071798175573349,0.0530921034514904,-0.0414663888514041,-0.0136475566495209,-0.16984633885324,-9.582863738536837,14941.0
20.31,3.299999952316284,162.0,23.77644348144531,25.636518478393555,-79.78278767370414,40.45895680992962,277.30144806671143,0.0121662886813282,0.0050920904614031,-0.8476963043212891,0.5303179621696472,-0.0853646050888372,0.1878593194516686,3.264205396140905,-0.0652921721339225,0.0088629694655537,-0.0316240824759006,-0.0279040277190506,0.004743736423552,-9.602978745102885,14942.0
20.5,3.400000095367432,163.0,23.74514198303223,28.825180053710927,-79.78278749070627,40.45895672504611,277.6288444595337,0.0109750805422663,0.0026695812121033,-0.8475415110588074,0.5306090712547302,-0.065778499094686,0.191852051529331,3.2876029436097234,-0.057744063436985,0.0688512697815895,-0.0310170873999595,-0.0044807824533199,-0.1799574720673263,-9.97539551138878,14942.0
20.61,3.400000095367432,162.0,23.86909484863281,24.81748580932617,-79.78278731744818,40.458956638347246,277.95765229034424,0.0114711755886673,0.0012708879075944,-0.8474106192588806,0.5308127999305725,-0.0360452372800939,0.1916778055133856,3.286641684385593,0.1097423583269119,0.0887529700994491,0.0466589070856571,0.0700330017926171,-0.2600741205923259,-9.886642963886262,14942.0
20.8,3.400000095367432,162.0,23.817760467529297,25.23892974853516,-79.78278676567186,40.45895635386311,278.5788299636841,0.0145926857367157,0.0001409920078003,-0.8473640680313109,0.5308119058609009,-0.043399925322088,0.1948080614020197,3.2250142626594744,0.0426626652479171,0.0248376633971929,-0.0942450016736984,-0.0059468490094877,-0.0485531226173043,-9.5263714492321,14943.0
20.9,3.400000095367432,165.0,23.954235076904297,22.972675323486328,-79.78278641274964,40.45895645405741,279.1735088424683,0.0183879993855953,0.0017861848464235,-0.8474581837654114,0.5305406451225281,-0.0904074126139651,0.1596682974954057,3.1075906360597108,-0.0041240085847675,0.0281470958143472,-0.0859207138419151,0.0371841756580397,-0.2671087778359651,-9.489869036078453,14944.0
21.1,3.400000095367432,166.0,23.80398750305176,26.41579246520996,-79.78278631372454,40.45895639980407,279.4819290237427,0.0197629891335964,0.0023895108606666,-0.8475069403648376,0.5304110646247864,-0.0840373470896043,0.1432920280176965,3.058472912251747,-0.0151291862130165,-0.0142656462267041,0.0765262991189956,-0.0706773010035976,-0.2912179077789188,-9.372270419597626,14944.0
21.2,3.400000095367432,166.0,23.756410598754893,28.13337707519531,-79.78278591474577,40.458956288059575,279.8257677154541,0.0199733432382345,0.0008637958089821,-0.8475466966629028,0.5303442478179932,-0.0742658868381562,0.1279569212669605,3.0295530413867886,0.0729865953326225,0.0683722794055938,0.0577999204397201,-0.0204116431251168,-0.4577467191964388,-9.568877783417705,14944.0
21.4,3.299999952316284,167.0,23.86408615112305,24.809534072875977,-79.78278531800916,40.45895592133605,280.4982359008789,0.0170084238052368,-0.0044019320048391,-0.8476647138595581,0.5302414894104004,-0.0524009922403025,0.1454039997726339,3.0790024863763112,-0.0040470645762979,-0.0180052928626537,-0.0490211397409439,0.0487983950413763,-0.1301515834964811,-9.95739661216736,14945.0
21.5,3.299999952316284,169.0,23.83153343200684,26.39988899230957,-79.78278526894212,40.45895586528882,280.80640145111084,0.0158723834902048,-0.0042966553010046,-0.8475993871688843,0.5303819179534912,-0.0401813636584508,0.1309607617903685,3.0777730049106387,-0.0078877452760934,-0.0332901962101459,-0.0294160656630992,0.0340525280102156,-0.078983184043318,-9.841406564712525,14945.0
21.6,3.400000095367432,170.0,23.85782623291016,25.22302627563477,-79.7827852249333,40.45895569623033,281.4663755493164,0.0138253355398774,-0.0023526726290583,-0.847385048866272,0.5307937264442444,-0.0344900541247512,0.0751054961746266,3.0592218608813693,-0.0125710414722561,-0.0547533184289932,-0.0109943347051739,0.0513631574157625,-0.3461512928456068,-9.673089784383777,14946.0
21.81,3.400000095367432,171.0,23.9930477142334,22.344484329223643,-79.78278509814217,40.45895543106449,282.1298000411988,0.0134305404499173,0.0001336175919277,-0.8470240831375122,0.5313848853111267,-0.0197492661034547,0.0545152635592069,3.094333189575168,0.0228657089173793,-0.086590752005577,-0.0878703594207763,0.0889331533759832,-0.1967360939271748,-9.868206692934038,14947.0
21.91,3.400000095367432,169.0,23.954235076904297,23.529298782348643,-79.78278512802622,40.45895539655779,282.4381620483398,0.0149849075824022,0.0019992794841527,-0.8471339344978333,0.5311644673347473,-0.0142595533510654,0.0321043508764187,3.0669082330578363,0.1356901377439499,0.0465163439512252,0.1152095273137092,0.1082093859929591,-0.3491943665966392,-9.619400065541267,14947.0
22.1,3.400000095367432,171.0,23.75390625,25.994348526000977,-79.78278516812226,40.45895536376339,282.74325772094727,0.0156279411166906,0.0019633544143289,-0.8473194241523743,0.5308500528335571,-0.0390020066886979,0.0227968817789426,3.0409705537225045,-0.119747094810009,-0.0265125818550586,-0.0592532753944397,0.031630316642113,-0.1934460301324724,-9.577842149734495,14947.0
22.3,3.400000095367432,171.0,23.905405044555664,24.01435661315918,-79.78278533854416,40.45895516862546,283.4003965454102,0.0120492335408926,-0.001817523734644,-0.8474565148353577,0.5307251214981079,-0.0004081473020956,-0.0031651978461964,3.0499452088833814,-0.0936161950230598,-0.0450854748487472,0.0002152039960492,0.025169298662804,-0.2527448733150959,-9.667023882865909,14948.0
22.41,3.400000095367432,171.0,23.80023193359375,25.5570011138916,-79.78278553060153,40.45895517867161,284.05098267364497,0.0068183927796781,-0.0013809588272124,-0.8467138409614563,0.5320032238960266,0.0246629515601345,-0.0337433566902038,3.02281347056395,-0.0713193342089653,0.0298156179487705,-0.046632807701826,0.1450412806123495,-0.3297850093245506,-9.58308710217476,14949.0
22.6,3.400000095367432,170.0,23.78019905090332,26.15338516235352,-79.78278564529597,40.45895514851058,284.3523675994873,0.0068621933460235,-0.0026159237604588,-0.8466852903366089,0.5320433974266052,0.034008050579495,-0.0416252147541813,3.0109461959561283,-0.1219536140561103,-0.0315072126686573,-0.0256055612117052,0.0600473324675113,-0.1754456691071391,-9.65199887752533,14949.0
22.72,3.400000095367432,170.0,23.825273513793945,25.159412384033203,-79.782785549554,40.45895482914938,284.69175358581543,0.006723076570779,-0.0038374511059373,-0.8470067977905273,0.5315257906913757,0.0818569694788021,-0.0029422658448813,3.0389825694994683,0.0098477145656943,0.0138932149857282,0.112415075302124,0.144059423469007,-0.2657131570950151,-9.789601988196374,14949.0
22.9,3.5,170.0,23.617431640625,29.13529968261719,-79.78278564065378,40.458954589138656,285.3259183959961,0.0056627942249178,-0.0035799010656774,-0.8480375409126282,0.5298939347267151,0.0973619345822077,0.0123644159177639,3.0418641929836263,0.0545829534530639,0.0262157581746578,0.0830553472042083,0.1238927238620817,-0.3269385847449302,-9.802368798851967,14950.0
23.0,3.5,170.0,23.770183563232425,27.51313781738281,-79.78278572317048,40.45895451992558,285.6307394104004,0.0057026725262403,-0.00544960424304,-0.8484784960746765,0.5291711091995239,0.0795598893795086,0.006494707379357,3.0548193447247014,0.0029414077289402,0.0511997565627098,0.0703089907765388,0.0430699600931257,-0.1656383535638451,-9.88936893582344,14950.0
23.2,3.5999999046325684,172.0,23.6712703704834,28.16518402099609,-79.78278597470222,40.45895460815422,286.2608511047364,0.0088863801211118,-0.0048607345670461,-0.848704993724823,0.5287696719169617,0.0428220437339222,-0.0165779550192974,3.0693225801547035,0.0424226820468902,-0.0524303540587425,-0.0360181853175163,0.1226612454280257,-0.0521203672746196,-9.845397874116898,14951.0
23.3,3.5999999046325684,172.0,23.728864669799805,27.560848236083984,-79.78278608731661,40.45895459202326,286.56757183837885,0.0090790800750255,-0.0025834054686129,-0.84864741563797,0.5288748145103455,0.0174205174280102,-0.0263671552084023,3.0708236119181853,-0.0292754992842674,-0.0165401007980108,-0.0242557097226381,0.0714971674326807,-0.0402149656880646,-9.824912738800052,14951.0
23.5,3.5999999046325684,173.0,23.67502593994141,28.149280548095703,-79.78278651893552,40.4589548401059,287.1867696838379,0.0079095754772424,-0.001926734461449,-0.848649799823761,0.5288925170898438,-0.0203733127965396,-0.0874425273349589,3.0711507445461748,-0.0879054367542266,-0.0456083118915557,-0.0691543072462081,0.1089566144719719,-0.0931064390949905,-9.818210660219194,14952.0
23.61,3.5999999046325684,174.0,23.66751480102539,25.15146064758301,-79.78278666780484,40.458954870729606,287.4944860534668,0.0074459542520344,-0.0007300869328901,-0.8482270836830139,0.5295799970626831,-0.0133016527952807,-0.0910138052218114,3.0874653074655085,-0.0020896652713418,-0.0217264145612716,-0.0500444173812866,0.0865951716061681,-0.1682139789685607,-9.936160694360732,14952.0
23.81,3.700000047683716,177.0,23.66876602172852,27.25868034362793,-79.78278698349531,40.45895484305168,288.120638092041,0.0085215894505381,0.0005551882204599,-0.8470141887664795,0.5315017104148865,-0.003200621952494,-0.0918002846029042,3.0843887642017824,-0.0003352272324264,-0.009144065901637,0.0531004257500171,0.0709722519200295,-0.3303174348548055,-9.697255157232282,14953.0
23.9,3.700000047683716,175.0,23.62995338439941,28.06180953979492,-79.78278721499237,40.45895496583857,288.4374010162354,0.0078359469771385,-0.000481852737721,-0.8464831113815308,0.5323577523231506,-0.0127838058843066,-0.1070783927035158,3.073950080334212,0.0709220618009567,0.0480589270591735,0.1441812217235565,0.099825776098296,-0.3114419649168849,-9.779499168992045,14953.0
24.1,3.799999952316284,176.0,23.835289001464844,25.04808807373047,-79.78278750902489,40.458955031160095,289.0519487457276,0.0068153236061334,-0.0039168032817542,-0.8465195894241333,0.5322995781898499,-0.0145260271306689,-0.0931074453383649,3.076023988476204,-0.0210962742567062,0.0554848425090312,-0.0319877639412879,0.0992930307984352,-0.0383350584469735,-9.788807936310768,14954.0
24.21,3.799999952316284,178.0,23.728864669799805,26.566877365112305,-79.78278780447408,40.458955138411824,289.66609974670416,0.0066345650702714,-0.0036566520575433,-0.8463901877403259,0.5325095057487488,-0.0069443911879989,-0.079638473785979,2.9949222991436053,0.0744416490197181,0.0105355633422732,0.0106800328940153,0.0716048292908817,0.0056479306658729,-9.47953408241272,14954.0
24.4,3.700000047683716,180.0,23.66751480102539,27.298439025878903,-79.78278788312018,40.45895511155943,289.9848978118896,0.0061484575271606,-0.0016865138895809,-0.8465840220451355,0.5322170257568359,-0.0247665669035511,-0.0605488637797002,2.9875111536667283,-0.0663030371069908,-0.0318429991602897,-0.0978691801428794,0.1327518494334072,0.0727698596008122,-9.48572394490242,14954.0
24.5,3.700000047683716,181.0,23.60366058349609,29.016023635864247,-79.78278798913318,40.45895514817028,290.28276272583014,0.005645930301398,-0.0002882627013605,-0.84681636095047,0.5318554043769836,-0.0283511822003644,-0.0690947744637987,2.975590425045343,0.0026929383166134,-0.0188803356140852,-0.0742142274975776,0.1386799759324639,-0.1025825098715722,-9.66366641163826,14955.0
24.71,3.5999999046325684,183.0,23.597400665283203,28.228797912597656,-79.78278824658186,40.45895530089489,290.89518948364264,0.0035068206489086,-0.0017704764613881,-0.8475604057312012,0.5306844711303711,-0.0371800697757836,-0.0710146856615593,3.038765052944816,-0.0373809784650802,0.005033568944782,0.0377284027636051,0.0920278653502464,-0.2662981527484953,-10.1267331469059,14955.0
24.8,3.5999999046325684,183.0,23.57361030578613,28.07771301269531,-79.78278842009995,40.45895539797057,291.5042860107422,0.006990744266659,-0.0029829021077603,-0.8479322195053101,0.5300502777099609,-0.0415378842545423,-0.0480597302769316,3.0824011534810447,0.0531755685806274,0.0351546145975589,0.0519809313118457,0.1593913710862398,-0.2441056304611265,-10.055039266347883,14956.0
25.0,3.5999999046325684,183.0,23.6712703704834,27.266632080078125,-79.78278848763878,40.458955452263645,291.81390782165533,0.0091367764398455,-0.0036350500304251,-0.8476868271827698,0.5304058790206909,-0.0628994430416498,-0.0394059134285198,3.1065941947789018,0.0356807149946689,0.0503380298614502,0.0277532059699296,0.15062140641734,-0.1092750136367976,-10.030472774505618,14956.0
25.1,3.5999999046325684,185.0,23.71008491516113,27.48928260803223,-79.78278855190294,40.45895551050196,292.1240465240478,0.0108545701950788,-0.0037920873146504,-0.8473540544509888,0.5309039950370789,-0.0778210256258967,-0.0271325519768598,3.09220044743222,-0.0261995662003755,-0.0399084761738777,-0.0507475957274436,0.077536363620311,-0.1125005570612847,-9.725234084129331,14957.0
25.3,3.5999999046325684,186.0,23.563594818115234,28.66614532470703,-79.78278868081348,40.45895576014981,292.7277319030762,0.0123814046382904,-0.0015170206315815,-0.8466426730155945,0.5320157408714294,-0.1011082738076654,-0.0248217537191492,3.049058920036712,-0.0521257035434246,-0.0451491810381412,-0.0279911234974861,0.1619678370282054,-0.0756157999578863,-9.77617210328579,14957.0
25.4,3.5999999046325684,186.0,23.81901359558105,24.54712677001953,-79.78278873362603,40.458955821094506,293.03349705505366,0.0115034207701683,0.000871290336363,-0.8465198874473572,0.5322321057319641,-0.0794079668732283,-0.0249035460290437,3.0522721904486203,0.0115662161260843,-0.0336870737373828,-0.0165795311331748,0.149753177119419,-0.1692628415487706,-9.883780167102817,14958.0
25.6,3.5,188.0,23.646228790283203,27.60060691833496,-79.7827888534096,40.45895590155076,293.64301892089844,0.0090820277109742,0.0042648701928555,-0.8467013835906982,0.5319737792015076,-0.0755660012885036,-0.0393858144786171,3.0307204574898723,0.0005430725868791,0.028844891116023,0.0371706373989582,0.1313947198167443,-0.1246279746852815,-9.68836212694645,14958.0
25.71,3.5,187.0,23.711336135864247,25.946638107299805,-79.78278885461549,40.45895601039992,293.95094700622565,0.0076538273133337,0.0043819234706461,-0.8468154668807983,0.5318138599395752,-0.074400582020435,-0.0291709423082841,3.0285890203139365,-0.0011113218497484,-0.0318121127784252,-0.017456391826272,0.1529782363213598,-0.2014775097370148,-9.767715275287626,14958.0
25.8,3.5,186.0,23.702571868896484,26.511213302612305,-79.78278888644749,40.45895609944982,294.5565530853272,0.0087411114946007,-0.0002068269386654,-0.8470035791397095,0.5315153598785399,-0.0585726028347395,0.0001408080227835,3.0219481003556465,0.0177580490708351,0.0282065514475107,0.0370633639395237,0.1996707931905985,-0.2712725252844393,-9.736584114432336,14959.0
26.01,3.5,186.0,23.5886344909668,27.94253349304199,-79.78278889043473,40.45895612885508,295.1584226684571,0.009706269018352,-0.0029115553479641,-0.846873939037323,0.5316972136497498,-0.0555094146544163,0.0360737940061841,2.9966581284915685,-0.0045180739834904,-0.0369969978928566,0.000447942118626,0.2179806911945343,-0.2004939349740744,-9.67190572321415,14960.0
26.2,3.5,187.0,23.73011779785156,24.80158233642578,-79.78278895227308,40.45895626593183,295.4653665618896,0.0095327207818627,-0.0038943772669881,-0.8467002511024475,0.5319706797599792,-0.0666345142161608,0.0275073109287892,3.0299601358562103,0.0102002304047346,0.0124560054391622,0.0042854961939156,0.1515342115983367,-0.099599296990782,-10.000869491100312,14960.0
26.3,3.5999999046325684,185.0,23.58613204956055,28.51506042480469,-79.78278896157715,40.45895629590285,295.77076359558106,0.0098339188843965,-0.0035215863026678,-0.8465685844421387,0.5321773290634155,-0.0682056929054503,0.0285929315650317,3.0677060803145646,-0.0104020917788147,-0.0163041800260543,0.0403182506561279,0.1703982977382838,-0.1211881399434059,-10.06697694182396,14960.0
26.5,3.5,184.0,23.76141929626465,24.793630599975582,-79.78278902069735,40.458956507357456,296.37336560058594,0.0108219571411609,0.0001102419046219,-0.8465405106544495,0.5322142839431763,-0.0724214229453851,0.0142931442772609,3.0523971694583456,0.0627755299210548,-0.0054286224767565,-0.0226726718246936,0.0834236875176429,-0.1796208003535866,-9.81132731795311,14961.0
26.61,3.5,185.0,23.53104019165039,28.39578437805176,-79.78278903145184,40.45895654354317,296.67806454467774,0.0101214200258255,0.0015467564808204,-0.8467217683792114,0.5319374203681946,-0.0826828584587898,0.0106711461971774,3.0351586678873685,0.0151451388373971,-0.0532781444489955,0.0091184107586741,0.1480345342587679,-0.2309495779685677,-9.664497300982475,14961.0
26.7,3.5,185.0,23.56484603881836,28.7218074798584,-79.78278905195594,40.458956546625295,297.2808420257568,0.0104503883048892,0.0021355014760047,-0.8469741344451904,0.5315271615982056,-0.0576110227360605,0.0172635599503512,3.0154451133669844,0.0405415892601013,-0.0030562391038984,0.0344480909407138,0.1192830165848136,-0.2769256133772433,-9.792904495596886,14962.0
26.91,3.5,185.0,23.50224304199219,27.98229217529297,-79.78278908730576,40.45895667936711,297.89214726257325,0.0105996709316968,-0.0025873184204101,-0.8471421003341675,0.5312543511390686,-0.0673983370583451,0.0313814596312578,3.048295333120816,0.0071665281429886,0.0142544833943247,0.0346115007996559,0.1843617410771549,-0.118430711813271,-9.909433071613313,14962.0
27.1,3.5,185.0,23.53855323791504,29.1193962097168,-79.78278908401845,40.458956690885074,298.19763584899897,0.0103270262479782,-0.0040883342735469,-0.8469902873039246,0.5314924716949463,-0.0652492305629269,0.0500869097806873,3.054189022697836,-0.0490752086043357,0.0052265753038227,-0.0116843907162547,0.214396932721138,-0.0133107421814929,-9.856606986522673,14963.0
27.2,3.5,185.0,23.57486343383789,28.35602569580078,-79.78278905816661,40.45895668770204,298.50363369750977,0.0105059277266263,-0.0037880758754909,-0.8468807935714722,0.5316655039787292,-0.0425968760383431,0.0669196923081477,3.036946680962592,-0.0094636483117938,-0.0215967744588852,0.0195536762475967,0.1671530382335186,-0.2238469285704196,-9.736785843372346,14963.0
27.3,3.5,185.0,23.602407455444336,27.34615135192871,-79.78278907723434,40.4589567573993,299.11650486755366,0.0116282356902956,-0.0047094309702515,-0.8465695977210999,0.5321303009986877,-0.0549215112408947,0.0554901936756911,3.046181132217632,-0.0517577901482582,0.0291652083396911,-0.0084763402119278,0.1400050920434296,-0.1526703530084341,-9.80243487238884,14964.0
27.51,3.5,185.0,23.559837341308597,27.56879997253418,-79.78278907697855,40.45895676697525,299.72290440368647,0.0113367345184087,-0.0052203023806214,-0.846643328666687,0.5320144295692444,-0.0413270360851841,0.0561498126996442,3.010902139859645,0.020652700215578,0.035642672330141,-0.0044618677347898,0.1757215845957398,-0.1748282762244344,-9.686435469388964,14964.0
27.7,3.5,185.0,23.660001754760746,26.28856468200684,-79.78278905108594,40.45895686313305,300.03290005493164,0.0107415542006492,-0.0052735372446477,-0.8466284871101379,0.5320499539375305,-0.0558377320966696,0.0531653884539809,3.008397313849476,-0.018052639439702,-0.0282713212072849,-0.0009070633677765,0.1156653168518096,-0.2175819476321339,-9.694665425419808,14965.0
27.8,3.5,186.0,23.4033317565918,29.668067932128903,-79.78278905872317,40.45895688131553,300.3339082794189,0.0112906536087393,-0.0056478292681276,-0.8466011881828308,0.5320782065391539,-0.0472599584199068,0.0423742054975854,3.0071815092205085,0.0966807156801223,0.0475321747362613,0.0656539499759674,0.1822351270169019,-0.1388257817365229,-9.76737789094448,14965.0
28.0,3.5,186.0,23.602407455444336,25.62856674194336,-79.78278910396034,40.45895682970417,300.95161267089844,0.0120109757408499,-0.0041284789331257,-0.8465109467506409,0.5322197675704956,-0.0491045966523069,0.0602943806191423,3.044166982966068,-0.020700603723526,-0.0287660527974367,-0.0901887565851211,0.1705675746314227,0.0053788354061543,-9.888470803499224,14965.0
28.1,3.5,187.0,23.552326202392567,27.354103088378903,-79.7827891134373,40.45895683224416,301.25626202392584,0.0117304539307951,-0.0027471603825688,-0.8465287685394287,0.532206654548645,-0.0504077838639093,0.0474374328727522,3.047057648362196,-0.0182045865803957,-0.0228646825999021,-0.0344326086342334,0.1548254265636205,-0.0843853809032589,-9.857022138834,14966.0
28.3,3.5,186.0,23.59990310668945,26.06591415405273,-79.78278914860161,40.45895682050503,301.8703367309571,0.0128912916406989,-0.0027533445972949,-0.8466823101043701,0.5319355130195618,-0.0432358972286863,0.0424937516402638,3.056730420756498,-0.0265254378318786,-0.0106863752007484,0.0317411459982395,0.1342122920416295,-0.2276626570522785,-9.918422580957412,14966.0
28.41,3.5,186.0,23.633708953857425,27.18711471557617,-79.78278918115461,40.45895682290224,302.4819471435547,0.0127736944705247,-0.0039231567643582,-0.8469952940940857,0.5314324498176575,-0.0315718736071338,0.0431821143406096,3.0356169967889257,-0.0385634489357471,0.0323590524494648,0.0394524745643138,0.0954544159490615,-0.2162166410498321,-9.865831553936005,14967.0
28.6,3.5,186.0,23.60366058349609,28.037954330444336,-79.78278921000285,40.458956805844814,302.7844793395996,0.011918531730771,-0.0051468913443386,-0.846908688545227,0.5315799713134766,-0.028333882996787,0.0426197477674509,3.0136605502014167,-0.1037751957774162,-0.0399675630033016,-0.0290614794939756,0.0780077405646443,-0.1930559112131596,-9.578720986247063,14967.0
28.71,3.5,187.0,23.55483055114746,25.859169006347656,-79.78278925390906,40.458956869408944,303.09065075683594,0.0104457065463066,-0.0060405284166336,-0.8467265963554382,0.5318915247917175,-0.0223915960854864,0.0426094328707837,2.986455523699516,-0.0825531929731369,-0.0330797024071216,0.0308266542851924,0.1496339487377554,-0.2000193603336811,-9.545788882970813,14968.0
28.9,3.400000095367432,186.0,23.65624618530273,25.7876033782959,-79.78278932822217,40.45895684649322,303.6858007507324,0.0084466189146041,-0.0046194461174309,-0.8461751341819763,0.5328180789947511,0.0047811512788002,0.0290863243022323,2.9555905168676064,0.0365505218505859,-0.0011649490334093,0.027810139581561,0.1703338139131665,-0.3293025409430266,-9.585394413471224,14968.0
29.0,3.5,186.0,23.53604888916016,29.58059883117676,-79.7827893609663,40.45895682445887,304.28456707763667,0.0073981424793601,-0.0045870123431086,-0.8457954525947571,0.5334363579750061,-0.0129861013060305,0.0220353411389387,2.910011010379232,-0.0868436098098754,-0.0276692193001508,-0.0235543698072433,0.1076027556415647,0.0183433733135461,-9.447938067913055,14969.0
29.2,3.400000095367432,183.0,23.57235908508301,27.457475662231445,-79.7827894313329,40.45895680920176,304.59316845703125,0.0075172092765569,-0.0046990872360765,-0.845722496509552,0.5335493683815002,0.0077336232825235,0.026039591455052,2.9626011070352267,-0.0038811727426946,0.02628162689507,-0.0406019352376461,0.137837419565767,-0.1302238331548869,-9.895973950624468,14969.0
29.3,3.400000095367432,185.0,23.417104721069336,28.95240974426269,-79.78278946844941,40.45895679538856,304.89076824951167,0.0082143675535917,-0.0047461744397878,-0.8457517027854919,0.5334924459457397,0.0078276909301345,0.023725461179387,2.986838693705657,0.0340545400977134,0.0093734161928296,-0.0236716140061616,0.1762043270654976,-0.2163285969570279,-10.0116073179245,14969.0
29.5,3.400000095367432,184.0,23.569854736328125,27.19506645202637,-79.78278962763613,40.45895674584804,305.4943410949707,0.0090492106974124,-0.0052594100125133,-0.8459451198577881,0.5331673622131348,-0.0042976525878989,0.0272104789117876,3.0544143159082187,-0.0296773370355367,0.0264975037425756,0.005248075351119,0.1432630601059645,-0.0423496699193492,-10.165578539371491,14970.0
29.61,3.400000095367432,185.0,23.4859676361084,27.40181350708008,-79.78278966919385,40.45895673300316,305.8002492980957,0.008331055752933,-0.004881395958364,-0.846106231212616,0.5329269766807556,-0.0070296395378532,0.0290572672930988,3.0602320125484663,-0.0388750173151493,-0.0258081965148448,-0.068094290792942,0.1788030672445893,-0.1121992610022425,-9.945225048065186,14970.0
29.7,3.299999952316284,183.0,23.57235908508301,25.962541580200195,-79.78278977755394,40.458956814729405,306.3999616699219,0.0072528240270912,-0.003280958160758,-0.8465554714202881,0.5322411060333252,-0.0022854960120877,0.0102041465593139,3.049073392761501,0.0548150092363357,0.0104002431035041,-0.0402610599994659,0.1539659224078059,-0.2397271805629134,-9.888102428913118,14971.0
29.91,3.400000095367432,183.0,23.582374572753903,26.30446815490723,-79.78278993304012,40.4589568712404,306.6965772705078,0.008215669542551,-0.002612511627376,-0.8467689156532288,0.5318911075592041,-0.0144961010080584,-0.0022418032695547,3.0178585982406347,0.0442457422614097,0.0421430356800556,-0.0348589941859245,0.091032294658944,-0.0711442833999171,-9.700488082766531,14971.0
30.1,3.400000095367432,183.0,23.450910568237305,27.81530570983887,-79.78279003173917,40.45895689340787,307.29920407104487,0.0098353261128067,-0.0026754061691463,-0.8468568325042725,0.5317234396934509,-0.0243839486259949,0.0003868955226121,3.012314329378282,0.0536700300872325,0.0353427082300186,-0.0080587621778249,0.1744350875169039,-0.1379831522796303,-9.788167081475258,14972.0
30.21,3.400000095367432,182.0,23.57361030578613,25.898927688598643,-79.78279020586302,40.45895699452005,307.90255184936524,0.0103935413062572,-0.0020127529278397,-0.8468803167343141,0.5316781997680664,-0.037963112654021,-0.0060160953925073,3.0190018823289417,0.0504313521087169,-0.0071080182678997,0.1220793426036834,0.1816336860693991,-0.2959381274320185,-9.855112438201903,14972.0
30.4,3.400000095367432,183.0,23.51852035522461,28.46735000610352,-79.78279025641979,40.45895706195858,308.2055952148437,0.0094980699941515,-0.0012965357163921,-0.8468661308288574,0.5317197442054749,-0.0376376669296553,-0.0012974003822339,3.0185876352481014,0.0361502766609191,0.0075332494452595,0.05189074203372,0.1415398856531828,-0.175365836340934,-9.84729821920395,14973.0
30.52,3.400000095367432,182.0,23.67252349853516,24.55507850646973,-79.78279030652546,40.45895707634827,308.5073301391602,0.0086054634302854,-0.0016787783242762,-0.8467803001403809,0.5318704843521118,-0.0391877777757301,-0.0079661511329526,3.0141814094602384,0.0052919364534318,-0.0264867134392261,0.0313822403550148,0.0926188635360449,-0.16445531565696,-9.796156132221222,14973.0
30.6,3.400000095367432,183.0,23.54105758666992,27.59265518188477,-79.78279045122483,40.45895711668321,309.1143133239746,0.0077752936631441,-0.0024635603185743,-0.8463518023490906,0.5325618982315063,-0.0231639486889543,-9.509218011702e-05,2.99594293855056,0.0303458217531442,-0.0186130758374929,-0.0520814657211303,0.118242559377104,-0.0728054179809987,-9.627777371406555,14974.0
30.8,3.400000095367432,183.0,23.53479766845703,26.853139877319336,-79.78279049708463,40.45895712858336,309.41303845214844,0.0077915131114423,-0.0028764822054654,-0.8464174866676331,0.5324550867080688,-0.0276980975311098,-0.0038953128528466,2.9729710211547613,0.0167180243879556,0.0223550349473953,-0.0104292649775743,0.1130750277265906,0.0178020673245191,-9.553166899681091,14974.0
31.0,3.400000095367432,184.0,23.56234169006348,26.09772109985352,-79.78279066863651,40.45895716857155,310.0114309387207,0.0088208690285682,-0.0038726727943867,-0.8463258743286133,0.5325783491134644,-0.0173093566926021,0.0008072306259479,2.949999017569953,0.0726991966366767,0.0425509288907051,0.0144501961767673,0.1433039266616106,-0.0113277743384242,-9.707835693955422,14975.0
31.1,3.400000095367432,183.0,23.50224304199219,28.149280548095703,-79.7827907907728,40.45895724539496,310.60726376342774,0.0089525617659091,-0.0028386989142745,-0.8459110856056213,0.5332413911819458,-0.0400554803023776,-0.0011637277291776,2.945274970562102,0.0044943569228053,0.0124174794182181,-0.0532120764255523,0.146327129015699,-0.043775253072381,-9.72759285092354,14975.0
31.3,3.400000095367432,181.0,23.553577423095703,26.92470741271973,-79.78279084377508,40.45895726743789,310.9022199707032,0.0080549716949462,-0.0035534058697521,-0.8456481695175171,0.5336682796478271,-0.0362130075091068,-0.0095601895093911,2.952377361036952,0.0089824981987476,-0.0215370506048202,-0.0577381700277328,0.1059801258891821,-0.1112672239635139,-9.804304811954498,14975.0
31.4,3.400000095367432,180.0,23.46718597412109,26.51916694641113,-79.7827909269425,40.458957311744896,311.20189877319336,0.007636769209057,-0.0033653534483164,-0.8454893827438354,0.5339270830154419,-0.033812870602686,-0.0070870903102448,2.9573418964775,-0.0665181502699852,-0.0250312145799398,-0.0574135221540927,0.1247007907927036,0.0354391700774431,-9.759979408979415,14976.0
31.6,3.400000095367432,179.0,23.54857063293457,25.04808807373047,-79.7827910459376,40.45895734867352,311.7941724853516,0.0082140695303678,-0.0028109641280025,-0.845419704914093,0.5340319275856018,-0.0328099883076975,-0.0162713838576273,2.974929247898076,-0.0482819937169551,-0.0312688536942005,0.0152346566319465,0.0435854972200468,-0.1872438153997064,-9.901361575126648,14976.0
31.7,3.400000095367432,178.0,23.44089317321777,28.76156616210937,-79.78279126387774,40.458957396995565,312.39089794921875,0.0091887647286057,-0.0013086382532492,-0.84586101770401,0.5333227515220642,-0.0297827523853091,-0.0303973195463007,2.9661908386189832,-0.0162326749414205,-0.0042045563459396,0.022486513480544,0.1164385745767504,-0.1680519928224385,-9.879179577827454,14977.0
31.9,3.299999952316284,178.0,23.503496170043945,27.41771697998047,-79.78279136341581,40.45895748928328,312.6893293457032,0.0090623786672949,-0.0009933578548952,-0.8460037708282471,0.5330990552902222,-0.028883460254772,-0.0311897481911459,2.9635048642333395,0.0638374760746955,0.0280646700412035,0.0554965063929557,0.0689154252922162,-0.2798187243193388,-9.782038030028342,14977.0
32.0,3.299999952316284,177.0,23.370779037475582,28.26060485839844,-79.7827914327972,40.458957511171626,312.9861433105469,0.0081032505258917,-0.0010641149710863,-0.8459601402282715,0.5331835150718689,-0.0290682785459596,-0.032046589509725,2.9724976871231967,0.0330378040671348,0.008264509961009,-0.0089704990386962,0.1057701560296118,-0.2291776523552835,-9.883131126165392,14977.0
32.2,3.299999952316284,176.0,23.51601600646973,26.98036956787109,-79.78279162454395,40.458957590158185,313.5830137329102,0.006828224286437,-0.00171065016184,-0.8456209897994995,0.5337374210357666,-0.0357340741127416,-0.0310752007052857,3.021077800499928,-0.0236400999128818,-0.0060759466141462,0.0026878381613641,0.1053587495908141,0.0052446052618324,-10.081342381238937,14978.0
32.3,3.299999952316284,175.0,23.417104721069336,29.29433441162109,-79.78279169161338,40.45895761112116,313.88591213989264,0.0060506961308419,-0.0017758606700226,-0.8455108404159546,0.5339210629463196,-0.0313950694958422,-0.0285682522594771,3.033006695721576,-0.0434922985732555,-0.0152080748230218,-0.100704587996006,0.1605381745286286,-0.0218917972454801,-9.967777758836746,14978.0
32.5,3.299999952316284,175.0,23.39957618713379,28.45939826965332,-79.782791853351,40.45895767396602,314.48582669067383,0.0055242194794118,-0.0018638424808159,-0.8455582261085509,0.5338515043258667,-0.0157085422338543,-0.020069576259235,3.0441833125101128,0.0203321389853954,0.0156800523400306,0.0382865630090236,0.1049419892951846,-0.2407587024942041,-9.960177547931671,14979.0
32.6,3.299999952316284,176.0,23.5886344909668,24.29266929626465,-79.78279198264384,40.45895771611632,315.0872022705078,0.0065371724776923,-0.0032803823705762,-0.8460637331008911,0.5330315828323364,-0.0129141638412807,-0.0135071857354192,3.00749158364371,0.0685772076249122,0.0321440733969211,0.093873307108879,0.0223968916106969,-0.1840922392532229,-9.76922561109066,14980.0
32.8,3.299999952316284,177.0,23.45591735839844,27.21096992492676,-79.78279202949307,40.45895773292146,315.3868581848145,0.0073167057707905,-0.0044472375884652,-0.8461799025535583,0.532828688621521,-0.0245603336996896,-0.0052955208085002,2.9874492884473898,-0.0479233227670192,-0.0104871233925223,0.0048004542477428,0.0615917648468166,-0.190286615062505,-9.625709211230276,14980.0
32.9,3.299999952316284,177.0,23.430877685546875,27.266632080078125,-79.78279215329904,40.45895783956235,315.6919576721192,0.0084875915199518,-0.0054688323289155,-0.8460069298744202,0.533076286315918,-0.0244601094109132,-0.0118777215309527,2.981261151021178,0.0945168808102607,0.0588100403547287,0.0693293213844299,0.1370213492587209,-0.2333789316192269,-9.716225863695144,14980.0
33.1,3.299999952316284,176.0,23.47094345092773,26.479406356811523,-79.7827922692373,40.458957906617634,316.28726025390625,0.0097704855725169,-0.0040329443290829,-0.8459418416023254,0.5331704020500183,-0.0365403416370432,-0.010098710638117,2.9836803295050736,0.0752640515565872,-0.032211598008871,0.0665865838527679,0.1393767813127488,-0.1780344507470727,-9.903561297655106,14981.0
33.2,3.400000095367432,176.0,23.57736778259277,25.86712074279785,-79.78279242778808,40.4589579619778,316.89765759277344,0.0076589100062847,-0.0019886037334799,-0.8457369208335876,0.5335414409637451,-0.0521459843090793,-0.0265774992375903,2.997956645225371,-0.0623292662203311,-0.0583061128854751,-0.0545959062874317,0.0811940345540642,-0.0701738191908225,-9.935020487308504,14981.0
33.3,3.400000095367432,175.0,23.41960906982422,27.298439025878903,-79.78279253176669,40.45895807372873,317.1999303894043,0.0073786643333733,-0.0006262756651267,-0.8453806042671204,0.5341131687164307,-0.0474161544350289,-0.0393028236730866,2.976536036399492,0.0181266535073518,-0.019172815605998,0.0105933286249637,0.1018575556296855,-0.1761010140739381,-9.581081507205964,14982.0
33.5,3.5,174.0,23.434633255004893,27.99819564819336,-79.78279260039756,40.45895811546356,317.497087677002,0.0074511016719043,0.0009024868486449,-0.8452140092849731,0.5343753695487976,-0.0545548663362044,-0.042219072544131,2.970486432684192,-0.050106294453144,-0.05403358861804,-0.0380463488399982,0.0496513393521308,-0.1761791292205453,-9.715107291340829,14982.0
33.7,3.5,174.0,23.37203025817871,28.24470138549805,-79.78279272983869,40.45895820998099,318.1009008483887,0.0084837758913636,-0.0004786196805071,-0.8450806140899658,0.5345715284347534,-0.0526031158790661,-0.0341161448727961,2.9782583003566447,0.0834797397255897,-0.0220885928720235,-0.0307364519685506,0.1443750269338488,-0.0628344352170825,-9.740699384808543,14983.0
33.8,3.5,173.0,23.25058174133301,30.84493064880371,-79.78279278330123,40.45895824039967,318.39896221923834,0.0113929165527224,0.0016676402883604,-0.8451139330863953,0.5344622135162354,-0.0552301032169206,-0.0191686044132235,2.98288249087848,0.0321882255375385,-0.0256748478859663,-0.0140673890709877,0.1745215166732669,-0.0082267766073346,-9.812147097587586,14983.0
34.0,3.5999999046325684,173.0,23.46217918395996,25.636518478393555,-79.78279296869748,40.45895835762563,318.9995176391602,0.0139006301760673,0.0015021385625004,-0.8454231023788452,0.5339140892028809,-0.0732586668870041,-0.038729107766398,3.0260567774044627,0.0158034339547157,0.0104093011468648,0.0514656379818916,0.0981505031324923,-0.2962197805009782,-9.990214694738391,14983.0
34.1,3.5,173.0,23.374534606933597,29.03192710876465,-79.78279304071337,40.45895838007437,319.3027135925293,0.0119165470823645,-0.000972572423052,-0.8457465767860413,0.5334509015083313,-0.0688088300693426,-0.0263571184420677,3.034715377067484,-0.0699179917573928,-0.0064364490099251,0.0055399960838258,0.0806840842589736,-0.0977549938112497,-9.853672853708268,14984.0
34.3,3.5999999046325684,172.0,23.49848747253418,26.638442993164062,-79.78279325637666,40.45895838242005,319.90669079589844,0.0114920772612094,-0.0008014647173695,-0.8460904359817505,0.532914936542511,-0.017895051325102,-0.0240110391525067,3.029713782456504,0.0144865233451128,0.0040191421285271,-0.066019520163536,0.1265774546563625,-0.1168260987941175,-9.911971932649614,14984.0
34.4,3.5999999046325684,172.0,23.268110275268555,30.50300407409668,-79.78279343322146,40.458958382751774,320.51707669067383,0.0109725184738636,0.0006086610956117,-0.8463013768196106,0.5325910449028015,-0.0114337996524672,-0.0259664098465381,3.0415296801565046,0.0263973157852888,-0.0042920541018247,0.024893932044506,0.1008482348453253,-0.2406460887752473,-9.870303504467008,14985.0
34.6,3.5,175.0,23.38204765319824,28.729759216308597,-79.78279352288908,40.45895836943669,320.82249661254883,0.0099982880055904,-5.320765194483101e-05,-0.8462516665458679,0.5326895713806152,-0.0112084989482374,-0.0298974960684139,3.0639416998426903,-0.0382395610213279,-0.0065417345613241,-0.0522382818162441,0.1052225642837584,-0.0798453468549996,-9.946352391242982,14985.0
34.7,3.5,174.0,23.33196449279785,29.222768783569336,-79.78279359893298,40.458958435388375,321.1286108093262,0.0090774986892938,-3.380437192390673e-05,-0.8461366891860962,0.5328888297080994,-0.0214441073256825,-0.0279712592334647,3.04592538497342,-0.0984234437346458,-0.0435645282268524,-0.0041854521259665,0.0787593544553965,-0.0856358810607344,-9.785320072174072,14986.0
34.81,3.5,174.0,23.480958938598643,26.69410514831543,-79.78279379321306,40.45895841359772,321.74035092163086,0.0085577191784977,-0.0002761826035566,-0.8457592129707336,0.5334960222244263,0.0124584867121959,-0.0280281278695912,3.038908454852604,0.0541846714913845,0.0013392447726801,0.0272457338869571,0.1081979016959667,-0.2796310652419925,-9.75836148440838,14986.0
35.01,3.5,175.0,23.280630111694336,31.46516990661621,-79.78279387677613,40.458958393177966,322.0437261657715,0.0082073956727981,-6.421346188290045e-05,-0.8456406593322754,0.5336896181106567,0.0134357705661199,-0.0216622193717355,3.0305403358380967,0.0127450684085488,-0.0111277494579553,0.0610537752509117,0.1188249420560896,-0.239563111346215,-9.726844407320025,14987.0
35.2,3.400000095367432,175.0,23.369525909423828,26.7418155670166,-79.7827940543335,40.45895835373084,322.66058941650385,0.0070795048959553,-0.0004583606496453,-0.8453313112258911,0.5341953039169312,0.0059069159207249,-0.0228731898097092,3.0772140415312057,-0.0513703376054763,-0.0241375211626291,0.0153690818697214,0.0769464069698006,-0.1619658270478248,-10.080273510217667,14987.0
35.31,3.400000095367432,175.0,23.4859676361084,27.86301612854004,-79.78279412563191,40.458958330244,322.9691183166504,0.006207593716681,-0.0004746201157104,-0.8451469540596008,0.5344977974891663,0.0111458845477568,-0.014164863600356,3.0915191168524245,-0.0211235433816909,0.0012488326756283,-0.0219355449080467,0.1220260368101298,-0.1656886030733585,-9.959466526508333,14987.0
35.5,3.5,176.0,23.31819152832031,29.397708892822266,-79.78279434120171,40.45895831174051,323.58157940673834,0.0058309412561357,0.0003863691817969,-0.8448205590248108,0.5350179076194763,0.0129909525598647,-0.0240234604135127,3.040315028618892,0.0347150042653083,-0.0275014303624629,-0.003759327577427,0.1111645779199898,-0.2349758244864643,-9.695586946606635,14988.0
35.6,3.5,177.0,23.51226043701172,25.92278289794922,-79.78279440443005,40.458958301352965,323.88495083618164,0.007244077976793,-0.0005688189412467,-0.8448750972747803,0.5349144339561462,0.0013662826359553,-0.0271372931282001,3.031353993619869,0.0578106604516506,0.0800502821803093,0.0489559695124626,0.0628013664716854,-0.0687135181948542,-9.724620711207391,14988.0
35.8,3.5,180.0,23.27061462402344,30.34396934509277,-79.78279457428904,40.45895823783499,324.5057317810058,0.0099280029535293,-0.0024460074491798,-0.8450140953063965,0.5346462726593018,-0.0063978941196693,0.0010589284412624,3.0245685639044564,-0.0121034141629934,0.0256114434450864,-0.0521785877645015,0.1024519616458565,-0.0457599259726703,-9.653432614803314,14989.0
35.9,3.5999999046325684,180.0,23.369525909423828,27.544944763183597,-79.78279469296372,40.45895821112109,325.12623806762696,0.0099288104102015,-0.0026247620116919,-0.8455818891525269,0.5337468981742859,-0.0162586073345278,0.0119202130215449,3.072937375642677,0.0533906519412994,-0.0030216306913644,0.0613667108118534,0.149949387749657,-0.2967240663059056,-9.860194838047027,14990.0
36.11,3.700000047683716,180.0,23.500991821289062,25.30254554748535,-79.78279474388104,40.45895820603789,325.4340307312012,0.0103141963481903,-0.0021999736782163,-0.8456601500511169,0.5336176156997681,-0.0258131596414582,0.0104547282765917,3.0776108037020777,0.01653453707695,-0.0183214005082845,-0.0295391138643026,0.1408699683286249,-0.0650243636593222,-9.858598548173903,14990.0
36.2,3.799999952316284,180.0,23.427120208740234,27.902774810791016,-79.7827947903332,40.4589581926541,325.7506162719726,0.0106160435825586,-0.0008574253879487,-0.84565669298172,0.5336210131645203,-0.0249115020091897,0.0116168047779236,3.0640465360377664,0.0317784659564495,-0.0256047248840332,-0.0396333448588848,0.1397901520505547,-0.210328695885837,-9.692180943489076,14990.0
36.4,3.799999952316284,180.0,23.24306869506836,29.85891151428223,-79.7827949057599,40.45895824280439,326.37280102539063,0.0116751613095402,0.0009598196484148,-0.8453271389007568,0.5341206789016724,-0.0605700995519671,-0.0023794571582555,3.0561939875140585,-0.0030452630016952,-0.0014507716987282,0.0373205617070198,0.1078533088322729,-0.3396129363030195,-9.80822127699852,14991.0
36.51,3.799999952316284,181.0,23.559837341308597,25.453628540039062,-79.78279494721501,40.45895825601641,326.67924710083014,0.0117556843906641,0.0002593351528048,-0.8453093767166138,0.5341478586196899,-0.0618790240739788,-0.0067354870698567,3.0788667331063984,-0.0134351812303066,0.0168198104947805,0.0166631620377302,0.0339923793473281,-0.2885478863865137,-10.00582091331482,14991.0
36.7,3.799999952316284,179.0,23.41960906982422,27.78349876403809,-79.78279501321839,40.45895823578453,327.30176754760737,0.0129207475110888,-0.0001770718372426,-0.8454913496971129,0.5338327884674072,-0.0525873438604744,0.0062571392264538,3.0675701408475065,0.0150669338181614,0.0170153994113206,-0.0265500806272029,0.0806809048354625,-0.1121643056161701,-9.723790991306306,14992.0
36.81,3.799999952316284,179.0,23.4221134185791,26.853139877319336,-79.78279511181272,40.45895824718979,327.9140111999512,0.0095725022256374,0.001030632876791,-0.8451021313667297,0.5345182418823242,-0.0455821909591723,-0.0108629413448596,3.060483225955208,-0.0267393812537193,-0.0595999248325824,0.0041546737775206,0.0120989581290632,-0.1057504490856081,-9.734286158680916,14992.0
36.9,3.900000095367432,179.0,23.447153091430664,25.7876033782959,-79.78279520547112,40.45895825342275,328.2301084594726,0.0091995475813746,0.0027363062836229,-0.84478360414505,0.5350220799446106,-0.0409307870085119,-0.0215586978462731,3.07315073461734,-0.025166543200612,-0.020700978115201,0.0291175432503223,-0.0080008913576602,-0.1614357769489288,-9.812045356035233,14993.0
37.1,3.900000095367432,178.0,23.434633255004893,27.00422477722168,-79.78279526776201,40.45895825781137,328.53673764038086,0.0099007207900285,0.0038208134938031,-0.8446040153503418,0.5352863669395447,-0.0281809406286483,-0.0379194319162359,3.0601861176108067,0.1006370037794113,0.0376988165080547,0.1001924648880958,0.0140844692825339,-0.4542020639777184,-9.757038844227791,14993.0
37.3,3.900000095367432,178.0,23.44214630126953,25.723989486694336,-79.78279533453698,40.45895829912967,329.1572210388184,0.0102367093786597,0.0028436533175408,-0.844204306602478,0.535916268825531,-0.0432728764509011,-0.0251360466360041,3.044663280406972,0.0420612283051014,-0.0032160338014364,0.1288833916187286,0.0530555883049964,-0.3066481251642108,-9.754236858487127,14994.0
37.4,3.799999952316284,178.0,23.21051597595215,30.542762756347656,-79.78279543263308,40.45895831518978,329.475000579834,0.0093114599585533,0.0025074980221688,-0.8442546129226685,0.5358555912971497,-0.0528799885973737,-0.026649731645537,3.0702767187976616,-0.0517338812351226,-0.0302234776318073,-0.0028592273592948,0.0759785374626517,-0.1099462831299752,-9.868625353574751,14994.0
37.6,3.799999952316284,179.0,23.38329887390137,27.77554702758789,-79.78279553459276,40.45895832807438,330.0916502075196,0.0089663229882717,0.0012949394294992,-0.8449071049690247,0.5348362922668457,-0.0389860022640743,-0.0196096785288754,3.0993884068512734,0.0465064346790313,-0.0020266785286366,-0.0266350135207176,0.1038481031544506,-0.2681437167339027,-9.921672463417051,14995.0
37.7,3.799999952316284,179.0,23.34323310852051,28.864938735961918,-79.78279553426107,40.45895836653922,330.71467419433594,0.0120341861620545,-0.0004015705781057,-0.8453042507171631,0.534149706363678,-0.0866494283944649,0.0092952558045287,3.0882359641002903,-0.0102894650772213,-0.0200689956545829,0.05506257340312,0.1242894117627293,-0.4102752583846449,-9.839148370027544,14995.0
37.81,3.799999952316284,180.0,23.557334899902344,24.17339324951172,-79.78279554590803,40.45895839461973,331.0239317016602,0.0135390665382146,-0.0021561211906373,-0.8447281718254089,0.5350200533866882,-0.0871554031324106,0.0187736270887791,3.0886903821358374,0.0256322268396616,0.0758744925260543,-0.0012373658828437,0.1683827990479767,-0.2668152110651136,-9.775392669439317,14996.0
38.0,3.799999952316284,181.0,23.42962455749512,26.82928466796875,-79.78279556168769,40.45895839864871,331.33849163818365,0.016966039314866,-0.0021854876540601,-0.8439823985099792,0.5360980629920961,-0.0960711328546247,0.0350461144804906,3.060872066334003,-0.0387783348560333,0.04350271448493,-0.1260715425014495,0.1645207679271698,-0.0246162845380604,-9.59609423339367,14996.0
38.2,3.700000047683716,185.0,23.38705444335937,25.97049331665039,-79.78279553536575,40.45895843581994,331.9596082763672,0.0175856482237577,-0.0018069187644869,-0.8422905802726746,0.5387338399887085,-0.1057729962364503,0.0495113881943862,3.0277183129581164,0.0216037817299366,0.0271705333143472,0.0650688707828521,0.1664655883982777,-0.2746838639862835,-9.59814368247986,14996.0
38.31,3.700000047683716,187.0,23.39832305908203,28.1572322845459,-79.78279555822046,40.45895844911033,332.577051361084,0.0167730916291475,-0.0010612072655931,-0.841693639755249,0.5396938920021057,-0.0859472010570406,0.0484323375996614,3.013776144262665,-0.0238295011222362,-0.0561354607343673,0.0170128159224987,0.117305616158992,0.1048015738930553,-9.599758098721503,14997.0
38.5,3.700000047683716,189.0,23.280630111694336,28.093616485595703,-79.78279557381812,40.458958454643344,332.8783475952148,0.0163134820759296,-1.873984365374781e-05,-0.8422424197196959,0.5388522148132324,-0.0620792090549846,0.0447163768773235,3.013090579387681,0.1398345828056335,-0.0054732384160161,0.0988020598888397,0.2790547125041485,-0.3491834761574865,-9.836345214843751,14997.0
38.6,3.5999999046325684,191.0,23.36451911926269,27.831209182739247,-79.78279558952472,40.45895845167072,333.18080731201167,0.0141751589253544,0.0008909440948627,-0.8432077765464783,0.5374002456665039,-0.0758765674209287,0.0448101585399749,3.0390114561314867,-0.053006462752819,-0.0394900999963283,-0.0376421771943569,0.1883351616561412,0.0947362956404686,-9.984800173044205,14998.0
38.8,3.5,194.0,23.427120208740234,26.16133689880371,-79.78279553894754,40.45895841011839,333.81065960693365,0.0119608752429485,-0.0009916580747812,-0.8454622626304626,0.5339003801345825,-0.0412134601481953,0.0452429094456536,3.1025253300009137,-0.057964589446783,0.0122370962053537,-0.0198030229657888,0.1285579705517739,-0.12301752358675,-10.026028890609744,14998.0
38.91,3.400000095367432,194.0,23.46593475341797,25.57290458679199,-79.78279555134851,40.45895838453493,334.12158032226563,0.0117358351126313,-0.0028776312246918,-0.8466441035270691,0.5320222973823547,-0.0200241337552358,0.04659738281319,3.1128857460417145,0.0010633656056597,0.0588246658444404,-0.0095992945134639,0.1773269193805754,-0.25613989463076,-9.943852121829988,14999.0
39.1,3.400000095367432,196.0,23.3394775390625,28.276508331298828,-79.78279550810004,40.45895831725957,334.74237652587885,0.0131518580019474,-0.0087757809087634,-0.8485386371612549,0.528897225856781,-0.0173633309030719,0.0721789277173198,3.070029111156023,-0.0138572491705417,0.0434113107621669,-0.0128303719684481,0.2212579824775456,-0.2278696484863758,-9.641019560694692,14999.0
39.2,3.299999952316284,198.0,23.24432182312012,28.67409706115723,-79.78279552073082,40.45895826392624,335.361662109375,0.0128888851031661,-0.0099258087575435,-0.8490836024284363,0.5280081033706665,-0.0204787987301975,0.0903661336736934,3.078400951990493,-0.0140613066032528,-0.0199349503964185,0.0349424965679645,0.2448427085392177,-0.0593615362979471,-9.746058357954023,15000.0
39.4,3.299999952316284,200.0,23.42837333679199,26.15338516235352,-79.78279554579488,40.45895825530037,335.67048474121094,0.0132688451558351,-0.0077337464317679,-0.8489847779273987,0.5281941890716553,-0.0136191522399617,0.0749667340590375,3.0896587335976835,0.0599266290664672,-0.0239392947405576,-0.0537708587944507,0.2298598031513393,-0.2493200129270553,-9.89225979924202,15000.0
39.51,3.299999952316284,200.0,23.37578582763672,27.19506645202637,-79.78279552380103,40.45895827886451,335.98608227539063,0.013773052021861,-0.0066546350717544,-0.8486579060554504,0.5287209153175354,-0.0464476555279931,0.0602864630470531,3.0694226090851275,-0.0767353996634483,-0.0556671172380447,-0.0672627240419387,0.1589157549105584,-0.1779471810534596,-9.683320657610894,15000.0
39.7,3.299999952316284,201.0,23.29315185546875,27.68807601928711,-79.78279556546906,40.458958268260105,336.6059705810547,0.0145029844716191,-0.0057617938145995,-0.8467226624488831,0.5318056344985962,-0.0519622714129999,0.0393386001711381,3.07193507784056,-0.0749322474002838,-0.035995963960886,-0.0654877498745918,0.1223017878457904,-0.2336026607081294,-9.84644335627556,15001.0
39.8,3.299999952316284,200.0,23.45466613769531,25.843265533447266,-79.78279566585816,40.45895829278721,337.2209379272461,0.0137841012328863,-0.0034170548897236,-0.8445417881011963,0.5353013873100281,-0.0493083427417042,0.0263708941223057,3.071968703623741,0.037706509232521,-0.0559191368520259,0.0614099912345409,0.173203133996576,-0.3035700777545571,-9.865874823331833,15002.0
39.9,3.299999952316284,201.0,23.407087326049805,26.43964767456055,-79.78279555158252,40.45895826400783,337.5408994750977,0.0138286594301462,-0.0016645508585497,-0.8440723419189453,0.5360484719276428,-0.0356542007390573,0.0329608895193277,3.0615221919260787,0.116034872829914,0.0352635830640792,0.0443139858543872,0.2199594620615244,-0.3996823694184423,-9.69232420027256,15002.0
40.1,3.299999952316284,203.0,23.29690742492676,29.516984939575195,-79.78279558538637,40.45895826423864,337.84703656005865,0.0146117340773344,-0.0007420976762659,-0.8440115451812744,0.5361256003379822,-0.0555837873571923,0.0290275972407984,3.0642665188854483,0.0171863865107297,0.046279888600111,-0.0034766925964504,0.141111202519387,-0.1869414047151804,-9.832307127714158,15002.0
40.3,3.400000095367432,203.0,23.43838882446289,25.71603775024414,-79.78279555659506,40.45895827616887,338.4758817749024,0.0147804310545325,-0.0013921847566962,-0.8447210788726807,0.5350008606910706,-0.081541284693575,0.0390413587905646,3.1329273649007914,-0.0345730707049369,-0.011733379215002,0.0191228706389665,0.0891368922963738,-0.2712874174118042,-10.141559346914292,15003.0
40.4,3.400000095367432,203.0,23.40834045410156,24.66640281677246,-79.78279554217374,40.45895829625904,338.79443188476563,0.0152228428050875,-0.001754721510224,-0.8450127840042114,0.5345265865325928,-0.0860154458671653,0.029097589247748,3.1273478739514484,-0.0320218428969383,-0.0206204392015934,0.0442739613354206,0.1391670855414122,-0.2963674409687519,-9.98206133723259,15003.0
40.6,3.5,201.0,23.380794525146484,26.29651641845703,-79.78279559109953,40.4589583160776,339.41723461914063,0.021200256422162,0.0010457298485562,-0.8443179726600647,0.5354220271110535,-0.0816216120389797,0.0461820897748042,3.0895063658174142,0.0428695417940616,-0.0190206449478864,-0.128010019659996,0.3049951903894544,-0.2626584437303245,-9.613721834421158,15004.0
40.71,3.5,202.0,23.397071838378903,26.98832130432129,-79.78279560597551,40.45895832924453,339.73379345703125,0.0218707267194986,0.0012794319773092,-0.8439220190048218,0.536018431186676,-0.1107421255914046,0.0394038463753276,3.066144059490504,-0.0238743480294942,0.0497252158820629,0.0178635213524103,0.1916502953879536,-0.1852704166620969,-9.589710828065874,15004.0
40.9,3.5,202.0,23.39206314086914,25.89097595214844,-79.78279564568435,40.45895833502125,340.36368389892584,0.020784705877304,-0.00236601755023,-0.8440066576004028,0.5359246134757996,-0.0813331220676204,0.0563139553394573,3.051243285261533,0.022264277562499,0.0202505830675363,-0.0489723980426788,0.2724115628935397,-0.275294514298439,-9.611567135453225,15005.0
41.0,3.400000095367432,204.0,23.49723625183105,25.97049331665039,-79.78279570858308,40.458958314199975,340.9705946044922,0.0182535275816917,-0.006422892678529,-0.8447041511535645,0.5348837375640869,-0.0597566127519799,0.0644604519148857,2.9996596878578634,-0.0386971086263656,-0.0187593512237072,0.0350033864378929,0.2014187452197075,-0.0648372527584433,-9.616916753053664,15005.0
41.2,3.5,207.0,23.27812767028809,29.381805419921875,-79.78279577089927,40.45895826523166,341.2894727783203,0.017901737242937,-0.0063180159777402,-0.84504234790802,0.5343624353408813,-0.0328890382496171,0.0639914216278272,2.9896574501906352,0.1005930453538894,-0.0075394646264612,0.1056996434926986,0.3027384757809341,-0.4082273076474667,-9.530063381195069,15006.0
41.3,3.5,206.0,23.27061462402344,28.16518402099609,-79.78279581096722,40.45895825543349,341.58881970214844,0.0174305606633424,-0.0057998597621917,-0.8452447056770325,0.5340636372566223,-0.0434305831644698,0.0612336701147675,2.9996080198401613,0.0810624659061431,0.0478358305990696,0.0333086252212524,0.318492793366313,-0.1723934225365519,-9.834479953050613,15006.0
41.5,3.400000095367432,208.0,23.50975608825684,23.24303436279297,-79.78279576408565,40.45895815863156,342.2186262207032,0.0168547928333282,-0.0049782320857048,-0.8457980155944824,0.5332137942314148,-0.0510882603047823,0.0679462575669951,3.071513793460464,0.0414687022566795,0.0376604534685611,-0.0995760858058929,0.2135853026434779,0.0218585731834173,-9.93039300084114,15007.0
41.6,3.400000095367432,208.0,23.67753028869629,21.62882423400879,-79.78279578717228,40.45895815084841,342.5244962768556,0.019829798489809,-0.0045496271923184,-0.8462216854095459,0.532442569732666,-0.0550662570542392,0.0647211884175623,3.0370084595210014,0.0726891010999679,0.0278384368866682,0.0589393116533756,0.2303969795443117,-0.2391386765800416,-9.546211636662484,15007.0
41.7,3.299999952316284,208.0,23.696311950683597,20.30883026123047,-79.78279579563939,40.45895815926925,343.12428875732417,0.0239682458341121,-0.0045378096401691,-0.8461803197860718,0.5323381423950195,-0.0848645637013952,0.0684679761548529,2.8217438254979266,0.0076290625147521,0.0036574834957718,-0.1129243522882461,0.2606697508692741,-0.1655257946625352,-8.629656490087509,15008.0
41.91,3.299999952316284,209.0,23.7000675201416,21.207380294799805,-79.78279583489989,40.45895813052421,343.688680847168,0.024979293346405,-0.0039843637496233,-0.8457974791526794,0.5329040884971619,-0.0655455327726074,0.0511174727540245,2.569334731024796,0.0481619872152805,0.0432787053287029,0.0189042724668979,0.2023997070081532,-0.4910870312154294,-8.420203378200531,15008.0
42.11,3.299999952316284,209.0,23.702571868896484,21.398223876953125,-79.7827958889457,40.45895812233957,343.93897076416016,0.0257997438311576,-0.0028936036396771,-0.8455756902694702,0.5332239866256714,-0.0674578070145174,0.0411266978848794,2.4332246258731907,-0.0176394693553447,-0.0437867753207683,0.0243877489119768,0.1172182733751833,-0.126868280544877,-8.387229759693145,15008.0
42.2,3.299999952316284,209.0,23.67377471923828,21.70039176940918,-79.78279586913943,40.458958108099104,344.1927091674805,0.0258734319359064,-0.000544004200492,-0.8454588055610657,0.5334133505821228,-0.0567889429871302,0.0372127342742711,2.3190547626149067,0.0011286423541605,-0.0477451495826244,-0.085123136639595,0.2379010220244527,-0.1362160963006317,-8.449220770597455,15009.0
42.31,3.299999952316284,211.0,23.543561935424805,23.48158836364746,-79.78279586604884,40.45895807334118,344.65818615722657,0.0244848150759935,-0.0014792458387091,-0.8454400300979614,0.5335068106651306,-0.0247979731693468,0.0158337912636557,2.115080310211839,0.0257819946855306,0.0388762429356575,0.0139860333874821,0.268349849358201,-0.322402387931943,-8.661282910108566,15009.0
42.51,3.299999952316284,210.0,23.54731750488281,23.529298782348643,-79.7827960362002,40.458958001600976,345.06487103271485,0.0238727275282144,-0.0048408955335617,-0.8453739285469055,0.5336193442344666,-0.0117571413236697,0.0079039483719758,1.9659525318574544,-0.1568236500024795,-0.0543394722044467,-0.0910391733050346,0.1954450652562082,0.0105189582332968,-8.870027339458465,15010.0
42.7,3.2000000476837163,212.0,23.663759231567383,22.7977352142334,-79.78279595298288,40.45895793042869,345.3057310180664,0.0242563299834728,-0.0066694729030132,-0.8452875018119812,0.5337193012237549,0.0291233435475525,0.0176777755065668,1.9544200467821269,0.0611627474427223,0.1476197838783264,0.0316417776048183,0.2348301374539733,-0.3136804617941379,-9.119091829061508,15010.0
42.81,3.0999999046325684,216.0,23.543561935424805,22.686410903930664,-79.78279592841633,40.45895776626231,345.7495939331055,0.023960368707776,-0.0111037120223045,-0.8451282978057861,0.5339108109474182,0.0304522225923854,0.0305030281844655,1.865716848608856,-0.1016465798020362,0.0475131422281265,0.0862260535359382,0.2816762020066381,-0.3989742350578308,-9.087427986860275,15010.0
43.01,3.0999999046325684,216.0,23.62118911743164,22.2331600189209,-79.78279613064353,40.45895765497513,346.1089460449219,0.019946226850152,-0.0169190503656864,-0.8453518152236938,0.5335693955421448,0.0380706987944798,0.0165317471600966,1.7308435236660045,-0.1966475248336792,-0.0977436229586601,-0.0775272473692894,0.1824801984429359,-0.2106308142095804,-9.072596524357795,15011.0
43.2,3.0,216.0,23.61117172241211,22.392194747924805,-79.78279604122467,40.45895752876905,346.35021801757813,0.0181082915514707,-0.0171434227377176,-0.8455269932746887,0.5333500504493713,0.0795650730766908,0.0254384044698335,1.737990896184885,0.0580738596618175,0.0395282134413719,0.1325795650482177,0.3705573517084122,-0.4950566693767906,-9.201825837492942,15011.0
43.31,3.0,218.0,23.62995338439941,21.84352302551269,-79.78279615688747,40.45895748024946,346.52161236572266,0.0168588105589151,-0.0151084857061505,-0.8457282781600952,0.5331333279609679,0.055940536772405,0.0136775584895431,1.694983372747904,-0.0577534958720207,-0.0913262590765953,-0.0713794082403183,0.2616441528126597,-0.035052906665951,-9.253335714340212,15011.0
43.5,3.0,219.0,23.71384048461914,19.426183700561523,-79.78279609262053,40.4589572196526,346.933927734375,0.0165953822433948,-0.0104202013462781,-0.8457499742507935,0.5332196354866028,0.0645282996822329,0.0038992647526909,1.6268625359663578,0.1274615377187729,0.0504000075161457,-0.0349095091223716,0.2671187181025744,-0.1893837501481176,-9.041206916570664,15011.0
43.6,2.900000095367432,220.0,24.71297645568848,6.25804615020752,-79.78279613189649,40.45895694385661,347.31147595214844,0.0176169332116842,-0.0050897672772407,-0.8452322483062744,0.5340844988822937,0.0512750725731401,0.0010988902184744,1.3795234252945658,0.0698142722249031,-0.0230796243995428,-0.0842436999082565,0.1838076991215348,-0.2591137702390552,-8.986748288869858,15012.0
43.7,2.799999952316284,219.0,23.67878341674805,19.4659423828125,-79.78279620837398,40.45895691469611,347.43374462890625,0.017866151407361,-0.0030240339692682,-0.8331352472305298,0.5527724027633667,0.0074583665491743,-0.0178275645372546,1.0904196818098564,-0.0093022938817739,-0.0489469431340694,-0.8546063899993896,0.1443112648744136,-0.3612654682248831,-7.214483537077903,15012.0
43.91,2.799999952316284,217.0,23.75015068054199,22.654603958129893,-79.7827963222153,40.45895697255653,347.5233823852539,0.0180587116628885,-0.0013407396618276,-0.8070812821388245,0.5901627540588379,0.002749220241806,-0.0328864858997875,0.9152026998157908,0.0566002205014228,-0.0321035645902156,-1.0368465185165403,0.2228979437425732,-0.3661261855065823,-7.811060332059863,15012.0
44.1,2.700000047683716,220.0,23.632457733154297,22.217256546020508,-79.78279646408411,40.45895698015612,347.67883892822266,0.016320938244462,0.0002495944791007,-0.7334533333778381,0.6795438528060913,-0.0296647914982933,-0.0462507743322645,0.6663381537653028,-0.0903113707900047,-0.0441701970994472,-1.4565443992614746,0.2071077571436763,-0.1613198924437165,-8.646591780781746,15012.0
44.21,2.5999999046325684,222.0,23.70382308959961,20.96087646484375,-79.78279648807161,40.45895707783941,347.71812268066407,0.0153585448861122,-6.457923882408068e-05,-0.6862989068031311,0.7271575331687927,-0.0118796454152478,-0.0424177637047506,0.5925105553259464,0.0294953826814889,-0.0169822685420513,-1.2847875356674194,0.1984662667661905,-0.1988654305972159,-8.909145796895027,15012.0
44.4,2.5999999046325684,205.0,23.71008491516113,20.261119842529297,-79.78279659897626,40.458957183196354,347.78513928222657,0.0167191829532384,-6.51487207505852e-05,-0.603018581867218,0.7975519299507141,-0.00208223741905,-0.0182631907672201,0.4845911610101822,0.0049119582399725,-0.0267465021461248,-0.8818264603614807,0.4359533790126443,-0.129726034104824,-9.291163106560708,15012.0
44.5,2.5999999046325684,197.0,23.62494468688965,26.9167537689209,-79.7827966224325,40.45895716054364,347.83183880615235,0.0191762968897819,0.000968778214883,-0.5716739892959595,0.8202561736106873,0.0151872964457129,-0.0044528656771879,0.4508718095286359,0.0389842092990875,0.0190249271690845,-0.62617427110672,0.3701248770207167,0.0093600949086248,-9.358404332399369,15012.0
44.6,2.5,203.0,23.54481315612793,23.664478302001957,-79.78279653989541,40.45895721842125,347.8696958618164,0.0281143989413976,0.0090337637811899,-0.5357481837272644,0.8438613414764404,0.0991618035679327,0.0413897386756397,0.4443348835562183,0.2490269094705581,-0.133556067943573,-0.1017927676439285,0.6443520551919938,-0.012685004454106,-9.893484206199648,15012.0
44.8,2.5,206.0,23.68253898620605,21.87532997131348,-79.78279647079444,40.45895716452325,347.91332836914063,0.0191763211041688,0.0246491115540266,-0.5290490984916687,0.8480164408683777,0.1241550363925031,0.1040259830946856,0.4538926722272166,0.1296655982732772,-0.5230705738067627,-0.0471344701945781,0.8160740346461535,-0.0163873517699539,-9.877743501663211,15012.0
45.0,2.400000095367432,200.0,23.5786190032959,23.354360580444336,-79.78279571245369,40.45895709057479,348.0117780761719,-0.0340773910284042,0.0531491599977016,-0.5286305546760559,0.8465008735656738,0.1858812869864424,0.2491766766192413,0.5302117501108717,-0.1475017368793487,-0.5719730854034424,0.0796034038066864,0.4198896889016032,-0.0587887010257691,-9.853072929382323,15013.0
45.1,2.400000095367432,194.0,23.74138641357422,21.52545166015625,-79.78279521098119,40.45895702986089,348.0620710449219,-0.0559784658253192,0.0609544180333614,-0.5327318906784058,0.8422279357910156,0.2490099979085869,0.3721652154067393,0.5628935284085722,-0.009835135191679,-0.3174729645252228,0.2400464564561844,0.2183607236668467,-0.1908219093829393,-9.908945413827896,15013.0
45.3,2.299999952316284,200.0,23.728864669799805,21.565210342407227,-79.78279411209951,40.458957408769066,348.041708190918,-0.0802504122257232,0.0629478096961975,-0.5433889031410217,0.8332623839378357,0.2450722268234123,0.7326314744790227,0.5843729025298706,-0.1000381037592888,-0.1549443006515503,0.1607823669910431,0.2656221598014236,-0.0832996260467916,-9.884355533123015,15013.0
45.4,2.299999952316284,202.0,23.450910568237305,24.53122329711914,-79.78279183309286,40.45895796744425,348.04611798095704,-0.0916631370782852,0.0622402988374233,-0.5523406863212585,0.8262227177619934,0.2132987247043781,1.1719513144793798,0.6033472730971212,-0.0482904836535453,-0.1081305295228958,0.125405341386795,0.3204073179513216,0.0915077555179596,-9.746052510738371,15013.0
45.6,2.200000047683716,199.0,23.54105758666992,23.8076114654541,-79.78279021731741,40.45895828373301,348.0805112915039,-0.0953543335199356,0.0639551058411598,-0.5551594495773315,0.8237810730934143,0.1991649949947415,1.4176892676590365,0.6805084423891146,0.0240894947201013,-0.0544203259050846,0.0481413751840591,0.2493405512720347,-0.119424994289875,-10.150855250358582,15013.0
45.71,2.0999999046325684,198.0,23.53104019165039,22.81363868713379,-79.78278851125455,40.4589589272917,348.0461256103516,-0.0968250185251236,0.0664921253919601,-0.5561383962631226,0.8227477669715881,0.1455342158930931,1.6391046721418254,0.7457484663493331,0.0072420630604028,-0.1275493651628494,0.0081558590754866,0.2955976733006537,-0.0971209180913865,-10.30840145945549,15013.0
45.81,2.0,191.0,23.490976333618164,24.777727127075195,-79.78278412817178,40.458960371492296,348.0416700439453,-0.0973234251141548,0.0753983706235885,-0.5550715923309326,0.8226413130760193,0.0855039289720673,2.1288257910963324,0.8628606233031774,-0.0895838737487793,-0.1348766982555389,-0.2006050944328308,0.2099979627504944,0.117293720729649,-10.15948574066162,15013.0
46.0,1.8999999761581416,186.0,23.39206314086914,26.02615547180176,-79.78278145042245,40.458961088834144,348.07578106689454,-0.0991969779133796,0.0794275924563407,-0.5533432960510254,0.8232026100158691,0.1077420888503535,2.377253556458267,0.9648370921949192,0.1215007379651069,-0.0295442845672369,-0.0094636213034391,0.2173233545199036,-0.0898100164532661,-10.372199259996414,15013.0
46.1,1.8999999761581416,169.0,23.54982185363769,21.87532997131348,-79.78277540534046,40.45896312067933,348.0850278930664,-0.1005375385284423,0.0811277031898498,-0.5467455387115479,0.8272725939750671,0.1008798280331145,2.8576201379130435,1.1627416325226143,-0.058724969625473,-0.0496434159576892,-0.0426476299762725,-0.0081668335106223,-0.2022202705778181,-10.393086683750154,15013.0
46.31,1.8999999761581416,158.0,23.40834045410156,25.93073463439941,-79.78276805551582,40.45896517439247,348.16023083496094,-0.0980729311704635,0.0835112705826759,-0.5411075949668884,0.8310296535491943,0.1959673472421748,3.3541589365948714,1.2783816247802575,0.052373819053173,0.0675956755876541,-0.0933010503649711,0.0309003260289318,-0.0596844213735312,-10.070714482069016,15013.0
46.4,2.0,139.0,23.4033317565918,26.15338516235352,-79.78276442835642,40.458966839724006,348.1220914916992,-0.0964462459087371,0.0835563912987709,-0.5370959043502808,0.8338133096694946,0.1633318758918654,3.5764929850205056,1.3328077434456405,-0.0368750318884849,0.0728576108813285,-0.1164209172129631,-0.0724340604012832,0.045969164930284,-10.351212433576585,15013.0
46.61,2.0,129.0,23.553577423095703,23.91098403930664,-79.78276009941715,40.45896809296623,348.16084118652344,-0.0940080359578132,0.0838017836213111,-0.5356112718582153,0.8350211977958679,0.2251125143511019,3.813654640928911,1.4060004491348963,-0.0574555695056915,-0.019592061638832,-0.1087233796715736,-0.1320441079325974,-0.1090212901588529,-10.281330020427704,15013.0
46.8,2.200000047683716,111.0,23.49222755432129,24.22110366821289,-79.78275145663879,40.458971675256215,348.13735791015625,-0.0891954451799392,0.0885932072997093,-0.5334933400154114,0.8364092111587524,0.2452182224185685,4.2445038744572505,1.4227919247181997,0.0666421800851821,-0.0268995482474565,0.0822056755423545,-0.2462933479249477,-0.3255546218901873,-9.889750174283982,15013.0
46.91,2.400000095367432,103.0,23.529788970947266,24.28471755981445,-79.78274745169479,40.45897437319768,348.0554334716797,-0.0893404260277748,0.0900007560849189,-0.5311121344566345,0.8377578258514404,0.1566848136402155,4.452450155612754,1.393361174400085,0.1550795584917068,0.052706055343151,-0.0207530297338962,-0.1764703753776848,-0.2499574690684677,-9.911194252967835,15013.0
47.1,2.799999952316284,91.0,23.685043334960927,20.36449241638184,-79.78273681390455,40.45897771501106,348.1070692138672,-0.0902008265256881,0.0909749493002891,-0.5334375500679016,0.8360811471939087,0.2084312492196348,4.86311892773347,1.5303841613196505,-0.0172484572976827,-0.0209915563464164,0.0137124843895435,-0.4460270352289081,-0.0134671563422307,-10.069240983724594,15013.0
47.21,3.0,87.0,23.450910568237305,25.453628540039062,-79.78273207189831,40.45898067859795,348.0304395751953,-0.0907903388142585,0.0915523916482925,-0.5311648845672607,0.8374003171920776,0.1229600412477785,5.067839856666415,1.533502670751251,-0.0012300885282456,-0.0919394791126251,-0.0761506408452987,-0.3056496034562588,-0.2585554159618914,-9.944235699176788,15013.0
47.4,3.400000095367432,79.0,23.490976333618164,25.54904937744141,-79.78272152423669,40.458986312004754,347.94797344970704,-0.0896966382861137,0.0951916426420211,-0.5284791588783264,0.8388104438781738,0.0309996609702553,5.457871075453502,1.5841723220949908,-0.0104648033156991,0.011195826344192,-0.079112060368061,-0.4641153968498111,-0.2135905651375652,-9.930949655771256,15012.0
