time,wind_speed,wind_angle,battery_voltage,battery_current,position_x,position_y,position_z,orientation_x,orientation_y,orientation_z,orientation_w,velocity_x,velocity_y,velocity_z,angular_x,angular_y,angular_z,linear_acceleration_x,linear_acceleration_y,linear_acceleration_z,node_ids
0.0,0.8000000119209291,70.0,22.99140739440918,0.055662415921688,-79.78277805881817,40.458958723053385,270.48407371759413,0.0075677274726331,0.004382595885545,-0.7757633328437805,0.6309633851051331,-0.0041794777896875,-0.0143632662016982,0.0041406143778084,0.0015519738662987,-0.0013351901434361,0.002106801373884,0.0054988066811347,-0.1920522366464138,-9.809238692522053,14935.0
0.1,0.8000000119209291,71.0,22.98264312744141,0.055662415921688,-79.78277816733741,40.45895876301151,270.48062940359114,0.0075889793224632,0.0043561705388128,-0.7757603526115417,0.6309670805931091,-0.0051205208263856,-0.017803599895116,0.006504486228693,-0.0047862636856734,-0.0018450948409736,-0.0032018050551414,0.0041904707657522,-0.186411866247654,-9.807515518069268,14935.0
0.29,0.8999999761581421,70.0,22.99140739440918,0.055662415921688,-79.78277818720764,40.4589587705264,270.48128797531126,0.007592424750328,0.0043629864230751,-0.77576744556427,0.6309581398963928,-0.0056853689751716,-0.0201018353482546,0.0065851243568423,0.0058860220015048,0.0013858722522854,0.0034308247268199,0.0054566319251898,-0.185227695442736,-9.80800726890564,14935.0
0.4,0.8000000119209291,69.0,22.99140739440918,0.055662415921688,-79.7827782957889,40.45895879888107,270.478120405674,0.0076071373187005,0.0043534659780561,-0.7757719159126282,0.6309526562690735,-0.0034248270074804,-0.0218559287986482,0.0075314459857387,0.0056347353383898,0.0009637182229198,0.004906200338155,0.0056952685589203,-0.1889529199898243,-9.80736407518387,14935.0
0.59,0.8999999761581421,70.0,22.9788875579834,0.0,-79.78277831143454,40.45895885319628,270.47468723773954,0.0075788404792547,0.0043793036602437,-0.7757736444473267,0.6309506893157959,-0.0102055095839349,-0.009043096345576,0.0082538496691567,-0.0058534336276352,-0.0010508064879104,-0.007560406345874,0.0043825663608731,-0.1775016232207417,-9.80670100092888,14935.0
0.69,0.8999999761581421,70.0,22.988903045654297,0.055662415921688,-79.78277832086648,40.45895886407162,270.4755231928825,0.0075815748423337,0.0043641128577291,-0.775780975818634,0.6309417486190796,-0.0104577405555721,-0.0114663772235134,0.0082022029838399,0.0050585754215717,0.0033432822674512,0.0058041298761963,0.0067981824808521,-0.1914431029558181,-9.808504866957666,14935.0
0.89,0.8000000119209291,71.0,22.993911743164062,0.0636141896247863,-79.78277842301361,40.45895887784818,270.4725802731514,0.0076001798734068,0.0043559670448303,-0.775766909122467,0.6309587955474854,-0.0015728499239255,-0.014132177798543,0.0088961938302444,0.0071472306735813,0.0022085406817495,0.0054593975655734,0.007043153407867,-0.1937452979385853,-9.808540534973147,14935.0
1.0,0.8000000119209291,70.0,22.993911743164062,0.0954212844371795,-79.78277850296622,40.45895893982496,270.4680176568031,0.0075867916457355,0.0043664644472301,-0.7757605314254761,0.6309667825698853,-0.0075684012278758,-0.0141499525751501,0.005356019021246,0.0041315173730254,-0.0002328287373529,0.0044092312455177,0.0063735952530987,-0.1937078392133117,-9.809570229649545,14935.0
1.19,0.8000000119209291,68.0,22.99140739440918,0.0715659633278846,-79.78277851850294,40.4589589501218,270.46858038425444,0.0076098227873444,0.004363730084151,-0.7757624983787537,0.6309640407562256,-0.0095745288290613,-0.0163007893770497,0.0056311073221119,-0.0013369444059208,0.0002040832623606,-0.0055586397647857,0.0031041654487489,-0.1740301678329706,-9.805808715820312,14935.0
1.29,0.8000000119209291,64.0,22.993911743164062,0.0715659633278846,-79.7827786033105,40.45895899988816,270.46565951824186,0.0076244887895882,0.0043674572370946,-0.775755763053894,0.6309722065925598,-0.0077787693297796,-0.0168969623936343,0.0042152320560773,5.779086131951773e-05,0.0010698684491217,-0.0029856166802346,0.005046835183748,-0.1921909983828664,-9.808111349344252,14935.0
1.49,0.8000000119209291,64.0,22.99140739440918,0.0636141896247863,-79.78277862126792,40.4589590098832,270.4660970163345,0.0076223476789891,0.0043602506630122,-0.7757501006126404,0.6309792399406433,-0.0091241666893805,-0.0190421518585399,0.0043156820009858,-0.0014463341794908,0.0009531721589155,0.0027366529684513,0.003840282219462,-0.1906754183582961,-9.807500315308571,14935.0
1.59,0.8000000119209291,63.0,22.990154266357425,0.0477106422185897,-79.78277871770679,40.45895906842049,270.466228146553,0.007653207052499,0.0043616783805191,-0.7757518887519836,0.630976676940918,-0.0079641400813463,-0.0206119822741005,0.0068171694618555,-0.0032882657833397,-0.0037767945323139,0.0004477229667827,0.0039524439783417,-0.1785801056027412,-9.806988099217415,14935.0
1.79,0.8000000119209291,63.0,22.988903045654297,0.0,-79.78277873992448,40.45895907892586,270.46691735506056,0.0076618739403784,0.0043544685468077,-0.7757629752159119,0.6309629678726196,-0.008706805271916,-0.0229635359390636,0.0068161235140597,0.0017284121131524,0.0021787618752568,0.0013774263206869,0.0031134807370835,-0.1813449067063629,-9.80628643333912,14935.0
1.89,0.8999999761581421,63.0,22.990154266357425,0.0636141896247863,-79.78277881886783,40.45895912092437,270.4669974040985,0.0076704178936779,0.0043550315313041,-0.7757701277732849,0.6309540271759033,-0.0056566661406622,-0.0205247274418135,0.0080681475890474,0.004866296891123,-0.0003680399095173,0.0036580290179699,0.0040725069015752,-0.1824431599862872,-9.807148897647858,14935.0
2.09,0.8000000119209291,61.0,22.992658615112305,0.0636141896247863,-79.78277887749171,40.4589591583746,270.4657872509956,0.0076629864051938,0.0043627498671412,-0.7757676839828491,0.6309570670127869,-0.0025483294596709,-0.0155660803484451,0.0088347918282019,-0.0040018269792199,0.0001320183800999,-0.0001090619989554,0.0047077503515174,-0.1863547097146511,-9.807905527353286,14935.0
2.2,0.8000000119209291,61.0,22.990154266357425,0.0636141896247863,-79.78277889626114,40.45895916380347,270.46667148590086,0.0076590245589613,0.0043551214039325,-0.77577143907547,0.6309525966644287,-0.0031279452028844,-0.0179869904650732,0.0088510055141995,0.0056886989623308,0.0042329733259975,0.0014886945718899,0.005316430083476,-0.1838527957722544,-9.807236605882643,14935.0
2.39,0.8000000119209291,62.0,22.993911743164062,0.0636141896247863,-79.78277897676134,40.45895922489189,270.4666445446014,0.0076646790839731,0.0043480065651237,-0.7757586836814879,0.6309682130813599,-0.0048187955415761,-0.0174069212102903,0.0094612166700032,0.0037495661526918,0.0019059275509789,0.003597664181143,0.0051141301263123,-0.1847470908612013,-9.80794821202755,14935.0
2.5,0.8000000119209291,63.0,22.993911743164062,0.0795177370309829,-79.78277906057667,40.45895927194342,270.4682147693634,0.0076780538074672,0.0043532154522836,-0.7757614850997925,0.6309646368026733,-0.0028649960102785,-0.015817844425119,0.0129163938720208,0.0060888538137078,0.0022146480623632,0.0064977160654962,0.0048657616472337,-0.1842386023700237,-9.80686179935932,14935.0
2.69,0.8999999761581421,62.0,22.990154266357425,0.055662415921688,-79.78277907931762,40.45895927835203,270.46951993227003,0.0076870275661349,0.0043412926606833,-0.7757589221000671,0.6309676170349121,-0.0050616141493748,-0.0181328360861268,0.0131865447685163,-0.0048158750869333,-0.0039834449999034,-0.0068123717792332,0.00476252974011,-0.1844049556553364,-9.807469325065613,14935.0
2.8,0.8999999761581421,65.0,22.99140739440918,0.0636141896247863,-79.782779137324,40.45895933994314,270.4696976137161,0.0076766079291701,0.0043713031336665,-0.7757517695426941,0.6309764385223389,-0.007066298439077,-0.0140221306056785,0.0121722402170193,0.0006994049763306,-0.0028898208402097,0.0024787224829196,0.0043941443046787,-0.1831166861392557,-9.806637266278267,14935.0
2.99,0.8999999761581421,65.0,22.98264312744141,0.055662415921688,-79.78277915239146,40.4589593486871,270.47093101263044,0.0076792403124272,0.0043884883634746,-0.7757523655891418,0.6309755444526672,-0.0078621040036546,-0.0163838893654682,0.0123236101084899,0.0040399152785539,0.0010500831995159,-0.0024203818757086,0.0033622095279861,-0.1780393477901816,-9.806208665370944,14935.0
3.1,0.8999999761581421,65.0,22.988903045654297,0.055662415921688,-79.78277920024065,40.45895937221368,270.47333087444304,0.007698907982558,0.0043896958231925,-0.7757518887519836,0.6309759020805359,-0.0025657961961805,-0.0115023262853651,0.0152471454456349,-0.0007798752048984,-0.0018126359209418,-0.0065347775816917,0.0032177062140544,-0.1746858051605522,-9.806166565418245,14935.0
3.29,0.8999999761581421,65.0,22.993911743164062,0.055662415921688,-79.78277921334012,40.45895937626735,270.47486295223234,0.0076891481876373,0.0044010654091835,-0.7757431864738464,0.6309865713119507,-0.0031651848763464,-0.0137751131456784,0.0153171568504958,0.0044156108051538,0.0021244757808744,0.0032787285745143,0.0062255898909643,-0.1929303788021207,-9.808547551631928,14935.0
3.4,0.8999999761581421,64.0,22.98389434814453,0.0477106422185897,-79.78277928867428,40.45895941911826,270.47540410280226,0.0076851649209856,0.0044080065563321,-0.7757365703582764,0.6309947371482849,-0.0024145442466112,-0.0150181190785228,0.0140614445444537,0.0050634918734431,0.0014699682360514,0.0090454751625657,0.0048400070605566,-0.1905893363803624,-9.808031827211382,14935.0
3.59,0.8000000119209291,64.0,22.990154266357425,0.055662415921688,-79.78277934646913,40.45895947222024,270.4724277448654,0.0076695503666996,0.0043850396759808,-0.7757191061973572,0.6310165524482727,-0.0040588178827083,-0.0126600645007266,0.00929389900841,-0.0042994664981961,-0.0022717537358403,-0.0039104111492633,0.0050910347665194,-0.182383152935654,-9.80869139313698,14935.0
3.69,0.8999999761581421,64.0,22.98765182495117,0.0397588685154914,-79.78277936152078,40.45895947833309,270.4733598423004,0.0076690446585416,0.004373871255666,-0.7757120132446289,0.6310252547264099,-0.0045050847206049,-0.0150102016719019,0.0093047364229556,0.0015152271371334,0.0038532840553671,-0.0006446812185458,0.0064983128226595,-0.1842257019504904,-9.808090299367905,14935.0
3.9,0.8999999761581421,67.0,23.00142288208008,0.1192766055464744,-79.78277943771259,40.45895954070694,270.473668653965,0.0076686423271894,0.0044102128595113,-0.7756921648979187,0.6310494542121887,-0.0061927041599682,-0.0150220804701413,0.0095601289978047,0.0015878500416874,0.0021094540134072,-0.0003449956420809,0.0029500476334942,-0.1791791711188853,-9.806593412160874,14935.0
3.99,0.8999999761581421,67.0,22.992658615112305,0.055662415921688,-79.7827795141957,40.458959568983104,270.47711934566496,0.0076696402393281,0.0044427835382521,-0.7756955623626709,0.6310451030731201,7.853920423780931e-05,-0.013057731268242,0.0135063390267276,-0.0011241828324273,0.0043794666416943,-0.0020019421353936,0.003395742510329,-0.1761015622504055,-9.806537278890607,14935.0
4.19,0.8000000119209291,66.0,22.98765182495117,0.0636141896247863,-79.7827795305249,40.45895957189696,270.47847141742704,0.0076764272525906,0.0044402466155588,-0.7756800055503845,0.6310641765594482,-0.0011684037346184,-0.0153577217589409,0.0135990086624182,0.0019427320221439,0.000167814476299,0.0024764626286923,0.0043336938592256,-0.1921940681710839,-9.80838499903679,14935.0
4.29,0.8000000119209291,65.0,22.988903045654297,0.0636141896247863,-79.78277962546187,40.45895961410723,270.4803410363197,0.0076929223723709,0.0044732317328453,-0.7756586670875549,0.631089985370636,0.000743915454508,-0.0174780521743721,0.0128129480633076,-0.0017211303347721,-0.0004982081009075,0.003233651863411,0.0030397841212106,-0.1763422665372491,-9.80648933172226,14935.0
4.49,0.8000000119209291,64.0,22.988903045654297,0.0636141896247863,-79.78277968244018,40.458959657368105,270.48388566493986,0.0076918662525713,0.004476886242628,-0.7756652235984802,0.6310818195343018,0.0007564806810517,-0.0116053953802443,0.0155157406731047,6.706541898893192e-05,-0.0013871229020878,0.0031985729001462,0.0037472475366666,-0.1770837117545306,-9.805751997828486,14935.0
4.6,0.8000000119209291,63.0,22.98514747619629,0.1908425688743592,-79.78277969741771,40.45895965915661,270.4854375910759,0.0077067227102816,0.004456509836018,-0.7756712436676025,0.6310744881629944,-1.0811952190811186e-05,-0.0140099609270146,0.0156251274147512,0.0012844781158491,0.0013299860293045,-0.001157954451628,0.0030428062294959,-0.1781581376306712,-9.806380573511122,14935.0
4.79,0.8000000119209291,63.0,22.990154266357425,0.055662415921688,-79.78277971368786,40.45895966172814,270.4870088291168,0.0077004982158541,0.0044367080554366,-0.7756514549255371,0.6310990452766418,-0.0015564904816483,-0.0160923052056391,0.0158330509702308,-0.0017612422816455,0.0007327645434997,0.0016794202383607,0.0042555053369142,-0.1887156143970788,-9.807588023543358,14935.0
4.89,0.8000000119209291,65.0,22.98514747619629,0.1431319266557693,-79.78277976669716,40.45895970927536,270.488734562397,0.0077149793505668,0.0044431807473301,-0.7756449580192566,0.6311067342758179,-0.0018632605994682,-0.0128219353519856,0.0141113546235432,-0.0065311333164572,-0.0008223192999139,-0.001656154054217,0.0034470775234512,-0.1862927475012838,-9.806624987125398,14935.0
5.1,0.699999988079071,64.0,22.988903045654297,0.1510837078094482,-79.78277980487933,40.4589597367131,270.48916633844374,0.0077205332927405,0.004460597410798,-0.7756562829017639,0.6310925483703613,0.0035393218389419,-0.0069897958368364,0.0129176865533887,0.0034937080927193,0.0005976386019028,0.0027405258733779,0.0046742070908658,-0.1851289140433073,-9.807595624923708,14935.0
5.19,0.699999988079071,62.0,22.98514747619629,0.1669872552156448,-79.78277981495464,40.45895973578422,270.4904596400261,0.0077329888008534,0.0044519291259348,-0.7756434082984924,0.6311083436012268,0.0014973722045537,-0.0091957637520624,0.0131070467431117,-0.0058511365205049,-0.0046165836974978,-0.0059968847781419,0.0047540198714705,-0.1823140278831124,-9.807103874087334,14935.0
5.39,0.699999988079071,62.0,22.98389434814453,0.1749390214681625,-79.78277990463349,40.458959795455705,270.4898617458344,0.0077328388579189,0.0044566625729203,-0.7756164669990541,0.6311414241790771,-0.0010490227634124,-0.0142001451403987,0.008015025376472,-0.0052623404189944,-0.0022548914421349,-0.0060143591836094,0.0040082463441649,-0.1792535952106118,-9.806351922154429,14935.0
5.49,0.699999988079071,61.0,22.98264312744141,0.2067461162805557,-79.78277998230736,40.4589598494337,270.4921492528915,0.0077380072325468,0.0044863792136311,-0.7756020426750183,0.6311588883399963,-0.000439377387503,-0.0140238947259203,0.009108907263834,-0.0062471549026668,-0.0023710674140602,-0.0050649121403694,0.0039554463865351,-0.1755545734986663,-9.807597963809966,14935.0
5.69,0.699999988079071,61.0,22.973878860473643,0.1033730581402778,-79.78277999988845,40.45895985245114,270.4930504751205,0.0077381660230457,0.0044653653167188,-0.7756050825119019,0.6311553120613098,-0.0004052296158474,-0.016479178700679,0.0090152761076412,0.0067774783819913,0.0006648542475886,0.0098428968340158,0.0060661127942148,-0.1927596766501664,-9.807415530681611,14935.0
5.8,0.699999988079071,61.0,22.980138778686523,0.1510837078094482,-79.78278003986469,40.45895993498093,270.4957642149925,0.0077039455063641,0.0044599911198019,-0.775620698928833,0.6311365962028503,-0.0075295237090767,-0.01149360879823,0.0094892718487113,0.0051119080744683,0.0031709682662039,0.0063929338939487,0.004416932457243,-0.1724442750401795,-9.80668989121914,14935.0
5.99,0.699999988079071,60.0,22.98765182495117,0.1828908026218414,-79.78278005171579,40.45895994427775,270.4967398238182,0.0077189560979604,0.0044645350426435,-0.7756249308586121,0.6311312317848206,-0.0094184268440908,-0.0136714028123165,0.009776671675107,-0.0019183155382052,0.0006803762516938,-0.005539605859667,0.002981444155157,-0.1736354807764291,-9.806112186312676,14935.0
6.09,0.699999988079071,60.0,22.98639869689941,0.1351801604032516,-79.78278012908291,40.45895996006613,270.4975352478027,0.0077378577552735,0.0044814832508564,-0.77562016248703,0.6311367154121399,0.0008171236860639,-0.012608034519142,0.0069491533669841,-0.0006685623084194,-0.0007813776610419,-0.0036011249758303,0.0057930369739187,-0.1926767010055482,-9.8092310911417,14935.0
6.29,0.699999988079071,60.0,22.98264312744141,0.1272283792495727,-79.7827801441978,40.458959961710455,270.4982318472862,0.0077103534713387,0.0044814753346145,-0.7756163477897644,0.6311416029930115,-0.0004020349873137,-0.0147338242769595,0.0070604351162429,0.000120765347674,-0.000919077778235,0.0013776792911812,0.0041650536502129,-0.1901750246062875,-9.807765194177628,14935.0
6.39,0.8000000119209291,60.0,22.97638320922852,0.1113248318433761,-79.78278020147194,40.45896001355479,270.5035830926895,0.0077219540253281,0.0044966861605644,-0.775598406791687,0.631163477897644,-0.0014034044271419,-0.0128663362154641,0.0109203496363409,-0.0035853560548275,9.251083247363567e-05,-0.0032607116736471,0.0053526348550803,-0.185476622376591,-9.80728747665882,14935.0
6.6,0.8000000119209291,59.0,22.98264312744141,0.1272283792495727,-79.78278029888426,40.45896005866785,270.50674845695494,0.0077384072355926,0.0044837608002126,-0.7755987644195557,0.6311629414558411,0.0043017653942447,-0.0180514073973082,0.0108030534563334,0.0029560474213212,0.0027306957636028,0.0040938290767371,0.0049053068691864,-0.1852652820758521,-9.80709217965603,14935.0
6.7,0.8000000119209291,58.0,22.98264312744141,0.0874695107340812,-79.78278032186509,40.45896005915616,270.50783087730406,0.0077372132800519,0.0044616269879043,-0.7755864858627319,0.6311782002449036,0.0021803989227374,-0.020227782261403,0.0110812518187983,-0.0059347623027861,-0.0024745101109147,-0.0047081736847758,0.0039270465628942,-0.181502032354474,-9.806884603500368,14935.0
6.89,0.8000000119209291,57.0,22.98264312744141,0.1351801604032516,-79.7827803613192,40.458960114958025,270.5127962422371,0.0077519575133919,0.0044803996570408,-0.7755602598190308,0.6312101483345032,0.0004398700091483,-0.011189862277072,0.0113461324085217,-0.0068172207102179,-0.0041921972297132,-0.0093775335699319,0.0041209628462092,-0.1766445310413837,-9.807159422636031,14935.0
6.99,0.8999999761581421,57.0,22.98639869689941,0.1351801604032516,-79.7827804343586,40.45896017713642,270.5184918832779,0.0077654859051108,0.0045071905478835,-0.7755729556083679,0.6311941146850586,0.001164831061146,-0.0111015319964808,0.011529120510903,-0.0055529540404677,-0.0014967056922614,-0.0083476332947611,0.0033624133811099,-0.1744853187538683,-9.806552481651304,14935.0
7.19,0.8999999761581421,57.0,22.98264312744141,0.1510837078094482,-79.78278044895596,40.45896017816849,270.51963575601576,0.0077624218538403,0.0044917934574186,-0.7755677103996277,0.6312006711959839,0.0011649426310907,-0.0135715543976412,0.0114531974443123,0.0053440732881426,0.0012933114776387,0.0055048023350536,0.0066926242498448,-0.1941630997695028,-9.808566262722016,14935.0
7.3,0.8999999761581421,57.0,22.98264312744141,0.1272283792495727,-79.78278050932663,40.4589602424774,270.52570303201674,0.0077593503519892,0.0045153279788792,-0.7755714058876038,0.6311960220336914,0.000454747169091,-0.0117897463582236,0.0115038449544087,0.0033532059751451,0.003029653802514,0.0051286006346344,0.0041301847732393,-0.172900522314012,-9.804819951653483,14935.0
7.49,0.8999999761581421,58.0,22.988903045654297,0.1431319266557693,-79.78278052322827,40.45896024457959,270.5268629980087,0.0077571170404553,0.0045090243220329,-0.7755731344223022,0.6311939358711243,-0.0010820721092115,-0.0138688515906966,0.0118116703151645,0.0021687604021281,-0.0005086705787107,-0.0050847870297729,0.003286528341996,-0.1743443643115461,-9.807214386463167,14935.0
7.59,0.8999999761581421,58.0,22.98765182495117,0.1431319266557693,-79.78278059939022,40.45896031101933,270.533455927372,0.0077566700056195,0.0045017814263701,-0.7755563259124756,0.6312147378921509,-0.0004968668063259,-0.0143154220295778,0.0119252415963989,-4.721746881841682e-05,-0.0003015740658156,-0.0019870013929903,0.0035640403945581,-0.1769610115885734,-9.8054707467556,14935.0
7.79,0.8999999761581421,58.0,22.98639869689941,0.1192766055464744,-79.78278061592215,40.45896031384515,270.5346516561508,0.0077691711485385,0.0045065567828714,-0.7755486369132996,0.6312239766120911,-0.0015193968857665,-0.0163654268704488,0.0120369677805798,-0.0033166725188493,0.0022936852183192,0.0024493755772709,0.0046870932349702,-0.1894145942106843,-9.807484527826311,14935.0
7.9,0.8999999761581421,60.0,22.98264312744141,0.0715659633278846,-79.7827806838004,40.45896042343893,270.5413885903358,0.00776989152655,0.0045170146040618,-0.7755456566810608,0.6312276124954224,-0.0082569792960231,-0.0165843269491016,0.012010912033437,-0.001069561112672,-0.005381072871387,-0.0010293419472873,0.0043320176383713,-0.1875634570978582,-9.807979786992073,14935.0
8.09,0.8999999761581421,60.0,22.990154266357425,0.0715659633278846,-79.78278076006953,40.45896048274566,270.54749055624006,0.007790068630129,0.0045187626965343,-0.7755522131919861,0.631219208240509,-0.0013748449297589,-0.0162870090067802,0.0117713728242006,0.0060449289157986,0.0003425254835747,0.0028652735054492,0.0042106322394101,-0.1847241039946675,-9.806142007112504,14935.0
8.2,0.8000000119209291,61.0,22.98765182495117,0.0715659633278846,-79.78278077961298,40.458960487771456,270.5486721587181,0.0077988118864595,0.0045229671522974,-0.7755473852157593,0.6312249898910522,-0.0032298687047798,-0.0183395529107185,0.011900816859232,-0.0065383487381041,-0.0013839363818988,-0.0036662912461906,0.006064596172655,-0.1833244632929564,-9.80603909611702,14935.0
8.39,0.8000000119209291,60.0,22.98765182495117,0.055662415921688,-79.7827808648819,40.4589605656244,270.554937441349,0.0078360354527831,0.0045214374549686,-0.7755484580993652,0.6312233209609985,-0.0028053306587769,-0.0186669870422787,0.0098182423941294,-0.0031977796461433,-0.0023910482414066,-0.0038261460140347,0.0044865665715769,-0.1807175187394023,-9.806710941195488,14935.0
8.49,0.8000000119209291,59.0,22.992658615112305,0.0636141896247863,-79.78278088639756,40.4589605711187,270.5559179973602,0.0078478036448359,0.0045031891204416,-0.7755417227745056,0.631231427192688,-0.0025507498526807,-0.0210949116518443,0.0097480534215877,0.0060740071348845,0.0019744485616683,0.0075416774488985,0.0055029579758411,-0.1901396854966879,-9.807217310070993,14935.0
8.69,0.8000000119209291,59.0,22.98514747619629,0.055662415921688,-79.78278092981783,40.45896065993824,270.5638271164894,0.0078492797911167,0.0045080850832164,-0.7755309939384459,0.6312445998191833,-0.0046027362499635,-0.0151504778646397,0.0105073254770475,0.0053477073088288,0.0033006269950419,0.007749403361231,0.0060912369779543,-0.1910977152362466,-9.8088744109869,14935.0
8.8,0.699999988079071,57.0,22.99140739440918,0.0715659633278846,-79.7827809975917,40.458960753114,270.57449748039244,0.007850918918848,0.0045350235886871,-0.7755293846130371,0.6312465071678162,-0.0051263195436449,-0.0143202317786899,0.0150381993098639,0.0062717925757169,0.0042602722533047,0.0052677565254271,0.0042537226213607,-0.1754782856069505,-9.807079315781596,14935.0
8.99,0.699999988079071,59.0,22.993911743164062,0.0636141896247863,-79.78278101330147,40.45896076075483,270.5760217499733,0.0078565143048763,0.0045293476432561,-0.7755313515663147,0.631243884563446,-0.0070326754449309,-0.0164732276699864,0.0153392418705204,-0.0010769977234303,-0.001652087084949,-0.01049973256886,0.0046945181710179,-0.1742811412923038,-9.806318593025209,14935.0
9.09,0.699999988079071,57.0,22.988903045654297,0.0715659633278846,-79.78278111778215,40.45896082415428,270.5831898641586,0.0078574055805802,0.0045401006937026,-0.7755120992660522,0.6312674880027771,-6.677222961432993e-05,-0.0183216403583385,0.0109165708322704,-0.0048292824067175,-0.0020648101344704,-0.0064339321106672,0.0035097783475066,-0.1745209136791527,-9.805036298632624,14935.0
9.29,0.699999988079071,56.0,22.990154266357425,0.0715659633278846,-79.78278113969064,40.4589608269517,270.5842772912979,0.0078567741438746,0.0045640813186764,-0.7755172252655029,0.6312611103057861,0.0003105809580431,-0.0207455992210816,0.010937897202427,0.0034218153450638,8.106452150968836e-05,0.006970930378884,0.0071602136373985,-0.192235674764961,-9.808027734160424,14935.0
9.4,0.699999988079071,56.0,22.990154266357425,0.055662415921688,-79.78278118084567,40.45896092109954,270.5922895860672,0.007859724573791,0.0045747938565909,-0.7755120396614075,0.6312673687934875,-0.0029138983779339,-0.0147388082054912,0.0113067406618945,-0.005857088137418,-0.0002008225274039,-0.0064488751813769,0.0041682659072102,-0.1728739540278911,-9.806174166798591,14935.0
9.59,0.699999988079071,56.0,22.992658615112305,0.0795177370309829,-79.78278126257041,40.45896105024906,270.6017574262619,0.0078428164124488,0.0045631569810211,-0.7754976749420166,0.6312852501869202,-0.0107886716717159,-0.015554647609278,0.0114297217893079,-0.0027952920645475,-0.0012820228002965,-0.0079987039789557,0.0038121325013344,-0.1727426292188465,-9.80555962443352,14935.0
9.69,0.699999988079071,56.0,22.98389434814453,0.0477106422185897,-79.78278127940838,40.45896106264225,270.6029104185104,0.0078424550592899,0.0045566973276436,-0.775488018989563,0.63129723072052,-0.0107015860788789,-0.0180167807018367,0.011302333503582,0.0025904015637934,-0.0001650173508096,0.0077106119133532,0.0067856560775544,-0.1916428584605455,-9.807150651812554,14935.0
9.89,0.699999988079071,56.0,22.990154266357425,0.0715659633278846,-79.78278135908221,40.458961148427385,270.6124619436264,0.0078596360981464,0.0045881532132625,-0.7754784226417542,0.6313086152076721,-0.0059087550863594,-0.0162559768740721,0.0117224682826003,0.0033340489026159,-0.0007922963704913,0.0073701585642993,0.0060736644960707,-0.1922043007984756,-9.807704383134842,14935.0
9.99,0.6000000238418579,57.0,22.99140739440918,0.0715659633278846,-79.78278141482194,40.45896123307451,270.6221058559417,0.0078677544370293,0.0046055722050368,-0.7754666209220886,0.6313228011131287,-0.0034390396718394,-0.0108575519372891,0.012024294526566,0.0034697572700679,0.0012203633086755,0.0054065273143351,0.0056654083589091,-0.1916555944271386,-9.807790921926498,14935.0
10.2,0.6000000238418579,58.0,22.98765182495117,0.055662415921688,-79.78278142761606,40.458961238878935,270.6233327579498,0.0078806784003973,0.0046033025719225,-0.7754474878311157,0.6313462257385254,-0.0052526539833534,-0.0129643107736438,0.0123621379361246,-0.0043777637183666,0.0010506979888305,-0.0029759930912405,0.0041982976978761,-0.1788106320798397,-9.806646621823312,14935.0
10.3,0.6000000238418579,59.0,22.992658615112305,0.0636141896247863,-79.78278152463594,40.45896133288593,270.6325975847244,0.0078822216019034,0.0045796819031238,-0.775442361831665,0.6313525438308716,-0.0045845844450949,-0.0164111987835458,0.0122177238873566,-0.0025647024158388,0.0022066214587539,-0.0019768197089433,0.0060125085589243,-0.1881157997064292,-9.807732449769976,14935.0
10.49,0.6000000238418579,63.0,22.99140739440918,0.0636141896247863,-79.78278154318892,40.45896133961372,270.63382180452345,0.0078957667574286,0.0045810122974216,-0.7754416465759277,0.6313532590866089,-0.0044777049082904,-0.0187672295408563,0.0122167155438143,0.0036384207196533,0.0007666982710361,0.0048517240211367,0.0050571077823406,-0.1851626634411514,-9.806696323156356,14935.0
10.59,0.6000000238418579,66.0,22.98639869689941,0.0636141896247863,-79.78278158354074,40.458961420660245,270.64359565496443,0.0078757368028163,0.0045861699618399,-0.7754223346710205,0.6313772797584534,-0.0034488900272213,-0.010908937917472,0.0122170359514057,0.0017532411729916,0.003380024107173,-0.0007424729410558,0.0042792582229594,-0.1778082731366157,-9.805642654895784,14935.0
10.79,0.6000000238418579,69.0,22.990154266357425,0.055662415921688,-79.78278159552886,40.458961425753344,270.64482929229735,0.0078771905973553,0.0045848144218325,-0.7754083871841431,0.6313943862915039,-0.0042187348078378,-0.01310950184093,0.0123362400071252,0.0006315329228527,-0.0012829907936975,0.0036240292247384,0.00544939999294,-0.1908469793200493,-9.80874050974846,14935.0
10.89,0.5,75.0,22.992658615112305,0.0715659633278846,-79.78278167254182,40.45896150573488,270.65251626491545,0.0079041784629225,0.0045537101104855,-0.7753951549530029,0.6314105391502379,-0.001832198404501,-0.0141702184793364,0.0094766340696752,0.0012435656972229,0.0038143452256917,0.0084718614816665,0.0078089199587702,-0.1922014137357473,-9.808553983569146,14935.0
11.09,0.5,79.0,22.990154266357425,0.0636141896247863,-79.78278171353031,40.45896158058038,270.6610511732101,0.0078947572037577,0.004557276610285,-0.7754016518592834,0.6314026117324829,-0.0009768700971296,-0.008664512661343,0.0106183498803666,-0.0020166386384516,0.000504198949784,-0.0087600536644458,0.0039609841108904,-0.17441126011312,-9.806209250092508,14935.0
11.2,0.4000000059604645,88.0,22.988903045654297,0.0636141896247863,-79.78278172477285,40.45896158303313,270.6621087384224,0.0078863874077796,0.0045500895939767,-0.7754008769989014,0.6314037442207336,-0.0007592027738874,-0.011124599281996,0.0105732867383692,0.0054809455759823,0.000184990640264,0.0071822460740804,0.0057107425527647,-0.1908773117512464,-9.807452368140224,14935.0
11.39,0.4000000059604645,92.0,22.98765182495117,0.055662415921688,-79.7827818184214,40.45896165704119,270.67125280618666,0.0078824209049344,0.0045697512105107,-0.7753946185112,0.6314113140106201,0.0012713681823848,-0.0152843323988503,0.0111332016754568,0.003052549669519,0.0004385707725305,0.0038155922666192,0.0050637487118365,-0.1854416487179696,-9.80734068632126,14935.0
11.49,0.4000000059604645,101.0,22.990154266357425,0.0636141896247863,-79.78278186907376,40.45896175975421,270.68023540496824,0.0078647909685969,0.0046023908071219,-0.775384783744812,0.6314234137535095,-0.0058579101407217,-0.0110180802062078,0.0114463120957589,0.0008709947578608,-0.0005295213777571,-0.0012933606049045,0.0033328783753677,-0.1804876866191625,-9.80679455637932,14935.0
11.69,0.3000000119209289,100.0,22.98765182495117,0.0477106422185897,-79.78278188157381,40.45896176747562,270.6813970994949,0.0078566083684563,0.0046168686822056,-0.7753750085830688,0.6314352750778198,-0.0069370746793366,-0.0131756606545138,0.011652856801547,4.9771315389079966e-05,1.3927739928476514e-05,0.0025669881142675,0.0051774410821963,-0.1900299953855574,-9.80877617776394,14935.0
11.8,0.3000000119209289,100.0,22.98389434814453,0.0477106422185897,-79.78278195592766,40.45896185804707,270.6903434586525,0.0078437076881527,0.0046408069320023,-0.7753579616546631,0.6314563155174255,-0.0067719412578063,-0.0138701182017966,0.0120135879653005,-0.0001886648096842,-0.0014500119723379,0.0042193755507469,0.0040156655700411,-0.1758480489067733,-9.805594707727431,14935.0
11.99,0.3000000119209289,99.0,22.98639869689941,0.0715659633278846,-79.78278197076921,40.4589618668849,270.69156583070753,0.0078353183344006,0.0046574627049267,-0.7753687500953674,0.6314429640769958,-0.0080268475039784,-0.0160245180492819,0.0122976716580885,-0.002314587123692,-0.0026667958591133,-0.0065756551921367,0.0027436786080943,-0.173692637309432,-9.805942032337189,14935.0
12.1,0.2000000029802322,93.0,22.98138999938965,0.055662415921688,-79.78278202002805,40.45896193927264,270.7027238202095,0.0078107197768986,0.0046796640381217,-0.7753475308418274,0.6314692497253418,-0.0057384402949723,-0.0118686994436651,0.0159977742673407,-0.0017755406443029,-0.001805517822504,-0.0090261390432715,0.0044329917436698,-0.1743381516449153,-9.806009860038758,14935.0
12.29,0.2000000029802322,88.0,22.988903045654297,0.0636141896247863,-79.78278203296873,40.4589619458388,270.7043338012695,0.0078037641942501,0.0046958210878074,-0.7753427028656006,0.6314750909805298,-0.0053912048175575,-0.0140070772471763,0.0160186682286504,0.0042825252749025,0.0001313308166572,0.0049992115236818,0.0062911826313938,-0.1920221234858036,-9.807355889081958,14935.0
12.39,0.2000000029802322,78.0,22.98138999938965,0.0477106422185897,-79.78278208513545,40.458962022944185,270.71268667697905,0.0078191701322793,0.0047046076506376,-0.7753294706344604,0.6314910650253296,-0.0042677803922842,-0.0123263520565271,0.0153939465121792,0.0076665002852678,0.0022122096270322,0.0083942264318466,0.0063580601604189,-0.1909523936547339,-9.808576202988624,14935.0
12.59,0.2000000029802322,69.0,22.98765182495117,0.0636141896247863,-79.78278211639122,40.45896209051779,270.7204668712616,0.007842163555324,0.004718308802694,-0.7753183841705322,0.631504237651825,-0.0026848532174853,-0.0069375572006728,0.0176880459377732,-0.0049034617841243,0.0018160631880164,-0.0083971433341503,0.0050992751150624,-0.1787822730839252,-9.805830350518226,14935.0
12.69,0.2000000029802322,53.0,22.980138778686523,0.0159035474061965,-79.78278212516614,40.458962093854616,270.7222413611412,0.0078260013833642,0.0047228378243744,-0.7753230929374695,0.6314987540245056,-0.0022235882024834,-0.0090859028682681,0.0178103082397259,0.0028934995643794,0.0064289844594895,0.0042180828750133,0.0058303049794631,-0.188401710279286,-9.80804293692112,14935.0
12.89,0.3000000119209289,46.0,22.98264312744141,0.0238553211092948,-79.78278215886246,40.45896218043453,270.7290678811073,0.0078245745971798,0.0047299833968281,-0.7753289341926575,0.631491482257843,-0.0042908861702185,-0.0064060235399538,0.0155060125248903,0.0043953643180429,-0.00093234248925,0.0031787191983312,0.0046847420718404,-0.1846278807520866,-9.80760381102562,14935.0
12.99,0.3000000119209289,33.0,22.988903045654297,0.0636141896247863,-79.78278223874746,40.45896224543424,270.73570193767546,0.0078287851065397,0.0047349799424409,-0.7753198742866516,0.6315025687217712,0.0001420125458058,-0.0110489684838087,0.0141164552901032,0.00189350603614,-0.0015677759656682,-0.0004442014324013,0.0035880151207675,-0.1868237295001745,-9.806965879797936,14935.0
13.19,0.3000000119209289,27.0,22.98264312744141,0.0477106422185897,-79.78278225271974,40.45896224773497,270.7371198129654,0.0078079984523355,0.0047390074469149,-0.7753146886825562,0.6315091252326965,-0.0007436724202063,-0.013139457437412,0.0142989528856579,-0.00126349972561,-0.0018113174010068,-0.0003504197520669,0.0041239067251444,-0.190257525164634,-9.808464521169665,14935.0
13.3,0.3000000119209289,19.0,22.98514747619629,0.0636141896247863,-79.78278229538209,40.45896232644645,270.74487199306486,0.0078170038759708,0.0047648539766669,-0.7753003239631653,0.6315264701843262,-0.0029252478052545,-0.0111829007263201,0.0163288660985271,0.0003254371986258,0.0025060190819203,0.0016480181366205,0.0025929106649709,-0.1765881602279842,-9.805453205108645,14935.0
13.49,0.3000000119209289,15.0,22.972625732421875,0.0318070948123931,-79.78278230792222,40.45896233119322,270.74651201486586,0.0078310444951057,0.0047812056727707,-0.7752990126609802,0.6315277814865112,-0.003850947121296,-0.0130192021020991,0.0164983452456172,-0.0020456763450056,-0.0006489788065664,-0.0052849710918962,0.0042017480690265,-0.1739324645139277,-9.805660781264306,14935.0
13.59,0.4000000059604645,13.0,22.98138999938965,0.0477106422185897,-79.78278236527645,40.45896240906332,270.7500056815147,0.0078265573829412,0.0047868308611214,-0.7752881050109863,0.6315411925315857,-0.0048817540354592,-0.0136270585146082,0.0122193422864147,-0.0038771533872932,4.316319973440841e-06,-0.0056606661528348,0.0036914089112542,-0.1738123590499162,-9.805809300541876,14935.0
13.79,0.4000000059604645,12.0,22.98765182495117,0.055662415921688,-79.7827823802438,40.45896241532928,270.7512405705452,0.0078195976093411,0.0047797248698771,-0.7752866148948669,0.6315431594848633,-0.0047808646816058,-0.0156024580661536,0.0124007030246107,0.0052100499160587,0.0002185144112445,0.0060482160188257,0.0070028395968256,-0.1925974346883595,-9.80967781841755,14935.0
13.89,0.4000000059604645,9.0,22.990154266357425,0.0636141896247863,-79.78278242961859,40.458962469641406,270.7557602715492,0.0078366491943597,0.0048166387714445,-0.775279700756073,0.6315511465072632,-0.0014129735304074,-0.0143143572212548,0.0122494524950892,0.0032289952505379,0.0023993637878447,0.006527398712933,0.0063680592417949,-0.1928718701004982,-9.809067369103431,14935.0
14.09,0.4000000059604645,9.0,22.97012138366699,0.3657816052436829,-79.78278241277711,40.45896252191274,270.7582118105888,0.0078334305435419,0.0048456559889018,-0.7752826809883118,0.6315473318099976,-0.0006653033576182,-0.0035955653992737,0.0117883552229071,-0.0047195088118314,0.002019100356847,-0.0078294379636645,0.0031031790166161,-0.1732717839628458,-9.80609815299511,14935.0
14.2,0.5,7.0,22.940073013305664,1.0893930196762085,-79.78278241807986,40.45896252314208,270.7594000291824,0.0078300591558218,0.0048475675284862,-0.7752537727355957,0.6315827369689941,-0.0002801202657631,-0.0056055590401275,0.0119188465153755,0.003014690708369,-0.0017425587866455,0.0086115906015038,0.0076598016842035,-0.197108525019139,-9.809417617321015,14935.0
14.39,0.5,6.0,22.97638320922852,0.3578298389911652,-79.78278244661539,40.45896256492226,270.7607566308975,0.0078085679560899,0.0048761800862848,-0.7752368450164795,0.6316037178039551,0.0024833819924779,-0.0050345674360139,0.0094879935466237,0.0004972314927726,-0.0034963313955813,0.0128393145278096,-0.0003470853535691,-0.1840116573125124,-9.80965442955494,14935.0
14.49,0.6000000238418579,6.0,22.97638320922852,0.3498780429363251,-79.78278246397899,40.458962666592406,270.762534339428,0.0077659417875111,0.0048866420984268,-0.7752794623374939,0.6315517425537109,-0.0097286950108284,-0.0053343532643677,0.0097936623047515,0.0078012989833951,-0.0008679155725985,0.0198203343898058,0.0053100409725448,-0.191541244816035,-9.808065741062164,14935.0
14.69,0.6000000238418579,4.0,22.97012138366699,0.3498780429363251,-79.78278246857201,40.45896267729517,270.76351930618284,0.0077639645896852,0.0048807733692228,-0.7752506732940674,0.6315871477127075,-0.0125178789740016,-0.0068779273671126,0.0097873168039406,-0.0037778099067509,-0.0011984824668616,-0.0141892917454242,0.0027015912177739,-0.1811864471621812,-9.80350023508072,14935.0
14.8,0.699999988079071,10.0,22.97137451171875,0.3816851377487183,-79.78278250106739,40.45896268888132,270.76446702003483,0.0077601014636456,0.0049173780716955,-0.7752292156219482,0.6316133737564087,-9.010119171663655e-05,-0.0061579528379216,0.0103697595960589,-0.0081085702404379,-0.0016544585814699,-0.0112807648256421,0.0054594990023178,-0.1829795689322054,-9.8072003531456,14935.0
14.99,0.8000000119209291,10.0,22.97513008117676,0.4532511234283447,-79.78278250933072,40.45896268985569,270.76550199508665,0.0077572395093739,0.0049056815914809,-0.7752851843833923,0.6315447092056274,-9.314592749173588e-05,-0.0079888473806249,0.0102511925829048,0.0087477024644613,0.0042057405225932,-0.0018697689520195,0.007011107354192,-0.20046809758991,-9.808107256293296,14935.0
15.09,0.8000000119209291,13.0,22.97137451171875,0.4850582182407379,-79.78278253660484,40.45896272790414,270.76329447746275,0.0077551947906613,0.0049197231419384,-0.7752282619476318,0.6316145062446594,0.0014456340390906,-0.0083519728705046,0.0066741806155028,0.0016618238296359,0.0027160583995282,-0.0011865844717249,0.0046651838778052,-0.184950994234532,-9.804774928092955,14935.0
15.29,0.8999999761581421,10.0,22.113719940185547,13.494160652160645,-79.78278254684002,40.45896272838548,270.7639776062965,0.0077759567648172,0.0049160518683493,-0.7752575874328613,0.6315783262252808,0.0007834870103731,-0.0096907363277469,0.0070602283543129,-0.0065249102190136,-4.392345726955682e-05,0.0048420582897961,0.0091429919027723,-0.1882781147584319,-9.807256486415865,14935.0
15.4,0.8999999761581421,4.0,22.927553176879893,1.0575859546661377,-79.78278257439105,40.45896280101147,270.76183243513105,0.0078140338882803,0.0049548549577593,-0.7752600908279419,0.6315743923187256,-0.0036050243028902,-0.0115297897861322,0.0044719718350384,0.0171976946294307,-0.0102694686502218,-0.0036645166110247,0.0211487577483058,-0.1738561035320162,-9.81860710144043,14935.0
15.59,1.0,8.0,22.97012138366699,0.3021674156188965,-79.78278258798804,40.4589628256976,270.75870050907133,0.0078109167516231,0.0049862139858305,-0.7752170562744141,0.6316269636154175,0.0021409199134039,-0.0102490308024367,0.0030445020408764,0.0057057626545429,0.005304719787091,-0.0071492833085358,-0.0064980141806881,-0.1864374843612313,-9.816282248497007,14935.0
15.69,1.0,9.0,22.57071876525879,5.876360893249513,-79.78278259982612,40.45896282562487,270.75904412984846,0.0078081414103507,0.0050031025893986,-0.7752563357353209,0.6315786838531494,0.0014807536330003,-0.0102832203812975,0.0031683495181788,-0.0027033064980059,0.0003227176785003,0.0053733671084046,-0.0084451975207775,-0.2023585024103522,-9.808515976667405,14935.0
15.89,1.100000023841858,10.0,22.952592849731445,0.2703603208065033,-79.78278263078045,40.45896289849898,270.7554006767273,0.0078427884727716,0.005036883521825,-0.7752951383590698,0.6315303444862366,-0.0052611763121906,-0.0128344019861777,0.0029044744845239,-0.0332597643136978,-0.0137470224872231,-0.0099783996120095,-0.0195087416656315,-0.1762936798296868,-9.786488930583,14935.0
15.99,1.100000023841858,6.0,22.95760154724121,0.2385532110929489,-79.78278261032834,40.45896295194625,270.751306374073,0.0078269969671964,0.0050278971903026,-0.7752549648284912,0.6315799355506897,-0.0064685162733848,-0.0082503774493368,0.0008564636334931,-0.0152843687683343,-0.0163015890866518,-0.0069514107890427,-0.0068126788933295,-0.1753367647156119,-9.808171575665476,14935.0
16.19,1.100000023841858,6.0,22.86870574951172,2.6717960834503174,-79.78278262085094,40.45896295772106,270.7514258813858,0.0078343683853745,0.004983524326235,-0.7752584218978882,0.6315759420394897,-0.0057091838807763,-0.0121696121505691,0.0006906189775193,-0.0083073014393448,0.0143720274791121,0.0060068913735449,0.0022727240737003,-0.1636941360868513,-9.809018252491953,14935.0
16.3,1.100000023841858,4.0,22.817371368408203,4.190584659576416,-79.78278261969706,40.458962992193285,270.74517615556715,0.0078218802809715,0.0050162635743618,-0.7752436399459839,0.6315940618515015,-0.0011896130774941,-0.0105639290929338,-0.0024214435858448,-0.0003957362205255,-0.0040570828132331,-0.0022001732140779,-0.012400386664085,-0.1777407012507319,-9.808590236306191,14935.0
16.49,1.100000023841858,1.0,22.734737396240234,6.313708305358888,-79.782782632084,40.45896299523757,270.7449719500541,0.0078295832499861,0.0050111426971852,-0.7752448916435242,0.6315925121307373,-0.0014838814260731,-0.0105347646132098,-0.0015712363890662,-0.0111665837466716,-0.0178671553730964,-0.0107832495123147,-0.0157864521467126,-0.1841264271922409,-9.796836163401604,14935.0
16.59,1.2000000476837158,359.0,22.68089866638184,6.957802295684815,-79.7827826456796,40.45896305309935,270.7395348739624,0.0080605866387486,0.0052598332986235,-0.7752529978752136,0.6315776705741882,-0.0066856450156772,-0.0157666064963407,0.0013388496964425,-0.0266309045255184,-0.0121140275150537,-0.0555476546287536,-0.0267707413947209,-0.1000121652334928,-9.787328006029131,14935.0
16.79,1.2000000476837158,357.0,22.5744743347168,9.383092880249023,-79.78278266351684,40.45896305816926,270.73956437826155,0.0083868829533457,0.0054811770096421,-0.77527916431427,0.6315393447875977,-0.0037602148941854,-0.0169690713964891,0.0010658331124996,-0.0460852198302745,0.013605460524559,0.0029280805028975,0.0095658597978763,-0.1114328828919679,-9.791934442520144,14935.0
16.89,1.2000000476837158,357.0,22.49809837341309,10.48838996887207,-79.78278261727057,40.45896305516671,270.73418648958204,0.0089000025764107,0.0059834732674062,-0.7752740979194641,0.6315340399742126,0.0084965218745076,-0.0076476678580546,0.0016803010385976,0.007157230284065,0.0095177814364433,0.0258210264146328,0.0565942729683593,-0.1637734937667846,-9.866405750513078,14935.0
17.09,1.2000000476837158,357.0,22.37539863586425,13.382835388183596,-79.78278257674795,40.45896306454876,270.727772731781,0.0092230662703514,0.0064701735973358,-0.775294840335846,0.6314990520477295,0.0029787958565666,-0.0096617722549422,0.0024221006874706,0.0322804413735866,0.015462645329535,0.0001977256470127,-0.0950619490072131,-0.1692097415216267,-9.806512135863304,14935.0
17.19,1.2000000476837158,355.0,22.299022674560547,15.156081199645994,-79.78278258762685,40.45896305728964,270.728100438118,0.0100560914725065,0.007025958970189,-0.7752882242202759,0.6314884424209595,0.0148055385296427,-0.0075851586102181,0.0042777844813671,0.0446578562259674,0.0549353547394275,-0.0365255624055862,-0.0370734257390722,-0.2110157254524529,-9.813589020967484,14935.0
17.39,1.2999999523162842,354.0,22.170061111450195,18.010766983032227,-79.78278255465362,40.45896306170656,270.71910222291945,0.0118437381461262,0.0080915195867419,-0.7752810120582581,0.6314536333084106,0.0122809883203615,-0.0090158544469707,0.0043639640292861,0.0228454004973173,-0.0244581699371337,0.0115070380270481,-0.0084076291602104,-0.3409192408248782,-9.886398550271988,14935.0
17.49,1.2999999523162842,353.0,22.09619140625,19.768110275268555,-79.78278248398627,40.45896300945992,270.7111785006523,0.0135704735293984,0.0085914423689246,-0.7749427556991577,0.6318274140357971,0.0141344052384463,-0.0070634216572497,0.0050463357627785,0.0426010228693485,0.0530478060245513,-0.0428985059261322,-0.0568467539129778,-0.2145608740299939,-9.863710184097291,14935.0
17.69,1.2999999523162842,352.0,21.91714859008789,23.266889572143555,-79.78278249173098,40.458962995503406,270.7120635104179,0.0148978689685463,0.0080058686435222,-0.7749849557876587,0.6317533254623413,0.0157335904734379,0.002591040199443,0.0084750653652462,-9.46172222029418e-05,0.029073592275381,-0.0433322861790656,0.1235035551153123,-0.4788726728037001,-9.860348035097124,14935.0
17.8,1.399999976158142,351.0,21.85329246520996,24.97652244567871,-79.78278257380849,40.45896295045107,270.6970085692405,0.0075236246921122,0.0058325170539319,-0.77503502368927,0.6318467259407043,0.0312999851254072,-0.0124595435359415,0.0060872473467282,-0.1303628087043762,-0.1194603890180587,0.0263214781880378,0.0864270184747874,-0.370214851051569,-9.767351578474042,14935.0
17.99,1.399999976158142,351.0,21.696786880493164,28.37988090515137,-79.78278259725278,40.45896292294852,270.7000617575645,0.0013613089686259,0.0017875998746603,-0.7740972638130188,0.6330626606941223,0.0503274705366453,-0.0083308424644124,0.0500925837129593,-0.1337949484586715,0.0390129014849662,-0.0358628667891025,0.0081007782462984,-0.048823419297114,-10.145738936662674,14935.0
18.09,1.399999976158142,352.0,21.60163116455078,30.240596771240234,-79.78278258885591,40.4589628521364,270.7134205293655,-0.0234184209257364,-0.0129786487668752,-0.7709697484970093,0.6363088488578796,0.0140144007808747,0.0333782113262682,0.1904047944438624,-0.3261525332927704,-0.0933584049344062,-0.0911580771207809,0.1007830657996237,0.0611583765316754,-10.708237574100496,14935.0
18.29,1.2999999523162842,348.0,21.937179565429688,22.455808639526367,-79.78278254319218,40.4589628280312,270.7389013957977,-0.0262213964015245,-0.0132035352289676,-0.7697438597679138,0.6376774907112122,0.0409206563305935,0.0426962272713938,0.2987126238732791,0.1673354506492614,0.0798784792423248,-0.035215176641941,0.0306029014661908,0.4896094398200512,-10.715522035360337,14935.0
18.39,1.399999976158142,350.0,21.818235397338867,24.10977935791016,-79.78278235253045,40.458962586256256,270.7740066242218,-0.0003533396229613,0.0024827865418046,-0.7682904005050659,0.6400964856147766,0.018763329985536,0.085288600603955,0.2847221890670857,0.1169106364250183,0.1302366703748703,0.0620498210191726,0.0271576580498367,0.002579773273319,-9.921631532907488,14935.0
18.59,1.399999976158142,351.0,21.823244094848643,24.411945343017567,-79.78278181573066,40.45896295270738,270.7629561018944,0.0055098696611821,0.0008996976539492,-0.7684954404830933,0.6398310661315918,0.0053933177335974,0.1103214562065828,0.2123195342607749,-0.0978763327002525,0.1155150458216667,0.051692958921194,0.1334666258655488,-0.0016385953919962,-9.643328626155856,14935.0
18.69,1.5,356.0,21.86831855773925,23.266889572143555,-79.78278156031782,40.458962852108094,270.7992195379734,0.0066335923038423,-0.0058182985521852,-0.7698032855987549,0.6382203698158264,0.0543486209126448,0.1221341859851069,0.1437838626337171,-0.0655229464173317,0.0169100128114223,0.0280906148254871,0.1193523700442165,0.0790060430020093,-9.409955724477769,14935.0
18.89,1.5,358.0,21.72433280944824,26.98832130432129,-79.78278147800701,40.45896302283808,270.81338565468786,0.0055779623799026,-0.0091103371232748,-0.7707802057266235,0.6370116472244263,0.0270899522643411,0.0751820481091028,0.0766452984828384,-0.0720575675368309,0.0402888916432857,0.0564063191413879,0.0796466328855604,0.0786998042184859,-9.338546018600464,14935.0
18.99,1.399999976158142,359.0,21.662981033325195,28.95240974426269,-79.78278140044489,40.45896298496677,270.819676656723,0.0044526988640427,-0.0131819602102041,-0.7719115018844604,0.6355777382850647,0.0410649011164483,0.0691570252169351,0.0553221311958394,-0.0403702706098556,0.0187763012945652,0.0338211916387081,0.1325360780395567,0.07336120496504,-9.60087316274643,14935.0
19.19,1.5,359.0,21.736852645874023,25.80350685119629,-79.7827811125328,40.458963045698255,270.84768061757086,0.0032274203840643,-0.0173000991344451,-0.7728354930877686,0.6343623399734497,0.0249235730206357,0.0675649986771376,0.1368460173122286,0.0111599136143922,0.0102771827951073,0.0669744908809661,0.209346308838576,-0.0736879364121705,-10.112809756994247,14935.0
19.3,1.2999999523162842,359.0,21.683013916015625,26.996273040771484,-79.78278084242845,40.45896302540973,270.8734556031227,0.0047043701633811,-0.0169728975743055,-0.7721614837646484,0.63518226146698,0.0318132963740699,0.0479066157505253,0.1778570327724994,0.1444042176008224,0.0905736833810806,0.1201840490102768,0.1468211639206856,0.3135674643516541,-10.102653143405917,14935.0
19.49,1.2999999523162842,358.0,21.630428314208984,27.84711265563965,-79.78278080003099,40.458963005639866,270.8919688653946,0.0042263651266694,-0.018281040713191,-0.7715349793434143,0.6359102129936218,6.59395537093658e-05,0.0371718795349322,0.1974774762089836,-0.1813022941350937,-0.0244653765112161,-0.158223882317543,0.1378985046967864,0.3154317028820515,-9.99479774236679,14935.0
19.59,1.2999999523162842,0.0,21.64169692993164,27.656269073486328,-79.78278070403852,40.4589629196368,270.9351211977005,9.944287012331188e-05,-0.0238287784159183,-0.7701107859611511,0.6374649405479431,0.0051570675156803,0.0162946927062636,0.2642089829206318,-0.1479552090167999,-0.0388638563454151,-0.0776234343647956,0.174750197622925,0.2334103604033589,-10.100093232393265,14935.0
19.79,1.2999999523162842,0.0,21.637939453125,27.51313781738281,-79.78278070106036,40.45896291333929,270.96148659706114,-0.0003300207317806,-0.0228856205940246,-0.7697524428367615,0.6379320621490479,0.0147063299788056,0.0015121469632739,0.259516434618015,0.0944231376051902,0.0266568921506404,-0.0917523726820945,0.1891295607201755,0.3216869080066681,-9.836544020175934,14935.0
19.89,1.2999999523162842,2.0,21.63919258117676,27.7039794921875,-79.782780596469,40.45896290062821,270.9707259428501,0.001266962965019,-0.0211797058582305,-0.76942378282547,0.6383861303329468,0.010137987047877,-0.0059651430918274,0.2402247177233043,0.0508345067501068,0.076865017414093,0.045638557523489,0.0845510946493595,0.2170538161508739,-9.84760929107666,14935.0
20.09,1.399999976158142,2.0,21.914644241333008,16.65101432800293,-79.7827804296767,40.458962981896455,271.00723718523983,0.0053001204505562,-0.0198414903134107,-0.7688543796539307,0.6390941739082336,-0.0047340113943806,-0.0188518275180206,0.2470533351750309,0.1679292023181915,0.0776811093091964,0.0655688196420669,0.2124579229205846,-0.0798610521107912,-9.804797732234002,14936.0
20.19,1.399999976158142,1.0,21.80821990966797,25.10375022888184,-79.78278046758236,40.45896301447468,271.0313542228937,0.0068178111687302,-0.0189166497439146,-0.7685420513153076,0.6394832134246826,-0.0424429944165667,-0.0382704996319351,0.2302905735103998,-0.0939735174179077,-0.062320452183485,-0.0679856166243553,0.1854622601531446,0.2884727496653796,-9.563020042777064,14936.0
20.39,1.2999999523162842,0.0,21.447628021240234,32.2682991027832,-79.7827801939563,40.45896289375127,271.07157750844954,0.0014132044743746,-0.0114188622683286,-0.7679182887077332,0.6404445767402649,0.0028273954837957,-0.0037544348275453,0.0495670157781024,0.0668413713574409,-0.1823903769254684,-0.0148954140022397,0.3436881897971034,0.1424281599372625,-9.157802735567094,14936.0
20.49,1.2999999523162842,358.0,21.304895401000977,34.272144317626946,-79.78278020294907,40.45896289905642,271.077740971446,-0.0035879618953913,-0.0036417057272046,-0.7674625515937805,0.6410734057426453,-0.0143555106028449,-0.0054527123385112,0.0839535605982521,-0.0886744037270546,-0.209859386086464,-0.1120381653308868,0.1217907229252159,0.3614473531767726,-9.898958369493483,14936.0
20.59,1.399999976158142,358.0,21.42634391784668,32.2126350402832,-79.78278006914229,40.458962764268726,271.1367656332254,-0.0067495638504624,-0.0037947951350361,-0.7671976685523987,0.6413641571998596,0.0012805731131597,0.0124114824802293,0.3565541793836149,0.0144461030140519,0.0836310163140297,-0.0298195593059062,0.1789093403890729,0.2367175638489425,-11.093841565847397,14936.0
20.79,1.399999976158142,5.0,21.26107215881348,35.40924835205078,-79.78277971125117,40.45896255756504,271.20501111119984,0.0008862239192239,-0.0126935541629791,-0.7685131430625916,0.6397074460983276,0.0288909775223565,0.0510590476770656,0.6426313914904151,0.0371400900185108,0.1243475526571273,0.1224894672632217,0.144107626453042,0.2404023147001863,-11.305540008544922,14936.0
20.89,1.399999976158142,8.0,21.07076072692871,40.01332473754883,-79.78277965759641,40.45896253963912,271.2785547752678,0.0038993600755929,-0.0141161428764462,-0.7694727778434753,0.6385118365287781,0.0184425733904332,0.0604090051908395,0.8339705023208492,0.0458310842514038,0.0220384281128644,0.0492228604853153,0.3072107734903693,0.1436257884744554,-11.779151612520218,14936.0
21.09,1.399999976158142,17.0,21.085786819458008,39.639591217041016,-79.78277960490861,40.45896252586859,271.373215791285,0.0031603965908288,-0.0131365451961755,-0.7706485986709595,0.6371170878410339,0.0213077876535138,0.0720647684511118,1.059245905852555,-0.038723848760128,-0.0286362040787935,0.0734032392501831,0.2258217342942953,-0.0031705430522561,-11.94301164507866,14936.0
21.29,1.5,21.0,20.92427062988281,42.89981842041016,-79.78277945979923,40.45896251355633,271.61530174732206,0.0002059607213595,-0.0077988533303141,-0.7731370329856873,0.6341911554336548,0.0239601862901779,0.0539481607629237,1.4933365565034724,0.0507403798401355,0.0063231051899492,-0.0190636813640594,0.0508767650043591,0.1798470145091414,-12.119644335508347,14936.0
21.39,1.7000000476837158,24.0,20.945556640625,41.84223556518555,-79.78277933740961,40.458962513591615,271.7631034147739,0.001418556086719,-0.0061360048130154,-0.774130642414093,0.6329946517944336,0.0269853143601919,0.052231969515558,1.7141596439321538,0.0508049838244915,0.0212845541536808,0.0362903550267219,0.1262555745709687,0.0935148671083152,-12.228144099712374,14936.0
21.5,1.7999999523162842,26.0,20.94305229187012,41.64344024658203,-79.78277920187342,40.45896250178915,272.13883598566053,0.0056784278713166,-0.004612335935235,-0.7749332189559937,0.6320008635520935,0.0273444233234372,0.0562443985050213,2.1699245618516843,0.0248693525791168,0.0312049183994531,0.0553787276148796,0.1497555251419544,0.1314064873382449,-12.196253385543825,14937.0
21.7,2.0,30.0,20.49481773376465,36.59406280517578,-79.78277918081524,40.45896247089113,272.3671549749374,0.0075571741908788,-0.0081099262461066,-0.7749293446540833,0.6319506764411926,0.0296570543451971,0.0561392716182339,2.3949385850409977,-0.0625059157609939,0.0919217392802238,-0.0239432863891124,0.0996079764515161,0.0173096769489348,-12.081271398067477,14937.0
21.89,2.0999999046325684,35.0,20.46476936340332,37.81863784790039,-79.78277912165605,40.45896247842403,272.8569363546371,-0.0005664564087055,-0.0206980276852846,-0.7744124531745911,0.6323422789573669,0.0367422494015017,0.0812443145604356,2.702680414826588,-0.1609203219413757,-0.0704972371459007,-0.0856402888894081,0.3060489682853222,0.1465979007817804,-11.323689765930176,14937.0
21.99,2.200000047683716,35.0,20.449745178222656,38.51839447021485,-79.78277912435699,40.45896247327493,273.13297607421873,-0.0067973905242979,-0.0178641285747289,-0.7728126049041748,0.6343465447425842,0.0721270509552639,0.0856939814916835,2.8120104198286047,0.0343339741230011,-0.1995780169963836,-0.0978913977742195,0.2767744811251759,0.354816902987659,-11.029311693906784,14938.0
22.09,2.200000047683716,37.0,20.55742073059082,36.395267486572266,-79.78277908158461,40.45896254879948,273.6761803817749,-0.0019858526065945,0.0063288630917668,-0.7681569457054138,0.6402273774147034,0.0562795825332237,0.0185831081657744,2.9853696237673373,0.2305349409580231,-0.0595167502760887,-0.0809084922075271,0.0755487077264115,0.1687481403909623,-10.867776514291764,14938.0
22.29,2.400000095367432,28.0,20.65633201599121,33.64395523071289,-79.7827787389391,40.45896243957418,274.3055813503265,0.0090658757835626,0.0147287063300609,-0.766926109790802,0.641502320766449,-0.0495129415914239,0.0245026244819572,3.1025426191332226,-0.0781718268990516,0.1010464206337928,0.0464259572327137,0.0640295467106625,-0.0434618879947811,-10.573898963928222,14939.0
22.4,2.400000095367432,24.0,20.69639778137207,34.057449340820305,-79.78277865578275,40.458962375279775,274.6171181392669,0.0080755101516842,0.0054458109661936,-0.7679129242897034,0.6404803395271301,-0.0352530929178358,0.0573281243145708,3.1261271083666804,-0.2241017371416092,0.1542378813028335,-0.0148171382024884,0.1097710493858903,0.0927198467776179,-10.086617739200593,14939.0
22.59,2.5,23.0,20.618770599365234,34.653831481933594,-79.78277819211371,40.45896229372087,274.98924090385435,0.0070606842637062,-0.0051599638536572,-0.7691560983657837,0.6390010714530945,0.0265394703310276,0.1232542150776894,3.1753856856935943,-0.157448336482048,0.1231130436062812,0.0204360354691743,0.2057938329689204,0.0691230197204277,-10.09751577973366,14939.0
22.79,2.5,21.0,20.850400924682614,30.08951187133789,-79.78277798192045,40.45896208352128,275.6311888885498,0.0065147168934345,-0.0179599691182374,-0.7712717652320862,0.6362192034721375,0.113524130348595,0.2015186705489296,3.237378687991246,-0.1480346918106079,0.000426667422289,-0.0378703996539115,0.2761721448227764,0.2320063160173595,-10.130791114568712,14940.0
22.9,2.200000047683716,26.0,20.76651382446289,32.689743041992195,-79.78277762972353,40.45896186959645,275.98583986282347,0.0051356339827179,-0.0195290129631757,-0.7720290422439575,0.6352664232254028,0.1435598792198639,0.2141363612612032,3.243217737213397,-0.0421120598912239,-0.0269463695585727,0.0570401102304458,0.2000414335727692,-0.0415157519001513,-9.876241936683655,14940.0
22.99,2.0999999046325684,25.0,20.6776180267334,33.92226791381836,-79.78277643794851,40.458960912915295,276.79121210098265,0.0007752241799607,-0.0162567496299743,-0.7732674479484558,0.6338711977005005,0.1907253707716686,0.2297790965256585,3.255288073855543,0.0855539962649345,-0.0329707190394401,0.0590552017092704,0.1592531027086079,0.0917583817988634,-9.64591601908207,14941.0
23.19,1.7000000476837158,18.0,20.76275634765625,31.98203468322754,-79.7827763240018,40.45896078964584,277.1165995788574,-0.0001536718336865,-0.0137089407071471,-0.77360600233078,0.6335186958312988,0.1787949898215534,0.2031477827365628,3.2292688265703338,0.1277536302804947,-0.0293173808604478,0.0011961129494011,0.1911324148066342,0.1140624305885285,-9.534684435725213,14942.0
23.29,1.7999999523162842,18.0,21.07451820373535,36.92008590698242,-79.78277517584281,40.45896015586556,277.65836097717283,0.0033855040092021,-0.009429432451725,-0.7729893326759338,0.6343400478363037,0.1642166946204882,0.222752047129655,3.0954850385922903,0.146192654967308,0.0650476217269897,-0.0391269363462924,0.1389131427928805,0.1599662985652685,-9.812136572599412,14942.0
23.5,1.600000023841858,24.0,21.258569717407227,33.44515991210937,-79.78277501512481,40.45896002666106,277.9699416351318,0.0082817440852522,-0.0093508139252662,-0.7724496126174927,0.6349532604217529,0.1267538455913498,0.2190158744437244,3.1199591250783274,0.0280891042202711,0.0173603426665067,-0.0985657423734664,0.2113847030326724,0.1960576159134507,-9.94523674249649,14942.0
23.69,1.7000000476837158,35.0,21.278602600097656,32.17287826538086,-79.78277482012156,40.458960200046384,278.6357617568969,0.0125499768182635,-0.0119215371087193,-0.7718176841735841,0.6356083750724792,0.0672319476710561,0.1890451468810802,3.1225070146163416,-0.0340946912765502,0.0335608497262001,-0.0152846854180097,0.1336552168428897,-0.0843184028752148,-9.831107279062271,14943.0
23.79,1.600000023841858,73.0,21.387529373168945,29.93842887878418,-79.78277472894555,40.45896010993964,278.9485340309143,0.0119893578812479,-0.013546516187489,-0.7717527151107788,0.6356655359268188,0.0743962844421147,0.1885035034120638,3.1251780518827403,0.0310790911316871,0.0183301828801632,0.0294535588473081,0.1771237469092011,-0.0392573379445821,-9.824988752603527,14943.0
23.9,1.5,109.0,21.357481002807614,30.0736083984375,-79.78277494830479,40.45896020885328,279.6633687210083,0.0087023386731743,-0.0114945489913225,-0.770831823348999,0.6368755698204039,0.0552383420871588,0.0999410646409907,3.108154210896467,0.0114662433043122,0.0067691928707063,-0.0389960780739784,0.1069994874391704,0.0887284460105002,-9.577526400089264,14944.0
24.1,1.399999976158142,154.0,21.35247230529785,31.194808959960927,-79.78277461147019,40.45895995651997,280.37725021362303,0.0094956401735544,-0.0125684775412082,-0.7693804502487183,0.6385965347290039,0.061567445768701,0.0736534778329194,3.054740486278852,0.0663798600435257,0.0080460105091333,-0.0147702181711792,0.1923130590096116,0.015759698851034,-9.392283099889756,14945.0
24.29,1.399999976158142,173.0,21.38252258300781,29.40566062927246,-79.7827746458428,40.45895990994784,280.68118907928465,0.0095087699592113,-0.0126679120585322,-0.7684925198554993,0.6396627426147461,0.0532123568402508,0.0738316198945896,3.0206793788687576,-0.0231377631425857,-0.0078596184030175,-0.0442315675318241,0.2306014676392078,0.2270542908087373,-9.440459479093551,14945.0
24.39,1.2999999523162842,189.0,21.24604797363281,33.158897399902344,-79.78277428913877,40.458959613990224,281.0898003768921,0.0088256103917956,-0.0120618008077144,-0.7678113579750061,0.6405017375946045,0.0780105863509418,0.0736533505047789,3.030202563677908,0.0271708481013774,-0.019554479047656,-0.0446908548474311,0.2706169427745044,0.0973259269539266,-9.392386595606803,14946.0
24.59,1.5,185.0,21.226015090942383,34.02564239501953,-79.78277398158096,40.45895935321301,281.7616706085205,0.0048519996926188,-0.0137063069269061,-0.7670559287071228,0.641415536403656,0.0925379394996799,0.0597394401425038,3.0262968365748835,0.0072395051829516,-0.0518655180931091,-0.0110587878152728,0.2446648800931871,0.1237875105254352,-9.707643320560456,14946.0
24.7,1.600000023841858,184.0,21.32868385314941,29.94638061523437,-79.78277403119364,40.45895929569436,282.06485511779783,0.0032487413845956,-0.0145132774487137,-0.7670219540596008,0.6414485573768616,0.0860071052500924,0.0476923261263413,3.0360167766470294,-0.1231362521648407,-0.0395077764987945,-0.0461202338337898,0.2132105692103505,0.0867050353065133,-9.858787997961045,14947.0
24.79,1.600000023841858,188.0,21.23352813720703,32.45119094848633,-79.78277388079678,40.458959042066496,282.7517314147949,0.0016529415734112,-0.0139635493978858,-0.7685332298278809,0.6396554112434387,0.1253771450986536,0.0334711157936358,3.1113211639037908,0.1220992505550384,-0.014592190273106,0.0469245910644531,0.1791570978797972,0.1049377683363854,-9.837584824562072,14947.0
25.0,1.5,189.0,21.331188201904297,29.85891151428223,-79.78277380874172,40.4589588083965,283.42104103088377,0.0072074737399816,-0.0086314203217625,-0.7708554267883301,0.6369109749794006,0.0900474668294599,0.0160381009221883,3.0807036205800955,0.0489896573126316,0.0516373738646507,0.0146220326423645,0.1243931541591882,0.1268663527909666,-9.439865986704827,14948.0
25.09,1.5,194.0,21.27359390258789,33.238414764404304,-79.78277388979252,40.45895875856613,283.7272019577026,0.0067342068068683,-0.0082478569820523,-0.7718377113342285,0.635730504989624,0.0731743021512632,0.0073744863530367,3.049915336510789,0.0472153536975383,0.0235647242516279,0.0567599982023239,0.1170535920280963,-0.066807197984308,-9.506235392689703,14948.0
25.3,1.5,212.0,21.296131134033203,31.73552894592285,-79.78277397502664,40.45895871096589,284.0322270584106,0.0045770835131406,-0.0088167926296591,-0.7724770903587341,0.6349649429321289,0.0735133720109686,0.0008449533614668,3.061095717946632,0.0267502553761005,0.0228441189974546,0.0559169314801692,0.1556537394784391,-0.0701770580001175,-9.867759965658188,14949.0
25.5,1.600000023841858,224.0,21.21224403381348,32.196731567382805,-79.78277405388269,40.45895860663391,284.7025590133667,0.002146819839254,-0.0110670318827033,-0.7729836106300354,0.6343259215354919,0.113428140999453,-0.0111592789223965,3.136372169404688,0.0731691494584083,0.0257689896970987,0.0467728897929191,0.2315440205298364,0.1035635264776647,-10.025863999128342,14949.0
25.6,1.7999999523162842,253.0,21.296131134033203,31.4890251159668,-79.78277395794993,40.45895846214332,285.04062797546385,0.0011239242739975,-0.0125039191916584,-0.7726374268531799,0.6347235441207886,0.1323316259215192,-0.004755723237568,3.164071730730944,0.0336379669606685,0.0220432635396718,0.0930416882038116,0.2279532088525593,0.0255503726704046,-10.041849117279051,14950.0
25.8,1.8999999761581416,259.0,21.228519439697266,31.218664169311523,-79.78277414607781,40.458958349058,285.6760411453247,-0.0066958488896489,-0.0183851532638072,-0.7719962000846863,0.6353259682655334,0.144376123132953,0.0108163653831974,3.184713692292977,-0.0246039666235446,0.0312554500997066,0.0185554660856723,0.2587727313861251,0.1574038476683199,-9.885008082389833,14950.0
25.89,2.400000095367432,285.0,21.38627815246582,29.16710662841797,-79.78277424456847,40.45895816715087,286.33188678741453,-0.0004076803161296,-0.0200367420911788,-0.7713595628738403,0.6360840201377869,0.1642792113694942,0.0083859041204242,3.1876493435898285,0.1611473709344864,0.0639192834496498,-0.01038783416152,0.3545361270010471,0.1339718618430197,-9.696951686739922,14951.0
26.09,2.5,295.0,21.214746475219727,32.610225677490234,-79.78277420432346,40.45895818649171,286.6658320617676,0.0042306035757064,-0.0183933489024639,-0.7708813548088074,0.6366991400718689,0.1120633621853742,0.0389538495295665,3.1594657221143483,0.0762114971876144,0.075336217880249,-0.0121913468465209,0.3869791837781668,0.1227644122391939,-9.57041326224804,14951.0
26.19,2.5999999046325684,306.0,21.312406539916992,30.09746360778809,-79.78277427599325,40.45895817846864,286.9809441757202,0.0039130672812461,-0.0190035011619329,-0.7704848051071167,0.6371631622314453,0.0771841854712981,0.0479789938986976,3.1439174599082214,-0.0164444539695978,0.0312608480453491,0.0557998977601528,0.3890125164762139,-0.1519000737089663,-9.655284428000453,14951.0
26.29,2.700000047683716,309.0,21.27359390258789,31.01987075805664,-79.78277431846466,40.458958098181206,287.62786247253416,0.0022986936382949,-0.0206138622015714,-0.7723145484924316,0.6349016427993774,0.1041660769355378,0.0555303752745562,3.1084066692050314,0.1073685362935066,0.0499452799558639,0.0370772667229175,0.3055636493861675,0.0296612256579101,-9.545057981014253,14952.0
26.49,2.900000095367432,308.0,21.17968940734864,33.69961929321289,-79.78277436641787,40.45895794867933,288.2611785125732,0.0147419264540076,-0.0185480844229459,-0.7721492648124695,0.6349993348121643,0.0502434026206861,0.0666885801191603,3.0324633242274714,0.1671990603208542,0.1416202783584594,0.0353534333407878,0.3512192208319902,-0.149560228139162,-9.340833449363709,14953.0
26.6,3.2000000476837163,312.0,21.11708641052246,33.779136657714844,-79.7827744346139,40.45895795558943,288.5638861846924,0.0159859340637922,-0.0215266719460487,-0.7712019085884094,0.6360256671905518,0.0129098036733166,0.0778203991677628,3.0312838825026454,-0.0273701436817646,0.0524256527423858,0.1023034006357193,0.3301488888636231,-0.1478597664646804,-9.732685191035271,14953.0
26.8,3.299999952316284,313.0,21.089542388916016,35.130935668945305,-79.78277451915979,40.45895796006688,288.8675646972656,0.0149455657228827,-0.0233604628592729,-0.7699876427650452,0.637455940246582,0.0305189947683354,0.0869358398016666,3.038503443235879,0.0206817630678415,0.014922471717,0.0846515074372291,0.3081408462300897,-0.0870265682134777,-9.764551931619645,14953.0
26.99,3.400000095367432,312.0,21.351221084594727,29.21481704711914,-79.78277455944935,40.45895796953011,289.5012908172607,0.0085342824459075,-0.0184569675475358,-0.7673258185386658,0.6409350633621216,0.0582187946625302,0.0471428164423899,3.073241077568201,-0.0227748919278383,-0.1024915501475334,0.0007774803671054,0.2832157007977367,0.1894644782692194,-9.909794429540632,14954.0
27.1,3.299999952316284,308.0,21.159656524658203,32.79311752319336,-79.78277458427335,40.45895810930251,289.81119873046873,0.0043414076790213,-0.0155235873535275,-0.7664207816123962,0.6421366333961487,0.0491404517890256,0.0112692023054639,3.0519435966471904,-0.0229029208421707,-0.1083579286932945,-0.024144846946001,0.3463785302639007,0.2296080256998539,-9.676271254420277,14954.0
27.29,3.2000000476837163,308.0,21.08453369140625,35.70346450805664,-79.78277483432598,40.45895811367342,290.4160800170898,-0.0039331652224063,-0.0160797350108623,-0.7672832012176514,0.6410946846008301,0.0696456221202519,-0.0323789678715207,2.99960429097145,-0.0468888245522975,-0.0202532280236482,0.0293340869247913,0.3287501983344555,0.2269016419351101,-9.573218171596528,14955.0
27.39,3.2000000476837163,311.0,21.19596672058105,32.15697479248047,-79.7827747851498,40.4589581154834,290.731727142334,-0.0047209518961608,-0.0165296886116266,-0.768377959728241,0.6397655010223389,0.0803235939074802,-0.0244906686264886,2.99918142417828,-0.0661408677697181,-0.054785568267107,0.0828904435038566,0.295839272942394,0.2525418652966619,-9.707516435980796,14955.0
27.59,3.2000000476837163,312.0,21.035703659057614,36.212379455566406,-79.78277486008206,40.45895801581487,291.34932472229,-0.0006917670834809,-0.015997290611267,-0.770334005355835,0.6374396085739136,0.1046338816863779,0.0158750119442482,3.0276979817271354,0.0518632233142852,0.0204972513020038,-0.0311870723962783,0.3501383264735341,0.1711103606969118,-9.820294607877733,14956.0
27.7,3.299999952316284,313.0,21.125850677490234,33.38949966430664,-79.78277492475641,40.45895800784197,291.65273429870604,0.0018466168548911,-0.0147738838568329,-0.7707950472831726,0.6369093060493469,0.0843069800772052,0.0253179996557658,3.043874526455064,0.0476925410330295,0.0245203487575054,0.0880556106567382,0.2976703102514148,0.1618069289624691,-9.939807018041613,14956.0
27.89,3.2000000476837163,316.0,21.10707092285156,33.26227188110352,-79.7827751861321,40.45895817906015,292.25986244201664,0.0035237516276538,-0.0145927667617797,-0.7709603309631348,0.6367062926292419,0.0227374674266397,0.0096988317108856,3.07547058975042,-0.0132513362914323,-0.0322186164557933,0.0183581318706274,0.3154963146150112,0.2387303399294615,-9.948398916721343,14957.0
27.99,3.2000000476837163,321.0,21.142127990722656,33.90636444091797,-79.78277526397343,40.458958199505936,292.5674185943604,0.0034667393192648,-0.0130868591368198,-0.7709273695945741,0.636779248714447,0.0291526214039709,0.0145868080642789,3.0784685992560785,-0.0158487502485513,-0.0662992745637893,-0.0352884568274021,0.3714230319857597,0.2512370225787163,-9.902462021112443,14957.0
28.09,3.2000000476837163,325.0,21.085786819458008,34.20853042602539,-79.78277531847914,40.458958385940704,293.1742091369629,0.0028274490032345,-0.013757768087089,-0.7710391879081726,0.6366328597068787,0.010497779219044,-7.608907534701823e-05,3.0917355215198303,-0.0717516243457794,0.015696432441473,0.0045684967190027,0.2266405272111297,0.1510177928209305,-10.057426099777222,14958.0
28.29,3.0999999046325684,327.0,21.174680709838867,33.135040283203125,-79.78277525643693,40.45895846319592,293.7801947784424,0.0032451469451189,-0.0128400912508368,-0.7695637345314026,0.6384328007698059,0.03567801366247,0.0356315888566543,3.0876069727209083,-0.0183059144765138,-0.0274210069328546,-0.0927777513861656,0.3213289853185415,0.0444169484451413,-10.02488634467125,14958.0
28.49,3.0999999046325684,328.0,21.30739974975586,29.38975715637207,-79.78277531691641,40.4589584690985,294.08951522827147,0.0037182413507252,-0.0117876846343278,-0.7682523131370544,0.6400278210639954,0.0438104892600693,0.0172422614000594,3.096674659712027,-0.0138672310858964,0.0234367214143276,-0.0232104416936636,0.1518471015896648,0.0869107659347355,-9.857602182626724,14959.0
28.59,3.0999999046325684,334.0,21.256065368652344,30.328065872192383,-79.78277530685449,40.45895853806253,294.3911032867432,0.0047682775184512,-0.0138753531500697,-0.7671094536781311,0.6413484811782837,0.0395198660224466,0.0138785860350075,3.057232048324192,-0.1368245184421539,0.0066501297987997,-0.0439253859221935,0.1625377212837338,0.1906996294856071,-9.647578967213631,14959.0
28.79,3.0999999046325684,337.0,21.095802307128903,33.93021774291992,-79.78277545074141,40.45895851574557,294.99516059875486,-0.0014130056370049,-0.0199081152677536,-0.7673122882843018,0.6409629583358765,0.0813263834128322,0.0274820180253678,2.993384712317088,-0.1088693886995315,-0.0726484060287475,-0.0007894502487033,0.3379256125912071,0.3194244740903377,-9.629011718630789,14959.0
28.89,3.0999999046325684,343.0,21.21224403381348,30.84493064880371,-79.78277528136014,40.4589585263497,295.3027320098877,-0.0057360348291695,-0.019987991079688,-0.7685600519180298,0.6394397020339966,0.1098539209645417,0.0506093770537531,3.004713573360017,-0.0828043594956398,-0.1227378472685814,0.0674247369170188,0.2859458023309708,0.3925027560442687,-9.81130509853363,14960.0
28.99,3.0,343.0,21.13586807250977,34.14491653442383,-79.78277527947608,40.458958500004286,295.91383125305174,-0.0087441792711615,-0.0113120870664715,-0.7710392475128174,0.6366270780563354,0.1190697913732922,0.0262227679556768,3.0427136570403417,-0.043305117636919,-0.1041443720459938,0.0873123630881309,0.2675183752924204,0.3142971968650818,-9.969113262891767,14960.0
29.19,2.900000095367432,344.0,21.19721794128418,32.816970825195305,-79.78277530210453,40.45895848016397,296.2205538940429,-0.0086881052702665,-0.0115038612857461,-0.7722514867782593,0.6351533532142639,0.1091055117986488,0.0136869852861947,3.0840502390401703,0.0077494191937148,0.0238077994436025,0.0459761135280132,0.2575545005500316,0.3052339760586619,-10.112339640855788,14961.0
29.29,2.799999952316284,346.0,21.20848655700684,31.0914363861084,-79.78277510354079,40.45895866134351,296.8403945159912,-0.0022575757466256,-0.0192618444561958,-0.7731476426124573,0.6339296102523804,0.0818860889965815,0.0488718609925718,3.089331149982624,0.1079582422971725,0.1273730993270874,0.0799081698060035,0.2766897513158619,0.1430826369579881,-9.878632278442383,14961.0
29.49,2.900000095367432,349.0,21.23477935791016,30.60637855529785,-79.78277509864667,40.45895867193341,297.14906074523924,0.0026056230999529,-0.0205778162926435,-0.7725807428359985,0.6345775723457336,0.0802750665463291,0.0882096764747726,3.0764700803813128,0.0787972137331962,0.099025622010231,-0.086367443203926,0.3488698826730252,0.2674165606498718,-9.685254916548727,14962.0
29.69,2.900000095367432,351.0,21.09705352783203,33.309982299804695,-79.78277515738897,40.458958879303104,297.7586302947998,0.0049314871430397,-0.0186058692634105,-0.7701595425605774,0.6375608444213867,0.031930078865981,0.100007508809504,3.026567538926715,0.0538406111299991,0.0030963241588324,-0.0277235768735408,0.3140391519293189,0.2291763184592128,-9.66212859392166,14962.0
29.79,3.0,352.0,21.24104118347168,31.13119506835937,-79.78277516834545,40.45895889752022,298.0615916442871,0.0026486688293516,-0.0191684328019619,-0.7691519856452942,0.6387730240821838,0.0402253920698002,0.0932237280016664,3.033478905414483,-0.0370665565133094,-0.0062001487240195,0.010627144947648,0.3333265582099557,0.1263208715245127,-9.817175703048708,14963.0
29.89,3.0,351.0,21.23728370666504,30.025897979736328,-79.78277490719763,40.458958890339055,298.67142440795897,-0.0035722337197512,-0.0228221993893384,-0.7675623297691345,0.6405580639839172,0.0867163928813903,0.1017789284824351,3.033851413012328,-0.1203080490231514,-0.0323055945336818,-0.1570695489645004,0.4215389691665769,0.4825371593981981,-9.795971944928173,14963.0
30.09,3.0,348.0,21.232275009155277,31.07553291320801,-79.78277473373427,40.45895892853417,299.2845111083984,-0.0061459369026124,-0.0261268317699432,-0.7671397924423218,0.6409182548522949,0.1321160834644984,0.1046959517825498,3.0271456126894583,0.047410249710083,0.0305205788463354,0.1084122955799102,0.3593869771063328,0.4027367721498013,-9.763260281682015,14964.0
30.29,3.0,348.0,21.21725082397461,31.2584228515625,-79.78277471671763,40.45895892003793,299.5875354003906,-0.0040157567709684,-0.0246965028345584,-0.7678084969520569,0.6401907801628113,0.1368526969655909,0.1156680771242375,3.0167155600369178,0.098515398800373,-0.0074064964428544,0.0395158529281616,0.3809553822129965,0.3356580258160829,-9.67890367090702,14964.0
30.39,3.0,344.0,21.174680709838867,31.250471115112305,-79.78277457092844,40.45895892519278,299.89624740600584,-0.0034242689143866,-0.02232052013278,-0.7687255144119263,0.6391801834106445,0.1225868969054442,0.1303312051921467,2.9932450749745776,0.0682194307446479,0.0134200220927596,0.1165749654173851,0.3251344994455576,0.1707496971264481,-9.540566734671591,14964.0
30.59,3.0,343.0,21.258569717407227,30.463245391845703,-79.7827743240954,40.45895889356584,300.50369789123533,-0.0024964290205389,-0.0229587294161319,-0.7699671387672424,0.6376655101776123,0.1049267597591551,0.1224023249384646,3.006103351861417,-0.0836405381560325,0.0115603068843483,-0.0351621843874454,0.3633813928440213,0.3864049872010947,-9.8357487988472,14965.0
30.69,3.0999999046325684,341.0,21.288618087768555,29.365901947021484,-79.78277428729393,40.45895887289958,300.8046775054932,0.0002260837645735,-0.0251513607800006,-0.7699838280677795,0.6375675797462463,0.1150706328426332,0.1268955745543127,2.9993864543232567,0.0570087954401969,0.1192930340766906,-0.031524296849966,0.2552802991122007,0.4431134773045777,-9.730581362843514,14965.0
30.79,3.2000000476837163,344.0,21.029443740844727,34.41527938842773,-79.78277413831692,40.45895884004975,301.411996383667,0.0031949141994118,-0.0286587383598089,-0.7693219780921936,0.6382102370262146,0.1187262703810749,0.1594070915037067,2.9866757736311964,-0.0200041215866804,-0.0067584621720016,0.1385098695755005,0.3052253148704767,0.0263683844357729,-9.72847461104393,14966.0
31.0,3.2000000476837163,345.0,21.22476387023925,30.08156013488769,-79.78277393660115,40.458958781307935,302.016337890625,-0.0010330530349165,-0.0285807456821203,-0.76885986328125,0.6387773752212524,0.1445777043793199,0.1704424178270669,3.00967384348866,-0.021673385053873,-0.0812794491648674,0.0202629137784242,0.4417840762808919,0.3002627281285822,-9.761686211228367,14967.0
31.19,3.2000000476837163,345.0,21.30739974975586,28.79337310791016,-79.78277392411816,40.4589587477705,302.3173003387451,-0.0051704114302992,-0.0250479634851217,-0.7685920000076294,0.6392279267311096,0.1512593777848223,0.1401833650452364,3.0016299473304264,-0.0195596199482679,-0.0786597579717636,0.0508353039622306,0.2752939661219716,0.1743887848779559,-9.79042410671711,14967.0
31.29,3.2000000476837163,345.0,21.06199645996093,33.85070037841797,-79.78277392121537,40.45895872175413,302.61812927246086,-0.0080625461414456,-0.024693626910448,-0.7684260606765747,0.6394111514091492,0.1489519073450474,0.0978648622124717,2.994859310218305,-0.0191932152956724,0.0067601962946355,-0.0712320879101753,0.225366071742028,0.3003263348713517,-9.684012967944144,14967.0
31.39,3.2000000476837163,345.0,21.20848655700684,30.91649627685547,-79.78277380561548,40.45895871891812,303.218486328125,-0.0056072864681482,-0.0261555705219507,-0.7682051658630371,0.6396446824073792,0.1408056698254763,0.0801256445709959,2.982955308267824,-0.0345855392515659,0.0742678269743919,0.0067771896719932,0.1703621180914342,0.3939017754793167,-9.708666583299635,14968.0
31.59,3.2000000476837163,346.0,21.122095108032227,32.60227203369141,-79.78277380977823,40.45895872865671,303.82941772460936,-2.503983341739513e-05,-0.0263896435499191,-0.7684884071350098,0.6393193602561951,0.11230051984365,0.0929025955395871,3.039624935316352,0.0263235848397016,-0.0041778022423386,-0.0662629902362823,0.3291701015084982,0.2433809228986501,-10.02728253364563,14968.0
31.79,3.2000000476837163,347.0,21.00189781188965,34.494796752929695,-79.78277383431842,40.45895873490577,304.1342234802246,-0.0001854379370342,-0.0234965197741985,-0.7685953974723816,0.6393035650253296,0.1045775284593651,0.0978606093103376,3.0461812424169508,0.0330231748521328,-0.0689670443534851,0.0196649692952632,0.2970104154199361,0.1583461995609104,-9.86406101703644,14969.0
31.9,3.2000000476837163,348.0,21.288618087768555,29.33409309387207,-79.7827737665403,40.45895876302239,304.437236328125,-0.0021091639064252,-0.0209532510489225,-0.7688933610916138,0.6390302181243896,0.0873029519706372,0.0794835369475454,3.0473170253444963,-0.0958382338285446,-0.0584570728242397,-0.0171127114444971,0.1669721217267215,0.1661528719961643,-9.921844371557237,14969.0
32.09,3.0999999046325684,348.0,21.089542388916016,32.85673141479492,-79.7827737328345,40.45895883213832,305.046065826416,-0.0042373496107757,-0.0225777942687273,-0.769053041934967,0.6387721300125122,0.0977197923129059,0.046729231621876,3.0350949948152057,0.0019622885156422,-0.0034017423167824,-0.0450500808656215,0.2836661008559168,0.4100053728371858,-9.872333657741546,14970.0
32.19,3.2000000476837163,349.0,21.014419555664062,33.826847076416016,-79.78277377301785,40.458958840745,305.35123779296873,-0.0029831668362021,-0.0227017980068922,-0.7682971358299255,0.6396837830543518,0.0979884493711815,0.0515422897370868,3.0648728818048148,-0.041730560362339,0.0053023141808807,-0.0581061989068985,0.3007446848787367,0.5178560961037875,-10.048464657068251,14970.0
32.29,3.0999999046325684,350.0,21.174680709838867,30.87673759460449,-79.78277379798777,40.45895893372311,305.9672198486328,-0.0035548575688153,-0.0223056133836507,-0.7666730880737305,0.641640305519104,0.0959647346611743,0.0534264591626961,3.1020708257764937,-0.0396549105644226,-0.0228221081197261,-0.1092583015561103,0.2888080143928528,0.5131339943781495,-9.960192750692368,14970.0
32.49,3.2000000476837163,349.0,21.16716957092285,31.6560115814209,-79.78277388540438,40.4589590255041,306.5821223449707,-0.0064085335470736,-0.0182975847274065,-0.7654871940612793,0.643159031867981,0.0978005643471017,0.0274730335285888,3.073488384618254,-0.1112834066152572,-0.0844901129603385,-0.0145338801667094,0.227331485375762,0.3717837321013213,-9.744451543092726,14971.0
32.6,3.2000000476837163,349.0,21.17718505859375,31.958179473876957,-79.7827739413477,40.45895902794425,306.88957550048826,-0.0061876131221652,-0.0187186542898416,-0.7653173208236694,0.6433511972427368,0.0995429702370152,0.0144537378718155,3.0714274311278973,-0.0496857874095439,0.0221155732870102,0.0688198208808898,0.2124342965148389,0.4004756538569928,-9.800852031111717,14971.0
32.79,3.0999999046325684,350.0,21.11458396911621,32.41143035888672,-79.78277399562613,40.4589590279998,307.1972918701172,-0.0049466737546026,-0.0211851224303245,-0.7657637596130371,0.6427538990974426,0.1086991316127132,0.0206894128998774,3.0763777572857047,-0.0278127621859312,0.009520336985588,0.0202143136411905,0.346289506405592,0.3660672382637857,-9.842121094465256,14972.0
32.99,3.2000000476837163,350.0,21.24604797363281,29.59650230407715,-79.78277398581398,40.458959093428405,307.8187480163574,-0.0050392532721161,-0.0244922284036874,-0.7671934366226196,0.6409282684326172,0.1091956456501804,0.062655306049139,3.082775955046139,-0.017194190993905,-0.0601392611861229,0.0378093235194683,0.3630882646143437,0.3869792934134602,-9.823807615041732,14972.0
33.1,3.299999952316284,349.0,21.099557876586918,32.66588592529297,-79.78277398577816,40.45895911620431,308.43826248168943,-0.0098462989553809,-0.0215493235737085,-0.7690992951393127,0.6386901140213013,0.1235777712372728,0.0577384568546434,3.052540402288768,0.027051143348217,-0.0201320108026266,0.0322075821459293,0.3222797060385347,0.3829998246207833,-9.688118298053745,14973.0
33.29,3.299999952316284,348.0,21.1208438873291,31.4810733795166,-79.78277400455794,40.45895912161332,308.7438502502441,-0.0106902169063687,-0.0194604583084583,-0.7696855068206787,0.6380370855331421,0.1383686603854841,0.0538539430786726,3.052277370839468,0.0934861898422241,-0.0083459597080945,0.0849957317113876,0.3291344334930182,0.1124408971890807,-9.762866764068605,14973.0
33.4,3.400000095367432,343.0,21.24855232238769,30.20878982543945,-79.78277390100361,40.45895910107347,309.3634371948242,-0.0005507392343133,-0.0225780326873064,-0.7712624669075012,0.6361164450645447,0.1091770758869742,0.0582801470398168,3.0187480248844487,0.0365266911685466,0.1538293957710266,-0.0181099865585565,0.2874242342635989,0.4957938570901752,-9.43259672820568,14974.0
33.59,3.400000095367432,343.0,20.92552375793457,36.522499084472656,-79.78277399981788,40.45895906967546,309.67406799316404,0.0028648190200328,-0.0253752712160348,-0.7721296548843384,0.6349518895149231,0.0940449976434868,0.1156126280724362,3.00337928189978,0.0995269939303398,0.1042850464582443,0.0484145916998386,0.4171851689368487,0.1118033953662961,-9.44515245437622,14974.0
33.7,3.400000095367432,340.0,21.14338111877441,30.69384765625,-79.78277398232075,40.45895907443378,309.9739527893066,0.0031789294444024,-0.0255198124796152,-0.7729239463806152,0.6339774131774902,0.0786844902350623,0.1353605922995636,2.9986086373339886,0.0338534004986286,0.0065974351018667,0.067016415297985,0.3916714281588793,0.0443218398280441,-9.747197980284689,14974.0
33.79,3.299999952316284,338.0,21.103315353393555,31.711673736572266,-79.78277387457135,40.45895917161641,310.59088088989256,0.0025764228776097,-0.0240127500146627,-0.7728819251060486,0.6340901851654053,0.0543736983274875,0.1253489709391355,3.0254583637021097,-0.0918987467885017,-0.097287617623806,0.0045086154714226,0.2822267721779644,0.0517004960775375,-9.6944484937191,14975.0
33.99,3.299999952316284,333.0,21.100811004638672,32.13311767578125,-79.7827738790881,40.45895919952597,310.89269592285154,0.0009580742917023,-0.0218662563711404,-0.7719520330429077,0.6353039741516113,0.034131562563515,0.1106779505762966,3.006472994738353,-0.0879422202706337,-0.065594270825386,-0.1338165551424026,0.3756188112124801,0.3497315429896116,-9.628011260032654,14975.0
34.09,3.299999952316284,330.0,21.014419555664062,35.51262283325195,-79.78277380304228,40.45895917035137,311.51304580688475,0.0008862277027219,-0.0195296946913003,-0.7696706056594849,0.638141930103302,0.0460630334788945,0.0727841861373312,3.0186907770169613,0.0415226332843303,-0.0046720588579773,-0.0418059080839157,0.3080612875521183,0.2238031292706728,-9.809540993571282,14976.0
34.3,3.299999952316284,325.0,21.01817512512207,32.04565048217773,-79.78277371782924,40.458959355275,312.12763549804686,0.0092418240383267,-0.0182177238166332,-0.7677626609802246,0.6404087543487549,0.0043157346527579,0.0922190263754208,3.0811175832599185,0.044937003403902,0.0251602120697498,-0.0534973554313182,0.2667119346186519,0.1553575231879949,-9.936845988035204,14977.0
34.49,3.2000000476837163,323.0,20.964336395263672,35.059371948242195,-79.78277373186211,40.45895939962832,312.4364772033691,0.011502212844789,-0.0152188604697585,-0.7672465443611145,0.6410685181617737,-0.0114457871375046,0.1031514592654912,3.092924819500075,0.0586571358144283,-0.0153336357325315,0.0450291112065315,0.3606409855931997,0.1185375605430454,-9.924619460105896,14977.0
34.6,3.0999999046325684,319.0,21.149641036987305,30.83697891235352,-79.78277381604987,40.458959480090336,312.7392001342773,0.011533566750586,-0.0129632744938135,-0.7672399282455444,0.6411254405975342,-0.029530582911078,0.0742134028048785,3.1015480614089075,0.0392998754978179,-0.0151307135820388,0.0595940873026847,0.3200532324984669,0.0930555500462651,-10.037661341428755,14977.0
34.79,3.0,318.0,21.13837242126465,31.01987075805664,-79.78277389176665,40.45895953753719,313.3617625427246,0.0053381291218101,-0.0095479236915707,-0.7667955160140991,0.6417983174324036,-0.0160423016973717,0.0609246666617233,3.107178709308663,-0.0693640559911727,-0.1043125391006469,-0.001538488199003,0.3017506069689989,0.2369497531279921,-9.757910079360007,14978.0
34.9,3.0,315.0,21.093297958374023,32.54661178588867,-79.78277386875612,40.45895963447371,313.9717631530761,0.0040679131634533,-0.010273028165102,-0.7672240734100342,0.6412840485572815,0.0180294681843206,0.0481321485620906,3.055228998786968,0.0157754756510257,0.032810803502798,0.1055451557040214,0.2900088863074779,0.0267779179383069,-9.674452770352364,14978.0
35.09,3.0,314.0,21.22476387023925,28.91264915466309,-79.78277377151295,40.45895968608763,314.2812648010254,0.003250622190535,-0.0142644736915826,-0.7677878141403198,0.6405371427536011,0.0290598525161794,0.0691778665590068,3.0587909070519235,-0.0251523591578006,0.0624580755829811,0.1558775454759597,0.318829812258482,0.0047604192607104,-9.784459362030027,14979.0
35.19,3.0,312.0,21.08828926086425,31.58444595336914,-79.78277376407112,40.45895968090097,314.5869288635254,0.0030615297146141,-0.0179299935698509,-0.7682966589927673,0.63983553647995,0.0563556836983048,0.0929772749955482,3.045428155056184,-0.0203142389655113,0.0148104531690478,0.0554028414189815,0.3805453462153673,0.0643298423476517,-9.662325645089153,14979.0
35.39,3.0,313.0,21.139623641967773,30.47914886474609,-79.78277372171917,40.4589597016978,315.2014308166504,0.0064968643710017,-0.0202427506446838,-0.7690055966377258,0.6388885378837585,0.0644135612769229,0.1159467049756409,3.0242263175992843,0.0124728754162788,-0.021583953872323,-0.0294016003608703,0.4480282813310623,0.1743582697212696,-9.788523761630056,14980.0
35.49,3.0,314.0,21.1208438873291,31.409507751464844,-79.78277365280475,40.45895964920438,315.8159289550781,0.0076426323503255,-0.0185807254165411,-0.7689462304115295,0.6389976739883423,0.0678033790148374,0.1391476959654725,3.0350373558856165,0.026655288413167,0.0232977662235498,-0.0329077020287513,0.3345811879634857,0.3759010124579073,-9.748821167349815,14980.0
35.59,3.0,314.0,21.189706802368164,29.03192710876465,-79.78277363421945,40.458959615561206,316.11978103637693,0.0071046450175344,-0.0169840715825557,-0.768497884273529,0.6395874619483948,0.0830423631860898,0.1387783159895579,3.0340492799767818,0.0933357179164886,-0.010203942656517,-0.0286266542971134,0.4230636306479573,0.2045204921253025,-9.783437268733977,14981.0
35.8,3.0,315.0,21.125850677490234,31.60830116271973,-79.78277354916804,40.45895960677886,316.7286067199707,0.0061764256097376,-0.0158604457974433,-0.7681251168251038,0.6400736570358276,0.0708507596972023,0.1279928206070031,2.998019711810336,-0.1236890777945518,-0.0711432099342346,0.0313698202371597,0.37727269615978,0.2763085311278701,-9.612882174253462,14981.0
35.89,3.0,314.0,21.08077812194824,31.838903427124023,-79.78277352495638,40.458959558685606,317.02910568237303,0.003733328776434,-0.020036045461893,-0.76834636926651,0.6397097110748291,0.0846211477048255,0.1311932271981306,3.0086233499800867,-0.0402697399258613,0.0946232229471206,-0.091624915599823,0.3970880694687367,0.3954711681604385,-9.829854805469514,14982.0
36.09,3.0999999046325684,312.0,21.06575393676757,31.91046905517578,-79.78277337282887,40.45895955370399,317.3366465759277,0.0021298909559845,-0.02424624748528,-0.7684176564216614,0.6394855976104736,0.1246235255442659,0.1559842057064913,3.0227407937817343,0.0604457929730415,0.0293425824493169,0.0062980335205793,0.4759667893499136,0.0895601119380444,-9.861419245004654,14982.0
36.29,3.2000000476837163,310.0,21.127103805541992,30.66999244689941,-79.78277327874201,40.45895946382034,317.9427066040039,0.0019091535359621,-0.0251083094626665,-0.7693372964859009,0.6383463144302368,0.113496023216778,0.1867302410354824,3.0127217664348667,-0.0475146360695362,-0.0967116057872772,0.0350951366126537,0.5349912153929473,0.0944353284873068,-9.686102178096773,14982.0
36.39,3.2000000476837163,308.0,21.103315353393555,30.821075439453125,-79.78277316110686,40.45895944069287,318.24564697265623,0.0036811733152717,-0.0236414410173892,-0.7697643041610718,0.6378797888755798,0.104609940419047,0.1794145200129361,2.983396421727333,-0.0180306173861026,0.0190994627773761,-0.1113146021962165,0.4064502657204866,0.4790773984417321,-9.499326322674753,14983.0
36.59,3.2000000476837163,308.0,21.079524993896484,31.99793815612793,-79.78277285829896,40.458959378540285,318.84950592041014,0.0123697854578495,-0.0202265791594982,-0.7696272730827332,0.6380531787872314,0.0655651363058733,0.2025913505370949,2.952924186016795,-0.052028015255928,-0.0028557954356074,-0.0566100478172302,0.3919059745967388,0.1544843328930437,-9.565246077775958,14983.0
36.69,3.0999999046325684,310.0,21.0920467376709,32.029747009277344,-79.78277278462745,40.458959342086594,319.14373733520506,0.014499420300126,-0.0204516947269439,-0.7692774534225464,0.6384227871894836,0.0491005463464743,0.1990753776929331,2.9219099673700395,0.0457984954118728,0.0543537512421608,-0.0061028297059237,0.339251395650208,0.1421149319037795,-9.534361669421196,14984.0
36.79,3.0999999046325684,312.0,21.04822540283203,32.777210235595696,-79.78277259142256,40.458959372444745,319.7398371887207,0.0119095910340547,-0.026267809793353,-0.7683922052383423,0.6393290758132935,0.0611661588080256,0.202562097854908,2.9370692024881166,-0.0718768984079361,0.0682276859879493,-0.0361792929470539,0.321621309556067,0.1568999455869198,-9.767561493515966,14984.0
36.99,3.0999999046325684,312.0,21.127103805541992,30.892641067504893,-79.78277255370102,40.458959336414026,320.03499557495115,0.0106503283604979,-0.0276562012732028,-0.7682030200958252,0.6395200490951538,0.0775525944964532,0.1927081938931396,2.9589169366263626,-0.0563394352793693,0.009599789045751,-0.0112427063286304,0.318295705653727,0.104330196948722,-9.97092005252838,14985.0
37.19,3.0999999046325684,312.0,21.11708641052246,30.20878982543945,-79.78277254421953,40.45895936313679,320.63241149902336,0.0032294990960508,-0.0243850443512201,-0.7678937911987305,0.6401048302650452,0.0868392713981597,0.1453059932667574,2.97642675708271,-0.0619656965136528,-0.1122337281703949,0.0232956055551767,0.2809115689247847,0.0849309900775551,-9.82384386777878,14985.0
37.29,3.0999999046325684,310.0,21.06324958801269,31.84685516357422,-79.7827725620891,40.45895935404955,320.9306063842773,0.0020195513498038,-0.0220667496323585,-0.7678512930870056,0.6402448415756226,0.0775698188432882,0.1035206546511093,2.9784510120008583,-0.052675936371088,-0.0193278286606073,-0.0302285309880971,0.1947478761523962,0.2882539358921349,-9.762434654831882,14985.0
37.49,3.0999999046325684,307.0,20.894222259521484,36.06924819946289,-79.78277248949206,40.45895935231016,321.5190653991699,0.0057665081694722,-0.0193877685815095,-0.7676591873168945,0.6405391097068787,0.0566053779424796,0.0832543183743548,2.936427220220631,-0.0549896247684955,0.0110046984627842,-0.0052036740817129,0.3177363829314709,0.1604487852193415,-9.691972197890284,14986.0
37.59,3.2000000476837163,306.0,20.91175079345703,33.755279541015625,-79.78277256316638,40.45895938169542,322.11300994873045,0.0082391835749149,-0.019089063629508,-0.7675091028213501,0.6407008767127991,0.0426619971838194,0.0931347193975968,2.966458830030297,-0.0477443821728229,-0.0090966708958148,-0.0405898541212081,0.3464630225300789,0.2495043464004993,-9.807461723685265,14987.0
37.79,3.2000000476837163,306.0,20.96558952331543,34.70154190063477,-79.78277259181363,40.458959375646174,322.41035034179686,0.007837968878448,-0.0164411533623933,-0.7675684094429016,0.6407082080841064,0.052554976384821,0.0963436285061589,2.9769084692480967,0.0648959279060363,-0.0168394818902015,0.1352638006210327,0.3601719658076763,-0.0662309914268553,-9.938986068964004,14987.0
37.9,3.2000000476837163,308.0,20.99689102172852,32.33191299438477,-79.78277254327824,40.45895943126881,322.7046008300781,0.0081561375409364,-0.0148511212319135,-0.7677175402641296,0.6405643820762634,0.0464801023281519,0.0897321765505915,2.984012496944826,0.039649449288845,0.014581243507564,0.0906499698758125,0.2983484593592584,-0.0494727982766926,-9.969436029195784,14987.0
38.09,3.299999952316284,306.0,20.99563789367676,33.33383560180664,-79.7827726979661,40.45895953150779,323.2918276977539,0.0049393400549888,-0.0161122549325227,-0.7681313753128052,0.6400705575942993,0.0328382196895156,0.0595975588907204,2.9668692732452024,0.0481473989784717,-0.018014308065176,-0.1079928502440452,0.3816677558049559,0.1991681153699756,-9.76539510011673,14988.0
38.19,3.400000095367432,303.0,20.970598220825195,33.620101928710945,-79.78277273724768,40.458959535893065,323.5874285888672,0.0025816548150032,-0.0156917236745357,-0.7680814266204834,0.6401547789573669,0.039421289883277,0.0641012355775147,2.946531203172593,0.0113531025126576,-0.0082620941102504,0.0194492302834987,0.2972684055380523,0.1402567781321704,-9.643067840337752,14988.0
38.29,3.400000095367432,302.0,20.93553924560547,34.70154190063477,-79.78277272793447,40.45895960811233,324.1709819030761,0.0068416465073823,-0.0169789995998144,-0.7683188319206238,0.6398055553436279,0.0494140415564325,0.0702937649610527,2.9383063535981804,0.1003150716423988,0.0906989052891731,-0.0252016652375459,0.4590118373930455,-0.0093890340579673,-9.90205622434616,14989.0
38.5,3.5,300.0,20.94430351257324,34.892383575439446,-79.78277273675894,40.45895961207732,324.46669342041014,0.0114466557279229,-0.0195399541407823,-0.7681758999824524,0.6398382782936096,0.0356544746977191,0.1024779780272588,2.9753697781431034,0.0634158179163932,0.0930745974183082,0.1661654859781265,0.4859489366412163,-0.0630362463835626,-10.131514999866488,14989.0
38.69,3.5999999046325684,299.0,21.00189781188965,33.23046493530273,-79.7827726418237,40.45895965809569,325.0596499633789,0.0140200657770037,-0.0224606022238731,-0.7680224180221558,0.6398755311965942,0.0177052993682102,0.1518595207556608,3.015132351098246,-0.025981007143855,0.0401823297142982,-0.0266519617289304,0.4407338798046112,0.1237785935215652,-10.039099756479263,14990.0
38.79,3.5999999046325684,299.0,21.053232192993164,31.425411224365234,-79.78277264707059,40.45895965831564,325.36292221069334,0.0134938834235072,-0.0242548454552888,-0.7677846550941467,0.6401066184043884,0.0281380607144433,0.1545112868352884,3.0416981068399536,0.0334140323102474,0.0271060969680547,0.0167344715446233,0.5064756237342954,0.2223783089965582,-10.05201157808304,14990.0
38.89,3.700000047683716,298.0,21.085786819458008,30.66999244689941,-79.7827726412204,40.45895969569431,325.95943405151365,0.00985240470618,-0.0195603873580694,-0.7675734758377075,0.640586793422699,0.0478359894899172,0.1467849922065126,3.0352616137808024,0.0734434872865676,-0.1345683932304382,0.0075301998294889,0.488434697650373,0.1539876119233668,-9.814815766811371,14990.0
39.09,3.700000047683716,298.0,21.00189781188965,32.880584716796875,-79.78277263719768,40.45895987439954,326.25140335083006,0.0086102252826094,-0.0168690588325262,-0.7675171494483948,0.6407485604286194,0.0211851395118664,0.1238975399809356,2.9919983033925868,0.0571328066289424,0.0098892841488122,0.0500767193734645,0.412415229678154,0.102478703521192,-9.530584368109704,14991.0
39.29,3.700000047683716,296.0,20.99188232421875,34.00973892211914,-79.78277265520146,40.4589598969245,326.84575607299803,0.0110075939446687,-0.0203417036682367,-0.7665534615516663,0.6417638659477234,0.0087746738103593,0.1067931845446669,2.952795693930338,-0.09080670773983,0.04395791888237,-0.1557001620531082,0.38915946431458,0.2922807123139501,-9.543676283955577,14991.0
39.39,3.700000047683716,296.0,21.00189781188965,32.45119094848633,-79.78277260937962,40.45895981463285,327.1466860961914,0.0124165536835789,-0.021806638687849,-0.7657924294471741,0.6425981521606445,0.0434997627835364,0.130449004610422,2.9350591138974087,-0.0688254684209823,-0.0561917424201965,-0.0506786555051803,0.5360941464453935,0.0447466172045096,-9.574232078790663,14992.0
39.59,3.5999999046325684,294.0,20.82285499572754,36.74514770507813,-79.78277259690873,40.45895983178729,327.748328704834,0.0100172525271773,-0.0256788153201341,-0.7648608684539795,0.6436055898666382,0.0536839597439777,0.1354506430798832,2.9588072875220086,-0.039514672011137,-0.0100016128271818,-0.0287970062345266,0.4376124899089336,0.1457026555202901,-9.752672728300093,14992.0
39.7,3.5999999046325684,294.0,20.973100662231445,32.983959197998054,-79.78277262643263,40.45895982660063,328.0448908996582,0.0106165064498782,-0.0256006382405757,-0.7646478414535522,0.6438521146774292,0.0568799992425019,0.1246532774274439,2.9704087868284463,-0.0441246964037418,-0.0135446349158883,0.0310303084552288,0.3232565930485725,0.0422651182673871,-9.883752100467682,14993.0
39.9,3.5999999046325684,293.0,21.09705352783203,29.97818756103516,-79.78277259064043,40.45895984078192,328.6488833618164,0.0131496926769614,-0.0188783127814531,-0.7645270228385925,0.6441810727119446,0.0450433142899698,0.1169119685652737,2.999566261286156,0.1297099739313125,-0.0846616849303245,-0.0465863905847072,0.5092545860633254,0.1714784063771367,-9.849872163534164,14993.0
40.0,3.5999999046325684,292.0,21.026939392089844,32.54661178588867,-79.78277263464186,40.45895983938888,328.94824935913084,0.0127983009442687,-0.013269480317831,-0.7647154331207275,0.6441044807434082,0.0110024638111919,0.099758159189156,2.9821881716598733,-0.0094600515440106,-0.077351190149784,-0.1081821173429489,0.4473334128409625,0.3590307354927063,-9.650427730679512,14993.0
40.19,3.5999999046325684,292.0,20.96558952331543,32.4432373046875,-79.78277269087104,40.45895992089202,329.5410800170898,0.0133269866928458,-0.012675080448389,-0.7661998271942139,0.6423391699790955,-0.0036713457729393,0.0469097771480095,2.9615795832905283,0.0517509542405605,0.1295747309923172,-0.0578850321471691,0.3418939716741442,0.2549618085846305,-9.790275002717973,14994.0
40.29,3.5,290.0,21.05198097229004,32.23649215698242,-79.78277275272377,40.45895991862847,329.83813049316404,0.0147375455126166,-0.0166276302188634,-0.7672736644744873,0.6409348845481873,0.0029048807640078,0.0560164629630788,2.976793026960608,0.0066880155354738,0.0473664365708828,0.0269404556602239,0.4209463538601994,0.0192931758379563,-9.909269349575045,14994.0
40.49,3.5,291.0,21.00565528869629,32.97600555419922,-79.78277270350495,40.45896019146251,330.4451022338867,0.0121276825666427,-0.0180696733295917,-0.7691303491592407,0.6387214064598083,-0.0287175768933567,0.0957373907356102,2.989375427668852,-0.0700035840272903,-0.0399552807211875,-0.0492765493690967,0.4553367161750794,0.1796550796553492,-9.84667958378792,14995.0
40.59,3.5,290.0,20.89046669006348,34.5822639465332,-79.78277282716124,40.45896015547848,330.7481265258789,0.0113118179142475,-0.0175164844840765,-0.7696198225021362,0.6381618976593018,0.0114972461673774,0.081143725061335,3.0144887421623983,-0.0358528308570385,-0.0341780073940753,-0.0007743978640064,0.4378876014053822,0.1923963452875614,-9.961344652175905,14995.0
40.79,3.400000095367432,289.0,20.90048217773437,34.76515579223633,-79.78277296227246,40.45896016450827,331.357100982666,0.0115870116278529,-0.0178378112614154,-0.7696616053581238,0.6380975842475891,0.0103403457605426,0.0663006500223541,3.0738144930306723,-0.054976936429739,-0.0443937741219997,-0.0422027632594108,0.4618995213881135,0.0926049946714192,-10.07385326743126,14996.0
40.89,3.400000095367432,288.0,20.89797782897949,34.367565155029304,-79.78277295831803,40.45896018967561,331.66150619506834,0.0087355999276041,-0.0163070671260356,-0.7691522240638733,0.6387977600097656,0.0260930609997009,0.0730048475893404,3.086063670189942,-0.0227280482649803,-0.0787035599350929,-0.0551950596272945,0.3823393450677395,0.04749221842736,-10.04848102927208,14996.0
41.09,3.400000095367432,285.0,21.04822540283203,30.74155807495117,-79.78277307641349,40.45896014789032,332.2732386779785,0.0062625729478895,-0.0110648097470402,-0.7680835127830505,0.6402235627174377,0.0531383939088389,0.0440356093986538,3.118699430536464,0.0536571182310581,-0.0304294470697641,0.0318455584347248,0.3183767626807093,-0.0450632850453257,-9.980366814136506,14997.0
41.2,3.299999952316284,287.0,21.11708641052246,29.61240577697754,-79.78277313407551,40.45896013404672,332.5844073486328,0.0047290148213505,-0.0084251882508397,-0.7675895094871521,0.6408690214157104,0.0461747644993285,0.0336112645923162,3.1047803337357154,0.055382415652275,0.0048681697808206,0.1119163185358047,0.2572040147893131,-0.127297365674749,-9.754191834926608,14997.0
41.39,3.299999952316284,288.0,20.964336395263672,32.33986282348633,-79.78277315839767,40.458960054815385,333.196944732666,0.0070055574178695,-0.0095269223675131,-0.7668092846870422,0.6417661905288696,0.0429591819081023,0.0278489390173836,3.0233658568226653,-0.0687902942299842,0.0663686618208885,0.0198069643229246,0.2977853176742792,0.1703769554011524,-9.421510407328606,14998.0
41.49,3.400000095367432,288.0,21.03069496154785,30.67794418334961,-79.78277319203991,40.45896001752137,333.4986720275879,0.0074395490810275,-0.012597594410181,-0.7664932608604431,0.6420857310295105,0.0539863037395499,0.0534276430980942,3.0146780596057527,0.0102599142119288,0.0362300612032413,-0.101235494017601,0.4396709290891886,0.2062684989720583,-9.681477615237236,14998.0
41.59,3.299999952316284,289.0,21.00690650939941,32.38757705688477,-79.78277323493734,40.45896007057223,334.11880065917967,0.0066320104524493,-0.0161927826702594,-0.7659055590629578,0.6427149772644043,0.0692317862670847,0.0888426984624854,3.0196784013508022,0.0293068531900644,0.030176255851984,-0.0079926811158657,0.3260865723341704,0.2626505499891937,-9.635935406684876,14999.0
41.79,3.400000095367432,290.0,20.904237747192383,34.82876968383789,-79.78277315881684,40.45895998646159,334.73179580688475,0.0068737189285457,-0.0173637550324201,-0.7656885981559753,0.6429404020309448,0.0879302762205071,0.1021902122227541,3.0005735305754744,0.0336524210870266,0.0961751416325569,0.0519091859459877,0.3986074319109321,0.1164187762700021,-9.631276929974558,14999.0
41.99,3.400000095367432,290.0,21.03069496154785,29.96228408813477,-79.78277317303173,40.45895994534217,335.0326914978027,0.0076995720155537,-0.019155129790306,-0.7658088207244873,0.6427368521690369,0.086314245760565,0.1046648174604953,3.0213833043071614,0.0613862797617912,0.0372467748820781,-0.0101485075429081,0.3556205662339926,0.1983057241514324,-9.94160562157631,15000.0
42.09,3.400000095367432,291.0,21.093297958374023,30.23264503479004,-79.7827730716578,40.45895996012819,335.3476672363281,0.0071420236490666,-0.0184307061135768,-0.7659351229667664,0.6426140666007996,0.0753536170958195,0.1333809588306572,3.0723822924968283,-0.0116837909445166,-0.079321764409542,0.0543073639273643,0.4982136541977525,0.133783535817638,-10.054969099760056,15000.0
42.29,3.5,291.0,21.03445243835449,31.886613845825195,-79.78277305158394,40.45895989457445,335.95973541259764,0.0062322402372956,-0.0170777086168527,-0.7663313746452332,0.6421882510185242,0.0623293273527794,0.1170943322250519,3.025895976694797,0.0191357061266899,0.0550500154495239,-0.0671085864305496,0.3233127994090319,0.2260244134068489,-9.493186161518098,15000.0
42.39,3.400000095367432,292.0,20.882953643798828,34.367565155029304,-79.78277298750992,40.45895991654579,336.5644869995117,0.0097588570788502,-0.0205147936940193,-0.7662456035614014,0.642146110534668,0.0498191691381632,0.1253198011694683,2.980337408399393,0.0263482835143804,0.0586246997117996,-0.0343102253973484,0.3903372397273779,0.1344042451679706,-9.60730042219162,15001.0
42.49,3.400000095367432,292.0,20.707666397094727,39.027305603027344,-79.78277295271997,40.45895989402857,336.87710144042967,0.0118982717394828,-0.0200403854250907,-0.7662281394004822,0.6421458721160889,0.0578895978000546,0.1294671897884913,3.0371803246531743,0.0510951876640319,-0.0065098432824015,0.0338114760816097,0.3786024260893464,0.1684679856710136,-10.039291545152665,15001.0
42.69,3.400000095367432,293.0,21.03069496154785,30.79722023010254,-79.78277296958571,40.45895987276743,337.18434478759764,0.0135023798793554,-0.0180940721184015,-0.7663766741752625,0.6419947743415833,0.0378867036705011,0.1268562984859741,3.0955998141308423,-0.0371515601873397,-0.0570140704512596,-0.0222475938498973,0.3540856721252203,0.144480751901865,-10.227706375122072,15002.0
42.89,3.400000095367432,293.0,21.019428253173828,31.775287628173828,-79.78277293367069,40.45895987667953,337.8012194824218,0.0084744831547141,-0.0135562820360064,-0.7659445405006409,0.642707884311676,0.033762105424173,0.105809963009192,3.0800197821978856,-0.0809149593114852,-0.0908351838588714,-0.0415775030851364,0.2867916934378445,-0.0077109151426702,-9.778033856749538,15002.0
43.0,3.299999952316284,293.0,20.78278923034668,36.82466506958008,-79.78277295850057,40.45895985494992,338.1083483886718,0.0042129680514335,-0.0128847490996122,-0.7656703591346741,0.6430904269218445,0.0334638362020924,0.0812318084315366,3.0595500273197054,-0.1450683027505874,-0.0423015356063842,-0.0874903574585914,0.21325482532382,0.1643973734043538,-9.603372262716292,15003.0
43.09,3.299999952316284,292.0,21.02443504333496,31.24251937866211,-79.78277295063481,40.45895985120879,338.7216143798828,0.0043683010153472,-0.0141431782394647,-0.7658553123474121,0.6428425312042236,0.0706539525063,0.0561006004072107,3.074978438917612,0.0514351725578308,0.0697321370244026,-0.0221551973372697,0.2796294572576881,-0.0027962618647143,-9.903377695083616,15003.0
43.29,3.299999952316284,289.0,21.07201385498047,30.05770492553711,-79.78277296666393,40.45895983476582,339.02953674316404,0.0049801613204181,-0.0149837527424097,-0.7664064764976501,0.6421618461608887,0.0612858894741724,0.0755872808254441,3.0887053589634705,0.0573229305446147,0.0370446927845478,0.1507653146982193,0.2747057362273336,-0.0825786186754703,-9.958625696897505,15004.0
43.39,3.299999952316284,290.0,20.90048217773437,34.256240844726555,-79.7827729413339,40.45895982832406,339.6468310546875,0.0065580084919929,-0.0101766213774681,-0.7673113346099854,0.6411604285240173,0.0574519050945404,0.0876424805250002,3.077946316052283,0.1344246119260788,0.0260684471577406,0.1263786554336548,0.227674662116915,-0.1024706361908465,-9.805084830522537,15004.0
43.59,3.2000000476837163,292.0,20.90549087524414,33.50082397460937,-79.78277293494297,40.45895989180272,340.26163818359373,0.0083588398993015,-0.013044998049736,-0.7671910524368286,0.6412315368652344,0.0196639508647802,0.0765692048783456,3.0885957215817204,-0.0193346831947565,0.0573896616697311,0.096508041024208,0.2490986227244139,-0.14810163105838,-9.872291557788849,15005.0
43.79,3.0999999046325684,295.0,21.04572105407715,31.27432632446289,-79.78277294491569,40.45895987793698,340.5708117675781,0.0083326259627938,-0.0157696977257728,-0.7666475176811218,0.6418204307556152,0.0343512486571605,0.0899000266051712,3.093763617341648,0.0006511650863103,0.0420942716300487,0.0264162812381982,0.2341707177087665,0.0077410100307315,-9.829858313798905,15005.0
43.89,3.0,303.0,20.88670921325684,34.136966705322266,-79.78277288546626,40.45895989469079,340.8780322265625,0.008538631722331,-0.0162874609231948,-0.7659781575202942,0.6426035761833191,0.0487837508691554,0.1003207663482375,3.0715310472940724,0.0269739739596843,0.0156896505504846,-0.034075990319252,0.2823052527755499,0.2399758334085345,-9.675606426000597,15005.0
44.09,3.0,304.0,21.07827377319336,30.407583236694336,-79.78277284427573,40.45895989031419,341.4961581420898,0.0052232625894248,-0.0147417252883315,-0.7650841474533081,0.6437404751777649,0.0625975048710273,0.0871732686010577,3.076321302963384,0.0457029417157173,-0.0446724146604538,-0.0730089992284774,0.3046975671127439,0.2365898204594851,-9.876274681091306,15006.0
44.19,3.0,311.0,21.010662078857425,31.958179473876957,-79.78277286472292,40.45895985939733,341.803447265625,0.0029229640495032,-0.0133322421461343,-0.7648546695709229,0.6440582275390625,0.0710755428730561,0.0776974445929498,3.0599559483350065,-0.0006530124810524,-0.0496111437678337,-0.001381536363624,0.2617404491454363,0.2180216582491994,-9.705604981184006,15006.0
44.29,2.900000095367432,315.0,20.85916519165039,35.22636032104492,-79.78277282242557,40.45895974364331,342.42240478515623,-0.0013800216838717,-0.0128706097602844,-0.7650197744369507,0.6438766717910767,0.111684482172569,0.0599086501668436,3.0464487324439835,0.0265477988868951,0.0291733033955097,0.0555315241217613,0.1937074920348824,0.0859283149335533,-9.812964538335802,15007.0
44.51,2.900000095367432,323.0,20.92552375793457,32.936248779296875,-79.78277281663549,40.458959702114335,343.04147674560545,-0.0049027511849999,-0.0164436809718608,-0.7656052708625793,0.6430819034576416,0.1256978113898472,0.0577626037532826,3.1007371765469065,0.0198633708059787,-0.0213678162544965,0.0337460711598396,0.1910786752402782,0.1896693500876426,-10.01563721895218,15008.0
44.69,2.900000095367432,327.0,21.17092514038086,28.34012222290039,-79.78277282307877,40.45895966223296,343.3526187133789,-0.0038233904633671,-0.015840770676732,-0.765740692615509,0.6429430842399597,0.1198677295120844,0.0620448712141106,3.110324600734793,-0.0304275285452604,-0.0247964318841695,-0.0141419740393757,0.2183201220631599,0.2574787425622344,-9.903198770284654,15008.0
44.8,2.900000095367432,336.0,21.010662078857425,30.646137237548828,-79.78277282727367,40.45895962890675,343.66279174804686,-0.0021531952079385,-0.0152969285845756,-0.7658795118331909,0.6427986025810242,0.1041243025529563,0.0648428538294957,3.0790448116130675,-0.0345413014292717,0.0071096308529376,-0.0394298136234283,0.2391569308564067,0.3486474692076445,-9.558207199573518,15008.0
44.99,2.900000095367432,340.0,21.039459228515625,30.97216033935547,-79.78277281581786,40.45895958993695,344.27821685791014,-0.0007955085602588,-0.0134117677807807,-0.7658109068870544,0.6429255604743958,0.1074413861603886,0.0720830905931455,3.0088085416770687,0.070140466094017,0.003690649755299,-0.0093762781471014,0.2119874047860503,0.1774970002658665,-9.477008085250857,15009.0
45.09,2.900000095367432,348.0,20.96934509277344,31.377700805664062,-79.7827727587282,40.45895960194365,344.8906893920898,0.0007147468859329,-0.0162185057997703,-0.7650535702705383,0.6437620520591736,0.0961606569144061,0.0701440303410443,3.001318187410956,-0.0091470452025532,0.0236887354403734,0.0620100870728492,0.3038357057981193,0.0223450615257024,-9.714051284193992,15009.0
45.29,2.900000095367432,352.0,21.00690650939941,31.4810733795166,-79.78277276118352,40.458959567765454,345.1905627441406,-0.0003777848323807,-0.018615311011672,-0.7649424076080322,0.6438295245170593,0.1055252303378169,0.0824645347627093,2.9903250407990107,-0.0149416280910372,-0.017831852659583,0.0363268032670021,0.3373006914183498,0.1306874990835786,-9.71632000386715,15010.0
45.39,3.0,356.0,20.881702423095703,33.65985870361328,-79.78277266585827,40.45895958959785,345.501201171875,-0.0024384257849305,-0.019513364881277,-0.7650634646415709,0.6436545252799988,0.1242445534892861,0.1011166470297695,3.007867985776813,-0.0286219026893377,-0.0146433673799037,0.1358167380094528,0.2834684101492166,0.0637972523644566,-9.758978950381278,15010.0
45.49,3.0,357.0,20.968093872070312,31.902517318725582,-79.78277259342849,40.45895949102968,346.1093325805664,-0.0067200129851698,-0.0194610971957445,-0.765480637550354,0.6431295275688171,0.1542984981587451,0.0900882989385735,3.0313637190237066,0.034175768494606,0.0012520591262727,0.0108502740040421,0.1857694765180349,0.2591604383289814,-9.854140630960464,15011.0
45.7,3.0,356.0,20.907995223999023,34.20058059692383,-79.78277258066878,40.45895944483176,346.4136309814453,-0.0065090130083262,-0.0183581002056598,-0.7658548951148987,0.642718493938446,0.1594259025158674,0.0836383716344245,3.0541533830769123,0.072000078856945,0.0296433847397565,0.0500350520014762,0.2187300118803978,0.3529535415396094,-10.0296974337101,15011.0
45.79,3.0,357.0,21.040712356567383,30.45529365539551,-79.78277249182018,40.45895945208216,347.03043701171873,-0.003422541776672,-0.0178810693323612,-0.7662416696548462,0.6422945857048035,0.1217743773566509,0.0846241275355944,3.0935916007311084,0.0576798468828201,-0.003291435772553,0.0022246926091611,0.2784955725073814,0.3429377727583051,-9.95310358643532,15012.0
46.0,3.0999999046325684,359.0,20.92677497863769,32.4989013671875,-79.78277239216898,40.45895947017368,347.6473117065429,-0.0013937489129602,-0.0160602442920207,-0.7669291496276855,0.6415292620658875,0.1072189021049633,0.0886025759089176,3.069335383730061,0.034026138484478,0.0052195815369486,0.105172798037529,0.2243863524869084,0.2465187398158013,-9.759135071039198,15012.0
46.19,3.0999999046325684,0.0,21.04572105407715,30.32011413574219,-79.78277237627441,40.45895943975996,347.954700012207,-0.00219148513861,-0.0167551208287477,-0.7673863172531128,0.6409624218940735,0.0990068390670008,0.0864982963879053,3.076204211748016,-0.0236610304564237,0.0174803379923105,0.0367777645587921,0.1905722698196769,0.2467517696321011,-9.88851173400879,15012.0
46.3,3.0999999046325684,2.0,20.93553924560547,34.21648406982422,-79.78277236150034,40.45895941178117,348.26252319335936,-0.0040688682347536,-0.0181274730712175,-0.7672859430313109,0.6410360336303711,0.1025798767062195,0.0891336263004353,3.0701681465192365,-0.0213560946285724,0.0097130872309207,-0.0681722313165664,0.2416899994947017,0.384650164693594,-9.777012348175049,15013.0
46.49,3.0999999046325684,2.0,20.86417388916016,34.66178131103516,-79.78277225254398,40.45895941535375,348.8725390625,-0.0053475596942007,-0.0163349118083715,-0.7664667367935181,0.6420539617538452,0.1159301216570788,0.0825344256962924,3.0484987675653765,0.0582327172160148,0.0164464823901653,0.0205052234232425,0.1456900657340884,0.2706414462625981,-9.821957556009291,15013.0
46.59,3.2000000476837163,2.0,20.866676330566406,33.28612518310547,-79.78277218074525,40.45895938088168,349.49025299072264,-0.0026201191358268,-0.0169519018381834,-0.7661466002464294,0.6424369812011719,0.1102540540375857,0.0762668905763692,3.095451120110582,0.0565308332443237,0.0428733676671981,-0.0009970809333026,0.253697713650763,0.3314280769228936,-10.11416397213936,15014.0
46.79,3.0999999046325684,1.0,20.91300392150879,33.88250732421875,-79.78277216113644,40.45895935442865,349.8017687988281,-0.0026077171787619,-0.0173031520098447,-0.7665103077888489,0.6419937014579773,0.1086907244908444,0.0930891613033462,3.1215741421095533,0.0497253574430942,-0.0231921561062336,0.0022367127239704,0.2921203524246812,0.3547311681881547,-10.022710011005405,15014.0
46.89,3.0999999046325684,358.0,21.00690650939941,30.74950981140137,-79.7827720746982,40.45895939047856,350.1104006958008,-0.0022345024626702,-0.0161716621369123,-0.7670778036117554,0.6413464546203613,0.1083102576439913,0.0937051561834754,3.1068381813653003,0.043703120201826,0.007020509801805,0.0787080153822898,0.2749964524805546,0.3002444921247661,-9.922015110254286,15015.0
47.09,3.2000000476837163,358.0,20.90048217773437,33.309982299804695,-79.78277187424928,40.4589594353861,350.73063995361326,0.0027114474214613,-0.0144153274595737,-0.7686315178871155,0.6395236849784851,0.0949736476251974,0.1135183486787302,3.0867486927896817,0.1301333308219909,0.0181665178388357,0.000614461954683,0.2684011586755514,0.1796245644986629,-9.695345456600188,15015.0
47.19,3.2000000476837163,358.0,20.97184944152832,31.47312164306641,-79.78277183643145,40.45895940388355,351.0394091796875,0.0053129307925701,-0.0128254555165767,-0.7681559920310974,0.6401122808456421,0.0743045782398582,0.119054101664015,3.0881078898672434,-0.0571601279079914,-0.0249425377696752,-0.0901728644967079,0.2492465207353234,0.2572822030261159,-9.805429816246033,15016.0
47.29,3.0999999046325684,358.0,20.9555721282959,31.63215637207031,-79.78277174684783,40.458959331236095,351.6669421386718,-0.0038279658183455,-0.0230756159871816,-0.7664685249328613,0.6418558359146118,0.1060634390463509,0.1251629190211159,3.1203591086978544,-0.1523046493530273,0.0459778979420661,-0.0954617485404014,0.2610337583161891,0.3506931176036596,-9.927166507244111,15016.0
