time,wind_speed,wind_angle,battery_voltage,battery_current,position_x,position_y,position_z,orientation_x,orientation_y,orientation_z,orientation_w,velocity_x,velocity_y,velocity_z,angular_x,angular_y,angular_z,linear_acceleration_x,linear_acceleration_y,linear_acceleration_z,node_ids
0.0,1.5,4.0,24.55021095275879,0.0159035474061965,-79.78276927102341,40.45898390878595,269.08016185617447,0.0251918956637382,0.0153952771797776,-0.6827127933502197,0.7300902009010315,0.0243031459008758,-0.0144862798564663,0.0049890834230291,-0.0027918214909732,-0.0001176534497062,0.0020884920377284,0.1457553626876324,-0.5642222138866783,-9.79555737733841,14934.0
0.2,1.399999976158142,6.0,24.543949127197266,-0.0238553211092948,-79.78276924481793,40.45898385327389,269.0801038608551,0.0251758825033903,0.0154001023620367,-0.6827130913734436,0.7300903797149658,0.019265532190252,-0.0102868220029994,0.0038804244541615,0.0004803279589395,-0.0008659423911012,0.001328308135271,0.1453078405559063,-0.5512946413457394,-9.794197314977646,14934.0
0.3,1.399999976158142,8.0,24.552715301513672,0.0079517737030982,-79.78276925595434,40.45898383508764,269.0803766117096,0.0251758825033903,0.0154001023620367,-0.6827130913734436,0.7300903797149658,0.0193592341430189,-0.0110926056759761,0.004150076680748,-0.0005051344633102,0.0011583269806578,-0.0038631435018032,0.1451643096841871,-0.5520227658748627,-9.79409615814686,14934.0
0.5,1.399999976158142,4.0,24.551462173461918,0.0079517737030982,-79.78276926771161,40.45898381676128,269.08067326402664,0.025175018236041,0.0154035333544015,-0.6827146410942078,0.7300888895988464,0.0192975484193141,-0.0118145373481949,0.0043495364404481,-0.0027332198806107,-0.0009661905933171,0.0009995920117944,0.1465628540329635,-0.5639732686802745,-9.795708820223808,14934.0
0.6,1.399999976158142,4.0,24.552715301513672,0.0159035474061965,-79.78276927033629,40.45898378657126,269.0811340675354,0.0251502599567174,0.0154123315587639,-0.6826985478401184,0.7301045656204224,0.012301132040609,-0.0125032927481838,0.003334799825742,0.0007725481991656,-0.0019990149885416,0.0005068174796178,0.146359297838062,-0.5650295316427947,-9.795826349258425,14934.0
0.8,1.2999999523162842,6.0,24.5539665222168,0.0238553211092948,-79.78276925525866,40.458983734018936,269.0818346605301,0.0251315888017416,0.01546326931566,-0.6826707124710083,0.7301301360130309,0.0121288971380524,-0.0103525928341866,0.0031920407253102,0.0005735769518651,0.0005616375128738,0.0003182039945386,0.1438048868626356,-0.5517952360957861,-9.794102005362513,14934.0
0.91,1.2000000476837158,9.0,24.55521774291992,0.0079517737030982,-79.78276926644111,40.45898372250471,269.0820824370384,0.0251306910067796,0.0154685750603675,-0.6826825141906738,0.7301190495491028,0.0118482817693015,-0.0107032865500899,0.0035042083270666,-0.0009171934798359,0.0009718723595142,-1.134844023908954e-05,0.1458278224803507,-0.5497651559114456,-9.793669896125794,14934.0
1.1,1.0,11.0,24.552715301513672,0.0159035474061965,-79.78276922175556,40.4589836511,269.0831721291542,0.0251372791826725,0.0154863782227039,-0.6826881170272827,0.73011314868927,0.0150592094298924,-0.0054029614705297,0.003381859145921,-0.0038461033254861,-0.0037907867226749,-0.0043394155800342,0.1487044698558748,-0.5657472773641348,-9.79499019742012,14934.0
1.2,0.8999999761581421,10.0,24.55521774291992,0.0079517737030982,-79.78276918877741,40.45898359295883,269.084557639122,0.0251347552984952,0.0155009562149643,-0.6826815605163574,0.7301191687583923,0.0179472147489636,-0.0043954982945862,0.0031031820264695,0.0011538247345015,0.0017317185411229,0.004032009281218,0.1469877547491342,-0.5662218520045281,-9.796273076534272,14934.0
1.3,0.8000000119209291,7.0,24.55521774291992,0.0238553211092948,-79.78276919280594,40.45898357671836,269.08478103733063,0.0251379739493131,0.0155070107430219,-0.6826872825622559,0.7301135063171387,0.0171883034966278,-0.0048463262872163,0.00351632922969,-0.0032385024242103,-0.0007237536483444,-0.0060443533584475,0.143815731620416,-0.5507329797372222,-9.794320106506348,14934.0
1.5,0.8000000119209291,3.0,24.552715301513672,0.0079517737030982,-79.78276915640411,40.45898350505654,269.08835344171524,0.0251293946057558,0.0155147677287459,-0.6826801896095276,0.7301203012466431,0.0182916751199625,-0.0023248571376626,0.005767209005395,-0.0052134431898593,-0.0002161979937227,-0.0062983692623674,0.1454698449745774,-0.5538906954601407,-9.793012084364891,14934.0
1.7,0.699999988079071,359.0,24.551462173461918,0.0079517737030982,-79.7827691310138,40.458983451409736,269.09299050426483,0.0251220576465129,0.0155138112604618,-0.6826823353767395,0.7301185727119446,0.0155515326373298,-0.0021232832270319,0.0081950810613026,-0.0021285880357027,-0.0036841197870671,-0.0052049686200916,0.1478627540264278,-0.5640420100092888,-9.795281388759612,14934.0
1.81,0.699999988079071,357.0,24.545202255249023,0.0,-79.78276913266205,40.4589834363582,269.09372078037256,0.0251220576465129,0.0155138112604618,-0.6826823353767395,0.7301185727119446,0.0166587676386893,-0.002664611413508,0.0083406516253089,0.0032420251518487,0.0005815299227833,0.0033451532945036,0.1477180080302059,-0.5609348361566663,-9.79587955892086,14934.0
2.0,0.6000000238418579,358.0,24.55021095275879,0.0079517737030982,-79.78276913458066,40.45898342110646,269.0944716796875,0.0251216776669025,0.0155154513195157,-0.6826843619346619,0.730116605758667,0.0158740308490836,-0.0029530235436423,0.0086659845831754,-0.0031525949016213,-0.0033714377786964,0.0011091276537626,0.1452339463680982,-0.5583066954463721,-9.795296006798743,14934.0
2.1,0.6000000238418579,359.0,24.55021095275879,0.0159035474061965,-79.78276905020627,40.45898336838237,269.10019682502747,0.0251090358942747,0.0155272493138909,-0.682688295841217,0.73011314868927,0.0147780471737631,0.0046241341218202,0.0100878159180624,-0.0031288692262023,-0.0038443363737314,-0.0008665678906254,0.1444054233189672,-0.5613911017030477,-9.794665092229843,14934.0
2.3,0.5,4.0,24.55521774291992,0.0079517737030982,-79.78276900125306,40.45898331456756,269.104259716034,0.0251058153808116,0.0155294816941022,-0.6826875805854797,0.7301138639450073,0.0145513123682767,0.0055492715146805,0.0079210176302404,-0.0037682489491999,0.00077876978321,0.0011531993513926,0.1446307421196252,-0.5542025347799063,-9.793984476327896,14934.0
2.4,0.5,8.0,24.55647087097168,0.0159035474061965,-79.78276899374183,40.45898330144893,269.10499505853653,0.0251031462103128,0.0155296586453914,-0.6826901435852051,0.7301115989685059,0.0145234003597455,0.0051399519243514,0.0083039513436001,-0.0027148586232215,-0.0023015316110104,-0.0026078766677528,0.1454799771029502,-0.5498629505932331,-9.794113699793815,14934.0
2.6,0.5,16.0,24.552715301513672,0.0159035474061965,-79.78276900188693,40.45898325099376,269.1090640888214,0.025108303874731,0.0155241852626204,-0.6826913356781006,0.7301104664802551,0.0128426943476388,-0.0014273956632847,0.0065377596235624,-0.0033021220006048,-0.0024619156029075,-0.0035671142395585,0.1473212744481861,-0.5659899733588101,-9.796385927796363,14934.0
2.7,0.5,23.0,24.55021095275879,0.0159035474061965,-79.78276897333612,40.45898322546183,269.113888071537,0.0251026451587677,0.0155208921059966,-0.6826902627944946,0.7301116585731506,0.009870157721656,-0.0013040184700347,0.0049200552311073,0.004049627110362,0.0052636698819696,0.006750086788088,0.1469208589475602,-0.5648504241183401,-9.794887871146203,14934.0
2.8,0.5,39.0,24.55021095275879,0.0079517737030982,-79.78276897433119,40.4589832166819,269.11433141088486,0.0251026451587677,0.0155208921059966,-0.6826902627944946,0.7301116585731506,0.0089378628155668,-0.0015551097124157,0.0050956498523648,-0.0029280802700668,-0.0018418485997244,-0.0046426099725067,0.1455453654192388,-0.5542907181009651,-9.792561848759652,14934.0
3.0,0.5,46.0,24.551462173461918,0.0159035474061965,-79.7827689301725,40.45898314944949,269.12227796173096,0.0251022391021251,0.0155328111723065,-0.6826938986778259,0.7301079630851746,0.0128767449390256,0.0011248653399895,0.0079096518446109,-0.0038286347407847,0.0008550605271011,-0.0009810689371079,0.1452016587741673,-0.5608001309260726,-9.794852787852289,14934.0
3.2,0.5,63.0,24.551462173461918,0.0159035474061965,-79.78276889775107,40.458983092847774,269.1312838659286,0.0250995960086584,0.0155336875468492,-0.6826967597007751,0.7301054596900941,0.0125585352016485,0.000251306608292,0.0099265649307376,0.0002980067802127,0.0001469083217671,0.0014092563651502,0.1444584959372878,-0.5541926310583949,-9.793492725491523,14934.0
3.31,0.5,67.0,24.5539665222168,0.0,-79.78276889678816,40.458983081050135,269.1322086319924,0.0250995960086584,0.0155336875468492,-0.6826967597007751,0.7301054596900941,0.01234798420865,-7.648573599720095e-05,0.0100690714227124,-0.0016019181348383,0.0008900310494937,-0.0044983220286667,0.1454720650892705,-0.5495574701204896,-9.792792229056356,14934.0
3.5,0.6000000238418579,73.0,24.53643798828125,-0.0636141896247863,-79.78276889613954,40.458983069028136,269.1331524715424,0.0251003056764602,0.01553600654006,-0.6827005743980408,0.7301017642021179,0.0130942106939336,-0.0005347621300028,0.0102376479092157,0.0038965579587966,0.0010025884257629,0.001951107638888,0.1468525013420731,-0.5662525498867035,-9.795443356633188,14934.0
3.61,0.6000000238418579,75.0,24.53268241882324,-0.0874695107340812,-79.78276884575297,40.45898297805177,269.143039809227,0.0251007601618766,0.0155461598187685,-0.6827035546302795,0.7300987839698792,0.0181604372957591,0.0010769472903426,0.0117887299600268,0.0016908302204683,0.0037865880876779,0.0023178365081548,0.1459244751278311,-0.5611673360690475,-9.794226551055909,14934.0
3.8,0.6000000238418579,77.0,24.551462173461918,-0.0318070948123931,-79.78276878846528,40.45898289737115,269.1556817755699,0.0250992104411125,0.0155522990971803,-0.6827046275138855,0.7300977110862732,0.0190925708844804,0.0030871597759323,0.0159281103253596,0.0019785994663834,-0.0017081056721508,-0.0024698849301785,0.1451886213105172,-0.5612446654960513,-9.794866821169853,14934.0
3.9,0.6000000238418579,75.0,24.54269790649414,-0.0795177370309829,-79.7827687835137,40.45898287938833,269.1571746931076,0.0250996742397546,0.0155545370653271,-0.682707667350769,0.7300946712493896,0.0194311443873757,0.0027925759007236,0.0160665836106028,0.0052830595523118,-0.0023675404954701,0.0042443349957466,0.1486101195495575,-0.5655809606239199,-9.795491888523102,14934.0
4.1,0.6000000238418579,64.0,24.531429290771484,-0.0874695107340812,-79.7827687253095,40.45898283877856,269.17143730974203,0.02508788369596,0.0155521435663104,-0.6827095746994019,0.7300934195518494,0.0142475105061775,0.0049022842939455,0.0189370453785962,0.0046786325983703,0.001271296176128,0.0007809654343873,0.1449005088955164,-0.5502400229126215,-9.793383382558822,14934.0
4.2,0.6000000238418579,59.0,24.53768920898437,-0.0636141896247863,-79.78276869933345,40.458982731934775,269.1867304906845,0.0251028500497341,0.0155630549415946,-0.6827132701873779,0.7300891876220703,0.0230756449209251,0.0024743689290067,0.0253990815396271,-0.0021605042275041,-0.0036655408330261,-0.0010221377015113,0.1452601309306919,-0.5573672671616078,-9.794396705031396,14934.0
4.3,0.6000000238418579,58.0,24.53393363952637,-0.0954212844371795,-79.78276869513239,40.45898270960896,269.1891440615654,0.0251028500497341,0.0155630549415946,-0.6827132701873779,0.7300891876220703,0.0239195550190546,0.002086288296281,0.0256222163727851,0.0030788853764534,0.0024387119337916,0.0015085729537531,0.1455853823013603,-0.5573164694756271,-9.794614221453667,14934.0
4.5,0.6000000238418579,54.0,24.547706604003903,-0.0795177370309829,-79.78276866942797,40.45898267657837,269.2043646440506,0.0250916220247745,0.0155533216893672,-0.6827124357223511,0.7300905585289001,0.0136790716180283,0.0013926620964832,0.0250136309478203,-0.0016207019798457,-0.0005712968995794,-0.0019898146856576,0.146834347564727,-0.5522648406028747,-9.792869412302972,14934.0
4.6,0.5,52.0,24.54895782470703,0.0079517737030982,-79.78276862105241,40.45898259334166,269.2189100847244,0.0250912196934223,0.0155612118542194,-0.6827124357223511,0.7300904989242554,0.016149189976481,0.0031805257706179,0.0228979288806061,-0.000349931360688,0.0003578944888431,-0.0028445897623896,0.14861596676521,-0.5647214930132032,-9.795649763345716,14934.0
4.8,0.5,47.0,24.54895782470703,0.0874695107340812,-79.78276861649259,40.45898257759609,269.22111724472046,0.0250912196934223,0.0155612118542194,-0.6827124357223511,0.7300904989242554,0.0167629559016203,0.0028386427730024,0.0231112738885809,0.0013771870872005,0.0011537948157638,0.0030513515230268,0.1459406463336199,-0.5500918690860271,-9.793786255717276,14934.0
4.91,0.5,45.0,24.543949127197266,0.0159035474061965,-79.78276861210495,40.45898256180168,269.2233527765274,0.0250891726464033,0.0155611904338002,-0.6827141642570496,0.7300888895988464,0.01633595029337,0.0025976383114918,0.0234876242417222,-0.0025615722406655,-0.0022009559907019,-0.0050572170875966,0.1450358445290476,-0.5485779884085059,-9.79304307460785,14934.0
5.0,0.5,42.0,24.55021095275879,-0.0159035474061965,-79.7827685820396,40.458982491206406,269.23769669389725,0.0250889938324689,0.0155614148825407,-0.6827157139778137,0.7300874590873718,0.0149526064853432,0.001305793999988,0.0213148628695099,-0.0044459663331508,0.0004042126529384,-0.0065203765407204,0.1482244225870818,-0.5666002764925361,-9.796299389004709,14934.0
5.2,0.5,38.0,24.551462173461918,0.0318070948123931,-79.7827685609461,40.45898243285591,269.25080298042303,0.0250885039567947,0.0155605906620621,-0.6827152967453003,0.7300878763198853,0.014346343790708,0.0004385890707293,0.0191259041165339,0.0047210226766765,0.0008843363611958,0.0055376668460667,0.1457254413887858,-0.5492740628868342,-9.793930097222333,14934.0
5.31,0.6000000238418579,32.0,24.543949127197266,-0.0318070948123931,-79.7827685597281,40.45898241928586,269.2526546583176,0.0250885039567947,0.0155605906620621,-0.6827152967453003,0.7300878763198853,0.0136789719433275,0.0001532908232497,0.0195822211973294,-0.0028810144867748,-0.0026642957236617,-0.0049898303113877,0.145085655497387,-0.5499149542674423,-9.79404060959816,14934.0
5.4,0.6000000238418579,29.0,24.55021095275879,0.0795177370309829,-79.78276855875903,40.45898240552365,269.2545404896736,0.0250882282853126,0.0155621347948908,-0.6827179193496704,0.7300853729248047,0.0146570080703098,-0.000272381446254,0.0197716605681683,0.0083192773163318,0.0045831832103431,0.0056033856235444,0.1465310049802065,-0.5659814948961139,-9.795623450875285,14934.0
5.61,0.6000000238418579,28.0,24.552715301513672,0.1113248318433761,-79.78276853881853,40.45898233161545,269.26840429162985,0.025085974484682,0.0155625063925981,-0.6827200055122375,0.7300835847854614,0.014585819286661,-0.0008630301764864,0.0162979144625553,0.0058718603104352,0.0039986087940633,0.0044679814018309,0.1466120254620909,-0.5656526621058584,-9.794303149580957,14934.0
5.7,0.6000000238418579,32.0,24.540193557739247,0.0715659633278846,-79.78276849850305,40.45898226278293,269.28554223632807,0.0250818021595478,0.0155666572973132,-0.6827199459075928,0.730083703994751,0.0140711570100757,0.0020039293671731,0.0164149091432659,0.0046536577865481,0.0034599595237523,0.0019392750691622,0.1454388455953449,-0.5506965442746878,-9.793456472754476,14934.0
5.9,0.699999988079071,30.0,24.53894233703613,0.0477106422185897,-79.78276849529159,40.45898224977165,269.2871168718338,0.0250808540731668,0.0155672645196318,-0.6827220916748047,0.7300816178321838,0.0133331306469269,0.0018125883178766,0.0166371585532083,-0.0046869218349456,-0.0007483538356609,-0.000711856293492,0.1459285681787878,-0.549252647459507,-9.792652480602262,14934.0
6.1,0.8000000119209291,32.0,24.545202255249023,0.0795177370309829,-79.78276853052374,40.458982222649816,269.30073063230515,0.0250806026160717,0.0155539810657501,-0.6827222108840942,0.7300817966461182,0.006003183173767,-0.0053579116892799,0.0093262031297671,-0.0024612701963633,-0.0031763047445565,-0.0034427752252668,0.1469790752884,-0.5664735015481711,-9.795201281905175,14934.0
6.2,0.8000000119209291,31.0,24.541446685791016,0.0397588685154914,-79.78276849240831,40.45898220078025,269.31917433595663,0.0250667389482259,0.0155550921335816,-0.6827211976051331,0.7300832271575928,0.0007574531087226,0.0008211219590762,0.010625526834693,0.0044570690952241,0.0044729462824761,0.004638138692826,0.1467870216630399,-0.5666789946332574,-9.794452253580094,14934.0
6.3,1.0,23.0,24.54645347595215,0.0715659633278846,-79.78276849171016,40.458982199926254,269.3202546701432,0.0250667389482259,0.0155550921335816,-0.6827211976051331,0.7300832271575928,-3.414430465053034e-05,0.0005993553113288,0.0109873168804387,-0.0016005167271941,-0.0025005058851093,-0.0047055818140506,0.145962719572708,-0.5493415982276202,-9.792208676934242,14934.0
6.5,1.0,23.0,24.551462173461918,0.0874695107340812,-79.78276846966394,40.45898212725423,269.3399168715477,0.0250722169876098,0.0155664356425404,-0.6827250123023987,0.7300792336463928,0.0065821724194897,0.0016282316197523,0.0126307994516247,-0.0056888051331043,-0.0053744511678814,-0.0053387670777738,0.145594591666013,-0.5501206300780177,-9.79415872335434,14934.0
6.7,1.0,17.0,24.53017807006836,0.0318070948123931,-79.7827684817306,40.45898207004007,269.3602834210396,0.0250770784914493,0.0155636994168162,-0.6827271580696106,0.7300771474838257,0.0075205542929287,-0.0032039615489443,0.0136130075024706,-0.0043947831727564,-0.0020424590911716,-0.0035539625678211,0.1485175964981317,-0.5649199328944088,-9.79596317410469,14934.0
6.81,1.0,12.0,24.53894233703613,-0.0238553211092948,-79.78276848524649,40.45898206194183,269.3616019949913,0.0250770784914493,0.0155636994168162,-0.6827271580696106,0.7300771474838257,0.0085618454832729,-0.0035713789332349,0.0137700190058827,0.0065281270071864,0.0025256974622607,0.0063148159533739,0.1469999790843576,-0.5638610021397472,-9.795442187190057,14934.0
7.0,1.0,11.0,24.53017807006836,0.0,-79.7827685107287,40.45898202219197,269.38054745054245,0.0250765569508075,0.0155589431524276,-0.6827275156974792,0.7300769686698914,0.005412705452895,-0.0068677524817826,0.0099096464853476,0.0058606187812983,0.0018390235491096,0.0034778313711285,0.1457049852702766,-0.5553467617928982,-9.794234737157822,14934.0
7.1,1.0,6.0,24.53268241882324,0.0159035474061965,-79.78276851867949,40.45898201664178,269.3815181717873,0.0250766724348068,0.0155605934560298,-0.6827300190925598,0.7300745248794556,0.0047335020154943,-0.0071113267855439,0.0102986991532838,-0.0026610065251588,-0.001449245493859,-0.0019788402132689,0.1458483699616045,-0.5569070547446608,-9.793860515356066,14934.0
7.3,1.0,7.0,24.53393363952637,0.0318070948123931,-79.78276850486745,40.45898192418983,269.4033194646836,0.0250815823674202,0.0155771020799875,-0.6827329397201538,0.7300713062286377,0.0140251730938748,-0.002541848989815,0.0128703524336011,-0.003527209861204,-0.0035466509871184,-0.002328359754756,0.147161188647151,-0.5609117761999369,-9.794197899699212,14934.0
7.4,1.0,1.0,24.53518486022949,0.0079517737030982,-79.78276850701796,40.4589819104507,269.40452937936783,0.0250841677188873,0.0155735779553651,-0.6827343106269836,0.7300699949264526,0.0148508468456372,-0.0029514921657079,0.0131001364088685,0.0042819273658096,0.0006859040004201,0.0068231611512601,0.1460539909545332,-0.5599254605546594,-9.795298345685003,14934.0
7.6,1.0,359.0,24.53393363952637,0.055662415921688,-79.78276851585139,40.45898184260478,269.42582021808624,0.0250873230397701,0.0155900819227099,-0.6827230453491211,0.7300800085067749,0.0166662205549916,-0.0031478463466826,0.0146045968884503,0.0046466034837067,0.0009691403829492,0.0055258949287235,0.145841143168509,-0.5581468106433749,-9.795441602468491,14934.0
7.7,1.0,0.0,24.541446685791016,0.0795177370309829,-79.7827685408661,40.458981820113614,269.4456586704254,0.0250851884484291,0.015593446791172,-0.6827100515365601,0.7300922274589539,0.0100055076782809,-0.0057656697026842,0.0149628980308585,-0.0057202619500458,-0.0014951491029933,-0.0041491887532174,0.145983833502978,-0.5564420914649963,-9.795124098658563,14934.0
7.8,1.0,3.0,24.543949127197266,0.0477106422185897,-79.782768547312,40.45898180948292,269.4470926687717,0.0250796433538198,0.0156046906486153,-0.6826941967010498,0.7301070094108582,0.0111753227193686,-0.0062850719463893,0.0151993657688263,0.0070964149199426,0.000573792902287,0.00280672009103,0.1466148577071726,-0.5623537361249328,-9.79567899942398,14934.0
8.01,1.0,5.0,24.54269790649414,0.0795177370309829,-79.78276852986562,40.458981780609605,269.4681500957012,0.0250648763030767,0.0156356878578662,-0.682691752910614,0.7301090955734253,0.0076107498578921,-0.0003368267434152,0.015149858424461,0.0025709457695484,0.0005752696306444,0.0056699500419199,0.1466802186146378,-0.5644626806303858,-9.79554158985615,14934.0
8.2,1.0,5.0,24.54895782470703,0.0079517737030982,-79.78276856134944,40.45898173131653,269.4868452117443,0.025086972862482,0.0156486816704273,-0.6827041506767273,0.7300964593887329,0.0090406233669196,-0.0046185911499151,0.0119257768444197,0.007680679205805,0.0030340915545821,0.0039328699931502,0.145300677716732,-0.5497567139938474,-9.79448616743088,14934.0
8.3,1.100000023841858,2.0,24.547706604003903,0.0,-79.78276856631385,40.45898172257847,269.4879973099232,0.0250841062515974,0.0156682934612035,-0.6827112436294556,0.7300895452499391,0.0085064732979713,-0.0047910023016252,0.0123542981738179,-0.0020606683101505,-0.000552425335627,-0.0075613926164805,0.145287503208965,-0.5486887566000224,-9.793994416594506,14934.0
8.5,1.100000023841858,5.0,24.545202255249023,-0.0159035474061965,-79.78276857914071,40.458981694037405,269.5059509441853,0.0250953715294599,0.0156734269112348,-0.6827149391174316,0.730085551738739,0.0057286159879889,-0.0039602663161542,0.01152217116252,-0.0004280305001884,-0.0011943493736907,-0.0034649742301553,0.1476882968656719,-0.5659065774455667,-9.795725192427636,14934.0
8.61,1.2000000476837158,5.0,24.53518486022949,0.0079517737030982,-79.78276858359209,40.458981687892496,269.5070764586925,0.0250943843275308,0.0156733635812997,-0.6827163100242615,0.7300843596458435,0.0060217998257669,-0.0041848416635422,0.0118615788548146,-0.0006088883383199,-7.011142770352307e-06,0.0010215849615633,0.14623474300839,-0.5651370107755065,-9.795398333072663,14934.0
8.8,1.2000000476837158,5.0,24.54645347595215,0.0079517737030982,-79.78276857188277,40.45898163155379,269.5242530272007,0.0250955373048782,0.0156818870455026,-0.6827174425125122,0.7300830483436584,0.0106744200290388,-0.0011431770906292,0.0109940173956667,-0.0001384399220114,-0.0037096634041517,0.0016891617560759,0.1446798130497336,-0.5544874038174749,-9.792539044618607,14934.0
8.9,1.2999999523162842,1.0,24.551462173461918,0.0159035474061965,-79.7827685726612,40.45898162108736,269.52530206894875,0.0250938516110181,0.0156813878566026,-0.6827176213264465,0.7300829887390137,0.011402621291101,-0.0015305980897042,0.0113091513752447,0.0054790712893009,0.0006788030150346,-0.0002869577729143,0.1450547200720757,-0.5565985044836999,-9.794583231210709,14934.0
9.1,1.399999976158142,3.0,24.547706604003903,0.0238553211092948,-79.78276854819428,40.45898155539921,269.5422559247017,0.02509306371212,0.0156883485615253,-0.6827198266983032,0.730080783367157,0.0153696044909308,0.0012010814870272,0.0106992623661043,0.0024199138861149,0.0009242043597623,0.0028620846569538,0.1461607940029353,-0.5614850956946612,-9.79552287876606,14934.0
9.2,1.399999976158142,1.0,24.55021095275879,0.0238553211092948,-79.78276852768842,40.45898152336648,269.5617801413536,0.0250891037285327,0.0156901497393846,-0.6827206611633301,0.7300801277160645,0.0134709188868492,0.0040048459815898,0.0162684034368263,0.0001093117389245,-0.0005817569326609,0.0022847445216029,0.1461641926970333,-0.5614165736362339,-9.79421544134617,14934.0
9.3,1.399999976158142,358.0,24.55021095275879,0.0079517737030982,-79.78276852216607,40.4589815102602,269.5633450911045,0.0250891037285327,0.0156901497393846,-0.6827206611633301,0.7300801277160645,0.0142686797232308,0.0038213299125205,0.0166035372721636,0.0033157058060169,0.0010724478634074,0.000115212817036,0.145394964069128,-0.5573632837459446,-9.79468497276306,14934.0
9.5,1.399999976158142,356.0,24.551462173461918,0.0159035474061965,-79.78276850286609,40.45898145028757,269.58234180665016,0.0250904969871044,0.0156945344060659,-0.682724118232727,0.7300766110420227,0.0163416279733018,0.0047700356343024,0.01990459702089,9.69206666923128e-06,0.0017959882970899,-0.0013467096723616,0.1454877612087875,-0.5563575261086225,-9.793651185035706,14934.0
9.7,1.399999976158142,355.0,24.54895782470703,0.0079517737030982,-79.78276856507864,40.45898142671592,269.5985578761101,0.0250945352017879,0.0156751554459333,-0.6827243566513062,0.7300767302513123,0.0087360173745807,-0.0069827950652183,0.0171737022865391,0.0006416840478777,0.0043555563315749,0.0015262136003002,0.1452770969923585,-0.5636647549644113,-9.7944773966074,14934.0
9.8,1.2999999523162842,356.0,24.55021095275879,0.0079517737030982,-79.78276857288837,40.458981417492616,269.6002377734184,0.0250945352017879,0.0156751554459333,-0.6827243566513062,0.7300767302513123,0.008947389977946,-0.0070686722746877,0.0176743019443118,0.0022909881081432,0.0050920904614031,0.0044006248936057,0.1472177513223141,-0.5644229561090469,-9.796344997286797,14934.0
10.0,1.2999999523162842,356.0,24.551462173461918,0.0238553211092948,-79.78276858077294,40.45898140810991,269.6019553408624,0.0250927247107028,0.0156740844249725,-0.6827261447906494,0.7300751209259033,0.0091807752078879,-0.0073048281713845,0.0180536403678003,0.0005755498423241,-0.0020626082550734,-0.0009442038135603,0.1448415068350732,-0.5503960339352488,-9.79427917599678,14934.0
10.1,1.2999999523162842,357.0,24.55021095275879,0.0238553211092948,-79.78276856412188,40.45898136534717,269.6167900428772,0.0250881928950548,0.015680193901062,-0.6827273368835449,0.7300741076469421,0.0103098292313508,-0.0027715881415129,0.0152199324024607,-0.002983825514093,-0.0019567674025893,-0.0060612875968217,0.1461603645980358,-0.5492998271808028,-9.794400798082352,14934.0
10.3,1.2000000476837158,0.0,24.55521774291992,0.0397588685154914,-79.78276859218501,40.45898132680987,269.633505569458,0.0250869486480951,0.0156958941370248,-0.682724118232727,0.7300768494606018,0.0103020066748299,-0.0059097226499411,0.0158049841996655,-0.0046804607845842,-0.0018153031123802,-0.006360082887113,0.1484883147384971,-0.5653268260136247,-9.795819917321202,14934.0
10.4,1.2000000476837158,2.0,24.551462173461918,0.0318070948123931,-79.78276859857928,40.458981315904346,269.63502676939964,0.0250864811241626,0.0156993251293897,-0.6827089786529541,0.730090856552124,0.0114450935130144,-0.0061449660391013,0.0160720268562645,0.004494200926274,0.0020612715743482,0.0038427435792982,0.1474487437494099,-0.5655368872359395,-9.795459728837011,14934.0
10.6,1.100000023841858,5.0,24.54645347595215,0.0159035474061965,-79.78276859923403,40.45898126639817,269.65113257026667,0.0250897780060768,0.0157238058745861,-0.6826991438865662,0.7300994396209717,0.0140446917382607,-0.005435160512708,0.0169132328895615,0.0086499154567718,0.0022958412300795,0.0047314073890447,0.1445999620109796,-0.5515347426384688,-9.793795611262322,14934.0
10.71,1.0,6.0,24.54645347595215,0.0159035474061965,-79.78276855884916,40.458981232185614,269.6651405856609,0.0250809863209724,0.0157391913235187,-0.682696521282196,0.7301018238067627,0.0158356202302895,0.0021847424153947,0.0166765738609823,-0.005961577873677,-0.0025704624131321,-0.0040018172003328,0.1446520205028355,-0.5562576118111611,-9.793996755480768,14934.0
10.8,1.0,7.0,24.543949127197266,0.0079517737030982,-79.78276855535205,40.458981216674616,269.66673271512985,0.0250917617231607,0.0157339237630367,-0.6826995015144348,0.7300987839698792,0.0170286244881802,0.001911817113065,0.0170335582309812,0.0066391695290803,0.0008029015152715,0.0034872938413172,0.1455499701015651,-0.5603912278264761,-9.795063287615775,14934.0
11.0,0.8999999761581421,8.0,24.552715301513672,0.0159035474061965,-79.7827685519275,40.45898120079968,269.66836293196684,0.0250906627625226,0.0157254338264465,-0.6826961636543274,0.7301021814346313,0.0167330996540829,0.0019645115113246,0.0175229937453519,-0.0031968029215931,-0.0018622993957251,0.0007671823259443,0.1461007321346551,-0.5590178630501033,-9.79521531522274,14934.0
11.11,0.8999999761581421,8.0,24.54895782470703,0.0159035474061965,-79.78276855027488,40.458981169353095,269.6840844914913,0.0250948555767536,0.0157361011952161,-0.6826967597007751,0.7301012873649597,0.0155595454567162,0.0007407544153578,0.0175076587585589,-0.001178384409286,-0.0024472193326801,-0.0017658937722444,0.1451355304196477,-0.5613521080836654,-9.794886701703073,14934.0
11.3,0.8999999761581421,8.0,24.543949127197266,0.0159035474061965,-79.78276851956352,40.45898111654419,269.700012759924,0.0251011010259389,0.015754273161292,-0.6826922297477722,0.7301048636436462,0.0183566285930646,0.0031778512950147,0.0178498514755418,0.0025414635892957,0.0017191923689097,0.0063762362115085,0.1458500784449279,-0.5520175764709712,-9.794401382803915,14934.0
11.41,0.8000000119209291,8.0,24.551462173461918,0.0238553211092948,-79.78276851462181,40.45898109933432,269.70171712493897,0.0250989235937595,0.0157527960836887,-0.6826935410499573,0.7301037907600403,0.018506843818601,0.0030815447290556,0.0183335492363159,-0.0040463139303028,-0.0031879923772066,-0.0040685199201107,0.1452445353101939,-0.5500586130470038,-9.793820169568065,14934.0
11.6,0.8000000119209291,10.0,24.551462173461918,0.0238553211092948,-79.782768561162,40.45898111794568,269.7160772100687,0.0250958371907472,0.0157372597604989,-0.6826942563056946,0.7301035523414612,0.0090898172099093,-0.003799105515658,0.0162931101410622,-0.003470066236332,-0.003449143609032,-0.0053421319462358,0.1476658033579588,-0.5662198054790497,-9.795429908037184,14934.0
11.7,0.8000000119209291,11.0,24.54895782470703,0.0159035474061965,-79.78276855173847,40.45898111283029,269.7290350810289,0.0250929091125726,0.0157362315803766,-0.6826937794685364,0.7301040291786194,0.0081892390447121,-0.0030699114325083,0.0162219684976396,0.0078196367248892,0.0006030168151482,0.0024073778185993,0.1469504422042518,-0.5658892185240985,-9.795305362343788,14934.0
11.8,0.699999988079071,8.0,24.552715301513672,0.0159035474061965,-79.78276855497136,40.45898110460699,269.7306248114109,0.0250929091125726,0.0157362315803766,-0.6826937794685364,0.7301040291786194,0.0077238051401648,-0.0031259602397451,0.0166527065288201,-0.0052805319428443,-0.0025998600758612,-0.004673225339502,0.1448396978527307,-0.5500802477449179,-9.7932693618536,14934.0
12.0,0.699999988079071,8.0,24.547706604003903,0.0079517737030982,-79.78276854870357,40.45898109380238,269.7449952230453,0.0250893272459507,0.0157350841909647,-0.6826955080032349,0.7301026582717896,0.006005913331038,-0.0023736614899158,0.0168800992110679,-0.0024816612713038,-0.0026743409689515,-0.0055235233157873,0.1457617489434778,-0.5530866302177311,-9.794765664339064,14934.0
12.2,0.699999988079071,8.0,24.552715301513672,0.0079517737030982,-79.78276854061188,40.45898109476212,269.7586408571005,0.025084076449275,0.0157326217740774,-0.6826967597007751,0.7301017045974731,0.0038837046798129,-0.0014199204195087,0.0163036966537779,-0.006600399967283,-0.0009861880680546,-0.002700233599171,0.1475644272565841,-0.5632220476493239,-9.796290618181231,14934.0
12.3,0.6000000238418579,10.0,24.5539665222168,0.0159035474061965,-79.78276854227803,40.45898108981902,269.76025739467144,0.025084076449275,0.0157326217740774,-0.6826967597007751,0.7301017045974731,0.0050039970674036,-0.0016003982405584,0.0166634631645112,0.004808195400983,-0.001408370793797,0.0061791706830263,0.1474401373788714,-0.5610918704420328,-9.795250398516655,14934.0
12.5,0.6000000238418579,17.0,24.54895782470703,0.0079517737030982,-79.78276854394139,40.45898108459036,269.7619189486504,0.0250838603824377,0.0157325882464647,-0.6826975345611572,0.7301009297370911,0.0045573999034601,-0.001547199773824,0.0171798229952878,-0.0057888706214725,-0.0013637179508805,0.0003023713070433,0.1453475376684218,-0.5595892456546426,-9.794604865908624,14934.0
12.6,0.6000000238418579,20.0,24.547706604003903,0.0079517737030982,-79.78276856281093,40.4589811052903,269.7729673848152,0.0250809621065855,0.0157250706106424,-0.6826967597007751,0.7301018834114075,-4.06904199856476e-05,-0.0042511634972658,0.0130284162746971,-0.0017578171100467,-0.0009799705585464,-0.00171563483309,0.1461457282863557,-0.5610887641087174,-9.794937572479247,14934.0
12.8,0.6000000238418579,25.0,24.55021095275879,0.0159035474061965,-79.78276857515307,40.45898108761129,269.78336113846296,0.025085074827075,0.0157260969281196,-0.6826976537704468,0.7301009893417358,0.0033732197320386,-0.0063213065152989,0.0107822122603817,-0.0061379913240671,-0.0003375154628884,-0.0008151787915267,0.14634890075773,-0.5568880878388882,-9.793833033442498,14934.0
12.9,0.5,27.0,24.551462173461918,0.0159035474061965,-79.78276858259315,40.45898108334076,269.7844216690064,0.0250836182385683,0.015725303441286,-0.682698130607605,0.7301005721092224,0.0042335310222617,-0.0065991846855181,0.0110760187467628,0.0044758804142475,-0.0002842725662048,0.0020518822129815,0.1451162163354456,-0.5576094515249134,-9.794484997987748,14934.0
13.1,0.5,30.0,24.55021095275879,0.0159035474061965,-79.78276857344387,40.4589810672114,269.7943899050951,0.0250821020454168,0.0157285146415233,-0.6826999187469482,0.7300989031791687,0.0067318771835837,-0.0047753198528059,0.0091787241901663,0.0035718767903745,0.0009212307049892,-0.00181029306259,0.1452060807310045,-0.5622211139649153,-9.795101879239082,14934.0
13.2,0.5,33.0,24.545202255249023,0.0079517737030982,-79.78276853732612,40.45898106015344,269.8037389010787,0.0250780526548624,0.0157341249287128,-0.6826995611190796,0.7300992608070374,0.0078021401908636,7.244475702399868e-05,0.0076381207720925,-0.0050488584674894,0.0003772772615775,-0.0008800261421129,0.1455172713752836,-0.5626560006290674,-9.794113699793815,14934.0
13.3,0.4000000059604645,35.0,24.552715301513672,0.0715659633278846,-79.78276853676219,40.45898105244972,269.80446938580275,0.0250780526548624,0.0157341249287128,-0.6826995611190796,0.7300992608070374,0.0083458452974262,-3.203363516360476e-05,0.0079898121940865,-0.0003052078536711,0.0005322380457073,0.001288640894927,0.1454154750052839,-0.5528494159877301,-9.793854668140412,14934.0
13.5,0.4000000059604645,39.0,24.547706604003903,0.0159035474061965,-79.78276855173583,40.45898103688828,269.8138053507209,0.0250830575823783,0.0157308708876371,-0.6827011704444885,0.7300976514816284,0.0092858196858174,-0.0047570841527637,0.0062349142556845,-0.0008083120919764,0.0013766608899459,-0.0019102446967735,0.1466445323266089,-0.5499507684633136,-9.793323740959169,14934.0
13.7,0.4000000059604645,46.0,24.547706604003903,0.0079517737030982,-79.78276854258195,40.45898103349589,269.8233972132802,0.025078585371375,0.0157293118536472,-0.6827009320259094,0.7300980091094971,0.0074438001835295,-0.0036249840375407,0.0059768809391478,-0.0037968703545629,-0.0049439785070717,-0.0021262543741613,0.1486929033324122,-0.5650216379016638,-9.796295295953753,14934.0
13.8,0.4000000059604645,47.0,24.551462173461918,0.0,-79.78276854635033,40.4589810259253,269.823962295115,0.025078585371375,0.0157293118536472,-0.6827009320259094,0.7300980091094971,0.0083661115964521,-0.0037042770841932,0.0063045373303766,0.0044320379383862,0.0023041530512273,0.0056858658790588,0.1487517409399152,-0.56588633146137,-9.795490719079972,14934.0
14.0,0.4000000059604645,49.0,24.547706604003903,0.0079517737030982,-79.78276855016033,40.45898101815236,269.82456129944325,0.0250772815197706,0.0157280825078487,-0.6827042698860168,0.7300949692726135,0.0079250331602464,-0.0036808104809718,0.0067253310793008,-0.0038599856197834,-0.0040130051784217,-0.0034365174360573,0.1452495511248707,-0.5493228871375323,-9.792529104351996,14934.0
14.1,0.4000000059604645,45.0,24.541446685791016,0.0079517737030982,-79.78276851235077,40.458981004989184,269.8359709993601,0.0250733532011508,0.0157324410974979,-0.682708740234375,0.7300907969474792,0.0091525500451729,0.0001519869108079,0.0093088240709692,-0.0015040948055684,-0.0028299349360167,-0.0023201985750347,0.1455796995386481,-0.5532555051147938,-9.793728953003884,14934.0
14.3,0.4000000059604645,42.0,24.552715301513672,0.0079517737030982,-79.78276846927234,40.458980978588215,269.8495564364493,0.0250730607658624,0.0157379508018493,-0.6827104091644287,0.7300892472267151,0.0126629676011192,0.0029274424311027,0.014283133002081,-0.0065172971226274,-0.004792224150151,-0.0042357356287539,0.1472684485092759,-0.5614127364009619,-9.79475280046463,14934.0
14.4,0.4000000059604645,40.0,24.552715301513672,0.0159035474061965,-79.78276846511099,40.458980966166855,269.85092445245385,0.0250727534294128,0.0157375335693359,-0.6827130913734436,0.7300867438316345,0.0136632415689446,0.002690667890137,0.0146071586797402,-0.0006042488384991,-0.0004985010600648,0.0011518192477524,0.1453719863388687,-0.5570978932455183,-9.795069719552997,14934.0
14.6,0.4000000059604645,36.0,24.513900756835927,0.326022744178772,-79.78276851057919,40.45898100963439,269.86222024044395,0.0250703822821378,0.0157181341201066,-0.6827176213264465,0.7300829291343689,0.0030259768807459,-0.0067975874589829,0.0142014959970566,0.0086213191971182,0.0033831116743385,-0.0026415439788252,0.1451049513090402,-0.5629005604237318,-9.794074523448945,14934.0
14.7,0.4000000059604645,39.0,24.531429290771484,0.3180709481239319,-79.7827684812696,40.45898100688665,269.87071973240376,0.0250707939267158,0.0157274771481752,-0.6827227473258972,0.7300779223442078,0.0046876679364782,-0.0047594416118294,0.0119353492310853,-0.0029800564516335,-0.0076362639665603,0.0006553890998475,0.1453477021213621,-0.5720458249747753,-9.795724022984505,14934.0
14.8,0.4000000059604645,33.0,24.53017807006836,0.3021674156188965,-79.78276848698503,40.458981001662295,269.87189349314565,0.0250913389027118,0.0157247688621282,-0.6826736330986023,0.7301232218742371,0.0043387533687458,-0.0049330310733329,0.0123150344446276,-0.0022510816343128,-0.0046553695574402,-0.0030154145788401,0.1482593962457031,-0.5444800038635731,-9.79249694466591,14934.0
15.0,0.4000000059604645,30.0,24.5289249420166,0.3021674156188965,-79.78276844023031,40.45898099238478,269.8814748410732,0.0250757653266191,0.0157282724976539,-0.6826779842376709,0.7301195859909058,0.0069440069469536,-0.0007987745082842,0.010434308459758,-0.0021928739733994,-0.0037833089008927,-0.0046696164645254,0.1456996496859938,-0.5443796875700355,-9.790539296865465,14934.0
15.2,0.4000000059604645,17.0,24.53017807006836,0.2862638533115387,-79.78276840312381,40.458980970421294,269.89267467676103,0.0250880308449268,0.0157407969236373,-0.6826861500740051,0.7301112413406372,0.0109889732822741,-0.0006136975813439,0.0123386408919908,-0.0064678345806896,-0.0066901384852826,-0.0002068299945676,0.1463520619086921,-0.5659679001197219,-9.793926588892935,14934.0
15.31,0.4000000059604645,10.0,24.52642059326172,0.3498780429363251,-79.78276840304231,40.45898095934936,269.8938528985381,0.025080619379878,0.0157471876591444,-0.6826807856559753,0.7301164865493774,0.0122215535789843,-0.0005620985513287,0.0125732939328919,0.0051002465188503,0.0043979324400424,0.0005279107717797,0.1468541458714753,-0.5625674153119326,-9.79540476500988,14934.0
15.5,0.4000000059604645,359.0,24.525169372558597,0.3816851377487183,-79.7827684029956,40.458980947903854,269.8950697217733,0.0250738002359867,0.0157438945025205,-0.6826915144920349,0.7301066517829895,0.0119806297637299,-0.0003460958125112,0.013201038824858,-0.0046226885169744,-0.0003526676446199,-0.0021481176372617,0.1438182989135384,-0.5608498688042164,-9.794476811885836,14934.0
15.61,0.3000000119209289,359.0,24.525169372558597,0.4532511234283447,-79.78276836695336,40.45898096738209,269.9038863109089,0.0250952579081058,0.0157351419329643,-0.682683527469635,0.730113685131073,0.0078643115574787,0.0001535966300247,0.0100496806181983,-0.0013776411069557,-0.0022426787763834,-1.0501162250875495e-05,0.1498663481511175,-0.5631134721636772,-9.797188165783885,14934.0
15.8,0.3000000119209289,2.0,24.48259925842285,0.6997560858726501,-79.78276837005977,40.45898099582279,269.9130610126668,0.0251179244369268,0.0160508770495653,-0.6828131079673767,0.7299847602844238,-0.0017179020317786,-0.0048207789102155,0.0091169793498048,-0.0335382558405399,-0.0135690942406654,-0.0416847094893455,0.1735970901511609,-0.5603569850698114,-9.821858153343204,14934.0
15.9,0.3000000119209289,359.0,24.5289249420166,0.2624085247516632,-79.7827683758864,40.45898099178199,269.9138850529343,0.025070259347558,0.0161154847592115,-0.6827493906021118,0.7300445437431335,-0.0025781188165788,-0.005345666265677,0.0103579043990418,-0.0275065414607524,-0.0130708049982786,-0.0136848874390125,0.1116166681889444,-0.4913730696961284,-9.7932693618536,14934.0
16.1,0.3000000119209289,0.0,24.28352355957031,3.5226359367370605,-79.78276829670341,40.45898096333809,269.9233185366392,0.0250860229134559,0.0161312073469162,-0.6828417778015137,0.7299572825431824,0.0102360720369348,0.0036923756059827,0.0077779347914767,0.0001751102245179,-0.0250837206840515,-0.0108548998832702,0.1460288296546787,-0.6062351892516017,-9.801192923784257,14934.0
16.21,0.3000000119209289,2.0,24.491363525390625,0.604334831237793,-79.78276827391124,40.45898099830588,269.93342303080857,0.0251330118626356,0.016229048371315,-0.6828662753105164,0.729930579662323,0.0024108873748742,0.0004747579138047,0.010767823002494,-0.0349391289055347,0.0085501056164503,-0.0250191017985344,0.1349901270400733,-0.5007812396809459,-9.777602916955948,14934.0
16.3,0.3000000119209289,356.0,24.525169372558597,0.2703603208065033,-79.78276827621407,40.4589809919661,269.93434512770176,0.0250823367387056,0.0161829330027103,-0.6828655600547789,0.72993403673172,0.0075558987075568,-0.0032526391788097,0.0088385814441109,0.0095585733652114,0.0110909398645162,0.0074644340202212,0.1280719024781138,-0.594706416875124,-9.790524094104768,14934.0
16.5,0.4000000059604645,359.0,24.48009490966797,1.1927660703659058,-79.78276822842423,40.458980971104594,269.945324798733,0.0251718852669,0.0160942636430263,-0.6827448010444641,0.7300458550453186,0.0161211197654218,-0.0006440522735532,0.0111724057581509,0.0077920123003423,-0.0032212666701525,0.0112011777237057,0.1560535428486764,-0.5960217480361462,-9.790338737368584,14934.0
16.7,0.5,6.0,24.34487342834473,4.786967754364014,-79.78276817113056,40.45898098535688,269.9540987775326,0.0251413621008396,0.0160987377166748,-0.6827939748764038,0.7300008535385132,0.0117360174181929,0.0022516685317386,0.0109807019366574,-0.0152557166293263,-0.0027667616959661,-0.0008735693991184,0.1438118212949484,-0.543464305959642,-9.793596805930136,14934.0
16.8,0.5,12.0,24.28727912902832,5.916119575500487,-79.7827681689718,40.45898097272509,269.9551333949566,0.0251754205673933,0.016088530421257,-0.6828617453575134,0.7299364805221558,0.0139792790625229,0.0002286773181346,0.0115633908388797,-0.0011683863122016,0.0191698968410492,-0.018722428008914,0.1483475887030363,-0.5393029156699777,-9.803301429748538,14934.0
17.0,0.6000000238418579,20.0,24.18711471557617,8.079002380371094,-79.78276816715316,40.45898095951683,269.9562298372984,0.0251568015664815,0.0160881727933883,-0.6829389333724976,0.7298648953437805,0.0130066683625661,0.0004673174654722,0.0133780208552615,-0.0012599074980244,0.0149411913007497,-5.556727046496237e-05,0.126107393335551,-0.5304121877253056,-9.796876509189609,14934.0
17.1,0.6000000238418579,22.0,24.123260498046875,9.41490077972412,-79.7827681864865,40.458981011536686,269.96323370715976,0.0251905974000692,0.0161357577890157,-0.683056652545929,0.7297524809837341,0.0074823457381001,-0.0077050906608798,0.0078963858518743,0.0529346130788326,0.0134864905849099,-0.0241443309932947,0.1509950069524347,-0.5587512665614486,-9.78138898909092,14934.0
17.3,0.6000000238418579,28.0,23.9830322265625,12.388863563537598,-79.78276812423707,40.45898101676911,269.97137376075983,0.0258910953998565,0.0162729434669017,-0.6831868290901184,0.7296030521392822,0.0113788717804494,-0.0031343391810523,0.0120288990638829,-0.0064514074474573,-0.0118651567026972,0.0123856449499726,0.1379909455217421,-0.6066164277121425,-9.836307792663575,14934.0
17.4,0.699999988079071,27.0,23.90665626525879,13.923556327819824,-79.78276812765142,40.45898100465264,269.97249335205555,0.0263496693223714,0.0162539854645729,-0.6832665801048279,0.7295123934745789,0.0112126110555018,-0.0007996852024841,0.0148357836769751,0.0013451055856421,0.0247298199683427,-0.0059221372939646,0.1054720485303551,-0.5741373740136624,-9.828782426118847,14934.0
17.6,0.699999988079071,37.0,23.73387336730957,17.19968605041504,-79.78276813069246,40.45898104086787,269.97862590259314,0.0288442522287368,0.0168274063616991,-0.683335542678833,0.7293403744697571,0.0130437888259757,-0.0192442380653735,0.015614497992428,0.0228088237345218,0.0399838387966156,0.0491580553352832,0.2327982117421925,-0.4981987803429365,-9.847015213966367,14934.0
17.7,0.8000000119209291,41.0,23.636213302612305,19.291004180908203,-79.78276808853022,40.45898109026345,269.9838868022561,0.0308105330914258,0.0156074929982423,-0.6833685040473938,0.729256272315979,0.0115578605644664,-0.0237868785436028,0.022410288963472,0.0048461849801242,0.0592362284660339,-0.0761658847332,0.1093481038324535,-0.43856719404459,-9.846265600919724,14934.0
17.8,0.8999999761581421,49.0,23.55858612060547,20.984731674194336,-79.78276811471233,40.45898107304393,269.9862878114581,0.0328303091228008,0.0140493931248784,-0.6830602288246155,0.7294885516166687,0.0108016655043463,-0.012743378506724,0.0254232759471602,-0.0417725294828414,-0.0138982227072119,-0.014705185778439,0.3131267304718495,-0.6188504473865033,-9.77468866467476,14934.0
18.0,1.2000000476837158,52.0,23.354501724243164,25.056039810180664,-79.78276814426455,40.45898111257425,270.00195611423254,0.0257510542869567,0.0045739128254354,-0.681025505065918,0.7317925691604614,0.0137723593483272,-0.0220107013063979,0.0880161353107395,-0.2024896740913391,0.0066521591506898,-0.053854826837778,0.2243651015125215,-0.2715684492141008,-10.341430041790009,14935.0
18.2,1.2000000476837158,62.0,23.59113883972168,18.87751197814941,-79.78276833991323,40.4589806128996,270.0230452284813,0.0048100110143423,-0.011595020070672,-0.6769723296165466,0.735901415348053,0.0410401916346977,-0.0369275084842344,0.2489166658807153,-0.1941930055618286,-0.1802387982606888,-0.019804660230875,0.1066110404580831,-0.3199904480203986,-10.641533707380296,14935.0
18.31,1.2000000476837158,69.0,23.56234169006348,19.426183700561523,-79.7827683889613,40.45898056346535,270.04943868672854,-0.0070037874393165,-0.0078271375969052,-0.6756070852279663,0.7371870875358582,0.0426055332607634,-0.0333306031926112,0.2713226887460212,-0.090182714164257,-0.340074211359024,-0.091712474822998,0.1514321868214756,0.378694263920188,-10.157186615467072,14935.0
18.5,1.2000000476837158,79.0,23.557334899902344,19.6965446472168,-79.7827684437225,40.458980504279104,270.07666430032253,-0.0092501994222402,1.7100930563174188e-05,-0.6750770211219788,0.7376893162727356,0.0550822172585357,-0.0441003671358298,0.2613802000921302,0.0298814307898283,-0.097087375819683,-0.0588801465928554,0.095769352465868,0.1427348372619599,-9.83077047944069,14935.0
18.6,1.2000000476837158,84.0,23.513511657714844,20.40425109863281,-79.78276860278947,40.45898080867627,270.0897868142128,-0.0065092639997601,0.0029202217701822,-0.6757377982139587,0.7371075749397278,0.0207166718021398,-0.0304326913581499,0.1532568948270133,-0.0626983940601348,0.0980257019400596,0.0290396511554718,0.0153664713143371,0.0194397034076973,-9.413564625978472,14935.0
18.8,1.2999999523162842,80.0,23.48471450805664,21.915088653564453,-79.78276852598994,40.45898077575304,270.11607571101194,-0.0035168717149645,-0.0015639379853382,-0.6775974631309509,0.7354229688644409,0.0385124144921163,0.0116715595681461,0.0581452244484704,0.0168865472078323,0.0595102235674858,0.0312459208071231,0.1239460797049105,-0.0998490644618868,-9.383937953710555,14935.0
18.91,1.2999999523162842,85.0,23.37578582763672,23.42592620849609,-79.782768504979,40.45898075039716,270.1201949880123,-0.0028440712485462,-0.003470076713711,-0.6785171627998352,0.7345709204673767,0.0176669112716398,0.0197008950647763,0.03203877114303,-0.1201905682682991,-0.0179817713797092,-0.0277777314186096,-0.0648320496501401,0.215459152534604,-9.526956755518912,14935.0
19.11,1.399999976158142,90.0,23.433380126953125,21.676536560058597,-79.78276843992305,40.45898072185288,270.1553947046995,0.0009141627233475,-0.0032930551096796,-0.6799825429916382,0.7332203388214111,0.0135649860669322,0.0252801324873941,0.0794145221990161,-0.0125570157542824,-0.0230233557522296,-0.0734167620539665,0.0623728432226926,-0.0038699248619377,-9.803508421182633,14935.0
19.21,1.399999976158142,91.0,23.35825729370117,23.537250518798828,-79.78276830313071,40.45898074289635,270.1790165469646,-0.0004280805878806,-0.0013648762833327,-0.6806866526603699,0.7325733304023743,0.0311144863019416,0.028245112237103,0.1078034069338534,0.0728085041046142,0.0256565529853105,0.0687455832958221,0.0694860678585246,0.017665973380208,-9.924196121692658,14935.0
19.3,1.2999999523162842,102.0,23.41835594177246,21.676536560058597,-79.78276826170982,40.45898072615884,270.19022144532204,-0.0005276350420899,0.0013077486073598,-0.6814252734184265,0.7318863272666931,0.0193213394288795,0.0306964594815851,0.1194010218401621,0.0414656847715377,0.0268077999353408,-0.0533614307641983,0.0176096117030829,0.2823271615616977,-9.91258355140686,14935.0
19.5,1.2999999523162842,110.0,23.231800079345703,24.865196228027344,-79.78276821828706,40.45898081062153,270.22267700886727,5.88044713367708e-05,0.0006555328145623,-0.6809155344963074,0.7323616743087769,0.0133649707637989,0.0405085479024443,0.1318427707651372,0.0008634240366518,0.0403311029076576,0.075420007109642,0.0419811628572642,-0.1813073748908937,-9.884175438880922,14935.0
19.7,1.2000000476837158,120.0,23.26310157775879,23.74399757385254,-79.78276787725557,40.458980890941966,270.25032796120644,-0.0010794209083542,-0.0002305655798409,-0.6788966059684753,0.7342330813407898,0.0139385826322443,0.0741036444231606,0.2096581100564183,0.1058260425925254,0.0231971703469753,0.0778188183903694,0.0786413686070591,-0.0377402687072753,-10.194093071222303,14935.0
19.8,1.2000000476837158,127.0,23.338224411010746,22.43195343017578,-79.78276778285719,40.45898088861453,270.27290485954285,0.0008826367557048,-0.0001395890139974,-0.6781802773475647,0.7348950505256653,0.0036160504121523,0.0850131486386454,0.2403368234642616,-0.0001670041237957,0.0345073752105236,-0.0414306297898292,0.193755128569901,-0.1095309572294354,-10.15863087773323,14935.0
20.0,1.100000023841858,131.0,23.74639320373535,16.22161865234375,-79.78276767608416,40.458980888293546,270.2976117894649,0.0016849625390022,-0.0004061039944645,-0.6780315041542053,0.7350308299064636,-0.0010115035237305,0.0971288363634908,0.2461017562252935,-0.0188914854079484,0.0178605690598487,0.017326122149825,0.1201561703346669,0.0528982251137495,-9.879982985258104,14935.0
20.1,1.2000000476837158,132.0,23.155426025390625,27.15530776977539,-79.78276739528245,40.45898089293069,270.3202053771019,0.0016881268238648,-0.002012789947912,-0.678191602230072,0.7348805069923401,-0.0042951334274175,0.1032754558298506,0.0281549613922231,-0.0129310600459575,0.0082559594884514,-0.0521420016884803,0.0424084435729309,0.0706476629292592,-8.659621131420138,14935.0
20.3,1.100000023841858,148.0,23.047748565673828,29.42951583862305,-79.78276709077576,40.45898092606273,270.34634529209137,0.0080534694716334,-0.0029313301201909,-0.6781954169273376,0.7348316311836243,0.0086059860953703,0.1118317077899141,0.0766479087380789,0.006833404302597,0.0704636946320533,-0.0717347785830497,0.0412366935331374,-0.0682645068503916,-9.394721388816832,14935.0
20.4,1.100000023841858,151.0,23.12036895751953,27.61651039123535,-79.78276696118529,40.45898092103106,270.3587551281452,0.0088264727964997,-0.0038266610354185,-0.6779599785804749,0.7350359559059143,0.0299595217962825,0.1085854552859234,0.1785763244731102,0.0546791367232799,0.041023276746273,0.0115591119974851,0.1682276102900505,-0.2294111572578549,-10.705421555042268,14935.0
20.5,1.100000023841858,154.0,22.95635032653809,29.58059883117676,-79.78276682491435,40.45898098232467,270.39469398713106,0.0084091629832983,-0.0050652716308832,-0.6771695613861084,0.7357616424560547,0.0156456316394163,0.1076158537808119,0.3102817413528578,-0.0206072498112916,0.0072949947789311,0.0208202581852674,0.1231763942632824,-0.0505141873843968,-10.921401329040528,14935.0
20.7,1.2999999523162842,158.0,22.70719146728516,35.88635635375977,-79.7827665823581,40.458981010837824,270.4798576698303,0.0068937009200453,-0.006270389072597,-0.6738110780715942,0.7388449311256409,0.0158216781728314,0.1056096015024496,0.6005244578130088,0.0564862638711929,-0.0090028326958417,-0.0219240337610244,0.2175392264127731,0.0693030865537002,-11.4892864215374,14935.0
20.8,1.2999999523162842,172.0,22.93130874633789,29.85891151428223,-79.78276646617208,40.45898100890652,270.55130009508133,0.0050210868939757,-0.0064015067182481,-0.6717826724052429,0.7407037019729614,0.0170150720564184,0.1135756494065912,0.8296136694473775,0.0095189316198229,-0.0133324023336172,-0.0404821150004863,0.2292979039996862,-0.0454089240124449,-11.945661603212356,14935.0
21.0,1.2999999523162842,195.0,22.534408569335927,40.36320495605469,-79.78276634939296,40.458981001428256,270.64481280899054,0.0037784988526254,-0.0049005448818206,-0.6699409484863281,0.7423886060714722,0.0282620751964069,0.1148106379312642,1.0316231825395148,0.0583730265498161,-0.05176867172122,-0.017151353880763,0.1133700380288064,0.0605145067255944,-11.791288093328474,14935.0
21.1,1.399999976158142,281.0,22.640832901000977,35.40924835205078,-79.78276610976988,40.45898100456889,270.89104549741745,0.0073071341030299,-0.0025707348249852,-0.6684556603431702,0.7437117099761963,0.036071110294426,0.1222124201418719,1.521852175977318,0.0315722599625587,-0.0037995197344571,0.0242498219013214,0.2388212093152106,0.0335060257650911,-12.468955829143528,14935.0
21.3,1.399999976158142,304.0,22.604522705078125,37.325626373291016,-79.78276580191188,40.45898098368807,271.23645578479767,0.0020309537649154,-0.0015246857656165,-0.6701597571372986,0.7422125935554504,0.0529880532823085,0.1517463049950131,2.0320437394201725,-0.0636340603232383,-0.0285789556801319,-0.0039309523999691,0.2567852627858519,0.0109327857848256,-12.446433523893356,14936.0
21.41,1.5,313.0,22.62080001831055,37.039363861083984,-79.78276563044042,40.45898093174926,271.45209263420105,-0.0005720073822885,-0.0030081772711128,-0.6712982058525085,0.7411810755729675,0.0700739120541798,0.1590260146260316,2.275236798573102,-0.0927285104990005,-0.0090316534042358,0.0434930995106697,0.2602224571444094,0.1725084665045142,-12.28151748418808,14936.0
21.6,1.600000023841858,328.0,22.70719146728516,33.28612518310547,-79.7827652141545,40.45898091242183,271.9213569030762,0.0034829147625714,-0.0119849061593413,-0.6731758117675781,0.7393771409988403,0.0983594877484185,0.1889895884005914,2.697977665984064,-0.0103907203301787,0.1064846515655517,0.02638497389853,0.1792997882142663,0.0799135948251933,-12.06707786679268,14936.0
21.8,1.8999999761581416,349.0,22.926300048828125,29.02397537231445,-79.78276471325456,40.45898086407025,272.4640219078064,0.0159598682075738,-0.0159090366214513,-0.673279881477356,0.7390442490577698,0.0991500448375583,0.2516713269209463,2.969428761707601,0.078819140791893,0.0332662463188171,-0.0020630797371268,0.1991930573992431,0.1344672489166259,-11.70554686188698,14937.0
21.91,2.0999999046325684,356.0,22.804851531982425,31.727577209472656,-79.78276455044242,40.45898079870204,272.76646803474426,0.0169798694550991,-0.01174789480865,-0.672851026058197,0.7394898533821106,0.100845626976107,0.255002135061024,3.0592920182970538,0.072617121040821,-0.0497070960700511,-0.0056989789009094,0.2349699772708118,0.0673169381450861,-10.864535987377169,14937.0
22.0,2.299999952316284,355.0,23.022708892822266,25.97049331665039,-79.78276423570617,40.458980765467466,273.06665824508667,0.0162501148879528,-0.0071127610281109,-0.6721864938735962,0.74016934633255,0.0974776999464038,0.2289623956117093,3.130904081773538,0.0097069647163152,-0.0461030416190624,0.0713998302817344,0.1064945438224822,0.0008511170558631,-10.693059371709824,14938.0
22.2,2.5,355.0,23.006431579589844,25.366159439086918,-79.78276362903496,40.458980519092826,273.7131144866944,0.0132249994203448,-0.0089896693825721,-0.6695490479469299,0.7425957918167114,0.1335375949707247,0.1730877639877551,3.157165231693257,-0.1161487028002739,0.0586617141962051,-0.0619424283504486,0.0544906686153262,0.2385972061380744,-9.890755895376207,14938.0
22.3,2.5999999046325684,355.0,22.91878890991211,28.149280548095703,-79.78276352164319,40.45898036401824,274.0285127029419,0.013077974319458,-0.0142960175871849,-0.6683192849159241,0.7436221837997437,0.1672500053092796,0.1666632683055831,3.1387600722386044,-0.1631077826023101,0.0826379582285881,-0.0844266563653945,0.1686377376504242,0.3815673298761249,-9.648394653797151,14939.0
22.5,2.700000047683716,1.0,23.03147315979004,25.779651641845703,-79.7827634321231,40.458980192565775,274.3413560256958,0.0111612984910607,-0.0193654540926218,-0.6675411462783813,0.7442373633384705,0.2121077028774264,0.1622465578216119,3.112858707190288,-0.0754238739609718,0.0328452959656715,-0.038390502333641,0.2221503954939544,0.3515005815401673,-9.653617386817931,14939.0
22.7,2.799999952316284,2.0,22.84867286682129,30.566619873046875,-79.78276265244322,40.458979709714505,275.2595107421875,0.0053416909649968,-0.0193196460604667,-0.6673765778541565,0.7444506883621216,0.2604697362508497,0.1185545743544305,3.0219765910401235,0.0379689559340477,-0.0420907102525234,-0.0909011512994766,0.1309127539303153,0.3334841041266918,-9.554256820678711,14940.0
22.8,2.900000095367432,4.0,23.02521324157715,26.48735809326172,-79.78276262837,40.45897954173277,275.56218980407715,0.0070168683305382,-0.0172137320041656,-0.667352557182312,0.7445099353790283,0.2527259306659567,0.0937312750070228,3.0178410064004964,0.056281317025423,0.0206619631499052,-0.0053131463937461,0.0995702801831066,0.1527425935305655,-9.680377753973008,14940.0
22.9,3.0999999046325684,10.0,22.83489990234375,30.34396934509277,-79.78276260254276,40.45897937452828,275.8629319534302,0.0082840668037533,-0.0152664147317409,-0.6674387454986572,0.7444621324539185,0.2350854233123497,0.0747755924236886,2.998996275103363,-0.0161237865686416,0.027413111180067,-0.0102075571194291,0.1772747877985239,0.2247314478456974,-9.657910412549972,14940.0
23.1,3.299999952316284,11.0,22.80860710144043,29.55674362182617,-79.78276240592605,40.45897896397975,276.42931197738653,0.0034435670822858,-0.012998485006392,-0.6697310209274292,0.74248206615448,0.2379493322168509,0.0411173033331562,2.9834995199790373,-0.0307858511805534,-0.0765004009008407,0.0063155000098049,0.2300420535542071,0.1201299126818776,-9.979502595663073,14941.0
23.2,3.2000000476837163,6.0,22.8323974609375,30.256500244140625,-79.78276206110124,40.45897881353425,276.68570636367804,-0.0005893785855732,-0.0124324979260563,-0.6708899140357971,0.7414525151252747,0.2444658722538867,0.0408957910267107,2.9625534174507098,-0.0558729544281959,-0.0555980615317821,0.0192989222705364,0.2475196186825633,0.0942569701373577,-10.100834659337998,14941.0
23.4,3.2000000476837163,3.0,22.92880439758301,27.20301818847656,-79.78276206005559,40.45897846487944,277.28374312973017,-0.0085310228168964,-0.0191545076668262,-0.6709027886390686,0.7412488460540771,0.2666043198342825,0.0308192257291291,3.0023864867541,-0.0853810831904411,-0.0108969397842884,-0.0304143708199262,0.2347318128682673,0.1079757166374474,-9.982971163988116,14942.0
23.6,3.299999952316284,0.0,22.83865737915039,29.874814987182607,-79.78276204993634,40.45897797828368,277.8230898246765,-0.0072954492643475,-0.0233527086675167,-0.6688238382339478,0.7430182695388794,0.2712950040867376,0.0357074692447006,2.8820131467635983,-0.0495719499886035,0.0667019486427307,-0.0434056594967842,0.1621232450567186,0.180773213468492,-9.716581959128384,14942.0
23.7,3.2000000476837163,357.0,22.889991760253903,28.17313575744629,-79.78276216296749,40.45897778426974,278.22403691864014,-0.0050659049302339,-0.023961529135704,-0.6680439114570618,0.743718683719635,0.2381276438949473,0.0332373491532099,2.8962293223879323,-0.0082965493202209,0.0052246423438191,-0.0552579462528228,0.2801578080095351,0.3033520679734648,-9.668222562074662,14943.0
23.8,3.0999999046325684,351.0,22.86495018005371,28.66614532470703,-79.78276218009148,40.45897768729176,278.51411317443853,-0.003127681557089,-0.0241615008562803,-0.667319655418396,0.7443728446960449,0.2116405716250768,0.0478511150595287,2.8872648892189323,-0.0140649983659386,0.0266006253659725,-0.0285325441509485,0.2475204044021666,0.2704760431498289,-9.663774000406264,14943.0
24.0,3.2000000476837163,349.0,23.006431579589844,25.668325424194336,-79.78276220282953,40.4589776061914,278.802676902771,-0.0001366490905638,-0.0245092008262872,-0.6669796109199524,0.7446727752685547,0.1868290773300726,0.0501497995539582,2.869453200877623,-0.0247030854225158,0.0421170182526111,-0.0177289918065071,0.2749668144062162,0.2619699158146977,-9.63247093141079,14943.0
24.2,3.0999999046325684,341.0,22.688411712646484,33.03166961669922,-79.7827615797975,40.45897683741961,279.9127890930176,0.0032949426677078,-0.0270905010402202,-0.6667130589485168,0.7448147535324097,0.1761724765356408,0.0803183743087929,2.8416012878614283,0.0621326528489589,-0.0204551070928573,0.012900817207992,0.3384510945528746,0.4046417219191789,-9.297022601366043,14944.0
24.3,3.2000000476837163,342.0,22.803600311279297,28.642290115356445,-79.78276161297381,40.45897677769122,280.19750951385504,0.0010399932507425,-0.0254787467420101,-0.6667289733886719,0.7448639273643494,0.1623268886131149,0.0777385708970824,2.851300320379828,0.0289853792637586,-0.0624490790069103,0.0108433496206998,0.3522114567831159,0.2385405977815389,-9.798115534186364,14945.0
24.4,3.2000000476837163,337.0,22.93381309509277,27.71988296508789,-79.78276165331512,40.45897673161286,280.4841010437012,-0.0013274468947201,-0.0239004641771316,-0.6671367883682251,0.7445505857467651,0.1477336528514446,0.0582267491001669,2.8665375295578217,0.0179882626980543,-0.0279121045023202,0.0511330515146255,0.2588477036543191,0.2361074617132545,-9.86368913412094,14945.0
24.6,3.2000000476837163,336.0,22.84491729736328,28.95240974426269,-79.7827615656664,40.45897650167085,281.18147443389887,0.0015819617547094,-0.0221538729965686,-0.6676523089408875,0.7441418766975403,0.1313888242992887,0.0179911630223353,2.88809213422104,0.0435873344540596,0.0193698145449161,-0.061334915459156,0.2923917545937002,0.3343558874353766,-9.611640810370446,14946.0
24.7,3.299999952316284,334.0,22.78607177734375,29.71577835083008,-79.78276150192085,40.45897635955385,281.5520093307495,0.0007800803869031,-0.021935386583209,-0.6676911115646362,0.7441148161888123,0.113148153522973,0.025147788815426,2.899257958730597,0.0259698275476694,-0.0652747973799705,-0.061778288334608,0.375851786211133,0.3778549326583743,-9.587336273789406,14946.0
24.9,3.400000095367432,334.0,22.645841598510746,33.127090454101555,-79.78276164498642,40.45897631721677,282.1299569473266,-0.0067350245080888,-0.0204325206577777,-0.6680452227592468,0.743809700012207,0.1063165432380126,0.0084170419319537,2.889521951848983,-0.0612912215292453,-0.0523455701768398,0.0009133194107562,0.2710221913643181,0.3701857246086001,-9.829192900657654,14947.0
25.1,3.400000095367432,338.0,22.70343589782715,30.24854850769043,-79.78276154627822,40.45897617289365,282.80510305023193,-0.0092218564823269,-0.0188147667795419,-0.6681708097457886,0.7437129020690918,0.1161565758568902,0.0067188628433975,2.9896783868952186,-0.0596496351063251,-0.0155625743791461,-0.1369789540767669,0.1896389811113477,0.2714206973835826,-9.978115636110306,14947.0
25.2,3.400000095367432,338.0,22.751012802124023,29.461322784423828,-79.78276168047681,40.458976152324674,283.16877053833014,-0.009857228025794,-0.019283827394247,-0.667942225933075,0.7438979744911194,0.0923046356625224,-0.0130129747594864,3.0456754460138344,-0.0438200086355209,0.0137589825317263,-0.0112514896318316,0.2772582285851241,0.3295253198593855,-10.04236718058586,14948.0
25.3,3.5,339.0,22.908771514892567,27.12350082397461,-79.78276173381082,40.45897617477448,283.474307762146,-0.0070419101975858,-0.0197452139109373,-0.6674923896789551,0.7443215250968933,0.0981158709826712,-0.0042695901603509,3.058420116990808,0.0304228793829679,0.0609592609107494,0.0917223244905471,0.1790799329057336,0.1833158751949668,-9.921719241142274,14948.0
25.5,3.5999999046325684,340.0,22.912527084350582,26.48735809326172,-79.78276183983648,40.458976195028896,284.13370870208735,-0.0010208720341324,-0.0210046600550413,-0.6660789847373962,0.7455847859382629,0.0714147413953784,0.027418967140562,3.0515690551464645,0.0712164789438247,0.0259409230202436,0.0327566936612129,0.277482706848532,0.3341872318089009,-9.792268903255463,14949.0
25.7,3.700000047683716,344.0,22.7785587310791,28.22084617614746,-79.78276177594898,40.45897628687324,284.7787978515625,-0.0005534598603844,-0.0199925955384969,-0.6649667620658875,0.7466052174568176,0.0396040646251742,0.04704224565277,3.0358139170340586,-0.0161164700984954,0.0251844320446252,0.0291106086224317,0.3071821586787701,0.3829089369624853,-9.64563184440136,14949.0
25.81,3.700000047683716,346.0,22.7785587310791,31.560590744018555,-79.78276181905692,40.45897632708365,285.0831954345703,-0.0006269946461543,-0.0190881267189979,-0.6648651361465454,0.746719241142273,0.0449683063481522,0.0492031383518001,3.044476914812652,-0.0004069459682796,-0.0197626054286956,-0.1115625351667404,0.3063436862267554,0.3663911009207368,-9.805222240090371,14950.0
26.0,3.799999952316284,350.0,22.75226593017578,29.81120109558105,-79.78276185775947,40.45897636546045,285.38723252868647,-0.0020607153419405,-0.0182392261922359,-0.6654089689254761,0.7462533712387085,0.0508798343607841,0.0497249234422749,3.041006831123138,0.0214714519679546,-0.0273851659148931,0.0356359183788299,0.2790049746260047,0.2529110438749194,-9.82185347557068,14950.0
26.1,3.799999952316284,350.0,22.799842834472656,28.212894439697266,-79.78276186121265,40.458976368544725,286.0396430358887,-0.000898994563613,-0.0157037582248449,-0.6675297021865845,0.7444170713424683,0.0671852030468939,0.0400310154605293,3.0603862769614416,0.0003319652751088,0.0136968437582254,0.0499731302261352,0.2139589945413172,0.3121679698303342,-9.84191410303116,14951.0
26.2,3.799999952316284,350.0,22.863698959350582,27.043983459472656,-79.78276177879009,40.4589763939779,286.3801333770752,-0.0006709244917146,-0.015290604904294,-0.6686998605728149,0.7433748841285706,0.0612539416682798,0.0433667416625122,3.0688477449923584,0.0012222919613122,0.0545560903847217,0.1330010145902633,0.1648223746195435,0.2365028065815568,-9.814530422687527,14951.0
26.4,3.799999952316284,350.0,22.74224853515625,29.683971405029297,-79.78276179664633,40.45897640362685,286.99070619201666,-0.0012979585444554,-0.0165223572403192,-0.6692613959312439,0.7428421974182129,0.0833877784134649,0.0663001485836847,3.0412272377105163,0.0033423865679651,-0.0415131300687789,-0.0029639808926731,0.3256590677797794,0.2623940947651863,-9.739932230114936,14951.0
26.5,3.799999952316284,350.0,22.833648681640625,27.98229217529297,-79.78276178665007,40.45897649241374,287.33530114746094,-0.0033653271384537,-0.0179309472441673,-0.66883385181427,0.7431881427764893,0.0705802752966095,0.0581783271605919,3.0600793188331084,-0.0507341213524341,-0.0336546003818512,0.0313139967620372,0.2604537876136601,0.194517075587064,-9.790842767357828,14952.0
26.7,3.900000095367432,350.0,22.787322998046875,28.89674568176269,-79.7827616710554,40.4589764945372,287.96819757080084,-0.0047422936186194,-0.0193406119942665,-0.6676676869392395,0.7441930770874023,0.0987072868236273,0.0662804973264957,3.019446722781553,-0.0147401494905352,0.0233390722423791,-0.0652883127331733,0.1990810466744005,0.2673628210835159,-9.579339621663092,14952.0
26.8,3.799999952316284,351.0,22.747257232666016,29.97818756103516,-79.78276165973942,40.45897650109544,288.26954530334467,-0.0036211339756846,-0.0201885234564542,-0.6673913598060608,0.7444247007369995,0.0954326341849523,0.0699813911311826,3.005631345929078,-0.0070215351879596,-0.0086546083912253,-0.0541806332767009,0.1705400561727583,0.3244477439671755,-9.655960366129875,14953.0
27.0,3.799999952316284,351.0,22.68089866638184,30.39963150024414,-79.78276164506373,40.45897650749586,288.57047532653814,-0.0021466873586177,-0.0205475352704525,-0.6674774289131165,0.7443434596061707,0.0939516757992142,0.082964424636448,3.011518485530884,-0.0173986721783876,0.048390693962574,-0.0378771461546421,0.2797623900510371,0.4453234324604273,-9.827634032964708,14953.0
27.1,3.700000047683716,348.0,22.740997314453125,29.02397537231445,-79.7827615605323,40.45897640470253,289.21602700805664,-0.0016772774979472,-0.0203236415982246,-0.667959988117218,0.7439178228378296,0.0984769002258135,0.0949743152804604,3.0752128954721814,-0.0375929065048694,-0.0035341498441994,-0.036737248301506,0.2625074759311974,0.2939088695123792,-10.014008184671402,14954.0
27.3,3.700000047683716,346.0,22.78857421875,25.40591812133789,-79.78276134458153,40.458976390330015,289.858811126709,-0.0002505026059225,-0.0183545835316181,-0.6670427918434143,0.7447932958602905,0.1040522285314082,0.1161418124633734,3.118218000679573,0.0813911780714988,0.0340161360800266,-0.0002807316777762,0.3487578354030847,0.217371502686292,-9.990761994123462,14954.0
27.4,3.5999999046325684,344.0,22.85368156433105,27.91072654724121,-79.78276129408025,40.45897639269931,290.1706549987793,0.0017504495335742,-0.0177420582622289,-0.6663076281547546,0.7454639077186584,0.0971307762271541,0.120746267444208,3.1010822814774595,0.0697727426886558,0.0440897084772586,0.0478207506239414,0.2338056869991124,0.150756477098912,-9.647383085489274,14955.0
27.6,3.5999999046325684,343.0,22.674638748168945,30.18493461608887,-79.78276116538818,40.45897636869503,290.7945391998292,0.002752598375082,-0.0192657280713319,-0.665092408657074,0.746507465839386,0.083853717684144,0.1355262282410537,3.028236350015351,-0.047368049621582,0.0058127893134951,0.0185385979712009,0.3497757625579834,0.2427006359025836,-9.664657514691353,14955.0
27.8,3.5,343.0,22.7497615814209,29.19891357421875,-79.78276100638551,40.45897645868964,291.42499421691895,0.0016459117177873,-0.0183085408061742,-0.6647394299507141,0.7468491196632385,0.0924356501650861,0.1415127900224256,3.0247498505791617,0.027107847854495,-0.0045917900279164,0.0862385332584381,0.2897264657914639,0.1907769223675132,-9.775397931933403,14956.0
27.9,3.5,340.0,22.67338562011719,30.44734191894531,-79.78276094073841,40.45897645878626,291.7267997131348,0.0019044849323108,-0.0181920733302831,-0.6645713448524475,0.7470009922981262,0.0853301449514672,0.1371945418921525,3.0028422990939174,0.0102898711338639,-0.0286309570074081,0.0564019866287708,0.2753659051470458,0.0831786800455302,-9.598189290761947,14956.0
28.0,3.5,339.0,22.67964744567871,29.73168182373047,-79.7827608414118,40.45897651125217,292.0426204071045,0.0019690401386469,-0.0199988391250372,-0.6641324162483215,0.7473448514938354,0.0640411862099744,0.1312053929926872,3.0016024592787467,-0.0187727231532335,0.033156331628561,-0.0327608622610569,0.2606277605518699,0.3479648798704147,-9.709567639231684,14957.0
28.2,3.400000095367432,338.0,22.698427200317383,27.67217254638672,-79.7827606976997,40.45897665424303,292.6544730529785,0.0026801803614944,-0.017944885417819,-0.664656400680542,0.7469288110733032,0.0521755454498622,0.1339122764375078,3.0172228390796008,0.0285765714943408,-0.0362940020859241,0.024420304223895,0.2702626197785139,0.2452577694877982,-9.918081103563312,14957.0
28.4,3.5,336.0,22.74475288391113,28.4912052154541,-79.78276060647553,40.458976706868896,293.25956224060064,0.0022122450172901,-0.0131459012627601,-0.6673395037651062,0.7446343898773193,0.0472926763557189,0.1175027212204316,3.020465742736244,0.0320493169128894,0.0119274640455842,0.1348329335451126,0.2382928951084613,0.097335291635245,-9.833712798357013,14958.0
28.5,3.5,335.0,22.68214988708496,29.6760196685791,-79.7827604328077,40.45897679630313,293.56521485900885,0.001640542410314,-0.0133944628760218,-0.6681718826293945,0.7438845634460449,0.0353634582429184,0.117430022895061,3.0109792430175824,0.0168329831212759,0.0096802813932299,-0.0079265357926487,0.2888553951121866,0.1616736672632396,-9.803725937604904,14958.0
28.6,3.5,336.0,22.814868927001957,26.71000862121582,-79.78276037043106,40.45897681890324,293.8663508758545,0.0020329765975475,-0.0154567724093794,-0.6684702634811401,0.7435755133628845,0.0482197765179405,0.1178012822414789,3.0079853715720217,0.0146112153306603,0.0644564926624298,0.1140653863549232,0.2034226408414542,0.1660097796656191,-9.793455888032916,14958.0
28.81,3.5,337.0,22.65085029602051,30.61433029174805,-79.78276022908996,40.45897689428487,294.46935151672363,0.0043594189919531,-0.0193223543465137,-0.6684262752532959,0.7435145974159241,0.0581125158272419,0.1400406160417981,2.9588313258581245,-0.0087661603465676,0.0124550377950072,-0.0699701532721519,0.2625565742701292,0.1800879746116697,-9.639025660157204,14959.0
28.9,3.5,339.0,22.62330436706543,31.22661590576172,-79.78276016539714,40.45897690319094,294.76541017150885,0.0041861957870423,-0.021170113235712,-0.6683601140975952,0.7435247898101807,0.0672026992192864,0.1485592656409484,2.961386430367915,-0.0147179262712597,0.0198388919234275,-0.0070115658454597,0.3491536919027567,0.2632112796977162,-9.832663807868958,14959.0
29.1,3.5,339.0,22.723468780517567,29.008071899414062,-79.78275998945949,40.458976943887656,295.3733374938965,0.0038562705740332,-0.0221404749900102,-0.6679556965827942,0.743861734867096,0.0828391680098873,0.1579218715233221,3.008688493856837,-0.0338531099259853,-0.02594512142241,0.0657079964876174,0.2761995901912451,0.1313507743366062,-9.902722806930544,14960.0
29.3,3.5,338.0,22.644588470458984,29.66011619567871,-79.78275981118674,40.458976958816265,295.97769998168945,0.0032824096269905,-0.0217897742986679,-0.6668691039085388,0.7448490262031555,0.0945006390741123,0.145758934240959,3.0129893865180444,0.0653308555483818,0.0255244728177785,-0.0160625744611024,0.2326611128076911,0.0949207752943039,-9.81203833937645,14960.0
29.4,3.5,339.0,22.7497615814209,28.451446533203125,-79.78275976104524,40.45897696024193,296.28034089660645,0.0039489725604653,-0.0215059909969568,-0.6662863492965698,0.7453753352165222,0.0914519411600118,0.140922644878327,3.028846775537261,0.0617680661380291,-0.0209045466035604,0.0811630338430404,0.2565369205735624,0.2465915559232235,-9.943610047101975,14961.0
29.5,3.5,340.0,22.55444145202637,32.13311767578125,-79.78275972788998,40.45897702613134,296.5769240722656,0.004114294424653,-0.0212030261754989,-0.6658273339271545,0.7457932829856873,0.082153303547962,0.1346138312626424,3.014334611619905,0.0114542674273252,0.0456320270895958,0.0090487571433186,0.3332910363748669,0.4180582678690553,-9.886391533613205,14961.0
29.7,3.5999999046325684,340.0,22.52439308166504,32.562515258789055,-79.78275959470893,40.45897703414745,297.1837890014648,0.003643118776381,-0.0218875352293252,-0.6652315258979797,0.746307373046875,0.0858313255578108,0.1322013691644859,3.0641079016342854,0.0110355783253908,-0.0242159590125083,-0.0856546089053154,0.3380450419709087,0.348241745531559,-10.099151830673216,14962.0
29.8,3.5999999046325684,339.0,22.62956428527832,30.43143844604492,-79.7827595627427,40.45897703246951,297.4926478729248,0.0036648851819336,-0.0219357274472713,-0.6651226878166199,0.74640291929245,0.0946310787138169,0.1327440348246699,3.1057266659121336,0.033182542771101,0.0074985162355005,-0.0689137428998947,0.3607225542515517,0.3197239246219397,-10.192163490056991,14962.0
30.0,3.5999999046325684,338.0,22.614540100097656,30.51890754699707,-79.78275953152064,40.45897702588979,297.80545114135737,0.0040482734329998,-0.0209063794463872,-0.6652539372444153,0.7463135123252869,0.1070665690138825,0.1357976857913023,3.1375050742045665,0.0198970288038253,-0.0140581000596284,0.1294892281293869,0.3376619031652808,0.1166913844272494,-10.095304362773897,14962.0
30.1,3.5999999046325684,335.0,22.7497615814209,27.91867828369141,-79.78275948584636,40.45897711931115,298.4100158081055,0.0046453950926661,-0.0219012070447206,-0.6659325361251831,0.7456760406494141,0.0918212805601535,0.1288859142564043,3.0903298217426185,0.029525838792324,0.0427391715347766,0.0438088327646255,0.4229678459465504,0.2002499599009752,-9.847177766561508,14963.0
30.3,3.5999999046325684,333.0,22.77605438232422,27.86301612854004,-79.78275938270959,40.458977205006256,299.0196082458496,0.0068552903831005,-0.023326950147748,-0.6657139658927917,0.745810866355896,0.088473485765941,0.1209457649030263,3.0457410910290204,0.0376594476401805,0.0904129147529602,0.0076600867323577,0.201342621780932,0.2411701272055507,-9.636776821017266,14964.0
30.4,3.5999999046325684,333.0,22.71595573425293,28.276508331298828,-79.78275937573575,40.45897720214742,299.3233611450196,0.0089947944507002,-0.0240939036011695,-0.6651623249053955,0.7462558746337891,0.0806197720098971,0.1230771297066628,3.0237675769126526,-0.0113842329010367,-0.0085293147712945,-0.0894749090075492,0.257256913818419,0.2595473047345877,-9.608368708491328,14964.0
30.6,3.5999999046325684,332.0,22.658361434936523,30.05770492553711,-79.78275937599507,40.458977331539785,299.9245402679444,0.0057438532821834,-0.0241285432130098,-0.6646287441253662,0.7467620372772217,0.075000791925006,0.1245486313288767,2.9792475964747327,0.0373817421495914,-0.0714237168431282,-0.0523287877440452,0.3533662818744779,0.2494185019657016,-9.625314524173737,14964.0
30.7,3.5,333.0,22.62080001831055,30.025897979736328,-79.78275931581865,40.45897732460796,300.23965524291987,0.0038809629622846,-0.0220592021942138,-0.665005087852478,0.7465029358863831,0.085792139057614,0.1046683969086056,3.0049647615353328,-0.0163612384349107,-0.038904596120119,-0.0010766789782792,0.316574943177402,0.3017880656942725,-9.757966212630274,14965.0
30.9,3.5,333.0,22.68715858459473,28.26060485839844,-79.78275937127697,40.458977311602055,300.84135125732416,0.004251355305314,-0.0167155470699071,-0.6662986874580383,0.7454854846000671,0.081918768409043,0.0607448541968871,2.9970191984739976,0.0389453284442424,-0.0198453646153211,0.0377269200980663,0.286923895329237,0.1678838305547833,-9.729401394724846,14965.0
31.0,3.5,333.0,22.826135635375977,25.79555511474609,-79.78275933550546,40.45897733081085,301.15074037170416,0.003849288681522,-0.0164158996194601,-0.6666657328605652,0.7451661825180054,0.0648365139735511,0.0616418047640967,2.99600317104516,-0.0067604966461658,-0.0581608116626739,0.1273678094148636,0.2421366719529033,-0.0141686623357236,-9.629720985889437,14966.0
31.2,3.5,334.0,22.65585708618164,30.23264503479004,-79.78275943869987,40.458977346657335,301.7568957672118,0.0006606644019484,-0.0169481392949819,-0.6661154627799988,0.7456558346748352,0.0764170105473776,0.0429956880295053,2.950336968743605,-0.0858770012855529,-0.0426698625087738,-0.0350824333727359,0.190760184712708,0.2260302423499525,-9.51167681157589,14966.0
31.3,3.400000095367432,334.0,22.69967842102051,28.66614532470703,-79.78275947424017,40.45897733001751,302.051811920166,0.0002464911376591,-0.0183055363595485,-0.6658486127853394,0.7458622455596924,0.083793521563976,0.0372932439682013,2.9521830087110765,-0.080383688211441,0.07478017359972,-0.0492702275514602,0.2421807453408837,0.3527169485762716,-9.790685477256774,14967.0
31.5,3.5,334.0,22.66587448120117,29.763490676879893,-79.78275950660625,40.45897731475074,302.34793161010737,-0.000816068612039,-0.0196148864924907,-0.6656610369682312,0.7459960579872131,0.0962023408119992,0.0462801734625048,2.9642207115006256,-0.0435637459158897,-0.0105637926608324,-0.0684564486145973,0.2941570472717285,0.2273630420677364,-9.858710814714431,14967.0
31.7,3.400000095367432,335.0,22.7785587310791,25.80350685119629,-79.78275965298657,40.458977421952014,303.2681853637696,-0.0034025937784463,-0.0197077989578247,-0.6669416427612305,0.7448415756225586,0.0994095063982336,0.0448435353901975,3.0825912976077565,0.007900308817625,0.0153973186388611,0.0523416623473167,0.2562433355301619,0.2183319626748562,-10.035881448984153,14968.0
31.8,3.400000095367432,337.0,22.74475288391113,27.79145050048828,-79.78275966698907,40.45897742934976,303.5773513183594,-0.0013930863933637,-0.0183022543787956,-0.667430579662323,0.7444457411766052,0.1007862929043997,0.0570291935979856,3.085975335205017,0.1101937666535377,0.0119689013808965,0.1039923056960106,0.4032194232568145,0.1668364845961332,-9.934366768598556,14968.0
31.9,3.400000095367432,336.0,22.57697868347168,31.16300201416016,-79.7827596742208,40.45897744146034,303.8853309020996,0.0007711360231041,-0.0182646475732326,-0.6677284240722656,0.7441805005073547,0.0678707899282214,0.0683269623628652,3.072086825631922,-0.0520106367766857,0.0349807068705558,-0.0388103537261486,0.2522658949904144,0.2915650862082839,-9.736068974733351,14968.0
32.11,3.400000095367432,337.0,22.598262786865234,28.87289047241211,-79.78275971871241,40.45897750445979,304.4953772888184,0.0050074770115315,-0.0202202349901199,-0.6678460240364075,0.74400794506073,0.0533879342813971,0.0899657044640904,3.0844915920353806,-0.0518536642193794,-0.0014691943069919,-0.030377434566617,0.3694737895578146,0.3182433365285397,-9.944687104225158,14969.0
32.2,3.5,338.0,22.747257232666016,25.24688148498535,-79.78275970886935,40.458977546815134,304.8005301818848,0.0050953030586242,-0.0217910204082727,-0.6676021218299866,0.7441818714141846,0.0555553833031856,0.0975928072966007,3.0871638347470043,0.0066214869730174,0.0098548736423254,0.020556055009365,0.3356699395179749,0.2988720409758389,-9.9120596408844,14969.0
32.41,3.400000095367432,339.0,22.62956428527832,30.11336708068848,-79.7827597407379,40.45897756563423,305.41544793701166,0.0061621875502169,-0.0213143751025199,-0.6660717725753784,0.7455576658248901,0.0760013979499848,0.0944601706125086,3.059637689427696,0.0759203359484672,-0.0096777724102139,0.0639125779271125,0.3649321475252509,0.2026191603206098,-9.760916132926944,14970.0
32.6,3.400000095367432,339.0,22.71720886230469,26.73386383056641,-79.78275980825637,40.45897763551399,306.0265052185058,0.0023256049025803,-0.0225862115621566,-0.6641095876693726,0.7472904324531555,0.0633150708781575,0.0817111913026573,3.05006980556153,-0.0680307000875473,0.015312080271542,-0.0012327989097684,0.4070286284387112,0.2468287884257733,-9.84737072467804,14971.0
32.7,3.400000095367432,337.0,22.71595573425293,27.97434043884277,-79.78275983964565,40.45897773263475,306.335430847168,0.0007393597625195,-0.0236524268984794,-0.6635271906852722,0.7477778792381287,0.0722683899109601,0.0648396947169054,3.0188930171462536,0.0855161026120185,-0.0240216180682182,0.0755961015820503,0.368714930601418,0.1894348767399788,-9.515550591945653,14971.0
32.8,3.400000095367432,336.0,22.59450721740723,30.16903114318848,-79.78275988605641,40.45897775118118,306.63550256347656,0.0031022687908262,-0.0209025926887989,-0.6630939245223999,0.7482379078865051,0.0789267289579597,0.0613038528067622,2.982564473298821,0.105100966989994,0.007068526931107,0.1097480729222297,0.2817147936299443,0.2750304759666324,-9.458844294548037,14971.0
33.0,3.400000095367432,335.0,22.677143096923828,29.326141357421875,-79.782759931425,40.4589777570996,307.24289392089844,0.0034047251101583,-0.0127016389742493,-0.6629642844200134,0.7485355734825134,0.0453104612597429,0.0554157098466268,3.0235911437963017,0.0443426147103309,-0.0531238950788974,0.1246372014284134,0.2484806085750461,0.0757741041854024,-9.947146443128586,14972.0
33.1,3.400000095367432,334.0,22.622053146362305,27.656269073486328,-79.78275996277216,40.45897776376411,307.54581903076166,0.002313116332516,-0.0122772976756095,-0.6633703112602234,0.7481870651245117,0.0469559616458312,0.0432188839885013,3.0408027370545643,0.0254832971841096,0.0714676976203918,0.0618879199028015,0.2617499874159694,0.2397265592962504,-10.00268914461136,14972.0
33.31,3.400000095367432,334.0,22.710947036743164,27.425668716430664,-79.78276000716043,40.45897778771258,308.16341851806635,0.0025445120409131,-0.0169992465525865,-0.6639194488525391,0.7476065158843994,0.0751904804886261,0.0654172271767483,3.048921406974507,-0.076455034315586,0.0003828632470685,0.0999607071280479,0.3012305702269077,0.1182486806809902,-9.733543562293056,14973.0
33.5,3.400000095367432,332.0,22.541921615600582,31.53673553466797,-79.78276000275224,40.458977766048605,308.4676596984864,0.0018265338148921,-0.020472640171647,-0.6641469597816467,0.7473194599151611,0.0934640320710119,0.0848845101136909,3.0352961915146346,-0.1045479848980903,0.0826099589467048,-0.0176516640931367,0.2819719980284572,0.2729448106884956,-9.688935738801955,14973.0
33.61,3.400000095367432,332.0,22.624555587768555,28.42759132385254,-79.78276011425777,40.45897782106201,309.0865638122558,0.0010529888095334,-0.0248511582612991,-0.6641216278076172,0.7472107410430908,0.1141534744537052,0.1002014742607951,3.081766699270304,-0.0263635832816362,-0.0305819287896156,0.0573875680565834,0.3677152394503355,0.2053715543635189,-10.041057404279709,14974.0
33.7,3.5,331.0,22.618295669555664,28.53096389770508,-79.78276008792878,40.45897786426651,309.3912017211913,0.0009704419644549,-0.0253688562661409,-0.6642348170280457,0.7470927834510803,0.117462141914162,0.1095509735021917,3.087483751040794,-0.0128936897963285,0.0493318699300289,0.0575706250965595,0.3944197656959296,0.3630103504657745,-9.95901161313057,14974.0
33.9,3.5,330.0,22.77104568481445,26.224950790405277,-79.78276008173216,40.45897785569539,310.00763772583014,0.003893141169101,-0.0235548298805952,-0.6643779873847961,0.7470152974128723,0.1129065464692574,0.1176836402175686,3.0609380837914446,0.0188857894390821,-0.0300035551190376,0.0776671171188354,0.3328086045384407,0.1146373489312827,-9.635255375504494,14975.0
34.1,3.5,327.0,22.5494327545166,30.272403717041016,-79.78276005493306,40.45897793253704,310.61512826538086,0.0044512199237942,-0.0242808926850557,-0.6639334559440613,0.7473841905593872,0.0892415965823611,0.1185632725239886,3.0581734181771547,0.0028326821047812,-0.0065992432646453,-0.1575649976730346,0.3010424726083875,0.3633437513932586,-9.654064114093783,14975.0
34.2,3.5,328.0,22.652101516723643,28.56277275085449,-79.78276004255456,40.45897800082796,310.9222495422364,0.003753715660423,-0.0248467624187469,-0.6639711260795593,0.7473359107971191,0.08621421878229,0.1327180134272606,3.0831598844590657,-0.048100970685482,0.0208744388073682,0.0202709976583719,0.4517050470784307,0.3344451305642724,-10.03209596157074,14975.0
34.3,3.5,325.0,22.605775833129893,28.610483169555664,-79.78276002518461,40.45897800689344,311.23180078125,0.002395591000095,-0.0243939217180013,-0.6643033623695374,0.7470611333847046,0.0945069576642802,0.1362094570615288,3.1003264553004404,-0.035936489701271,0.0156415719538927,-0.0329790823161602,0.3756112829223275,0.3859230304509402,-9.945849530696869,14976.0
34.5,3.5,324.0,22.541921615600582,29.206865310668945,-79.78275997018027,40.45897811899757,311.846661315918,0.0037225622218102,-0.0205903518944978,-0.6649291515350342,0.7466133832931519,0.0831263474456591,0.136467931769108,3.10576291580094,0.0264421682804822,0.0359846390783786,-0.0636969059705734,0.3843616046011448,0.2965644190460444,-9.942543514966967,14976.0
34.6,3.5999999046325684,323.0,22.604522705078125,28.67409706115723,-79.78275993221908,40.45897813051125,312.15899728393555,0.0057205655612051,-0.02006221935153,-0.6648663878440857,0.7466710209846497,0.0747741641408333,0.1413511050267108,3.1314313090424126,0.0109865209087729,0.0819799304008483,-0.0645862966775894,0.3875606162846089,0.4384320137277245,-9.998840507268904,14977.0
34.81,3.5999999046325684,322.0,22.72221565246582,26.61458778381348,-79.78275988126242,40.45897820463148,312.7797553405762,0.0082778390496969,-0.0212538354098796,-0.6648247241973877,0.7466510534286499,0.0602535036269467,0.1550195870846206,3.117936270213844,-0.0836738646030426,0.0022954607848078,-0.0768696367740631,0.4017362770065665,0.3644905731081962,-9.738244723677637,14977.0
35.0,3.5999999046325684,323.0,22.63081741333008,27.97434043884277,-79.78275984140178,40.45897819701473,313.0901801452637,0.0075533441267907,-0.0233149230480194,-0.6649959087371826,0.746444821357727,0.0778334877505972,0.1600607275687005,3.077899909639638,-0.0972511917352676,-0.0444398187100887,-0.0495441369712352,0.3200883888825774,0.3817677431926131,-9.50454086959362,14978.0
35.1,3.5999999046325684,325.0,22.628313064575195,28.14132881164551,-79.78275977100212,40.458978271076994,313.70366357421875,0.0026883308310061,-0.026398180052638,-0.6645547747612,0.7467683553695679,0.1156476491197849,0.1523424365408345,3.0326811045681965,0.0391133874654769,-0.0418411344289779,-0.0272533241659402,0.3973735597729683,0.3383909413218498,-9.62018827021122,14978.0
35.2,3.5999999046325684,325.0,22.781063079833984,25.03218460083008,-79.78275969901294,40.4589782776524,314.01952432250977,0.0021532664541155,-0.0268108025193214,-0.6645791530609131,0.7467336654663086,0.1330444461755665,0.1426850334687535,3.0394775129503864,0.0474344491958618,0.0068695787340402,0.0993110537528991,0.3305679880455136,0.141448641680181,-9.568998236060144,14979.0
35.41,3.5999999046325684,325.0,22.481822967529297,31.16300201416016,-79.7827596525502,40.45897826247366,314.618820892334,0.0024779916275292,-0.0243457220494747,-0.6653074026107788,0.7461684346199036,0.1106046755266063,0.1379658531422964,2.95724772151789,-0.0392908342182636,-0.1435681134462356,-0.057897500693798,0.3039830739051104,0.3693884202092886,-9.508977152109146,14979.0
35.6,3.5999999046325684,325.0,22.87496566772461,21.09605598449707,-79.78275951517176,40.45897832243823,315.24084924316406,0.0036558674182742,-0.020001620054245,-0.6645969152450562,0.7469254136085509,0.1006807454532944,0.1186631207456485,3.023435711781396,0.048989962786436,0.0440321266651153,0.0154657885432243,0.3984520787000657,0.4712965816631913,-9.822144666910171,14980.0
35.7,3.5999999046325684,325.0,22.87621879577637,22.972675323486328,-79.7827594401018,40.45897824390791,315.5545623168945,0.0035279244184494,-0.0218743998557329,-0.6634940505027771,0.7478534579277039,0.1223388366286969,0.129772336734507,2.9877583196083712,-0.0109960390254855,0.0200220141559839,-0.0093954261392354,0.3112566447257996,0.1188559505715966,-9.259422081112865,14980.0
35.8,3.5999999046325684,325.0,22.831144332885746,22.36833953857422,-79.78275939405226,40.45897820702761,315.8483207092285,0.0037623012904077,-0.0259855911135673,-0.662795901298523,0.7483397126197815,0.1390068339869139,0.1284327448310955,2.8751873282278697,0.0303075369447469,0.1267879158258438,0.126111626625061,0.3235838543996215,0.1467891047336161,-8.838164691925051,14980.0
36.0,3.5999999046325684,326.0,22.84366607666016,22.74207305908203,-79.78275938831733,40.4589782579809,316.4111296997071,0.0055286227725446,-0.0326844975352287,-0.6628891825675964,0.7479833960533142,0.1452172893637864,0.1501710920372807,2.645103516774312,-0.061072040349245,0.0220599342137575,-0.0453705303370952,0.4177565515413881,0.4082623909413815,-8.510356918573379,14981.0
36.1,3.5,329.0,22.90752029418945,22.996530532836918,-79.78275935555983,40.45897822195407,316.6701896057129,0.0048536588437855,-0.0340046100318431,-0.6633428335189819,0.7475268840789795,0.1470017901193686,0.1473679075737909,2.519004900807475,0.0053396425209939,0.0368549972772598,0.0636842623353004,0.4572793073952198,0.1496052699722349,-8.551241235136986,14981.0
36.31,3.5,330.0,23.00142288208008,20.22136116027832,-79.78275934812079,40.45897822068408,317.1637198791504,0.0025199463125318,-0.0330078527331352,-0.6625744700431824,0.7482641935348511,0.1412479228726024,0.1158080108977527,2.317960574530425,0.079904094338417,0.0427355393767356,0.0555589273571968,0.2698179755732417,0.2091475948691368,-8.661711511015891,14982.0
36.5,3.400000095367432,330.0,22.893747329711918,22.69436264038086,-79.78275934670339,40.458978197277744,317.38965676879883,0.004080151207745,-0.0318915098905563,-0.6621646285057068,0.7486683130264282,0.1345519803156523,0.0959020724202125,2.1840752887707744,0.1109606772661209,0.0712383240461349,-0.0476488210260868,0.3644974070414901,0.1976890438981354,-8.520029382705689,14982.0
36.6,3.299999952316284,330.0,22.79733848571777,25.22302627563477,-79.78275936914841,40.45897822101258,317.8238036499024,0.002726016100496,-0.0303610377013683,-0.6617891192436218,0.7490701079368591,0.0980488361781926,0.0814439369279755,1.987318771788103,-0.0650638341903686,-0.0652968138456344,0.0064060394652187,0.2702363986708224,0.2933298124372959,-8.687374355793,14982.0
36.7,3.299999952316284,329.0,22.95134162902832,21.25509262084961,-79.78275937012519,40.45897825454344,318.0455138549805,-0.0011235403362661,-0.0296920947730541,-0.6615067720413208,0.749350368976593,0.0997103758794241,0.0698177844873689,1.9428132738015007,-0.0028132307343184,-0.0196552332490682,0.0113532962277531,0.3007789093628525,0.3065639983490109,-8.902229125499726,14983.0
36.9,3.299999952316284,328.0,22.93005752563477,22.185449600219727,-79.78275939577183,40.45897824102653,318.41618035888666,-0.0054215150885283,-0.0279985591769218,-0.6612359881401062,0.7496356964111328,0.0970601572791247,0.0483682532726178,1.7517312325497103,0.1029724404215812,0.0119451396167278,0.12680284678936,0.3433060742542148,0.2113187939487397,-8.84431888639927,14983.0
37.1,3.2000000476837163,328.0,22.91628456115723,21.445934295654297,-79.78275938675027,40.458978303599785,318.7913825378418,0.0012142056366428,-0.0258212909102439,-0.6619133353233337,0.7491346001625061,0.0664761631273509,0.0614868332169004,1.6408545807234258,0.0400727018713951,0.0071796816773712,-0.0936125442385673,0.4033959726244211,0.4538701248541474,-8.930401595234871,14983.0
37.2,3.2000000476837163,328.0,22.92129325866699,23.37026405334473,-79.78275942105938,40.458978347345365,319.00115655517584,0.0016161649255082,-0.0264307614415884,-0.662183403968811,0.7488737702369691,0.0492724481668822,0.0708249422230888,1.61488306406382,-0.0620587542653083,-0.0700790360569953,-0.1207717955112457,0.4475333876162768,0.4729972077906132,-9.015380934476854,14984.0
37.31,3.2000000476837163,329.0,22.87246322631836,22.94086837768555,-79.78275940716652,40.45897835124552,319.15911935424805,0.0006166874081827,-0.0269609093666076,-0.6623357534408569,0.748721718788147,0.0540506552769131,0.0733119396160864,1.5425436952989096,-0.0744193941354751,-0.0683947503566742,-0.0646936893463134,0.3416368769109249,0.3964292344450951,-9.054980617761611,14984.0
37.5,3.2000000476837163,330.0,22.95134162902832,20.571239471435547,-79.78275947517548,40.458978449229406,319.5090682373047,-0.0009246715926565,-0.0276732929050922,-0.6629750728607178,0.7481292486190796,0.0545224999893073,0.0693919235019288,1.4522495745916315,-0.0340057909488678,-0.004204835742712,0.0457583330571651,0.3206880939379334,0.294842231310904,-9.013803940415382,14984.0
37.6,3.0999999046325684,330.0,23.30316734313965,10.528148651123049,-79.78275945576202,40.45897845447149,319.64983819580084,-0.0003592388529796,-0.0259202755987644,-0.6631226539611816,0.7480617761611938,0.0567124266225876,0.068776368474803,1.359825507407763,0.0699100047349929,0.0192708726972341,0.0092688864096999,0.3725284115597606,0.243207242321223,-8.924923923611642,14984.0
37.81,3.0999999046325684,329.0,22.932559967041016,21.71629524230957,-79.78275944108,40.45897859673234,319.9300811157226,0.0062936595641076,-0.013747164979577,-0.6520164608955383,0.7580540776252747,0.0102864473855103,0.0584652901850546,0.9524813209575076,0.0905646309256553,-0.0379969254136085,-0.494533360004425,0.2886903939954937,0.2337327612563968,-7.4529733371734626,14984.0
38.0,3.0,330.0,22.97012138366699,21.636775970458984,-79.78275940734291,40.45897860587673,320.0162131652832,0.007614011876285,-0.0119220223277807,-0.6322230696678162,0.7746573686599731,0.0002648957980661,0.0531184352195349,0.7799907787109911,-0.0656166523694992,0.0162282530218362,-0.5830915570259094,0.1988236778229475,0.2854581262730062,-7.929593918323518,14985.0
38.1,3.0,327.0,22.841161727905277,23.266889572143555,-79.78275931248494,40.45897878580693,320.13465951538086,0.0067985169589519,-0.0171545464545488,-0.5865300893783569,0.8097172379493713,0.0419375585089649,0.0623501432834841,0.5383478777135767,-0.0626609325408935,0.010816260240972,-0.6194756627082825,0.3110747963190078,0.4751921794563532,-8.612616534233092,14985.0
38.2,3.0,329.0,22.893747329711918,22.57508659362793,-79.7827592742834,40.45897900822237,320.13983224487305,0.0049909376539289,-0.0189854502677917,-0.5652377605438232,0.8246944546699524,0.0596628749588165,0.0640701903033568,0.4656838149852862,-0.0569628775119781,-0.0314235351979732,-0.4524614214897156,0.2800159216672182,0.3527676366269589,-9.029075698256491,14985.0
38.4,3.0,331.0,22.76353454589844,24.332427978515625,-79.78275910187837,40.45897893219232,320.22376321411133,0.0026011727750301,-0.0179772842675447,-0.5340184569358826,0.8452776670455933,0.1006491632706606,0.0854033833997835,0.3788858022680563,-0.0838173627853393,-0.1745687127113342,-0.2684084177017212,0.4563767531141639,0.3622906313091517,-9.376137183308602,14985.0
38.5,3.0,325.0,22.803600311279297,24.49941635131836,-79.78275895371313,40.458979172626,320.203594909668,-0.0154837276786565,-0.0138393826782703,-0.5231739282608032,0.8519728779792786,0.1031748441279069,0.1432112901860443,0.3670459348079138,-0.189592108130455,-0.5838797688484192,-0.2096624970436096,0.6263928439468146,0.2700658244267106,-9.689273707866668,14985.0
38.7,3.0,323.0,22.80860710144043,23.74399757385254,-79.78275828373134,40.4589796100924,320.23815225219727,-0.0675129517912864,0.0138169024139642,-0.5133503675460815,0.8554077744483948,0.1287398446592957,0.2805229398679048,0.4028198239615069,0.1071718782186508,-0.4632943570613861,-0.1016423031687736,0.1344288400188088,0.8028310413658619,-9.80211853802204,14985.0
38.8,3.0999999046325684,327.0,22.814868927001957,23.815563201904297,-79.78275782172932,40.45897967999685,320.27695153808594,-0.0837023332715034,0.0277552157640457,-0.5126035213470459,0.8540850281715393,0.1412321302234921,0.4047343180917061,0.4391731267844265,0.0449778847396373,-0.3408231735229492,0.0101735591888427,-0.0357803071453236,0.4988844394683838,-9.891465747356415,14985.0
39.0,3.0999999046325684,330.0,22.813615798950195,23.78375625610352,-79.78275717675754,40.45897981182185,320.315598236084,-0.0948797613382339,0.0373062007129192,-0.5136659145355225,0.8519116640090942,0.1551385317209402,0.5717598321534232,0.4861785510141278,0.0672078654170036,-0.195200964808464,0.0098552722483873,0.0052095036953687,0.5198709735274315,-9.904315588474274,14985.0
39.1,3.299999952316284,318.0,22.861194610595703,23.87917709350586,-79.78275546252289,40.45898068697687,320.3710982666016,-0.1094096824526786,0.0453663617372512,-0.5175713300704956,0.847402811050415,0.1607312615023777,0.9449390000756344,0.5728741031474787,0.062742106616497,-0.0924251526594162,0.1145464703440666,0.0305541366012766,0.4221868041157722,-9.81732773065567,14985.0
39.3,3.400000095367432,321.0,22.80109596252441,23.942790985107425,-79.78275304306344,40.45898182809591,320.3509490356445,-0.1268076002597808,0.0463531278073787,-0.5210710763931274,0.8427670001983643,0.1259591175886898,1.3741157868017149,0.6389815351085479,-0.2306898534297943,-0.1779257804155349,0.0016197656514123,-0.2035856867954135,0.5896959012374282,-9.80431592166424,14985.0
39.5,3.5999999046325684,329.0,22.83615303039551,25.453628540039062,-79.78275128422828,40.45898238345226,320.378342376709,-0.1329478621482849,0.0462589263916015,-0.5222913026809692,0.8410689234733582,0.1533471888943541,1.6055893234395684,0.7046791617756575,0.056213017553091,-0.0448079630732536,-0.0062473621219396,-0.1731706819497049,0.5030700957030059,-9.871951249837876,14985.0
39.6,3.700000047683716,334.0,22.75727462768555,24.11773109436035,-79.7827475241377,40.45898421590025,320.3481643066406,-0.1423500329256057,0.0542105063796043,-0.5260682106018066,0.836689829826355,0.0857341061512011,2.071009290530492,0.851085750384852,-0.02933781594038,-0.2795766294002533,0.1522458791732788,-0.3277670255675912,0.4909448342397809,-10.113026103973391,14985.0
39.8,3.900000095367432,341.0,22.72597312927246,24.984474182128903,-79.78274274691098,40.45898665664341,320.3113715515137,-0.1531439870595932,0.0616401098668575,-0.5298016071319579,0.8319001197814941,-0.000340441572828,2.547831511949794,1.0534885980699586,-0.0785242393612861,-0.1017283424735069,-0.0942295044660568,-0.2655192488059402,0.3494027101993561,-10.128130631446838,14985.0
39.9,4.099999904632568,342.0,22.700931549072266,25.25483322143555,-79.78273967828164,40.45898779052197,320.33336709594727,-0.1553735882043838,0.065449833869934,-0.5318857431411743,0.8298633098602295,0.0063099204831567,2.8007616377904068,1.1803418875281244,0.0935463830828666,-0.0205515976995229,0.0762168020009994,-0.5716057489067317,0.635879585891962,-10.179722954034808,14985.0
40.0,4.400000095367432,348.0,22.82863998413086,24.38809013366699,-79.78273664487848,40.45898948777926,320.27934716796875,-0.1563328504562378,0.0699519887566566,-0.5329197049140929,0.8286515474319458,-0.0403682006542053,3.053922283431461,1.2498181791477831,0.0879352092742919,-0.0353591553866863,0.0123836854472756,-0.5182651088386774,0.4463273993879557,-9.953942077159883,14985.0
40.2,4.599999904632568,352.0,22.724720001220703,24.92881202697754,-79.78272940951717,40.458992884067015,320.2417342529297,-0.1597860604524612,0.077648252248764,-0.5312249064445496,0.8283956050872803,-0.1020526369188952,3.56864472465518,1.4133279268636372,-0.0073036425746977,-0.0257495939731597,-0.115811325609684,-0.6971557746827602,0.4563623908907175,-9.99503396987915,14985.0
40.3,5.0,358.0,22.76353454589844,24.28471755981445,-79.78272520327522,40.458994466734296,320.25214456176764,-0.1584345400333404,0.0810359120368957,-0.5290634036064148,0.829712986946106,-0.0582540022893252,3.8286158318565016,1.5298005708721325,0.1427781134843826,0.0347012840211391,-0.0565859973430633,-0.6616400791704655,0.6108704963698983,-10.074366652965546,14985.0
40.5,5.099999904632568,0.0,22.58574295043945,31.03577423095703,-79.78272068454291,40.45899614611736,320.2619216308594,-0.1568097919225692,0.0833126679062843,-0.5266096591949463,0.8313554525375366,-0.0309501509111364,4.093409052691059,1.6155890278021827,0.1022834926843643,-0.0053719044663012,0.0935819819569587,-0.8980456392467022,0.3155433116108179,-9.899724354743958,14985.0
40.7,5.400000095367432,7.0,22.513124465942383,30.32011413574219,-79.78270624226096,40.459003449884655,320.1606566772461,-0.148436352610588,0.083855353295803,-0.5118882060050964,0.8419653177261353,0.0028873756915743,4.8726979872849725,1.8162269701774112,0.035274714231491,0.16138756275177,-0.1707831174135208,-0.6736384195089341,0.8064878900349141,-10.050414118766785,14985.0
40.8,5.599999904632568,10.0,22.55068588256836,26.75771903991699,-79.78270062347244,40.45900559758597,320.16453622436524,-0.1414806693792343,0.0819680318236351,-0.5101197361946106,0.8444183468818665,0.0984223599381866,5.119070867097539,1.8943249407800824,-0.0308298300951719,0.1481243968009948,-0.0325798839330673,-1.054853271916509,0.4596940612792969,-10.530348901748658,14985.0
41.0,5.9000000953674325,15.0,22.6571102142334,26.908802032470703,-79.7826947217614,40.45900781596145,320.1735160217285,-0.131691500544548,0.0825653001666069,-0.5093005895614624,0.8464356064796448,0.1818921824058445,5.357853653491672,1.9297345999551392,0.1620621383190155,0.1900295317173004,-0.1004963144659996,-0.9438503146916628,0.4324018898606301,-10.348874716758733,14985.0
41.1,6.099999904632568,18.0,22.588247299194336,26.43964767456055,-79.78268257580329,40.45901335178692,320.1409690246582,-0.1197104603052139,0.091922178864479,-0.5068041682243347,0.8487457633018494,0.2237971668277457,5.789592743507298,1.8850307816258,0.1263850778341293,0.0355779305100441,0.0618992000818252,-1.022740217372775,0.267460049316287,-9.944033385515214,14985.0
41.3,6.4000000953674325,22.0,22.578229904174805,28.08566474914551,-79.78266972261197,40.45901944417056,320.0985114440918,-0.1091073676943779,0.1007997468113899,-0.5075013041496277,0.8487505912780762,0.2615059549772945,6.1392245931302325,1.9850892644172071,0.1061220988631248,0.1703550666570663,0.074936106801033,-1.3328878645598892,0.2611894952505827,-9.966214213371275,14985.0
41.4,6.599999904632568,24.0,22.700931549072266,26.05796241760254,-79.78266275811724,40.459021972466566,320.10736917114264,-0.0963685438036918,0.0992315337061882,-0.511273205280304,0.8482134342193604,0.3016807336562722,6.2937252245735404,2.0290538365645183,0.0872039496898651,0.2971441447734833,0.2460953742265701,-1.2794190242886545,0.0367861858382821,-10.289093953371047,14985.0
41.5,6.9000000953674325,25.0,22.80610275268555,23.354360580444336,-79.78265610582332,40.45902598177583,320.05613778686524,-0.0810970366001129,0.0894304141402244,-0.5116657018661499,0.8506608605384827,0.212686845215637,6.4847715787229685,1.9202561477354467,-0.0635242760181427,0.4939572513103485,-0.039566483348608,-1.3169960094988349,0.3513759262114763,-10.12740323781967,14985.0
41.7,7.0,33.0,22.688411712646484,26.07386589050293,-79.78264193555759,40.4590327750676,320.01958917236334,-0.0554998032748699,0.0636269301176071,-0.5124183297157288,0.8545752763748169,0.2543798721048446,6.787455063280295,1.425161364775578,-0.1142364516854286,0.2203827053308487,0.0752030462026596,-1.1033759524673223,0.092495989780873,-9.806256027817726,14985.0
41.8,7.300000190734862,36.0,22.78982734680176,24.06206703186035,-79.78263449254682,40.45903541888909,320.02819131469727,-0.0464108623564243,0.0532810576260089,-0.5135210156440735,0.8551627993583679,0.3899669238925474,6.854797299977628,1.2339270412900736,-0.0002708295360207,0.2633534371852875,-0.1261416524648666,-1.1284830924868583,0.3581782845407724,-10.000463694334028,14985.0
42.0,7.400000095367432,38.0,22.91127586364746,20.213409423828125,-79.78262700438177,40.45903801952004,320.0396163330078,-0.0383255220949649,0.041663259267807,-0.514539361000061,0.8555960655212402,0.4429827322446447,6.883770271334533,1.0844170820288372,-0.0909923389554023,0.2728295028209686,-0.0871834829449653,-1.0875341641902925,0.2555892513692379,-10.093470675945284,14985.0
42.2,7.599999904632567,52.0,22.86995887756348,21.55725860595703,-79.78260429854289,40.45904880607385,319.9404990539552,-0.0247132256627082,0.0253528654575347,-0.5086644887924194,0.8602366447448729,0.4082502867204347,6.932886789548885,0.5311525430553894,-0.0998689457774162,0.0671972930431366,-0.1099288687109947,-1.1986527501046658,0.2516787431761622,-9.527748468518258,14984.0
42.3,7.699999809265138,57.0,22.910024642944336,21.50954818725586,-79.78259687055355,40.4590514144729,319.9411818847656,-0.0226360782980918,0.0237992163747549,-0.5087710618972778,0.8602750301361084,0.5131678596537731,6.860922304997237,0.4799032579389438,0.0324915945529937,0.1744288653135299,-0.0914168134331703,-1.2282896549999716,0.2166143430769443,-9.50772935628891,14984.0
42.4,7.800000190734862,58.0,22.90626716613769,21.19942855834961,-79.78258950158181,40.45905396654561,319.93990777587885,-0.0166736077517271,0.0195842031389474,-0.5093011856079102,0.8602039217948914,0.5256393791741629,6.789446954065461,0.4150625144482481,-0.0931463837623596,0.2160658240318298,-0.1594924330711364,-1.2699829338490964,0.4582927029579878,-9.538197442889212,14984.0
42.6,7.800000190734862,58.0,22.86870574951172,21.15966987609864,-79.78257437174295,40.45906048284761,319.88565896606445,0.0021928760688751,-0.0001802427868824,-0.5069828629493713,0.8619533777236938,0.5439390384819378,6.677696616574536,0.0747924646697051,-0.0613759309053421,0.3195286691188812,0.0130027355626225,-1.185239091217518,0.2015745186991989,-9.581855093836785,14984.0
42.8,7.800000190734862,64.0,23.02145576477051,18.72642707824707,-79.78255928034592,40.45906642384533,319.85269235229487,0.0208331551402807,-0.0197256300598382,-0.5065858364105225,0.8617121577262878,0.549709532984933,6.487436861024115,-0.3690518070309212,-0.0960514843463897,0.117971234023571,0.2469557970762253,-1.0218545834720136,0.3340175894647837,-9.557803156971932,14984.0
42.91,7.900000095367432,71.0,22.91503143310547,20.086181640625,-79.78255236407496,40.459068808429066,319.83500360107416,0.0260358192026615,-0.0254188030958175,-0.5069359540939331,0.8612154722213745,0.5265265582188413,6.315261217235367,-0.5627302079700818,-0.1098179891705513,0.0844759419560432,-0.0031050243414938,-0.9894914873689412,0.1499219058360904,-9.433594263195992,14984.0
43.0,7.900000095367432,72.0,23.05776596069336,17.366674423217773,-79.78254514022427,40.459071652005775,319.8145453796387,0.0285882577300071,-0.0312137231230735,-0.5059547424316406,0.8615208864212036,0.4795168752930963,6.16808954761528,-0.6625176829970895,-0.1318466365337371,0.1058320328593254,0.032442357391119,-0.9753099428862334,0.2896427775174379,-9.546912717819216,14984.0
43.2,7.900000095367432,72.0,23.02396011352539,18.9013671875,-79.78253156187745,40.45907625442285,319.7830436096192,0.0301297549158334,-0.0360894575715065,-0.5053879618644714,0.8616106510162354,0.4854873735995566,5.831782437018168,-0.7935557669159956,0.0817972645163536,0.0869068652391433,-0.0142506314441561,-1.0941630794852972,0.1410628533549607,-9.678378006219862,14984.0
43.3,7.800000190734862,77.0,22.831144332885746,24.51531982421875,-79.78252532370755,40.4590784077495,319.7554900512696,0.0322652012109756,-0.0377636812627315,-0.5054691433906555,0.8614139556884766,0.4691690225125349,5.640395975931419,-0.8015188191968431,-0.0397151671350002,-0.0164775382727384,0.0677928999066352,-0.9592806051671504,0.0763410100154578,-9.730556804537771,14984.0
43.5,7.800000190734862,78.0,22.95760154724121,18.106189727783203,-79.78251927629644,40.45908048639232,319.7285430297852,0.0321617946028709,-0.0377190895378589,-0.5051775574684143,0.8615908026695251,0.4673525673675986,5.472214166955763,-0.7690231649415865,0.0248511657118797,0.0143828941509127,-0.1856013238430023,-0.7637936409562827,0.4849565910547972,-10.320817437171936,14984.0
43.6,7.699999809265138,77.0,22.99766731262207,18.60715103149414,-79.78250689129953,40.45908457020506,319.7288367614746,0.0089088352397084,-0.02374217659235,-0.5007254481315613,0.8652347326278687,0.5199863026120239,5.253139950555551,-0.5252437347922289,-0.006224887445569,-0.4691887795925141,-0.0712800174951553,-0.7492185057699681,0.2307538241520524,-10.119695438146591,14984.0
43.8,7.599999904632567,76.0,22.89499855041504,21.38232040405273,-79.78249503969867,40.459088323772,319.6951110229492,-0.0333515368402004,-0.0196745656430721,-0.4950739145278929,0.8679875731468201,0.6163034633405272,5.143241429203233,-0.158441629831328,-0.1452478468418121,-0.1053197011351585,-0.101810984313488,-0.9413181048631668,0.4977166774123907,-9.58351745724678,14984.0
44.0,7.5,65.0,22.893747329711918,21.47774124145508,-79.7824894736932,40.45909017977179,319.67741845703125,-0.0435675270855426,-0.0254560708999633,-0.4925321638584137,0.8688302040100098,0.608949783561668,5.092404246480193,-0.0301524590591233,-0.1367172747850418,-0.0442786216735839,-0.0625545755028724,-0.9229078540205956,0.4745468295738101,-9.525496705770491,14984.0
44.1,7.5,62.0,22.887487411499023,20.603046417236328,-79.78247844233489,40.45909377126038,319.6208655700684,-0.0477146469056606,-0.0338486619293689,-0.4885574877262116,0.8705683946609497,0.5788648047164795,5.008345984680032,-0.0505861757251228,-0.0724313855171203,0.0231553055346012,-0.036319013684988,-0.8329911258816719,0.4600437613204122,-9.513347945809365,14984.0
44.2,7.400000095367432,60.0,22.829893112182607,22.805686950683597,-79.78247325571071,40.45909548225536,319.6073768005371,-0.0434846840798854,-0.0313296169042587,-0.4883025586605072,0.8710271120071411,0.5680967424717289,4.931229183278922,-0.0707392011790572,0.1278320103883743,-0.0718652456998825,0.0709275379776954,-0.8250319690257312,0.5526105572283269,-9.580944682359696,14984.0
44.41,7.400000095367432,59.0,22.84992599487305,21.85147476196289,-79.78246272876244,40.45909923794361,319.5568816528321,-0.0425869412720203,-0.0156455393880605,-0.4929471611976624,0.8688755631446838,0.4667361423116514,4.876483123374046,-0.0260001376885674,0.0311301127076149,-0.1090399697422981,0.1367952078580856,-0.9325473544746636,0.032953381659463,-9.9696360039711,14984.0
44.6,7.300000190734862,57.0,22.92880439758301,19.624977111816406,-79.78245253878463,40.459102785949646,319.522873626709,-0.0526487976312637,-0.0253924615681171,-0.4929743707180023,0.8680781126022339,0.3923883992106635,4.788140570192606,0.1276988040123619,-0.0984447076916694,0.0056353523395955,0.0692762210965156,-1.0397756416350603,-0.000814158541616,-10.171770740747451,14984.0
44.7,7.300000190734862,56.0,22.9788875579834,18.853656768798828,-79.78244780271369,40.4591045921459,319.4825789794922,-0.0581600293517112,-0.0238851811736822,-0.4930126368999481,0.86774742603302,0.36867922822831,4.738899157252527,0.1086136474480776,0.0929441899061203,-0.2120087295770645,0.1110376119613647,-0.9394906307011844,0.225498383268714,-9.848100457191467,14984.0
44.8,7.300000190734862,56.0,22.940073013305664,19.704496383666992,-79.78244280588133,40.45910650900236,319.46510003662115,-0.061306957155466,-0.0148786511272192,-0.4946129322052002,0.8668206930160522,0.3115957498777249,4.718630736277446,0.1482013036869845,0.2640416622161865,-0.2118709981441497,0.1625344306230545,-0.9749837413430216,0.3367662924528122,-9.658757674098016,14984.0
45.01,7.199999809265138,56.0,22.83990859985352,22.2331600189209,-79.78243785193204,40.45910845517928,319.4454886779785,-0.0600970983505249,-0.0039912569336593,-0.4969084858894348,0.8657103776931763,0.2631867818334001,4.712676773503787,0.2020051216621696,0.2149806171655655,-0.0298646911978721,0.131870687007904,-1.0252961084246637,0.3339271038025618,-9.546966512203216,14984.0
45.1,7.0,52.0,22.859941482543945,22.50352096557617,-79.78242831282331,40.45911248302208,319.3874442443848,-0.0661980584263801,0.0081748478114604,-0.4997344017028809,0.8636068105697632,0.1664904374240318,4.730659886372246,0.2992338759908829,0.1003759801387786,-0.2337849736213684,0.1028289198875427,-0.8032071635127068,-0.0414599749445915,-9.88837023139,14984.0
45.3,7.0,51.0,22.857437133789062,20.94497299194336,-79.78241863240511,40.45911655268132,319.3402373657226,-0.076043002307415,0.02000467851758,-0.5013150572776794,0.8616847395896912,0.1061925855996792,4.765209780433941,0.4874457887528256,-0.0046442095190286,-0.1640413701534271,0.1897608190774917,-1.0203391313552856,0.3060029762797058,-9.953564347028731,14984.0
45.5,7.099999904632568,52.0,22.91878890991211,20.34063720703125,-79.78241363856355,40.45911862178253,319.3235862121582,-0.0797238573431968,0.0254722796380519,-0.5019140243530273,0.8608587384223938,0.0994019038120446,4.8227321575386375,0.57424616104304,0.0124801658093929,-0.0292229149490594,-0.1302655190229416,-0.9275821913033724,0.4207491565123201,-10.021581498384476,14984.0
45.61,7.199999809265138,52.0,22.753517150878903,24.181344985961918,-79.7824038459343,40.45912286441007,319.27503274536133,-0.0934088081121444,0.0254907887428998,-0.5016974806785583,0.8596073389053345,0.0455470636318545,4.8891695558708825,0.6930240558857808,-0.1883364915847778,-0.1918372064828872,0.1511592864990234,-1.3710127338767053,0.284673704020679,-9.558705382347108,14984.0
45.7,7.300000190734862,48.0,22.71846008300781,25.10375022888184,-79.78239906988114,40.45912516412425,319.2511718139648,-0.0994195118546486,0.0217745900154113,-0.5012893676757812,0.859273374080658,0.0378689439861111,4.917131612281294,0.7528826727360821,-0.0335000529885292,-0.0842550098896026,0.1547980010509491,-1.4721720497310162,0.067898306697607,-9.809219396710397,14984.0
45.91,7.400000095367432,48.0,22.867454528808597,21.74015045166016,-79.78238870661708,40.45912965079685,319.2235915527344,-0.1037494763731956,0.0241324715316295,-0.5007366538047789,0.8590207695960999,-0.0041711776861507,5.053104139134578,0.8933218388297228,0.1310695707798004,-0.067472219467163,0.0856916904449462,-1.339860523045063,0.3649507124349475,-10.025977435112,14984.0
46.0,7.5,49.0,22.77229881286621,24.42784881591797,-79.78238373762387,40.45913210951476,319.20502542114264,-0.1052046045660972,0.0319257378578186,-0.5007797479629517,0.8585641980171204,-0.0117374056695578,5.106686701449839,0.9453677224033604,0.195156842470169,-0.0167486332356929,-0.0389387086033821,-1.099660339280963,0.4576813765615225,-9.939653820991516,14984.0
46.2,7.599999904632567,49.0,22.86995887756348,21.01653861999512,-79.78237326520703,40.45913706719536,319.1754157409668,-0.1018607318401336,0.0443191826343536,-0.5016025900840759,0.8579365611076355,-0.0552943836494471,5.240991497459485,1.1764903789265384,0.1152497306466102,0.2086532860994339,-0.105505883693695,-1.3882017937302589,0.4727509303763509,-10.539475235939026,14984.0
46.3,7.699999809265138,47.0,22.913780212402344,21.088104248046875,-79.78236773219025,40.45913952659176,319.1776931152344,-0.0951552912592888,0.0457403324544429,-0.5020610690116882,0.8583635091781616,-0.0496642847626156,5.334208752834456,1.248660711796649,0.1315870881080627,0.1473482102155685,0.1048257872462272,-1.2963953916728497,0.2621065031178296,-10.287370194196704,14984.0
46.5,7.800000190734862,48.0,22.74475288391113,24.6027889251709,-79.78235663458469,40.45914481131472,319.1646315917969,-0.0883484631776809,0.0490661635994911,-0.502091109752655,0.8588898181915283,-0.0567665990510599,5.505028678582595,1.1599686015147614,0.0849954038858413,0.1121993139386177,-0.0808866396546363,-1.3299490539729597,0.4507067811861635,-9.833764253854753,14984.0
46.6,7.900000095367432,48.0,22.77229881286621,25.01628112792969,-79.78235084638334,40.45914734934557,319.16663812255865,-0.083213485777378,0.0510859303176403,-0.5031886100769043,0.858642578125,-0.0374959417949738,5.572975262630829,1.1703310291317577,0.0824639648199081,0.0364488996565342,0.0471428446471691,-1.21456967510283,0.1701050050556659,-9.90561133146286,14984.0
46.81,8.0,49.0,22.794836044311523,22.217256546020508,-79.78233918291026,40.45915292850973,319.1639754638672,-0.072696678340435,0.0449291355907917,-0.5037898421287537,0.8595885038375854,-0.0269089639952732,5.708328981507645,1.1621027219080435,-0.0638754665851593,0.1110302954912185,-0.1751503050327301,-1.0435255341231824,0.2312827778980136,-10.338534500598907,14984.0
47.0,8.300000190734862,49.0,22.920040130615234,21.366416931152344,-79.78233318562306,40.45915551216161,319.1774833068848,-0.0689001381397247,0.0354738719761371,-0.5033236145973206,0.8606160283088684,-0.0026490772270924,5.745625952781451,1.1584897421929166,-0.1057938933372497,0.1606088578701019,0.1617292761802673,-1.2294688922166823,0.2628463403508067,-10.35748532652855,14984.0
47.1,8.300000190734862,54.0,22.859941482543945,21.119911193847656,-79.78232102909598,40.45916089130432,319.2005202636719,-0.0621706619858741,0.0251188371330499,-0.5027065873146057,0.8618526458740234,0.0350941620172948,5.791739425050353,0.988795035894838,0.0461628809571266,0.0926659926772117,0.1120413318276405,-1.4108645783364773,0.4779476432874799,-9.829330894947054,14984.0
47.2,8.5,56.0,22.952592849731445,19.8635311126709,-79.78231498980273,40.45916386108605,319.2081649169922,-0.060914572328329,0.0285019855946302,-0.5036193132400513,0.8613040447235107,0.0039262529033672,5.829168840687709,0.94039764213578,0.0140500031411647,-0.0879035294055938,-0.0938796922564506,-1.4327232246100905,0.3437470274046064,-9.787051432728768,14984.0
47.4,8.5,56.0,22.78481864929199,24.730016708374023,-79.7823028616095,40.45916908756318,319.2365233764648,-0.0618722550570964,0.0406969003379344,-0.5063097476959229,0.8591659665107727,-0.0278125846533061,5.833887341838063,0.9367986363527944,0.0715689212083816,-0.1038862541317939,0.1321619302034378,-1.3272428163886072,0.1771024411171674,-9.327705865502358,14984.0
47.5,8.600000381469728,56.0,22.829893112182607,22.50352096557617,-79.78229681363621,40.45917209862028,319.2512976989746,-0.062373798340559,0.0443323925137519,-0.5071327686309814,0.8584641218185425,-0.0605085913457645,5.837554069761929,0.9510369405667888,0.1435283124446869,-0.0076555875129997,-0.0580040141940116,-1.5505041280388834,-0.2242536572366953,-9.504255525469777,14984.0
