time,wind_speed,wind_angle,battery_voltage,battery_current,position_x,position_y,position_z,orientation_x,orientation_y,orientation_z,orientation_w,velocity_x,velocity_y,velocity_z,angular_x,angular_y,angular_z,linear_acceleration_x,linear_acceleration_y,linear_acceleration_z,node_ids
0.0,0.699999988079071,241.0,23.5247802734375,0.0159035474061965,-79.7827606935638,40.45898541569362,270.7318032236099,0.0162052232772111,0.0160205699503421,-0.76376873254776,0.6450877189636229,0.0109736850757192,-0.0058065174170339,-0.0172598099406343,0.0033949110656976,-0.0002704602666199,-0.00363624189049,-0.0379695663554593,-0.4409962736070157,-9.795008908510209,14935.0
0.1,0.8000000119209291,239.0,23.53104019165039,0.0,-79.78276076373541,40.45898540673025,270.7315657587052,0.0162044577300548,0.0160141158849,-0.7637686133384705,0.6450880169868469,0.0073033519509234,-0.0085670388488029,-0.0176814983868867,0.0014654683182016,-9.39160781854298e-06,-0.0046789613552391,-0.0368629351118579,-0.4522717884555459,-9.79586611032486,14935.0
0.3,0.8999999761581421,241.0,23.5247802734375,0.0,-79.78276079896736,40.45898538725508,270.73280738306045,0.0162048954516649,0.0160201489925384,-0.7637685537338257,0.6450879573822021,0.0085620085992297,-0.0059909855763095,-0.0178720973406688,0.0020368478726595,-0.0005734689184464,0.00369309540838,-0.0376156544918194,-0.4544908067956567,-9.796748455166815,14935.0
0.4,0.8999999761581421,242.0,23.52102470397949,0.0079517737030982,-79.7827608166604,40.458985375881625,270.7292102725506,0.0162049960345029,0.0160212852060794,-0.7637679576873779,0.6450885534286499,0.0084682874720001,-0.0066222792258782,-0.0174159774604772,-0.0001319373986916,0.0014781020581722,0.0058918460272252,-0.0386405800329521,-0.4387751356512308,-9.7950814139843,14935.0
0.6,0.8000000119209291,240.0,23.533544540405277,0.0079517737030982,-79.78276087088261,40.45898535603301,270.7303568572998,0.0162090323865413,0.0160215143114328,-0.763767659664154,0.645088791847229,0.0094786874630969,-0.0076484663951939,-0.0177073649687846,-0.0036043210420757,-0.0009188393596559,-0.0032004890963435,-0.0376533119310624,-0.4391090116649866,-9.795385469198228,14935.0
0.7,0.8000000119209291,238.0,23.533544540405277,0.0159035474061965,-79.78276093134205,40.45898535453488,270.7296969742775,0.0162039306014776,0.0160138309001922,-0.7637665271759033,0.6450904011726379,0.003684863650393,-0.0096627073127024,-0.0180364104637708,-0.0047645438462495,-0.0020730409305542,-0.0073374900966882,-0.0349682819237932,-0.4524921188503504,-9.797013334035874,14935.0
0.9,0.8000000119209291,241.0,23.533544540405277,0.0159035474061965,-79.78276094350075,40.458985353206245,270.727883294344,0.0162039306014776,0.0160138309001922,-0.7637665271759033,0.6450904011726379,0.0043477530622401,-0.0101279055889359,-0.017953299486342,0.0001531461748527,-0.0008898435044102,0.0002965567400678,-0.0378032153542153,-0.4476390394940973,-9.796091812849047,14935.0
1.0,0.8000000119209291,243.0,23.53604888916016,0.0477106422185897,-79.7827610268741,40.45898532881481,270.72517900180816,0.0162150841206312,0.016016012057662,-0.7637638449668884,0.6450933814048767,0.0082958122115125,-0.0144052648501769,-0.0223078848105202,0.0010792143875733,-0.0002176530106225,-0.0014196039410308,-0.0393596094008535,-0.4508656061813235,-9.795274372100833,14935.0
1.21,0.8000000119209291,258.0,23.53104019165039,0.0238553211092948,-79.7827610451755,40.45898532463418,270.72293175768846,0.0162150841206312,0.016016012057662,-0.7637638449668884,0.6450933814048767,0.0083370097110487,-0.0145808927293326,-0.0220877395727508,0.0003881785669364,-0.0017208353383466,-0.0003358496469445,-0.0369272270752117,-0.4527907653898001,-9.795971944928173,14935.0
1.3,0.699999988079071,256.0,23.53104019165039,0.0397588685154914,-79.78276108588398,40.45898531594953,270.71891723585134,0.016208816319704,0.0160186607390642,-0.7637639045715332,0.6450933814048767,0.0064728562942994,-0.0112129934918889,-0.0265626840203469,0.006621453911066,9.881491132546216e-05,0.0038937830831855,-0.0376896948600188,-0.4384793030843139,-9.794597264528273,14935.0
1.5,0.8000000119209291,259.0,23.52853775024414,0.0238553211092948,-79.78276110008885,40.45898531324395,270.7162503750324,0.0162096489220857,0.0160204991698265,-0.7637633681297302,0.6450939178466797,0.0056378910666125,-0.0114031722624887,-0.0263862635910323,-0.0083744339644908,0.0001386643998557,-0.0021972563117742,-0.0375067957816645,-0.4459527755901217,-9.794719471335412,14935.0
1.6,0.8000000119209291,259.0,23.533544540405277,0.0238553211092948,-79.78276115094678,40.45898529200912,270.7118719370365,0.0162121150642633,0.0160236731171607,-0.7637625336647034,0.6450947523117065,0.0080817210051223,-0.0108971390389471,-0.0303935998663174,-0.0038040662184357,-0.0029446536209434,0.0059209601022303,-0.0377687556110322,-0.4459066556766629,-9.79530887067318,14935.0
1.8,0.699999988079071,262.0,23.53229331970215,0.0,-79.78276120270772,40.458985301589365,270.71116168808936,0.0162111241370439,0.016014888882637,-0.7637617588043213,0.645095944404602,0.0032177392932031,-0.0151109579511277,-0.0335891685400329,0.0018302818061783,0.0005184397450648,-0.0027882829308509,-0.0375462827598676,-0.4415816164389253,-9.795029373764992,14935.0
1.9,0.699999988079071,265.0,23.53229331970215,0.0079517737030982,-79.78276123935207,40.458985303178736,270.7044844181537,0.0162113420665264,0.016016075387597,-0.7637614011764526,0.6450963020324707,0.0027563892115604,-0.0155696533559217,-0.033020022474992,-0.0006576246232725,0.0016497652977705,-0.0049243262037634,-0.0365048022894188,-0.4535191457346082,-9.796718049645424,14935.0
2.1,0.699999988079071,272.0,23.53604888916016,0.0238553211092948,-79.78276128851431,40.45898529743933,270.70374013495444,0.0162145085632801,0.0160144455730915,-0.7637608647346497,0.6450968980789185,0.0041575658507521,-0.0177192374394812,-0.0353494411192949,0.005290905945003,0.0004534331092145,0.0066002067178487,-0.0356351226079277,-0.4518654800578952,-9.79621811270714,14935.0
2.2,0.8000000119209291,271.0,23.53479766845703,0.0318070948123931,-79.78276133614561,40.45898529369565,270.6999408454895,0.0162135548889637,0.0160179771482944,-0.7637602090835571,0.6450976729393005,0.0038282106627386,-0.016314187210021,-0.0361441588082155,0.0037039222661405,0.0010923959780484,0.0011042216792702,-0.0380316199315711,-0.4467758077383041,-9.794344664812089,14935.0
2.4,0.8000000119209291,275.0,23.533544540405277,0.0159035474061965,-79.78276135576304,40.4589852945177,270.6963315756321,0.0162135548889637,0.0160179771482944,-0.7637602090835571,0.6450976729393005,0.0034525029631402,-0.0166437589488899,-0.0359185220939156,0.0008762764045968,-0.003724006935954,0.0013304511085152,-0.0389489704091101,-0.4505605642497539,-9.795536912083628,14935.0
2.51,0.8000000119209291,278.0,23.537302017211918,0.0397588685154914,-79.78276141495719,40.458985289574336,270.69062097382545,0.0162144415080547,0.0160179249942302,-0.7637584209442139,0.6450997591018677,0.0043276218879791,-0.0183306940896402,-0.0405360907780826,-0.0001747422502376,0.0037406547926366,0.0044134906493127,-0.0384282849915325,-0.4409108677133918,-9.794974994659423,14935.0
2.7,0.8000000119209291,279.0,23.53604888916016,0.0397588685154914,-79.78276143704656,40.45898529044685,270.6865696461201,0.016230821609497,0.0160428788512945,-0.7637568712234497,0.645100474357605,0.0035402430939415,-0.0186171735811729,-0.0403128340831689,-0.0048171817325055,0.0001931985752889,-0.0066291959956288,-0.0387149767158553,-0.4397250158339739,-9.794163985848428,14935.0
2.8,0.699999988079071,278.0,23.53479766845703,0.0238553211092948,-79.7827614668824,40.458985286386735,270.68075661373143,0.0162129867821931,0.0160618368536233,-0.7637655138969421,0.6450902819633484,0.0034597355527575,-0.0159077756929732,-0.0431809989307165,-0.0080174813047051,-0.0024688472039997,0.0006811508210375,-0.036986452974379,-0.4520218930765987,-9.796261382102966,14935.0
3.0,0.8000000119209291,284.0,23.5247802734375,0.0238553211092948,-79.7827614860109,40.45898528728206,270.6764284224509,0.0162028633058071,0.0160548519343137,-0.7637768983840942,0.6450771689414978,0.0039222800075616,-0.0161917563058419,-0.0432448223886795,0.0038551785983145,0.0018517161952331,0.0007583803962916,-0.0371375646698288,-0.4477341663837433,-9.794814780950547,14935.0
3.1,0.8000000119209291,285.0,23.53229331970215,0.0397588685154914,-79.78276151084826,40.45898528254965,270.67302884173387,0.0162105970084667,0.016048040241003,-0.7637798190116882,0.6450737118721008,0.0034589854344188,-0.0141568562422405,-0.041300879679237,-0.0012040834408253,0.0002917659003287,-0.0040777400135993,-0.0381490918644704,-0.4516305681690574,-9.795240458250047,14935.0
3.3,0.8999999761581421,286.0,23.533544540405277,0.0238553211092948,-79.78276152185619,40.45898527809393,270.6731015594005,0.0161916874349117,0.0160512439906597,-0.7637801766395569,0.6450737118721008,0.0039019411732728,-0.0131400610488775,-0.0406130199030992,0.0037841680459678,0.0005375395994633,0.0052659432403743,-0.0367022760096006,-0.4526683758571744,-9.795532819032667,14935.0
3.4,1.0,289.0,23.527284622192383,0.0159035474061965,-79.78276155367493,40.45898527938325,270.66499085736274,0.0161926839500665,0.01604575663805,-0.7637878060340881,0.6450647711753845,0.0035989226209141,-0.0134965602798204,-0.04041558673781,0.0078289173543453,0.002880162326619,-0.0009738394292071,-0.038638378190808,-0.4423033455759287,-9.794017805457118,14935.0
3.61,1.0,286.0,23.533544540405277,0.0159035474061965,-79.78276153845877,40.45898524328396,270.6631311924457,0.0161843486130237,0.0160665269941091,-0.7637832760810852,0.6450698971748352,0.0105397681028574,-0.0068636711567187,-0.0433073789134838,-0.0045267399400472,-0.0024320599623024,-0.000144448611536,-0.0385276876576244,-0.4487567347660661,-9.795124098658563,14935.0
3.71,1.0,289.0,23.53229331970215,0.0318070948123931,-79.78276155864857,40.45898523746216,270.6591952593326,0.0161912273615598,0.0160701964050531,-0.7637819647789001,0.6450711488723755,0.0082078109996153,-0.0081793647170733,-0.0416385806828133,0.0025472613051533,0.0019308350747451,0.0006055833655409,-0.0390446272026747,-0.4409621404856444,-9.795089015364647,14935.0
3.91,1.100000023841858,296.0,23.53229331970215,0.0079517737030982,-79.78276156965259,40.45898523337788,270.65500892710685,0.0161912273615598,0.0160701964050531,-0.7637819647789001,0.6450711488723755,0.0074703333821788,-0.0083241020394993,-0.0415135399125227,-0.0070459004491567,-0.0016590055311098,-0.0062694158405065,-0.0378552715620026,-0.4409947387129069,-9.793953486084938,14935.0
4.0,1.100000023841858,295.0,23.54606628417969,0.0715659633278846,-79.7827615897862,40.45898523055475,270.6514240653515,0.0161895435303449,0.0160686615854501,-0.7637804746627808,0.6450729966163635,0.0057805497371636,-0.0091582377071586,-0.0402854655110451,-0.0038373051211237,-0.0027326233685016,-0.0017327714012935,-0.0363184359949082,-0.4493167883902788,-9.795169122219086,14935.0
4.2,1.100000023841858,294.0,23.53479766845703,0.0238553211092948,-79.78276160154121,40.45898522835185,270.64737086009984,0.0161895435303449,0.0160686615854501,-0.7637804746627808,0.6450729966163635,0.0057656993183611,-0.0093929146793672,-0.0403932425396187,0.0015785170253366,-0.0019804874900728,-0.0007382489275187,-0.0381737917824648,-0.4420572143420577,-9.793945299983026,14935.0
4.3,1.100000023841858,295.0,23.53229331970215,0.0159035474061965,-79.78276162045722,40.45898522597209,270.64371241641044,0.0161897093057632,0.0160695984959602,-0.7637803554534912,0.6450731158256531,0.0046390591959557,-0.0098846531280925,-0.039745720865905,-0.0058922441676259,0.0002074707736028,-0.0038993125781416,-0.0376334017049521,-0.4535755713656545,-9.794480320215223,14935.0
4.5,1.0,294.0,23.526033401489247,0.0715659633278846,-79.78276163283923,40.45898522473807,270.6397275925874,0.0161893367767334,0.0160700250416994,-0.7637794613838196,0.645074188709259,0.005209559119234,-0.0101113845827578,-0.0396849035736026,0.005902046803385,4.352594987722114e-05,0.0033259568735957,-0.0364143326156772,-0.4496658306196332,-9.796036849021911,14935.0
4.6,1.0,296.0,23.53479766845703,0.0318070948123931,-79.78276165060804,40.45898522313177,270.6386698783636,0.0161886420100927,0.0160699170082807,-0.7637802958488464,0.6450732350349426,0.0038666811474271,-0.0102807807587305,-0.0354561312732396,-0.0016423058696091,-0.0008427750435657,0.000199428803171,-0.0384111681813374,-0.4517688182741404,-9.795410027503967,14935.0
4.8,1.0,297.0,23.529788970947266,0.1192766055464744,-79.78276163554365,40.458985207823936,270.6411275119781,0.0161881726235151,0.0160795450210571,-0.7637802958488464,0.6450729966163635,0.0069363997757568,-0.0056925426325632,-0.0325987665010491,0.0017925304127857,0.002223800169304,0.0049167978577315,-0.037106010261923,-0.4527885361388326,-9.795415874719618,14935.0
4.9,0.8999999761581421,298.0,23.52853775024414,-0.0079517737030982,-79.78276165130806,40.45898520072517,270.6345783473253,0.0161875281482934,0.0160799045115709,-0.763778567314148,0.6450750827789307,0.0067206502181433,-0.0060732546580179,-0.0324465493253124,0.0048315026797354,0.0022202187683433,0.0054523893631994,-0.0379749087919481,-0.4420372972637415,-9.794140012264252,14935.0
5.1,0.8999999761581421,300.0,23.52853775024414,0.0715659633278846,-79.78276165871934,40.4589852025314,270.6372171492576,0.0161874219775199,0.0160774663090705,-0.7637789249420166,0.645074725151062,0.0050201998135764,-0.0076199101484022,-0.0308888382265578,-0.0026850635185837,-0.0027125447522848,5.6967779528349645e-05,-0.0392421306157484,-0.4516509237885475,-9.795094277858734,14935.0
5.2,0.8999999761581421,301.0,23.5247802734375,0.1192766055464744,-79.78276167848855,40.45898519834702,270.6310453416109,0.0161884780973196,0.0160787124186754,-0.7637788653373718,0.6450746655464172,0.0052769903485253,-0.0078970150350966,-0.0305394572624213,0.0024225120432674,0.0025264422874897,0.0026503885164856,-0.0390343351894989,-0.43907984867692,-9.794798993468287,14935.0
5.4,0.8999999761581421,302.0,23.529788970947266,0.1113248318433761,-79.782761677344,40.45898520039479,270.63391754043096,0.016187947243452,0.016077484935522,-0.7637791633605957,0.6450743079185486,0.0036953374293272,-0.0086421537254808,-0.0294985860042861,-0.0063233887776732,-0.0024533432442694,-0.0041865846142172,-0.0377398484386503,-0.4428624490275979,-9.795147487521172,14935.0
5.51,0.8999999761581421,302.0,23.5247802734375,0.1590354740619659,-79.78276170894833,40.4589851720985,270.63340790581697,0.0161963906139135,0.0160811711102724,-0.7637782096862793,0.6450751423835754,0.0103521443832833,-0.0114215336966667,-0.0287617935939589,-0.0004214992804918,-0.0008415865595452,0.0009652812732383,-0.0373738332954235,-0.4487349173426629,-9.79564099252224,14935.0
5.7,1.0,304.0,23.526033401489247,0.0795177370309829,-79.78276172424059,40.45898516574558,270.63049142074584,0.0161963906139135,0.0160811711102724,-0.7637782096862793,0.6450751423835754,0.0102283972672709,-0.0115908221724908,-0.0287458681316024,-0.0008502244600094,0.0005578837590292,-0.0048103737644851,-0.0384824859397485,-0.4382791821286082,-9.793266438245771,14935.0
5.8,1.0,304.0,23.522275924682607,0.0795177370309829,-79.78276173147269,40.45898517003436,270.6302468777895,0.0161935519427061,0.0160809867084026,-0.7637796998023987,0.6450734734535217,0.0072619219013964,-0.0111796572312889,-0.0282835438186429,-0.0040656081400811,-0.0015908228233456,-0.0037286123260855,-0.036875972575508,-0.4532535359635949,-9.79568777024746,14935.0
6.0,1.100000023841858,305.0,23.53104019165039,0.1113248318433761,-79.78276174591491,40.45898516618305,270.627393409729,0.0161927789449691,0.016080867499113,-0.7637786865234375,0.645074725151062,0.0079112870177986,-0.0114140544715824,-0.028225418076365,0.0062565528787672,3.274268601671793e-05,-0.0004631869960576,-0.0380024203984066,-0.4469146791100502,-9.796000596284868,14935.0
6.11,1.100000023841858,308.0,23.52853775024414,0.0954212844371795,-79.78276178474209,40.45898512936635,270.63013450813287,0.0162028465420007,0.0160855539143085,-0.7637791633605957,0.6450737714767456,0.0146669194488786,-0.0140068738056344,-0.02331264510342,-0.002026367932558,-0.0013243833091109,-0.0044842516072094,-0.0386132168909534,-0.4513253435119986,-9.794691989421842,14935.0
6.3,1.2999999523162842,309.0,23.53104019165039,0.0795177370309829,-79.78276173070574,40.45898514373109,270.63473649334907,0.0161869209259748,0.016092125326395,-0.7637805342674255,0.6450724005699158,0.0086060396418838,-0.0041979585040554,-0.0213423440905849,0.0057743592187762,0.0020154980011284,0.0035769178066402,-0.0375253104418516,-0.4531056744977832,-9.796694660782814,14935.0
6.4,1.2999999523162842,312.0,23.52102470397949,0.0795177370309829,-79.78276174372564,40.45898513247183,270.6304335446357,0.0161861758679151,0.0160921569913625,-0.7637801170349121,0.6450729370117188,0.0082198174423324,-0.0045298109172458,-0.0211239438649943,0.0030367518775165,0.0021302117966115,0.0028843781910836,-0.0395313896331936,-0.4441980627179146,-9.793862854242326,14935.0
6.6,1.399999976158142,312.0,23.52352905273437,0.1113248318433761,-79.78276173917268,40.458985130184935,270.63449646544456,0.0161880850791931,0.0160923618823289,-0.7637803554534912,0.6450725793838501,0.0090262829462543,-0.0054883149195818,-0.0200230545464816,0.0022649965249001,-0.0014123459113761,0.002823032438755,-0.0367072507110424,-0.4533568124100566,-9.796344997286797,14935.0
6.7,1.5,313.0,23.527284622192383,0.1272283792495727,-79.7827617213956,40.458985116567376,270.6365542860031,0.0161867514252662,0.0160978753119707,-0.7637797594070435,0.6450731158256531,0.0100438698607687,-0.002927611075319,-0.0193142130668517,0.0040057809092104,0.0010145959677174,0.00248997611925,-0.0377868545707315,-0.4399829511344433,-9.795043407082556,14935.0
6.9,1.5,312.0,23.53104019165039,0.0954212844371795,-79.78276172659852,40.4589851093618,270.6345876903534,0.0161867514252662,0.0160978753119707,-0.7637797594070435,0.6450731158256531,0.0090999234480917,-0.0029516967112993,-0.0192280039832546,-0.0044434256851673,-0.0008995250682346,-0.004999266937375,-0.0384249867964536,-0.4440259718522429,-9.792275919914246,14935.0
7.0,1.5,313.0,23.5247802734375,0.1113248318433761,-79.7827617253218,40.45898511000296,270.6349150539636,0.0161849036812782,0.0160929784178733,-0.7637777924537659,0.6450756192207336,0.0068114734408911,-0.0055379920838532,-0.0226007502027102,-0.0020249974913895,-0.0010235045338049,0.0030537277925759,-0.0366025261650793,-0.4462369868159294,-9.794639364480972,14935.0
7.2,1.600000023841858,316.0,23.529788970947266,0.1113248318433761,-79.7827617330488,40.45898510573941,270.632632494092,0.0161849036812782,0.0160929784178733,-0.7637777924537659,0.6450756192207336,0.0065212604464388,-0.0056866057092903,-0.0224892039558873,-0.0017691110260784,-0.0020691785030066,-0.0064404755830764,-0.0378862663730979,-0.4392957205697894,-9.794340571761133,14935.0
7.31,1.600000023841858,318.0,23.529788970947266,0.1272283792495727,-79.78276172773548,40.45898510436609,270.6328594089746,0.0161850396543741,0.0160912945866584,-0.7637758255004883,0.6450779438018799,0.0046174941068547,-0.0072461348156131,-0.0248799019002799,-0.0055871098302304,-0.0030099768191576,-0.0029754131101071,-0.036128531678114,-0.4503914700821042,-9.795516446828843,14935.0
7.5,1.600000023841858,320.0,23.529788970947266,0.1272283792495727,-79.78276173714823,40.458985102124274,270.6303557456732,0.01618417724967,0.0160910133272409,-0.7637741565704346,0.6450801491737366,0.0049410628504048,-0.0074960707575474,-0.0248630910693963,0.0026845671236515,-0.0010278080590069,0.0007128398283384,-0.0380225955764763,-0.4435629089176655,-9.79412305533886,14935.0
7.6,1.600000023841858,319.0,23.53104019165039,0.1113248318433761,-79.7827617334693,40.45898508568118,270.630606427908,0.016186274588108,0.0160935018211603,-0.763774037361145,0.645080029964447,0.0066108398444273,-0.0078049571208427,-0.0256418872006179,-0.0054329987615346,0.0006045302725397,-0.0025499372277408,-0.0376131671410985,-0.4539071815833449,-9.795060364007949,14935.0
7.81,1.600000023841858,318.0,23.53104019165039,0.0795177370309829,-79.78276173281999,40.458985080078655,270.6335997135639,0.0161898955702781,0.0160905160009861,-0.7637730836868286,0.6450811624526978,0.0064509867581853,-0.0118096062775516,-0.0267554607829589,0.0033144925255328,0.0026513002812862,0.0024838054087013,-0.0365696058841422,-0.4514455403387546,-9.795262677669523,14935.0
7.9,1.5,319.0,23.527284622192383,0.0238553211092948,-79.78276176295095,40.45898507527243,270.6282280237674,0.0161889400333166,0.0160903241485357,-0.7637725472450256,0.6450818777084351,0.0060398590464469,-0.0123301472506375,-0.0266096639750701,0.0025020528119057,-0.0019678738899528,0.000722364988178,-0.0390327820228412,-0.4483578815683722,-9.793575755953787,14935.0
8.1,1.399999976158142,319.0,23.533544540405277,0.0238553211092948,-79.78276172207936,40.4589850703084,270.6315280051232,0.0161817129701375,0.0160949062556028,-0.7637730240821838,0.6450814008712769,0.0042177593764533,-0.0070592575650365,-0.0274083215693561,0.0004992469912394,0.0002740936179179,0.0064759734086692,-0.0366351540852338,-0.4545354283601046,-9.795198943018914,14935.0
8.2,1.2999999523162842,319.0,23.53479766845703,0.0318070948123931,-79.78276169063297,40.458985028237535,270.6343768240213,0.0161864068359136,0.0161085519939661,-0.763774037361145,0.6450797319412231,0.0113912565799054,-0.0024779226578942,-0.0232249196048039,0.0079704886302351,0.0026460820809006,0.002895658602938,-0.0378354915278032,-0.4402264145761728,-9.79416866362095,14935.0
8.4,1.2000000476837158,323.0,23.529788970947266,0.0079517737030982,-79.78276169551751,40.45898501988274,270.6320210994482,0.0161864068359136,0.0161085519939661,-0.763774037361145,0.6450797319412231,0.0106546062606369,-0.0024278530922461,-0.0229624332353633,-0.004137095529586,-0.0012200177880004,-0.0003734465281013,-0.0384098571259528,-0.4492582796886563,-9.794856880903245,14935.0
8.5,1.2000000476837158,324.0,23.5247802734375,0.0238553211092948,-79.78276167815011,40.458984999784505,270.6333396584988,0.0161843579262495,0.0161052942276,-0.7637741565704346,0.6450796723365784,0.0090402592639253,-0.0044445752679156,-0.0241845950253144,0.0018702555680647,0.0013524399837478,0.0038470081053674,-0.0379240106069482,-0.4412069560959935,-9.795448619127274,14935.0
8.7,1.100000023841858,320.0,23.533544540405277,0.0238553211092948,-79.78276168494669,40.458984993741566,270.6308965386152,0.0161843579262495,0.0161052942276,-0.7637741565704346,0.6450796723365784,0.0083224690278987,-0.0045276851749793,-0.0239596406943845,-0.0057001733221113,-0.0007193920901045,-0.0019557666964828,-0.0384024613117799,-0.4422546675056219,-9.794185620546342,14935.0
8.8,1.0,319.0,23.53479766845703,0.0397588685154914,-79.78276165351312,40.45898498651184,270.63230396819114,0.0161782652139663,0.0161035563796758,-0.7637743353843689,0.6450796723365784,0.0030180558580336,-0.0034039444998008,-0.025246317454708,-0.0029581713024526,0.0036429997999221,0.0042469506151974,-0.037869035359472,-0.4455396332591772,-9.795633391141893,14935.0
9.0,0.8999999761581421,318.0,23.53229331970215,0.0318070948123931,-79.78276165797568,40.45898498544286,270.6297683120966,0.0161779429763555,0.0161037612706422,-0.7637732625007629,0.6450808644294739,0.0025485111728997,-0.0034980714537336,-0.0251717702016797,-0.0043937126174569,-0.0005785424145869,-0.0009155821171589,-0.0376288472721353,-0.4403921465948225,-9.794348757863045,14935.0
9.1,0.8000000119209291,317.0,23.533544540405277,0.0318070948123931,-79.7827616447128,40.4589849431004,270.6313514561653,0.0161835830658674,0.01610704138875,-0.7637732625007629,0.6450808048248291,0.0067746656784118,-0.0050584964670575,-0.0260090104742671,-0.0065314094536006,-0.0010120599763467,-0.00063975865487,-0.036136057684198,-0.4511783956736327,-9.795983639359475,14935.0
9.3,0.699999988079071,319.0,23.53229331970215,0.0318070948123931,-79.78276159446159,40.45898491928185,270.6380410642624,0.0161792021244764,0.016109624877572,-0.7637746334075928,0.6450791954994202,0.0043866655225803,-0.0026240486362815,-0.0226860026286225,-0.000496115302667,-0.0002083459839923,-0.0028497346211224,-0.0383558434713631,-0.4402522885054349,-9.794134749770166,14935.0
9.4,0.6000000238418579,321.0,23.53104019165039,0.0318070948123931,-79.78276160226167,40.458984914160254,270.63350859296315,0.0161797031760215,0.016110660508275,-0.7637739181518555,0.6450799107551575,0.0038545883991086,-0.0027405447752156,-0.0222214479638209,-0.0073443166911602,-0.0004624454595614,-0.0016981980297714,-0.0354352140706032,-0.4531198174506426,-9.795646255016328,14935.0
9.6,0.6000000238418579,325.0,23.529788970947266,0.055662415921688,-79.78276155741432,40.4589848473739,270.639812782526,0.0161859262734651,0.0161225907504558,-0.7637743949890137,0.6450788974761963,0.0128742206408389,-5.634519713107292e-05,-0.020411991965775,0.0022247713059186,0.0013647490413859,0.0025180878583341,-0.0376799144782126,-0.4461606806516648,-9.796171919703484,14935.0
9.7,0.6000000238418579,325.0,23.537302017211918,0.0397588685154914,-79.78276149375186,40.458984798139866,270.64378121507167,0.0161796230822801,0.0161281917244195,-0.763775110244751,0.6450780034065247,0.0109498125905394,0.0048664150693985,-0.0192774644344158,-0.0036004348658025,-0.0025133113376796,-0.0054643400944769,-0.0379449006984941,-0.4526219270378352,-9.795093108415603,14935.0
9.91,0.6000000238418579,322.0,23.529788970947266,0.0,-79.7827614901823,40.458984788278094,270.6418056936264,0.0161796230822801,0.0161281917244195,-0.763775110244751,0.6450780034065247,0.0115584163185596,0.0048536142262062,-0.0192607420190333,0.0058679743669927,0.0020795078016817,0.0023310591932386,-0.0359162914543412,-0.4510132118314505,-9.795496566295622,14935.0
10.0,0.5,324.0,23.53229331970215,0.0318070948123931,-79.78276146457414,40.45898474148047,270.648251399517,0.0161856710910797,0.0161257442086935,-0.7637744545936584,0.6450787782669067,0.0112853320164579,-0.0003564875808824,-0.0143741967200693,0.0009167748503386,0.000928247347474,-0.0052248248830437,-0.0387960748560726,-0.4508669218048453,-9.79389793753624,14935.0
10.2,0.5,324.0,23.53104019165039,0.0318070948123931,-79.7827614672277,40.45898473208648,270.64677658689016,0.0161856710910797,0.0161257442086935,-0.7637744545936584,0.6450787782669067,0.0116722002291238,-0.0005060399877662,-0.0142054231125096,0.0018168058013543,0.0010230315383523,0.0052727218717336,-0.0376026490051299,-0.452720489166677,-9.794259880185129,14935.0
10.3,0.5,328.0,23.51100730895996,-0.0715659633278846,-79.78276144733867,40.45898468322014,270.6538110525608,0.0161881539970636,0.0161237381398677,-0.7637753486633301,0.6450777649879456,0.0117994644037418,-0.0038757447188514,-0.0109529882097807,0.0031873180996626,0.0020104520954191,0.0019723891746252,-0.0376752115809358,-0.4439353400096297,-9.79474929213524,14935.0
10.5,0.5,330.0,23.53479766845703,0.0318070948123931,-79.78276145411417,40.45898467387338,270.6526785643101,0.0161894727498292,0.0161249190568924,-0.7637745141983032,0.6450786590576172,0.0116382834913873,-0.0039025592319661,-0.0106472376083998,0.0006640273495577,0.0014063810231164,0.0049011842347681,-0.0371244701044634,-0.4541830605268479,-9.79654029428959,14935.0
10.6,0.5,333.0,23.52352905273437,0.0397588685154914,-79.78276139535849,40.458984612802,270.6607955248356,0.0161870382726192,0.0161330606788396,-0.7637756466865541,0.6450771689414978,0.013715428175241,0.0006529292620064,-0.0066568565706139,0.0065299435518682,0.0049823215231299,-0.0003508621593937,-0.0390224306238815,-0.4384641003236175,-9.794991951584816,14935.0
10.8,0.5,335.0,23.53104019165039,0.0318070948123931,-79.78276133146652,40.45898457615439,270.6696313173771,0.0161803308874368,0.0161372683942317,-0.7637760639190674,0.6450767517089844,0.0112898781252965,0.0050038555270572,-0.0033970099818615,-0.0051489300094544,-0.0006623489316552,-0.0001726795308059,-0.0393027041153982,-0.4499191612377763,-9.795286066532135,14935.0
10.91,0.5,335.0,23.53104019165039,0.0079517737030982,-79.78276132447537,40.4589845544515,270.6688654870987,0.0161812864243984,0.0161378514021635,-0.7637748122215271,0.645078182220459,0.0118147224456234,0.004952668675344,-0.0031659905404139,0.0041431142017245,-0.0017096992814913,0.0022076677996665,-0.0377709757257253,-0.441906173452735,-9.795373774766922,14935.0
11.1,0.5,335.0,23.527284622192383,0.0238553211092948,-79.78276131986235,40.45898451406475,270.6778967530728,0.0161912273615598,0.0161295719444751,-0.7637752294540405,0.645077645778656,0.0120522872606149,-0.005246695646889,-0.0006840010786067,-0.0016630539903417,-0.0022414482664316,-0.0036983764730393,-0.0371568056638352,-0.4445243373513222,-9.79292379140854,14935.0
11.2,0.5,334.0,23.53479766845703,0.0318070948123931,-79.7827612657269,40.45898445338226,270.68643952918046,0.0161908045411109,0.016138331964612,-0.7637747526168823,0.6450780630111694,0.0155532508456812,-0.0013068786182194,0.0010853684473433,0.0004167323058936,0.0013470058329403,0.0068639060482382,-0.0368223380763083,-0.4459663338214159,-9.795857924222949,14935.0
11.4,0.5,333.0,23.527284622192383,0.0159035474061965,-79.78276127032817,40.45898443984147,270.6864935011864,0.0161908045411109,0.016138331964612,-0.7637747526168823,0.6450780630111694,0.015107204044657,-0.0013502394191281,0.0013728001384443,-0.0046689342707395,0.000586821057368,-0.0045366324484348,-0.0378861635900102,-0.4397469428926705,-9.79491535305977,14935.0
11.51,0.5,330.0,23.53104019165039,0.0238553211092948,-79.7827612390016,40.45898440675828,270.69446299982064,0.0161879677325487,0.016132827848196,-0.763775110244751,0.6450778245925903,0.0106055149707172,-0.0039031845798796,0.0016784538205821,-0.0029626996256411,-0.0017012674361467,-0.0005196005804464,-0.0364568551210686,-0.4502509541809559,-9.796114032268523,14935.0
11.7,0.6000000238418579,328.0,23.529788970947266,0.0238553211092948,-79.78276124575521,40.45898439773815,270.6945936830044,0.0161879677325487,0.016132827848196,-0.763775110244751,0.6450778245925903,0.0106329892670149,-0.0040135542265153,0.0018774386825684,0.0030761521775275,-0.0012108378577977,-0.0016854210989549,-0.0375442979042418,-0.4404961173981428,-9.794638779759408,14935.0
11.81,0.6000000238418579,326.0,23.52102470397949,0.0159035474061965,-79.78276119237731,40.45898433863349,270.70241655421256,0.0161892585456371,0.0161413475871086,-0.763774573802948,0.6450781226158142,0.0136653865398652,-0.0010057227072499,0.0025447337219022,-0.0058268019929528,0.0016938553890213,-0.0051853084005415,-0.0366474172496236,-0.4540337738022208,-9.79609999895096,14935.0
12.0,0.6000000238418579,321.0,23.517269134521484,-0.0636141896247863,-79.78276119638882,40.458984326248896,270.7026138753891,0.0161884445697069,0.0161408763378858,-0.7637741565704346,0.6450786590576172,0.0142757258617303,-0.0011524115090098,0.0027193191564747,0.0026722680777311,-0.0026415002066642,0.0045522190630435,-0.0389632412698119,-0.4437717276066542,-9.795481363534927,14935.0
12.11,0.6000000238418579,317.0,23.52102470397949,-0.0477106422185897,-79.78276111472715,40.45898428249368,270.7101974041462,0.0161812808364629,0.0161460842937231,-0.7637747526168823,0.6450780034065247,0.0116773676718883,0.0042695581244586,0.0031062009845499,-0.0034336647950112,0.0015754915075376,-0.00652586389333,-0.0376576539454981,-0.4518629949912429,-9.796686474680902,14935.0
12.3,0.8000000119209291,313.0,23.517269134521484,-0.0397588685154914,-79.78276104171142,40.458984238524266,270.7173493058681,0.0161811560392379,0.0161544643342494,-0.7637754678726196,0.6450769901275635,0.0147444175351541,0.0081825627511101,0.00308930120037,0.0052210744470357,0.0022581303492188,0.0005166831542737,-0.0354246730939485,-0.4513190212100744,-9.796616308093071,14935.0
12.4,0.8000000119209291,310.0,23.51852035522461,-0.0715659633278846,-79.78276102850108,40.45898421021294,270.7179079802036,0.016180308535695,0.0161539316177368,-0.7637754678726196,0.6450770497322083,0.0144513974039847,0.0080225797598347,0.0037813625175819,-8.845839147397783e-06,-0.000806170515716,-0.0014899132074788,-0.0389872925123199,-0.4499305998533965,-9.795226424932482,14935.0
12.61,0.8999999761581421,308.0,23.51601600646973,-0.0477106422185897,-79.78276096073174,40.458984145970334,270.72585527610784,0.0161843635141849,0.0161641798913478,-0.7637761831283569,0.645075798034668,0.0217102195351774,0.0110007316886356,0.0068556032476805,0.0046994602307677,-0.0001537630014354,0.0016115052858367,-0.0371666043181903,-0.4516290332749486,-9.79626956820488,14935.0
12.71,0.8999999761581421,303.0,23.507251739501957,-0.0795177370309829,-79.7827608829043,40.45898409915794,270.7329191119671,0.0161797925829887,0.0161629077047109,-0.7637771368026733,0.6450747847557068,0.0173419357648086,0.0118449640861552,0.0055973718612005,0.0018485229229554,0.0033365138806402,0.0004674110386986,-0.0382599879638291,-0.4456715976074338,-9.794617145061494,14935.0
12.9,0.8999999761581421,310.0,23.51226043701172,-0.1113248318433761,-79.78276087241612,40.45898408191961,270.7334127278328,0.0161797925829887,0.0161629077047109,-0.7637771368026733,0.6450747847557068,0.0173066748812701,0.0119894992433343,0.0059066755603985,-0.0013347244821488,-0.0007873809663578,0.0041145356371998,-0.03678508491721,-0.4531160167604685,-9.795906456112863,14935.0
13.01,0.8999999761581421,311.0,23.51100730895996,-0.1033730581402778,-79.78276086550606,40.45898404941103,270.7399962694645,0.0161886122077703,0.0161486864089965,-0.7637756466865541,0.6450767517089844,0.0155347744572073,-0.001072437955497,0.0044974225799763,0.0054677953012287,0.0047664931043982,0.0032882078085094,-0.0378826621128246,-0.4404470738768578,-9.794140596985818,14935.0
13.2,0.8999999761581421,312.0,23.517269134521484,-0.055662415921688,-79.78276086982308,40.458984035849305,270.7403952331543,0.0161886122077703,0.0161486864089965,-0.7637756466865541,0.6450767517089844,0.0151835563483129,-0.0010807711932769,0.0048046649777733,-0.0037465915083885,0.0008968594484031,0.002437746617943,-0.0371380717330612,-0.4528326826170087,-9.795176138877869,14935.0
13.31,1.0,314.0,23.50224304199219,-0.0874695107340812,-79.78276079329288,40.458983984568576,270.7488479764461,0.0161844324320554,0.0161564722657203,-0.7637779116630554,0.6450739502906799,0.016542674673839,0.0045281865346391,0.0079814371605973,0.0052434070967137,0.0056367730721831,0.002902612555772,-0.0378925247211009,-0.4400244298204779,-9.794416585564614,14935.0
13.5,1.0,320.0,23.51601600646973,-0.055662415921688,-79.78276079116783,40.45898396922183,270.74958919000625,0.0161851365119218,0.0161570291966199,-0.7637773156166077,0.6450746655464172,0.0158582575478058,0.0046816347450316,0.0083897565731994,-0.0040168003179132,-0.000752281572204,-0.0002489215112291,-0.0393160659167915,-0.4482282195612789,-9.794920615553856,14935.0
13.6,0.8999999761581421,321.0,23.507251739501957,-0.1033730581402778,-79.78276071724666,40.45898392341749,270.75563319039344,0.0161823257803916,0.0161613281816244,-0.763777494430542,0.6450744271278381,0.0168548405086903,0.0074571755732029,0.0072053327320681,0.0051372153684496,0.0022802182938903,0.0053887907415628,-0.0390495607908815,-0.4401600486785174,-9.795062702894214,14935.0
13.8,0.8999999761581421,321.0,23.51852035522461,-0.0795177370309829,-79.78276066888006,40.45898390924143,270.76060907554626,0.0161795318126678,0.0161574836820364,-0.7637777328491211,0.6450743079185486,0.0133720822519894,0.0058273366075435,0.0052838232110773,-0.0049925032071769,-0.003300892189145,-0.0025641852989792,-0.0365098158200271,-0.4445288323983551,-9.794308412075043,14935.0
13.9,0.8999999761581421,321.0,23.513511657714844,-0.0954212844371795,-79.7827606610118,40.45898388251089,270.76157949876784,0.0161810591816902,0.0161581505089998,-0.7637781500816345,0.6450737714767456,0.0139479206693632,0.0057857576448343,0.0058110782821228,0.0007162875845097,0.0019549801945686,0.0019019243773072,-0.037705585125368,-0.446020895652473,-9.79552521765232,14935.0
14.1,0.8999999761581421,324.0,23.51977348327637,-0.0636141896247863,-79.78276060859842,40.45898385499989,270.76641716074937,0.0161826610565185,0.0161604564636945,-0.7637782096862793,0.6450735926628113,0.0156034211592496,0.005353074599431,0.0047267572439477,-0.0031782581936568,0.0024667016696184,-0.0075356559827923,-0.0382810128154233,-0.4391108754649759,-9.794543470144273,14935.0
14.2,0.8999999761581421,321.0,23.49723625183105,0.604334831237793,-79.7827605757153,40.45898383090221,270.77152346086496,0.0161793623119592,0.0161485001444816,-0.7637894153594971,0.645060658454895,0.013072959634556,0.0004886903073366,0.0040049866990645,-0.0054800081998109,0.0015187737299129,-0.0065066404640674,-0.0367676620418205,-0.4490413479879498,-9.797426732182505,14935.0
14.4,1.0,321.0,23.513511657714844,0.2942156493663788,-79.78276057847596,40.45898381821353,270.77186353516583,0.0161936115473508,0.0161455813795328,-0.7637975811958313,0.6450507044792175,0.0142560781886015,0.0001687001696654,0.0041888513040007,-0.0017413381719961,0.0010598317021504,0.0007753832032904,-0.0378176301112398,-0.4425075595825911,-9.793750587701796,14935.0
14.5,1.100000023841858,322.0,23.506000518798828,0.2306014448404312,-79.78276054751305,40.458983783359,270.77667193126683,0.0161731652915477,0.0161299593746662,-0.7638081312179565,0.6450391411781311,0.0153623760272162,-0.0017893248691688,0.0041044707636179,-0.0060556475073099,-0.001159792416729,-0.0039467462338507,-0.0375618783803656,-0.4471573385596276,-9.794524759054184,14935.0
14.7,1.0,322.0,23.49723625183105,0.2385532110929489,-79.78276055274941,40.45898376934048,270.77701212477683,0.0161688830703496,0.0161372981965541,-0.7637933492660522,0.6450566053390503,0.0158247382742407,-0.0019085969680472,0.0041921354366628,0.0043198820203542,0.0013332039816305,0.0031509657856076,-0.0389991011470556,-0.4468304792046547,-9.795855585336684,14935.0
14.8,1.100000023841858,323.0,23.503496170043945,0.2226496636867523,-79.78276048279194,40.45898374838986,270.7816737742424,0.0161633305251598,0.0161177963018417,-0.763799786567688,0.645049512386322,0.0130584873732499,0.0031043540037897,0.0036889701070156,-0.0032744228374212,-0.0038145023863762,-0.0052429889328777,-0.0362635475420393,-0.4555831397697329,-9.795766707658768,14935.0
15.0,1.0,324.0,23.49222755432129,0.3101191818714142,-79.78276048156674,40.458983736214336,270.781997099638,0.0161467641592025,0.0161010045558214,-0.763785719871521,0.645067036151886,0.0132801957642012,0.0033357256186729,0.0039413488750228,0.0014886728022247,0.0024388174060732,0.0017487201839685,-0.0381230123690329,-0.445450061224401,-9.79486623644829,14935.0
15.1,1.0,324.0,23.50474739074707,0.3737333714962005,-79.78276042457699,40.45898370409411,270.7860366852284,0.0161252077668905,0.0161340907216072,-0.7637691497802734,0.645086407661438,0.0150190965462658,0.0039392179040208,0.0037061161306572,-0.0024805299472063,-0.0027226970996707,-0.0049161110073328,-0.0375019763968884,-0.4531484322622419,-9.798009114861491,14935.0
15.3,1.0,331.0,23.50850486755371,2.2105932235717773,-79.78276037027713,40.458983675973066,270.789630726099,0.016127023845911,0.0161404591053724,-0.7637719511985779,0.6450827717781067,0.0213155790424043,0.0051031577251691,0.0032624815554767,0.0061721759848296,0.0010202700505033,0.0031165278051048,-0.0355618679593317,-0.45260434884578,-9.79437156200409,14935.0
15.4,1.0,335.0,23.274370193481445,3.649864196777344,-79.78276036930123,40.458983635871896,270.790260538578,0.0163504090160131,0.0161433201283216,-0.7636904716491699,0.6451736092567444,0.0197817119829454,0.0054158126080343,0.0047581990793594,-0.018168743699789,0.0110225528478622,-0.0174077898263931,-0.0525055663101375,-0.4354027174785733,-9.806482899785044,14935.0
15.6,1.0,341.0,23.51226043701172,0.2624085247516632,-79.78276028823916,40.458983664485416,270.79280607414245,0.0162970833480358,0.0161251723766326,-0.7637062072753906,0.6451568603515625,0.0130680613980753,0.0075229521877506,0.0027274563528697,-0.0008653674740344,0.0117668006569147,0.0091038001701235,-0.0490580388251692,-0.4293318092823029,-9.793474599123002,14935.0
15.71,0.8999999761581421,339.0,23.50850486755371,8.476591110229492,-79.78276025034263,40.45898364623824,270.79589097213744,0.0163084343075752,0.0161329675465822,-0.7636844515800476,0.6451820135116577,0.0176727770175894,0.0012197509766451,0.0046627722780055,0.0147980274632573,0.0181093849241733,0.0002523336443118,-0.0141060537309385,-0.4454345295578241,-9.793913140296937,14935.0
15.9,0.8999999761581421,340.0,23.48346328735352,0.4771064221858978,-79.78276025129533,40.45898363215826,270.7961402089596,0.0163961593061685,0.0161092784255743,-0.7636730074882507,0.6451939344406128,0.0152979178214653,0.00303021060392,0.002529841511848,0.0051378202624619,0.001954510807991,0.0064649898558855,0.0005062935012392,-0.4504311215132475,-9.798421928286553,14935.0
16.0,0.8999999761581421,345.0,23.50474739074707,0.2703603208065033,-79.78276019921131,40.45898363553104,270.79931332182883,0.0163090266287326,0.0160559136420488,-0.7637103796005249,0.645153284072876,0.0110375235230798,0.0017327549685834,0.0025792103019836,-0.0117306439206004,-0.0031676860526204,0.0026847566477954,-0.0559003592189401,-0.4126085532456637,-9.788413833975794,14935.0
16.2,0.8999999761581421,347.0,23.480958938598643,1.4233675003051758,-79.7827601990179,40.45898362438478,270.7995450348854,0.0162530858069658,0.0160937067121267,-0.7637074589729309,0.6451572179794312,0.0098599779809906,0.002178777287586,0.0038458574172803,-0.0068161059170961,0.0050210617482662,-0.0105433193966746,-0.0410892888810485,-0.4409555623680353,-9.79793134689331,14935.0
16.3,0.8999999761581421,348.0,23.38830757141113,3.419262886047364,-79.78276014676963,40.45898361325058,270.8025008888244,0.0162348914891481,0.016099564731121,-0.7637357711791992,0.6451240181922913,0.0134715979297353,0.0027230479731993,0.0033848930797309,-0.0102657405659556,-0.0065674809738993,-0.0016842195764183,-0.038326611961238,-0.4602779057621956,-9.793245388269424,14935.0
16.5,0.8000000119209291,348.0,23.294403076171875,5.446965217590332,-79.78276014655478,40.45898360024764,270.8027808816433,0.0162362866103649,0.0160883944481611,-0.7637644410133362,0.6450902819633484,0.0138812058616271,0.0032485949985752,0.0037712452062131,-0.0084786973893642,-0.0109445489943027,-0.0160576999187469,-0.0468341051694005,-0.4514233209192753,-9.781346304416656,14935.0
16.6,0.8999999761581421,346.0,23.248077392578125,6.456840515136719,-79.78276009419389,40.45898359330077,270.80536638212203,0.0163519978523254,0.0161550529301166,-0.7637284398078918,0.6451283097267151,0.0158072807073511,0.0055906302838871,0.0055830034539242,-0.0199593715369701,-0.0331647656857967,0.0386467985808849,-0.045407046508044,-0.4652313014119864,-9.80778858304024,14935.0
16.81,0.8999999761581421,341.0,23.142906188964844,8.905986785888672,-79.78276005768349,40.4589836310399,270.8057963104248,0.0165246240794658,0.0160991325974464,-0.763715922832489,0.6451401114463806,0.0155894505199432,-0.0035446528015797,-0.0024554009781535,0.0577846504747867,0.0348972752690315,-0.017896082252264,-0.0085696255846414,-0.512813238054514,-9.799768542051316,14935.0
16.9,0.8999999761581421,338.0,23.07404327392578,10.369112968444824,-79.78276006742063,40.45898361313142,270.8055208773613,0.0167733039706945,0.0162475369870662,-0.763606071472168,0.6452600955963135,0.0089628175975756,0.0019590893206722,0.0023041191600705,-0.0530659109354019,0.0559256225824356,0.0280361156910657,0.0359777900017797,-0.4706199857220054,-9.851408811807632,14935.0
17.1,1.0,336.0,22.94758605957031,12.913681030273438,-79.78275997219127,40.45898362480319,270.8090368659496,0.0170889664441347,0.0164426025003194,-0.7635869979858398,0.6452693939208984,0.019328304173695,0.0072519619334316,0.005312510540902,0.0097837960347533,0.0704029351472854,-0.0147353438660502,-0.0710899499757215,-0.3927893427014351,-9.823060340881348,14935.0
17.2,1.0,330.0,22.887487411499023,14.869816780090332,-79.78275992009073,40.458983663801305,270.81036745023727,0.0172171667218208,0.0168937053531408,-0.7634315490722656,0.6454381942749023,0.0076142058135826,0.0061828705549509,0.0030815877202367,0.0190312881022691,-0.0122827365994453,-0.0173212140798568,-0.0603237869963049,-0.4972154979407787,-9.796683551073077,14935.0
17.4,1.0,329.0,22.727224349975582,17.668842315673828,-79.78275991713876,40.45898365825863,270.81058759999274,0.0166567824780941,0.017254265025258,-0.7633065581321716,0.6455912590026855,0.0066604390319237,0.0058798685441166,0.0026078099369205,-0.0404399298131465,-0.0238846205174922,0.0912329107522964,0.0043461463158018,-0.411329840272665,-9.816647114753724,14935.0
17.5,1.0,328.0,22.66837882995605,19.13991928100586,-79.78275987768114,40.45898366300904,270.81065459561347,0.0144216753542423,0.0187396593391895,-0.7630854249000549,0.6458649635314941,0.0062582515583588,0.0057491463646893,0.0049019203099825,-0.0064699347130954,0.0161229353398084,-0.0275803264230489,-0.0511438776925206,-0.5140889908745885,-9.826491487026216,14935.0
17.7,1.100000023841858,320.0,22.475563049316406,23.64857482910156,-79.78275986532883,40.45898365648139,270.812404856205,0.0119540356099605,0.0195505041629076,-0.7629097104072571,0.6460989117622375,0.0123933524092755,0.0158722018003398,0.0286943723864238,0.0141289597377181,-0.0484068393707275,0.0442065447568893,-0.0387080057384446,-0.5872262931615114,-9.912691140174866,14935.0
17.8,1.100000023841858,321.0,22.38791847229004,24.87314796447754,-79.78275979317412,40.458983640958856,270.81751246762275,-0.0007281640428118,0.0129673313349485,-0.7586920261383057,0.6513200998306274,0.0386425936723335,0.0546010657474421,0.0615224571624222,-0.0281017590314149,0.0609540343284606,-0.0965750813484192,-0.1082572143897414,-0.5207093180716038,-10.032019947767258,14935.0
18.0,1.100000023841858,316.0,22.237672805786133,28.57072448730469,-79.78275971202173,40.45898359315182,270.8254713566303,-0.0062641310505568,0.0072231120429933,-0.7556537389755249,0.6549015045166016,0.0464740508707254,0.089989012715785,0.1081740011324074,-0.1310266256332397,0.0418047308921814,-0.151670753955841,0.1238071078341454,0.2402922408655285,-10.259663747549055,14935.0
18.11,1.100000023841858,314.0,22.141263961791992,30.88468933105469,-79.7827594932745,40.45898332506248,270.86979652953147,-0.0169100705534219,-0.0022333154920488,-0.7499851584434509,0.6612347364425659,0.0397725559066394,0.1449536516754576,0.2889058747346745,-0.1620926260948181,-0.0651624277234077,-0.070094309747219,0.0456549319066107,0.0498856939282268,-10.624100818634034,14935.0
18.3,1.2000000476837158,310.0,22.436748504638672,22.16159439086914,-79.782759119385,40.45898328306113,270.89379273366933,-0.0139291221275925,-0.0020408197306096,-0.7483789324760437,0.6631220579147339,0.0459783788614777,0.1773317159346327,0.3114002404629403,0.0985436141490936,0.0233992747962474,-0.1016325801610946,0.0940244702249765,0.5309907697141171,-10.403294752836226,14935.0
18.4,1.100000023841858,308.0,22.439252853393555,23.250986099243164,-79.78275868377453,40.45898315644414,270.9530922026634,0.0048429239541292,-0.0052431575022637,-0.7478318810462952,0.6638498306274414,0.0359555410130086,0.2125901129321031,0.2571899470334459,-0.1582758128643036,0.0581361837685108,-0.0712986290454864,0.0645573447179049,0.1805814247950911,-9.846009492874147,14935.0
18.6,1.100000023841858,308.0,22.330324172973643,24.809534072875977,-79.78275813357884,40.45898339868244,270.9612348527908,0.0084312362596392,-0.0109449680894613,-0.7481626272201538,0.6633715629577637,0.0416621606111113,0.2073952524305124,0.170747652884815,-0.0698571428656578,0.0601515658199787,0.0090695172548294,0.2778449601307512,0.0693688266165554,-9.431454766988756,14935.0
18.71,1.100000023841858,310.0,22.324064254760746,25.898927688598643,-79.78275744767052,40.45898348800395,270.9803797454834,0.0125127872452139,-0.0167354810982942,-0.7496576309204102,0.6614959239959717,0.0118037324461861,0.2021774214293439,0.1156035480467837,0.0126858670264482,-0.1203830167651176,0.0035623300354927,0.2608821509778499,0.0968498082831502,-9.49867669701576,14935.0
18.9,1.100000023841858,313.0,22.326568603515625,25.04808807373047,-79.78275722287178,40.45898345302784,270.9921474905014,0.0118673974648118,-0.0142036713659763,-0.7506123781204224,0.6604835987091064,0.0227721466382996,0.1863789779450193,0.1000587992597449,0.1013749688863754,0.0361221581697464,0.0808828920125961,0.2644800524041057,0.0031554316543042,-9.658304514884948,14935.0
19.0,1.2000000476837158,314.0,22.23641967773437,26.566877365112305,-79.78275659927688,40.45898339980455,271.0329280347824,0.0057499967515468,-0.0154536413028836,-0.7521195411682129,0.6588205099105835,0.0172088859405174,0.1879460452527136,0.1144100236584075,-0.1273072212934494,-0.1118453741073608,0.0406471937894821,0.1635593943111598,0.1769414051435888,-9.731381261944769,14936.0
19.2,1.2000000476837158,320.0,22.27898979187012,25.517242431640625,-79.7827563886113,40.45898335708207,271.0450353474617,0.0037184986285865,-0.0154327573254704,-0.7529424428939819,0.6578949689865112,0.0363281850630419,0.1816537930995821,0.1134501184365645,0.1571342200040817,0.0850925594568252,0.1220194920897483,0.2047538508474826,0.0023516587726771,-9.799204285740853,14936.0
19.31,1.100000023841858,323.0,22.23892402648925,26.73386383056641,-79.782756031992,40.45898326531584,271.0744119734764,-0.0005026739090681,-0.0132520366460084,-0.7538561820983887,0.6569057703018188,0.0491900008390832,0.175499316943528,0.1203255274399848,0.1921468675136566,-0.0191472601145505,0.1091247722506523,0.1591320470720529,0.2866048018075526,-9.759301716685297,14936.0
19.5,1.100000023841858,324.0,22.262714385986328,26.30446815490723,-79.78275583617217,40.458983219276135,271.0880695433617,-0.0008302083588205,-0.0122242793440818,-0.7541017532348633,0.6566433906555176,0.0102263923255858,0.1818920924173724,0.1423866640619273,-0.1619690656661987,-0.0842273458838462,-0.150920495390892,0.1366312851570546,0.3824321696162224,-9.88113488674164,14936.0
19.6,1.100000023841858,326.0,22.218891143798828,26.84518814086914,-79.78275523759706,40.458983138238565,271.12919281435006,0.0001521726226201,-0.0162493828684091,-0.7533861994743347,0.6573775410652161,0.0065151139105752,0.2004354927027696,0.1915515285236309,-0.1260912418365478,0.0068021984770894,-0.1691188514232635,0.2772910278104246,-0.1779321244731545,-9.986996387243272,14936.0
19.8,1.0,325.0,22.478065490722656,15.831981658935549,-79.78275496725053,40.45898322154129,271.154718861103,0.0009207834955304,-0.0181285254657268,-0.7530201077461243,0.6577472090721129,0.0127563916245442,0.1842670218724173,0.1916306092114938,0.1229787170886993,-0.00208401074633,0.0686512067914009,0.2763875050842762,-0.069641580954194,-9.879022872447967,14936.0
19.9,1.100000023841858,326.0,22.37539863586425,23.82351493835449,-79.78275457694609,40.45898320833947,271.18215845537185,0.0070333764888346,-0.0201881788671016,-0.7519887089729309,0.6588292717933655,-0.0163312938587435,0.1535248085176709,0.0146916212512223,0.0878376364707946,0.0574599131941795,0.019678371027112,0.2068753668665886,0.1549929310195148,-9.356325647234916,14936.0
20.11,1.0,330.0,22.047361373901367,31.6560115814209,-79.78275449855998,40.45898309542026,271.21051321935647,0.0098374215885996,-0.0198726560920476,-0.7517616748809814,0.6590620875358582,-0.012505931636198,0.1449313532025625,-0.0043528372190974,-0.0519065223634243,-0.0339148715138435,-0.0875596031546592,0.2533499870449304,0.1607538271509111,-9.131537042856216,14936.0
20.2,1.0,332.0,21.99602699279785,31.86275863647461,-79.7827540179913,40.458983076405225,271.2398761363029,0.0084645990282297,-0.0151293156668543,-0.7521524429321289,0.658761203289032,-0.0026592631129256,0.1201847684102286,0.1296475612351907,-0.0842956751585006,-0.1092971712350845,-0.0823251754045486,0.2783723972551525,-0.2067979278042912,-9.797753006815912,14936.0
20.4,1.0,336.0,21.77190971374512,37.0234603881836,-79.78275389976773,40.458983059086925,271.2593231053352,0.0078603625297546,-0.0137199461460113,-0.7526379227638245,0.6582448482513428,-0.0029378005208677,0.1036033810478254,0.2551374179067917,-0.0700993612408638,-0.0867509394884109,-0.0574184544384479,0.1741262448951602,0.0427223431225866,-10.880134019851685,14936.0
20.5,1.0,338.0,21.74812126159668,37.89815521240234,-79.78275379833507,40.458983043397176,271.293046936512,0.0080180261284112,-0.0131815504282712,-0.7528560161590576,0.6580045223236084,0.0128077075349189,0.0969292847639675,0.4195731174271541,0.0538829155266284,-0.0596938543021678,-0.011984983459115,0.2442447759211064,0.0029627933073788,-11.348153346776964,14936.0
20.7,1.0,338.0,21.550296783447266,40.10079574584961,-79.782753657696,40.4589830584149,271.4065932483673,0.0093351146206259,-0.0109819080680608,-0.7519994974136353,0.6590061783790588,0.0215805355630445,0.0761400175688623,0.8187827521037774,0.0365163423120975,0.0419493876397609,-0.0588274151086807,0.206415081359446,0.0442547430284321,-12.06184110045433,14936.0
20.81,1.0,335.0,21.61164665222168,39.93380737304688,-79.78275348553905,40.45898307464893,271.6204001159668,0.0048320465721189,-0.0120687913149595,-0.7505608201026917,0.6606736183166504,0.0348135947375571,0.0797707327360259,1.3064620249975685,-0.002242473186925,-0.0292370580136776,-0.0105263795703649,0.2394455274939537,0.2447230781614781,-12.239560203552244,14936.0
21.01,1.100000023841858,332.0,21.51774406433105,40.72898483276367,-79.78275343132947,40.45898304991785,271.76402251434325,0.0014144777087494,-0.0117417508736252,-0.7499197125434875,0.6614231467247009,0.0427524698607675,0.0830003537057387,1.5671158565156451,-0.0130179207772016,0.0157480873167514,0.0179688539355993,0.1967945295386017,0.16468211453408,-12.37630201935768,14936.0
21.1,1.2000000476837158,330.0,21.5452880859375,41.61163330078125,-79.78275338499324,40.45898308063122,271.9292054624557,-0.0010931344004347,-0.0109140342101454,-0.7491912245750427,0.662263035774231,0.0463166842850534,0.083195910891038,1.8132613194600715,0.0204028114676475,0.0159636698663234,0.0150506207719445,0.1549389721825718,0.2289635711722076,-12.418927052021024,14936.0
21.3,1.2999999523162842,332.0,21.415075302124023,43.39282989501953,-79.7827532449845,40.45898313335316,272.334514424324,0.0004211999475955,-0.010438890196383,-0.7472559213638306,0.6644542813301086,0.0383279999906411,0.0973120106058364,2.3026338700074773,0.0412608459591865,0.0234959386289119,-0.0186237469315528,0.2291155805066228,0.1450182023830712,-12.307744585275652,14937.0
21.4,1.399999976158142,333.0,21.50397109985352,41.23789978027344,-79.78275316309391,40.45898312625521,272.57757918548583,0.0036360051017254,-0.0077386540360748,-0.7467445135116577,0.665056049823761,0.0429466797594361,0.1167191688374983,2.5574307637313285,0.1121644973754882,-0.0008891926845535,0.047304380685091,0.2675056575983763,0.14888894950971,-12.364530404806136,14937.0
21.6,1.600000023841858,335.0,21.03194808959961,35.98972702026367,-79.78275298016979,40.45898317299835,273.12643449020385,0.0094868810847401,-0.0026932640466839,-0.7478375434875488,0.6638085246086121,0.0027334889611951,0.1297501606837341,2.9804406267270607,-0.0257645603269338,0.0490323193371295,0.044392392039299,0.2534412401542068,-0.007962151269894,-11.720741436481472,14938.0
21.7,1.7000000476837158,331.0,21.26608085632324,30.96420669555664,-79.7827527539403,40.458983144644094,273.74560396385186,0.0055609140545129,-0.0122516732662916,-0.7506925463676453,0.660514771938324,0.01203536999328,0.1558301158226532,3.131158468883091,-0.101372480392456,0.0312323477119207,0.0259852912276983,0.2388447078131139,-0.0799757123552262,-11.082321381568912,14938.0
21.9,1.7000000476837158,323.0,21.02568817138672,37.20634841918945,-79.78275266299158,40.45898310887115,274.059944316864,0.005254894029349,-0.0161661338061094,-0.7514143586158752,0.6596117615699768,0.0544499855100387,0.1612150889794666,3.151704389216409,0.0110245533287525,0.0582160390913486,0.0179453790187835,0.2073395444266498,0.1868362827412784,-10.166539821624756,14939.0
22.0,1.600000023841858,316.0,21.178438186645508,33.51672744750977,-79.78275258093515,40.4589830690923,274.3782467098236,0.0081875855103135,-0.0140667995437979,-0.7521650195121765,0.6587737798690796,0.0725413334421484,0.1697826298827284,3.21421999445874,0.0459473617374897,-0.0058779488317668,-0.0276988595724105,0.1984283329546451,0.1831435833312571,-10.400337231159211,14939.0
22.21,1.7999999523162842,309.0,21.24354362487793,34.614070892333984,-79.78275237839027,40.45898305899246,275.02403227996825,0.0104672629386186,-0.0075136721134185,-0.7527787685394287,0.6581475138664246,0.0090229927601365,0.1461362698408338,3.283441111266976,-0.0170322339981794,-0.0272330064326524,-0.0683031380176544,0.1521455014497041,0.0878106158785522,-10.083889428377152,14940.0
22.3,2.0,300.0,21.28360939025879,32.35576629638672,-79.7827521876076,40.458983059402016,275.7095638961792,0.0106744579970836,-0.0093807661905884,-0.7516167759895325,0.6594470739364624,0.0088538348991459,0.1063926325383666,3.306408083384192,0.0474590547382831,0.0168139394372701,0.014842108823359,0.0984989240951836,0.0722225967608392,-9.916912829875946,14940.0
22.5,2.200000047683716,267.0,21.76690101623535,33.222511291503906,-79.78275215307079,40.45898304062477,276.04083840560907,0.0111964670941233,-0.0108522707596421,-0.751051127910614,0.6600599884986877,0.0072380530336224,0.0962197730943035,3.3047147596747712,0.0471935458481311,0.0606785751879215,-0.0221796259284019,0.1518915312923491,0.0582548411004245,-9.802430779337882,14941.0
22.6,2.200000047683716,234.0,21.962221145629886,29.85095977783203,-79.78275215700815,40.45898306746268,276.68639056396484,0.0144729185849428,-0.007209934759885,-0.7505121827125549,0.6606587767601013,-0.0086480790763344,0.0676536588918529,3.27831270470396,0.0693563967943191,-0.0451244451105594,-0.0116267958655953,0.0496198283415287,-0.0947193021699786,-9.831604292392733,14941.0
22.8,2.400000095367432,188.0,21.98600959777832,28.47530174255371,-79.78275218945646,40.45898301553192,276.9961702079773,0.014091650955379,-0.0032992984633892,-0.7509279251098633,0.6602256298065186,-0.0250666444393785,0.0454827347673243,3.250697459346726,-6.093505362514406e-05,-0.1078171879053115,-0.0143781937658786,0.0909959322866052,-0.1485842273477465,-9.831804267168048,14941.0
22.9,2.400000095367432,171.0,21.898366928100582,30.94035148620605,-79.78275226096359,40.45898300617712,277.32177321624755,0.0115155559033155,0.0003020624862983,-0.7514457106590271,0.6596944332122803,-0.0280537440501095,0.0085124058760117,3.25350499627246,0.0954400822520256,-0.11646069586277,0.0865393131971359,0.017725491640158,-0.250474070571363,-9.808510129451752,14942.0
23.1,2.5999999046325684,161.0,22.008546829223643,27.98229217529297,-79.7827524820583,40.45898294790069,277.9277145118713,0.005795172881335,0.0070353420451283,-0.7524449825286865,0.658592164516449,-0.0331890732015481,-0.0670031695922261,3.1248265666237525,-0.011483296751976,8.093801443465054e-05,-0.0262718517333269,-0.0857811386883258,-0.1590232157707214,-9.283357073664666,14942.0
23.2,2.700000047683716,157.0,21.9309196472168,30.66204071044922,-79.78275258887734,40.45898293722436,278.236072227478,0.0033838655799627,0.0042585111223161,-0.7521742582321167,0.6589418053627014,-0.0275001191185528,-0.099475560425279,3.0390586464912825,-0.0355663746595382,0.002479332499206,0.0752724707126617,-0.0761795446369797,-0.2631763060390949,-9.0515956646204,14943.0
23.4,2.900000095367432,147.0,21.84703254699707,32.673839569091804,-79.78275213445492,40.45898262859423,278.78653876495355,0.0012437180848792,-0.0045680534094572,-0.7523016929626465,0.6588018536567688,0.0154304302942652,-0.0487968015276069,2.8795463924662688,-0.0204813554883003,0.0049595288001,0.0413533896207809,-0.0008449761946394,-0.0991241193562746,-9.38408764243126,14943.0
23.5,3.0999999046325684,147.0,21.97348976135254,28.70590400695801,-79.78275264235538,40.45898220054919,279.5327898712158,0.0023088939487934,-0.0049458821304142,-0.7546479105949402,0.6561073660850525,0.0629384560913631,-0.0763505832832179,2.9141860965765294,0.0559798032045364,-0.0063826385885477,0.0398384891450405,-0.0407267980556935,-0.0620150849875062,-9.579609178304672,14944.0
23.71,3.299999952316284,135.0,21.8132266998291,32.73745346069336,-79.78275277734312,40.45898217816218,279.82220618438714,0.001944045885466,-0.00093281728914,-0.7557042241096497,0.6549096703529358,0.0503781258619522,-0.0837377981916827,2.876203628383652,0.11220733076334,-0.0360865220427513,0.0180916246026754,0.0113191496953368,-0.0703123662248253,-9.495029203891754,14944.0
23.8,3.0999999046325684,137.0,21.88960266113281,30.980112075805664,-79.78275261906147,40.45898186476608,280.21006171417235,0.0005493896314874,0.0033148173242807,-0.7557238936424255,0.6548818349838257,0.0551309545555867,-0.0874763370738321,2.906622230784357,0.0841345638036727,-0.0515956953167915,0.0096576539799571,-0.0581802068743854,0.0011621980648487,-9.7472213691473,14945.0
24.0,3.0,135.0,21.87332534790039,31.186857223510746,-79.78275283228704,40.45898178337478,280.7930475921631,-0.0036653692368417,0.0078698443248867,-0.7542236447334291,0.6565601825714111,0.0226615972670535,-0.108874504515072,2.933948594618188,-0.1329994946718216,-0.0248964522033929,-0.1419583261013031,-0.0362032047333195,0.024094744878821,-10.017763266563415,14945.0
24.1,2.900000095367432,127.0,21.89961814880371,30.4711971282959,-79.78275292869945,40.45898150536408,281.4577385635376,-0.006196531932801,0.0016154500190168,-0.7528697848320007,0.6581383943557739,0.0853588842681367,-0.0736877956216934,2.9656633267913404,0.0065540610812604,0.0497175343334674,0.0105204479768872,0.0231653230986557,-0.0611447178013622,-9.925093084573746,14946.0
24.3,2.900000095367432,123.0,21.922155380249023,29.008071899414062,-79.7827530352662,40.45898143403989,281.80350939941405,-0.0063212686218321,-0.0026391348801553,-0.7520970106124878,0.6590169072151184,0.09475721908675,-0.050126881884054,2.967954239776687,0.0180612280964851,0.0715529769659042,0.0024885926395654,0.1232477485667914,-0.0106019247416406,-9.698628083467485,14946.0
24.4,2.900000095367432,125.0,21.96973419189453,29.175058364868164,-79.78275305836125,40.45898137871138,282.09920184326165,-0.0055829607881605,-0.0055138724856078,-0.7516602277755737,0.6595039367675781,0.0970628950930473,-0.017368364812848,2.9444479067359817,-0.002326906658709,0.1295536458492279,0.0247772093862295,0.0879190725926309,0.1053987207915634,-9.591361497044565,14947.0
24.6,2.799999952316284,130.0,22.002286911010746,28.06976127624512,-79.78275323630022,40.45898125202272,282.7338883132934,-0.0004596050712279,-0.0045435093343257,-0.7517709732055664,0.6594085693359375,0.0938210132674236,0.0135317287091016,2.90069876312186,0.1369136571884155,0.0846120864152908,0.0670516341924667,0.0995027631148696,0.0446732848975807,-9.534389151334764,14947.0
24.7,2.700000047683716,132.0,21.749372482299805,33.127090454101555,-79.78275324562047,40.4589812125858,283.02272574615483,0.0030943790916353,-0.0049497126601636,-0.7518531084060669,0.6593047976493835,0.0664097186253794,0.0196118124695071,2.8713984680526154,0.1064162626862526,0.1278844475746154,0.0924553945660591,0.1488036167062819,-0.1180009688716382,-9.498868485689163,14948.0
24.9,2.5,134.0,21.82699966430664,31.67191505432129,-79.78275291670745,40.45898100951389,283.6176106185913,0.0012420827988535,-0.0084663601592183,-0.7508941888809204,0.6603671312332153,0.0587284069025844,0.0941441259690903,2.853540008120859,0.0644137635827064,-0.0270615238696336,-0.0073563661426305,0.2347126084193588,0.0378163464646786,-9.728219672441483,14948.0
25.1,2.400000095367432,139.0,22.002286911010746,27.529041290283203,-79.78275284300781,40.458980981598174,284.20709006500243,0.0028154121246188,-0.0072095682844519,-0.7495757937431335,0.6618733406066895,0.0360779637179982,0.089103837364717,2.8572511935344505,-0.0270969606935978,0.0070855999365448,-0.0272505450993776,0.1989138893969356,0.0891744058392942,-9.700322021842004,14949.0
25.2,2.299999952316284,143.0,21.80696678161621,31.62420463562012,-79.78275278950589,40.45898095985475,284.4924599380493,0.0032896124757826,-0.0065196850337088,-0.7494149804115295,0.6620603203773499,0.0335397589984945,0.0908468602478509,2.83940785001112,0.0143126593902707,0.0305458232760429,-0.0071044466458261,0.1311448061652481,-0.0005049070715904,-9.626293932795525,14949.0
25.3,2.299999952316284,144.0,21.89335823059082,30.359872817993164,-79.78275282971437,40.45898090748868,284.79988162231444,0.0050067845731973,-0.0051861377432942,-0.7488909959793091,0.6626540422439575,0.0452445279296153,0.0749372067128939,2.832287562622514,0.1106326952576637,-0.0449073910713195,-0.0104933641850948,0.2434210494160652,-0.0450787801668047,-9.60622394979,14949.0
25.5,2.5,150.0,21.82073974609375,31.544687271118164,-79.78275273303706,40.45898082628525,285.36404769134515,0.0048255464062094,-0.0035787196829915,-0.7472180128097534,0.664551854133606,0.0339488782040628,0.0896508576686012,2.8199049254138258,-0.0887916162610054,0.0333473719656467,-0.0055261449888348,0.1672660722211003,-0.0742713423538953,-9.771001410484317,14950.0
25.6,2.5,181.0,21.80821990966797,31.85480690002441,-79.78275274366365,40.4589808146363,285.96143881988525,-0.0050685298629105,-0.0175507627427577,-0.7486178874969482,0.6627500653266907,0.0674205484781072,0.0944935009074567,2.8341873162976343,-0.1123144328594207,0.0150586832314729,0.1213064491748809,0.2190660257823764,-0.1064292285963893,-9.787654280662537,14950.0
25.8,2.700000047683716,245.0,21.848285675048828,30.924448013305664,-79.78275272484541,40.45898086815535,286.26535193634027,-0.010055367834866,-0.0216436479240655,-0.7506628632545471,0.6602543592453003,0.089759352598739,0.1142601775329386,2.859709513604745,-0.0447149500250816,-0.0392431207001209,0.0868604779243469,0.359090048186481,0.167807232029736,-9.917671798467635,14951.0
25.9,2.700000047683716,254.0,21.78693389892578,32.54661178588867,-79.78275264908747,40.458980862737214,286.5523020477295,-0.0081986747682094,-0.0177116338163614,-0.7521736025810242,0.658676028251648,0.1150795475667243,0.1251033774557603,2.8681599713558934,0.1304283589124679,-0.0025583079550415,0.0352876782417297,0.2309988590329885,0.1747143468819558,-9.84634863138199,14951.0
26.11,2.799999952316284,283.0,21.753129959106445,31.75938415527344,-79.78275248736668,40.45898085104961,287.14379374694823,0.005151271354407,-0.0052699134685099,-0.7526600360870361,0.6583681702613831,0.02198203305447,0.1285835315019954,2.9237319173263043,0.1058936789631843,0.0739772170782089,0.0060595944523811,0.2959668701514601,-0.0475862581003457,-10.287093036174772,14952.0
26.2,2.799999952316284,292.0,21.832008361816406,30.908544540405277,-79.78275236522471,40.4589808581736,287.43972079467767,0.0062485705129802,-0.0071386969648301,-0.7528647780418396,0.6581069231033325,-0.017031773580812,0.155801698248246,2.9866790768963902,-0.0286890193819999,0.0589409619569778,0.0418947860598564,0.2720265968330204,-0.0544631547247991,-10.313058182001113,14952.0
26.4,3.0,304.0,21.789438247680664,31.60034942626953,-79.78275212572356,40.45898089619881,288.0386778564453,0.0043560313060879,-0.0157524514943361,-0.7508966326713562,0.6602175831794739,0.0120957127155843,0.1883760837731253,2.9778123908042686,-0.0430523157119751,0.1076561659574508,0.0089434701949357,0.2750839597173035,0.2685304369591177,-9.863292692899703,14953.0
26.5,3.0999999046325684,308.0,21.92716407775879,28.268556594848643,-79.78275173319852,40.4589808512246,288.6238867492676,0.0036513386294245,-0.0223512481898069,-0.7473307847976685,0.6640661358833313,0.0872216552401016,0.2380164339856953,2.9435634441180625,0.0454110205173492,0.056956086307764,-0.0695741176605224,0.2901372509635985,0.2704914651811123,-9.891037731170655,14953.0
26.7,3.400000095367432,315.0,21.785682678222656,31.53673553466797,-79.78275157446852,40.45898080888804,288.9179693908692,0.0054680239409208,-0.0214075744152069,-0.746928334236145,0.6645374298095703,0.1085193181024103,0.2529661660111383,2.9255884239920804,0.0789998620748519,0.0259539932012558,0.0041460623033344,0.3398479943722486,0.5161037952080371,-9.64702699005604,14953.0
26.8,3.400000095367432,316.0,21.843276977539062,30.91649627685547,-79.78275133275237,40.458980823841344,289.21065013122563,0.0059469970874488,-0.0200613439083099,-0.7470144629478455,0.6644784808158875,0.1051516457770982,0.2626005147121871,2.9140575188493187,0.0567795559763908,0.029677739366889,0.0185085125267505,0.4365948916599155,0.3236012864112854,-9.768644397854803,14954.0
27.0,3.5,315.0,21.670494079589844,34.311904907226555,-79.78275100948365,40.45898070198467,289.796377822876,0.007130367681384,-0.0235096216201782,-0.7477459907531738,0.6635302901268005,0.1210959363961485,0.256151254631511,2.93235099698951,0.0170927308499813,0.0977852195501327,0.1220038011670112,0.3652159202098846,0.116980392197147,-9.918666994571684,14954.0
27.1,3.5,317.0,21.574085235595703,35.36949157714844,-79.78275064870067,40.45898064039209,290.3995424957276,0.0018263711826875,-0.037242766469717,-0.7490964531898499,0.6614107489585876,0.1232580713421737,0.2842542184703702,2.9662319212728807,-0.1251455247402191,-0.0881008133292198,0.0112433424219489,0.2752013242989779,0.0469681982696056,-9.92441480755806,14955.0
27.3,3.5,327.0,21.801958084106445,30.20878982543945,-79.78275052844906,40.45898064836848,290.7038351745605,-0.006373771931976,-0.0359120331704616,-0.7499168515205383,0.6605259776115417,0.1477787486426303,0.2918348465855664,2.9597633933753698,-0.0916799008846283,-0.1910053789615631,-0.0153850307688117,0.4942668201774359,0.3125022843852639,-9.862462388277056,14955.0
27.4,3.400000095367432,332.0,21.763145446777344,31.727577209472656,-79.78275030643168,40.45898064201528,291.29548709106444,-0.0044349790550768,-0.0304362010210752,-0.7506515383720398,0.6599820256233215,0.1372331905830514,0.1754323781126369,2.9269125363024324,0.1386835128068924,0.1195559501647949,0.0075396881438791,0.190926665905863,0.2122562670707702,-9.684292464852334,14956.0
27.6,3.400000095367432,340.0,21.537776947021484,37.34948348999024,-79.7827500650177,40.45898056417095,291.6101061553955,0.0051648197695612,-0.027951531112194,-0.7516679763793945,0.6589289307594299,0.120804215911888,0.182405544618831,2.9272059323158266,0.1504226773977279,0.1204187795519828,0.0605611652135849,0.1535672336630523,0.1112262112274766,-9.648318639993668,14956.0
27.7,3.400000095367432,343.0,21.6279239654541,33.95407485961914,-79.78275000007191,40.45898057728528,291.90464656066894,0.0131001621484756,-0.0273423120379448,-0.7525011897087097,0.6578927636146545,0.0638276318019119,0.1847475522252877,2.963664067927753,0.1024762317538261,0.0917183980345726,-0.0206432435661554,0.2692550348863006,0.1999220407381653,-10.079446713924408,14956.0
27.9,3.400000095367432,347.0,21.81447982788086,29.723730087280277,-79.7827498851863,40.45898055014626,292.52224986267083,0.011796542443335,-0.0203620977699756,-0.7528173327445984,0.6578088402748108,0.0291889771778388,0.190878552612172,3.0496171967602,-0.0568584538996219,-0.1534997224807739,-0.0329317860305309,0.4389490537717939,0.2764716136269271,-10.130188851356507,14957.0
28.0,3.400000095367432,347.0,21.821990966796875,30.08951187133789,-79.78274987699392,40.45898054120585,292.82831828308105,0.0071516474708914,-0.0163077712059021,-0.7523011565208435,0.6585788130760193,0.0418277200406452,0.1356287519912853,3.0567269944393667,-0.0249586477875709,-0.0998440533876419,-0.0471888855099678,0.2650952708534897,0.3266657024994493,-9.926872977018355,14957.0
28.2,3.400000095367432,350.0,21.75563240051269,30.69384765625,-79.78274994934081,40.45898053428153,293.4400870056152,0.0058373096399009,-0.0196160040795803,-0.7515356540679932,0.6593748927116394,0.0898023233578747,0.0762491754101212,3.0630887674452203,0.0427150055766105,0.1036862954497337,0.1312839537858963,0.2368606744520366,0.0590662244986742,-9.974086904525755,14958.0
28.3,3.400000095367432,351.0,21.94344139099121,26.25675773620605,-79.78274996534327,40.458980508124256,293.7521578521728,0.0028759783599525,-0.0255105942487716,-0.7513734102249146,0.6593777537345886,0.0983237299462318,0.0874111004384523,3.07447507989735,-0.0997465550899505,-0.0026275676209479,0.0833203345537185,0.3070708057656885,0.1184579379111528,-10.022345144748687,14958.0
28.51,3.5,353.0,21.915895462036133,27.21096992492676,-79.78275005902066,40.45898042369915,294.36436717224115,-0.0034885008353739,-0.0323117785155773,-0.7491341829299927,0.661620557308197,0.1976258041330122,0.0790221982304815,3.0115920438972474,0.0700116902589798,0.0732800140976905,-0.0470757968723774,0.289225889313966,0.6556822049617768,-9.44438588440418,14959.0
28.61,3.5999999046325684,355.0,21.84703254699707,29.381805419921875,-79.78275012316112,40.45898031458536,294.675844833374,0.0001522530219517,-0.0309095345437526,-0.7479725480079651,0.6630095839500427,0.2431722063762949,0.0755532036850452,2.962910157400421,0.163700670003891,0.0331460386514663,0.093629240989685,0.325208941809833,0.3683814565837383,-9.272109954357148,14959.0
28.81,3.900000095367432,359.0,21.9497013092041,26.76567077636719,-79.78275023132167,40.45898017317099,295.28218524169915,-0.0044412789866328,-0.0342877581715583,-0.7464146018028259,0.6645824909210205,0.2390972409737225,0.0672616306485272,2.9221691963018483,-0.0782978758215904,-0.0331390053033828,-0.0085395434871315,0.2077529243007302,0.6557116603106261,-9.382862066030505,14960.0
28.9,4.099999904632568,359.0,21.78818702697754,30.328065872192383,-79.78275050500756,40.458979950495774,295.85966937255864,-0.0147873293608427,-0.0396291129291057,-0.746288537979126,0.6642773747444153,0.3259701352652813,0.0008806151608138,2.8197148471908813,-0.1260499805212021,-0.1178952828049659,0.0334358438849449,0.2646226513758302,0.6450833225995303,-9.378282526731487,14960.0
29.1,4.300000190734863,0.0,21.96597671508789,26.58278083801269,-79.78275057025975,40.4589798671034,296.16723315429687,-0.0239037983119487,-0.0387935414910316,-0.7477800250053406,0.6623811721801758,0.3640386446605083,-0.0156064172445621,2.7973970495821265,-0.1643128395080566,-0.1807953715324401,-0.1806422472000122,0.2413576218299568,0.8920712466537953,-9.116649447083471,14961.0
29.2,4.5,359.0,21.962221145629886,26.87699508666992,-79.78275074699216,40.458979741846825,296.44431941223144,-0.0308942832052707,-0.0346948876976966,-0.7494660019874573,0.6604109406471252,0.3780881059477411,-0.0643166108177897,2.7045336469071946,-0.1177253574132919,-0.1246572285890579,0.0951894223690033,0.0748586631892249,0.7785135678201914,-8.92589222252369,14961.0
29.4,4.599999904632568,1.0,21.804462432861328,30.08156013488769,-79.78275096047633,40.45897941277011,297.00453440856927,-0.0339918099343776,-0.0251171085983514,-0.7517491579055786,0.6580934524536133,0.3538159383250232,-0.1127098394743148,2.5930943829198507,-0.0834913179278373,-0.0271420441567897,-0.050369769334793,0.0590323471929878,0.8042907987535001,-9.16788275063038,14962.0
29.5,4.699999809265137,2.0,21.74812126159668,31.98998641967773,-79.78275110410691,40.458979315823264,297.26409213256835,-0.0303787961602211,-0.0242274571210146,-0.7520781755447388,0.6579276323318481,0.3348002997159486,-0.1205730897096388,2.558008054374922,0.0819901376962661,0.1802251040935516,0.1242312490940094,0.0322103490144945,0.3948171936348081,-9.3820259141922,14962.0
29.7,4.800000190734863,4.0,21.70429992675781,32.34781646728516,-79.78275140305081,40.45897901404445,297.8121992797852,-0.023907272145152,-0.0301339495927095,-0.7510653138160706,0.659106433391571,0.2763920887873105,-0.060515318411149,2.558102768258498,-0.0874658375978469,0.0671712532639503,-0.0002350813738303,0.2302463589236141,0.7300886088609696,-9.597927335500716,14962.0
29.81,4.800000190734863,6.0,21.725584030151367,31.49697685241699,-79.7827516981881,40.458978776082574,298.3607241363525,-0.0224261451512575,-0.033113844692707,-0.7489768266677856,0.6613881587982178,0.2625616480412377,-0.0407087519406552,2.594304233052563,0.0225896444171667,0.0497244149446487,0.0382581055164337,0.1609974733181297,0.7071651115268469,-9.67705361187458,14963.0
30.0,4.900000095367432,12.0,21.644201278686523,34.17672348022461,-79.78275180470848,40.45897873387808,298.62119929504394,-0.0216913577169179,-0.0329996719956398,-0.747977614402771,0.6625481247901917,0.2479114586432223,-0.0328498714216175,2.590606271174676,-0.0352243408560752,0.0215714052319526,-0.0246863588690757,0.1738783046789467,0.6852365179359913,-9.777789443135262,14963.0
30.11,5.0,13.0,21.710559844970703,32.47504425048828,-79.78275199168169,40.45897849981422,298.92902438354486,-0.0210111606866121,-0.0316033810377121,-0.7475450038909912,0.6631261110305786,0.2584014910756123,-0.0394721641200176,2.6602621704264138,0.0141743412241339,-0.0349743403494358,0.0335221216082572,0.1509699370153248,0.7186007304489613,-9.864196672439576,14963.0
30.3,4.900000095367432,15.0,21.610395431518555,34.14491653442383,-79.7827522292124,40.45897847655928,299.4578882904052,-0.0201100632548332,-0.0252825990319252,-0.7486649155616759,0.662161111831665,0.2293978761342937,-0.0599594823425347,2.725376309172146,-0.0476434119045734,-0.0064410306513309,0.0251774918287992,0.0227372817881405,0.6164020720124245,-10.133198997974397,14964.0
30.51,4.800000190734863,15.0,21.67800521850586,31.52878379821777,-79.78275246385914,40.458978424826576,300.0124880523682,-0.029919134452939,-0.0224208496510982,-0.7508054971694946,0.6594644784927368,0.2166663639499916,-0.0813407293352829,2.791684972244581,-0.0671490281820297,-0.1144642904400825,0.0424136593937873,0.083995682252571,0.5293669613823295,-10.06073913216591,14965.0
30.6,4.699999809265137,17.0,21.659225463867188,32.47504425048828,-79.78275283179725,40.458978365625306,300.2499624938965,-0.0337839499115943,-0.0226815026253461,-0.7507625818252563,0.6593176126480103,0.2364867103814886,-0.1095084319855932,2.7599379501079584,-0.0294337142258882,-0.0438362322747707,0.0533706210553646,0.0212534000677988,0.5306003218889237,-9.89382568359375,14965.0
30.7,4.699999809265137,15.0,21.54654121398925,34.50274658203125,-79.78275304746481,40.458978415806726,300.7809874267578,-0.0326942056417465,-0.0249032340943813,-0.7503105401992798,0.6598069071769714,0.2112980119944342,-0.1018500651885986,2.7391385344459867,0.0509060844779014,0.0295189376920461,-0.1075487211346626,-0.0102691268082708,0.3904664997383953,-9.7703623098135,14965.0
30.91,4.599999904632568,17.0,21.620410919189453,33.071426391601555,-79.78275311839431,40.458978450269406,301.0570894927978,-0.0318294316530227,-0.0253240205347538,-0.7498236894607544,0.6603862643241882,0.1783002000505106,-0.0728869741347149,2.766815938992129,-0.0103398244827985,-0.0199488643556833,-0.0229119975119829,0.1698630399629473,0.6783402387052775,-10.026824111938476,14966.0
31.01,4.599999904632568,18.0,21.471418380737305,37.381290435791016,-79.78275316348463,40.45897850610515,301.33501116943364,-0.0327700637280941,-0.023778585717082,-0.7490444183349609,0.6612815260887146,0.1538037935470783,-0.0482394435388204,2.782655764694026,-0.0270542912185192,-0.0990592092275619,0.0040926146320998,0.0822808309458196,0.5675059736520052,-9.956359316110614,14966.0
31.2,4.699999809265137,20.0,21.456392288208008,35.09117889404297,-79.78275328330406,40.45897877728172,301.8657232971192,-0.0316231474280357,-0.0170008745044469,-0.7479170560836792,0.66282057762146,0.1187189686254693,-0.0579828304746867,2.842206790395987,0.0264357049018144,-0.0003790624323301,-0.0576818287372589,0.0238843501824885,0.7325315755605698,-10.376211619377136,14966.0
31.3,4.699999809265137,20.0,21.57158088684082,33.993831634521484,-79.78275329655534,40.45897913903799,302.4058348388672,-0.0305428635329008,-0.0163112413138151,-0.7484077215194702,0.6623345613479614,0.0646436341809945,-0.0499194980633383,2.900720419786252,-0.0547842308878898,0.0238182991743087,-0.0506770871579647,0.007247827083338,0.6585518722236157,-10.459696995019913,14967.0
31.51,4.800000190734863,21.0,21.56156539916992,33.874557495117195,-79.78275325985767,40.45897924869391,302.69755999755864,-0.0301876850426197,-0.0150663442909717,-0.7488930821418762,0.6618314981460571,0.0713352104222539,-0.0172459677309788,2.9361594168694767,0.0356282107532024,-0.0837287679314613,0.1432346850633621,0.0307545270770788,0.3948168281838298,-10.20641198515892,14967.0
31.6,4.800000190734863,21.0,21.576589584350582,33.63600540161133,-79.78275324878483,40.45897950802507,302.9567686767578,-0.0303801074624061,-0.013228221796453,-0.7493813037872314,0.6613091230392456,0.0519220303785023,-0.0121720727982501,2.9228746298493897,0.092311643064022,-0.0382858552038669,-0.1035674065351486,0.150672907596454,0.7353951032459736,-10.205025025606156,14967.0
31.8,4.800000190734863,21.0,21.66924095153809,31.75938415527344,-79.78275298944014,40.4589799615795,303.5191008300781,-0.0252103172242641,-0.0130907595157623,-0.7502195239067078,0.6605784893035889,0.0359196627103114,0.0027435847709583,2.94689010483137,0.110120914876461,0.1168221831321716,-0.0255996491760015,-0.0469882158469408,0.6137526255100966,-10.016870981454849,14968.0
31.9,4.800000190734863,21.0,21.590362548828125,33.381546020507805,-79.78275288806861,40.45898008484572,303.8139921875,-0.0194414444267749,-0.0149186346679925,-0.7506349086761475,0.6602627038955688,0.0314997848989225,0.032200524153384,2.9577458932948986,0.1335183829069137,0.1864348500967025,0.1239261552691459,-0.1158090761303901,0.4942224909737706,-9.87362121462822,14968.0
32.11,4.800000190734863,21.0,21.616655349731445,32.48299789428711,-79.78275265716809,40.45898047557783,304.37981097412114,-0.0143751092255115,-0.018005246296525,-0.7511056661605835,0.6597799062728882,0.022699592140404,0.0985624044351748,2.9590412272601863,0.0936408564448356,0.0365317352116108,-0.0375146530568599,0.2227693415433168,0.6668091639876366,-10.113020256757736,14969.0
32.2,4.900000095367432,21.0,21.67800521850586,30.598426818847656,-79.78275260827185,40.4589808457093,304.9591643066406,-0.0162064675241708,-0.0196703821420669,-0.7498853206634521,0.6610767245292664,0.0225208855062417,0.0937031887378314,2.9806529794862424,-0.0902668759226799,-0.0087549891322851,-0.023379161953926,0.0389104061946272,0.4926574471592903,-10.12019128203392,14969.0
32.41,5.0,23.0,21.6917781829834,31.576494216918945,-79.78275250904079,40.45898093662018,305.25610415649413,-0.0186099428683519,-0.0234658420085906,-0.7490545511245728,0.6618310809135437,0.0390500116963355,0.0903623749722844,2.9541926002364542,-0.188950017094612,-0.0037121099885553,-0.1016185730695724,-0.08818887591362,0.7954881079494953,-9.55873344898224,14970.0
32.5,5.0,24.0,21.664234161376957,30.93239974975586,-79.78275242205125,40.45898101484293,305.54946963500976,-0.0193140413612127,-0.0265707578510046,-0.7482574582099915,0.662594735622406,0.0785680277127805,0.0913485401107558,2.9199386560454648,-0.058737363666296,0.0297659263014793,-0.0091960253193974,0.0499622010905295,0.8407923348248005,-9.600766743421556,14970.0
32.71,5.099999904632568,24.0,21.64795684814453,31.63215637207031,-79.7827522538443,40.458981283704425,306.1350485534668,-0.0175754576921463,-0.0236853249371051,-0.7474600672721863,0.6636517643928528,0.1086570992632773,0.09558706411673,2.906100593790518,0.0139615824446082,0.0297177340835332,0.0033967136405408,0.0143694228306412,0.6977143299579621,-9.616657721400262,14971.0
32.8,5.099999904632568,23.0,21.7744140625,28.42759132385254,-79.78275204942949,40.45898141401841,306.7288634033203,-0.0199769753962755,-0.0216522198170423,-0.7475178241729736,0.6635881662368774,0.1251599661167544,0.0729656198094283,2.9050470192470894,0.0452396981418132,0.0278533529490232,0.0694921314716339,-0.0096335047739557,0.6170341560244561,-9.65658718764782,14971.0
33.0,5.199999809265137,21.0,21.842023849487305,26.98832130432129,-79.78275199104502,40.45898144510161,307.01758258056634,-0.0200117323547601,-0.0234055425971746,-0.7478790283203125,0.6631203889846802,0.1272026729724298,0.0612895048973094,2.8626783591529943,-0.1177349314093589,0.0123680904507637,-0.1379392892122268,-0.0222669737879186,0.7169424600899219,-9.455197970867156,14972.0
33.1,5.199999809265137,21.0,21.71556663513184,30.8608341217041,-79.78275183466562,40.458981588914256,307.31884448242187,-0.0208723582327365,-0.0271863527595996,-0.7483118772506714,0.6624610424041748,0.1459355190671583,0.0768565131595328,2.8187910750059104,-0.0636923983693122,0.057940274477005,-0.0454196855425834,-0.0473961230926215,0.7669084527343512,-9.106768822073937,14972.0
33.3,5.199999809265137,21.0,21.58785820007324,32.252395629882805,-79.78275173115429,40.45898165226153,307.89551608276366,-0.0224596615880727,-0.0307322274893522,-0.7490584254264832,0.6614095568656921,0.1863371824533582,0.0912818006740106,2.7781812305428666,-0.0566966608166694,-0.0472654849290847,0.0875979661941528,0.1324624853488057,0.939332317337394,-9.562610152959826,14972.0
33.4,5.199999809265137,21.0,21.785682678222656,27.990243911743164,-79.78275168111118,40.45898165467325,308.1749960632324,-0.022028163075447,-0.0292520839720964,-0.7493752837181091,0.6611322164535522,0.1988278724999903,0.0817305712480871,2.7970373477590376,0.0226493496447801,0.0480721741914749,-0.101937785744667,0.1872072337567806,0.8874647370725871,-9.92057435631752,14973.0
33.61,5.199999809265137,21.0,21.646705627441406,31.62420463562012,-79.78275154141728,40.45898151807853,308.77494494628905,-0.0230622384697198,-0.0258287023752927,-0.7488669157028198,0.6618152856826782,0.2052084932311853,0.0792891938897418,2.8288812240652828,-0.0116399368271231,-0.0643228217959404,-0.0321163423359394,0.0535195557307452,0.7127817276120186,-9.704612708687783,14973.0
33.71,5.199999809265137,21.0,21.53151512145996,35.38539505004883,-79.7827514958217,40.45898148985254,309.3595511169433,-0.0228284485638141,-0.0237656719982624,-0.7480472326278687,0.6628268957138062,0.2033336822333439,0.0427361469577893,2.8877542445014983,-0.0441887192428112,-0.0473383404314518,0.0962947458028793,0.0646748600481078,0.7863658668100835,-9.766583254337313,14974.0
33.9,5.099999904632568,21.0,21.709306716918945,30.21674156188965,-79.78275145969533,40.458981472289466,309.6510817260741,-0.0231187399476766,-0.0244084540754556,-0.7476316690444946,0.663262128829956,0.204331691761688,0.0513359431459446,2.9246653743998867,-0.0367516502737998,-0.0239941291511058,-0.1146339476108551,0.1887192140892148,0.7536482101678849,-10.077722954750062,14974.0
34.0,5.099999904632568,21.0,21.580345153808597,32.97600555419922,-79.78275142090634,40.4589814528461,309.94510333251947,-0.0228335615247488,-0.0234887469559907,-0.7473579645156859,0.6636136174201965,0.2145441047385267,0.0503755675747417,2.936561216379624,0.0690334662795066,0.0152558088302612,0.0089369937777519,-0.0597969071846455,0.5735829117894173,-9.883724033832552,14974.0
34.21,5.0,19.0,21.550296783447266,33.30202865600586,-79.7827514124568,40.45898146564213,310.53859774780267,-0.0219841618090868,-0.0245622638612985,-0.7473101019859314,0.6636573076248169,0.2151314692990772,0.0412941374243314,2.9483901610536103,0.1255122274160385,0.0672153607010841,0.0866161063313484,0.0553619174519553,0.5545361184328794,-9.837746207714082,14975.0
34.3,4.900000095367432,20.0,21.629175186157227,31.830951690673828,-79.78275134708655,40.45898143752834,311.1323973388672,-0.0189335085451602,-0.02373400144279,-0.7471925616264343,0.6639137864112854,0.2233984279019836,0.0589777095286309,2.9943581229698144,0.0536544173955917,0.04954344779253,0.181293487548828,0.1339180217776447,0.6194886709749698,-9.991006407737732,14976.0
34.5,4.900000095367432,20.0,21.55280113220215,33.246368408203125,-79.78275131215482,40.45898140811986,311.43445269775384,-0.0170426461845636,-0.0226854626089334,-0.7470315098762512,0.6641828417778015,0.2182799229825664,0.0648577189964216,3.039439799175437,0.0790625512599945,-0.0019251798512414,-0.0662939250469207,0.077966609057039,0.5628497992828488,-10.200285272598268,14976.0
34.6,4.900000095367432,20.0,21.580345153808597,32.53070831298828,-79.78275133978805,40.45898138825298,311.7269751281738,-0.0167567394673824,-0.0219252929091453,-0.7470319271087646,0.6642151474952698,0.2168794760970315,0.065596992603915,3.073138335902556,0.07053854316473,-0.0078213270753622,0.0274764783680439,0.1187123009283095,0.5580758766084909,-10.325421534776687,14976.0
34.8,4.900000095367432,19.0,21.597875595092773,31.99793815612793,-79.78275130682395,40.458981366698495,312.33308856201165,-0.0203794054687023,-0.022419074550271,-0.7460631728172302,0.6651855707168579,0.2321281229161936,0.0640083578149186,3.129719984201122,0.0464660972356796,0.0459081530570983,-0.1013338789343834,0.0812813773378729,0.8856442795693875,-10.260712738037109,14977.0
34.9,4.900000095367432,17.0,21.789438247680664,28.1015682220459,-79.78275126629853,40.45898131299105,312.64859072875976,-0.0201660953462123,-0.022888857871294,-0.7456790208816528,0.665606677532196,0.2567637855650454,0.0615713116233609,3.159358454168692,0.0654226094484329,0.0978436022996902,0.0079765738919377,0.1747945450991392,0.8532843263447285,-10.178528952598572,14977.0
35.1,4.900000095367432,16.0,21.629175186157227,32.196731567382805,-79.78275126381088,40.45898122496368,313.2608877868652,-0.0216297581791877,-0.0300742574036121,-0.7458147406578064,0.6651226878166199,0.2543447720692423,0.0744266924504347,3.1019975253414738,-0.2821228206157684,0.0245325826108455,-0.0692184343934059,0.0835084264632314,0.8897589652240276,-9.510785111188891,14978.0
35.2,4.900000095367432,15.0,21.649208068847656,31.13914680480957,-79.78275123059731,40.45898115852408,313.57051150512694,-0.0237679425626993,-0.0338069647550582,-0.7463903427124023,0.6642240881919861,0.2836350536921565,0.0882703375243889,3.0698039022746766,-0.1456367820501327,-0.0349054299294948,0.0773386061191558,0.1561683492735028,0.7242582039535046,-9.577084350585938,14978.0
35.4,4.800000190734863,14.0,21.67424964904785,30.272403717041016,-79.7827511668595,40.45898104379891,314.19040744018554,-0.0221946630626916,-0.0327752865850925,-0.7473408579826355,0.6632607579231262,0.3118184410312693,0.0931389390757091,3.0397536042385607,0.1093918532133102,0.0747375711798667,0.1058978661894798,0.2288758446648717,0.5590578799322248,-9.49397670507431,14979.0
35.5,4.800000190734863,14.0,21.65546989440918,31.194808959960927,-79.78275113793536,40.45898099101685,314.49409548950194,-0.0192252118140459,-0.0317327827215194,-0.7474327087402344,0.663300633430481,0.285940920003099,0.0885743559983171,3.006380597430352,0.0367397405207157,0.0431535579264164,-0.1485150158405304,0.2371631034091115,0.6019617151468992,-9.491304527521132,14979.0
35.7,4.800000190734863,12.0,21.69303131103516,28.69795227050781,-79.78275112151198,40.45898095672647,315.1083151550293,-0.0164300389587879,-0.0306591279804706,-0.7471123933792114,0.6637870669364929,0.2402854218673765,0.0848831584503255,2.995721900086552,0.0624636337161064,0.0299429520964622,0.0019380231387913,0.2008108357898891,0.6930869896709919,-9.672421447634695,14980.0
35.8,4.800000190734863,12.0,21.58284950256348,32.79311752319336,-79.78275115670723,40.4589808776218,315.426842376709,-0.017698660492897,-0.0309625547379255,-0.7467657327651978,0.6641303300857544,0.2456016955380898,0.0946628391381245,3.0178351924331035,0.0260087493807077,0.0903482437133789,-0.0423631444573402,0.2467083906009793,0.6364230845868588,-9.633375495672228,14980.0
36.0,4.699999809265137,12.0,21.61164665222168,31.84685516357422,-79.7827511209695,40.45898081074687,316.0315977783203,-0.0213805921375751,-0.0326987840235233,-0.7457484006881714,0.665081262588501,0.2482470308206139,0.0803694391861485,3.0237159185170976,-0.0213355049490928,-0.0375869274139404,-0.1569332331418991,0.1930126235447824,0.6141602495312691,-9.849517822265623,14981.0
36.1,4.699999809265137,12.0,21.58660697937012,30.90059280395508,-79.78275104978349,40.45898085920044,316.66122119140624,-0.0229683890938758,-0.0318687371909618,-0.7458022832870483,0.6650081872940063,0.2443894641175868,0.0724989634543165,3.0680255937809253,-0.0704501941800117,0.0098874019458889,-0.1535617113113403,0.0935350125934928,0.7128613228350879,-9.863673931360244,14981.0
36.3,4.699999809265137,11.0,21.411319732666016,34.08925628662109,-79.78275110659527,40.45898082436791,316.97969119262694,-0.0223678816109895,-0.0309684854000806,-0.7459990978240967,0.6648504137992859,0.2498653677760725,0.0648994536113924,3.0848015299998703,-0.0619364343583583,-0.0908261984586715,-0.0347115248441696,0.1088801986724138,0.7021158946305514,-9.927117390632633,14981.0
36.4,4.599999904632568,11.0,21.55906105041504,31.80709648132324,-79.78275109836986,40.45898081239207,317.2914854736328,-0.020832696929574,-0.0312796235084533,-0.7462285757064819,0.6646281480789185,0.2381207343687593,0.0608557830593613,3.1339353671433394,0.0011040830286219,0.0124457441270351,-0.0230329167097806,0.1866099041327834,0.7080962806195021,-10.226370871067047,14982.0
36.6,4.5,10.0,21.652965545654297,30.67794418334961,-79.78275111769057,40.458980837875686,317.9273649902344,-0.0186588522046804,-0.0291076693683862,-0.7460012435913086,0.6650465130805969,0.2209500516001561,0.0696017139727735,3.1908748752166938,-0.0382710732519626,-0.0163054503500461,-0.2218610793352127,0.2457359620928765,0.8426163006573916,-10.122952337265016,14982.0
36.71,4.5,9.0,21.560312271118164,32.300106048583984,-79.78275111346649,40.45898083772487,318.2476965637207,-0.0195499211549758,-0.0285809747874736,-0.7459101676940918,0.6651458740234375,0.199232344310555,0.0627946255942713,3.1957584588864023,-0.0805580988526344,-0.0627104938030242,-0.0830894038081169,0.1764601610228419,0.7867028126120568,-9.852097613811493,14983.0
36.9,4.5,9.0,21.542783737182614,32.14902114868164,-79.78275118254291,40.45898088457349,318.8891417236328,-0.0230295676738023,-0.0304462853819131,-0.7459689378738403,0.6648857593536377,0.2062226446741065,0.0507090287051247,3.2303211024022223,-0.0416494645178318,0.0198998935520648,-0.2002064734697342,0.1561750552989542,0.7694972343742847,-10.071731897592548,14983.0
37.0,4.5,9.0,21.649208068847656,30.868785858154297,-79.7827512516917,40.4589809558671,319.5388762207031,-0.0227776523679494,-0.0278534293174743,-0.7468242645263672,0.6640474200248718,0.2085929555782596,0.0420824710610961,3.2660772312788366,0.0283196046948432,0.0138601185753941,0.0750999003648758,0.1652005432918668,0.5460692770779133,-10.110411229133607,14984.0
37.21,4.5,10.0,21.490198135375977,33.755279541015625,-79.78275124626316,40.45898099750639,319.8666426391601,-0.0218622051179409,-0.0267905071377754,-0.7471882700920105,0.6637122631072998,0.1777374149434046,0.0370530951097774,3.2775308795098583,0.0114375380799174,-0.0433993823826313,-0.0762974768877029,0.0247377969883382,0.5515890486538411,-9.933785555362702,14984.0
37.3,4.5,10.0,21.65546989440918,30.924448013305664,-79.78275128817013,40.45898109179247,320.19454638671874,-0.0219467859715223,-0.0276019871234893,-0.7473461031913757,0.6634985208511353,0.1528878788360864,0.0342435232259935,3.2758194644623084,-0.0670408234000206,0.0556230172514915,-0.1053907051682472,0.1809577844850719,0.7186954553425312,-9.92642741918564,14985.0
37.5,4.400000095367432,9.0,21.516490936279297,33.26227188110352,-79.78275125379425,40.4589812397624,320.8494307250976,-0.0215736366808414,-0.0275407265871763,-0.7468127012252808,0.6641136407852173,0.1322911369011891,0.0529211652246767,3.26992152349435,0.0179891381412744,0.0118037275969982,-0.1561168432235717,0.205275349393487,0.6030145794153213,-9.767057463526728,14985.0
37.61,4.400000095367432,9.0,21.422588348388672,34.45503616333008,-79.78275135010686,40.45898139908497,321.1834112854004,-0.0192679464817047,-0.0267567578703165,-0.7463982701301575,0.6646822094917297,0.114691437763848,0.0345836930842126,3.27138268966896,0.0726051032543182,0.0510083884000778,0.030476227402687,0.1791754800640046,0.5322801538556814,-9.831349353790284,14986.0
37.8,4.300000190734863,7.0,21.58159828186035,31.60830116271973,-79.78275138417213,40.45898169216545,321.8516318054198,-0.0123313032090663,-0.0258015245199203,-0.7460970878601074,0.6652228236198425,0.0755352552223848,0.0611193667427622,3.362316887158585,0.0712837874889373,-0.0155199579894542,0.005478496197611,0.3071278892084956,0.6386412989348174,-10.261598006486896,14986.0
37.9,4.300000190734863,9.0,21.501466751098643,32.761306762695305,-79.78275135948964,40.45898191038014,322.530358001709,-0.0071174944750964,-0.0223390311002731,-0.7462037801742554,0.6653046607971191,0.0374960166525137,0.0811935016530107,3.4070139656651293,-0.0286225974559783,-0.0110704880207777,-0.0182636994868516,0.2241591881588101,0.5932172406837345,-10.106920441389084,14987.0
38.1,4.199999809265137,9.0,21.537776947021484,32.72949981689453,-79.7827514138243,40.458982135545966,322.8663260192871,-0.0076213758438825,-0.0209035649895668,-0.7466077208518982,0.6648924350738525,0.0161818916121811,0.0716630223216359,3.374385838266861,-0.0201668795198202,-0.0429666265845298,0.0109683778136968,0.266926600523293,0.3927771000936627,-9.824981735944748,14987.0
38.2,4.199999809265137,8.0,21.49896240234375,33.11913681030273,-79.78275141127902,40.45898224122712,323.20393817138665,-0.0094283185899257,-0.0222223401069641,-0.7473425865173341,0.6640002727508545,0.013623761895196,0.0601377692403476,3.3793473716865936,-0.0724278315901756,-0.0138921122997999,0.0174437444657087,0.2916203789412975,0.4390514896810055,-9.856791758537293,14988.0
38.4,4.099999904632568,6.0,21.550296783447266,32.42733383178711,-79.78275146609295,40.45898254715247,323.89255587768554,-0.0134869934991002,-0.0235963705927133,-0.7481376528739929,0.6629866361618042,0.0437017655401283,0.0638937780761625,3.385073904419176,0.0241084583103656,-0.0311371497809886,-0.023922050371766,0.216814884301275,0.4848412912711501,-9.732642506361008,14988.0
38.51,4.0,6.0,21.54403686523437,32.29215240478516,-79.78275148468845,40.45898285336608,324.5818945617676,-0.0097231063991785,-0.0213665775954723,-0.7474578022956848,0.6638944745063782,0.0252221666009438,0.053754148150242,3.377799472348582,0.0002051319752354,0.0068769962526857,-0.0270937848836183,0.2688014736771583,0.6011297294497491,-9.703445604443552,14989.0
38.71,4.0,5.0,21.401302337646484,34.669734954833984,-79.78275146829458,40.45898297062425,324.9197508544922,-0.0073311133310198,-0.0219927318394184,-0.7469701170921326,0.6644533276557922,0.0053077845462638,0.0644673005370729,3.383926716497612,-0.0313098281621933,0.0170089956372976,-0.0242697577923536,0.2275642593763769,0.5372043134272099,-9.827416516542437,14989.0
38.8,3.900000095367432,4.0,21.536523818969727,32.554561614990234,-79.7827515652846,40.45898317207243,325.2786108703613,-0.0078685982152819,-0.0236411821097135,-0.7468205690383911,0.6645586490631104,0.0011016504902384,0.0786881856069924,3.426969685244477,-0.0890805944800376,-0.0119101190939545,-0.1013820618391037,0.3168218053132296,0.3220173853263259,-9.978294560909273,14990.0
39.0,3.900000095367432,4.0,21.576589584350582,31.870710372924805,-79.78275152950118,40.45898341447175,325.96564547729486,-0.0104793524369597,-0.0218125041574239,-0.7467566132545471,0.6646570563316345,0.0273136410611924,0.0839649674678595,3.4373551832935094,0.0208781640976667,-0.0337233766913414,-0.0299481768161058,0.3436307043582201,0.5060523949563503,-9.80569352567196,14990.0
39.11,3.900000095367432,2.0,21.48644256591797,33.278175354003906,-79.78275156178715,40.45898359323609,326.32312075805663,-0.0079976366832852,-0.0183589793741703,-0.7470712065696716,0.6644423604011536,0.0188453799193088,0.0751207114511949,3.432276972080428,0.0400312766432762,-0.0192544814199209,0.038499929010868,0.2388748027011752,0.5112722409144044,-9.747116703987125,14991.0
39.3,3.900000095367432,2.0,21.473920822143555,33.127090454101555,-79.7827515339958,40.45898386416414,327.0312010498047,-0.002171971835196,-0.0185832232236862,-0.7477073073387146,0.6637648940086365,-0.0144943593303755,0.0836920999078075,3.447390656372001,0.0113917235285043,-0.0291573032736778,-0.0008579834247939,0.2410196527652442,0.2110832059755921,-9.71950849056244,14992.0
39.4,3.900000095367432,2.0,21.617908477783203,29.93842887878418,-79.78275150338933,40.45898396821807,327.37548510742187,-0.0022905699443072,-0.0201309565454721,-0.7480589747428894,0.6633229851722717,-0.0195767867143443,0.1063743217691709,3.4350579888690542,-0.020481426268816,-0.0680503323674202,-0.0039609298110008,0.3230598342418671,0.2626124882698059,-9.652048578858375,14992.0
39.6,3.799999952316284,2.0,21.656721115112305,30.0736083984375,-79.78275146025119,40.458984300548416,328.0814825744629,-0.0062273987568914,-0.0185934919863939,-0.7487477660179138,0.6625649929046631,-0.0176694268289052,0.0978830220993782,3.3680364714651803,-0.0059090876020491,-0.0132222846150398,0.0088740391656756,0.3442524095624685,0.501424031406641,-9.26323446571827,14993.0
39.71,3.799999952316284,2.0,21.644201278686523,29.69192314147949,-79.78275142072013,40.458984408444266,328.4151083679198,-0.0076893377117812,-0.0163961444050073,-0.7493564486503601,0.6619191765785217,-0.0150024011933641,0.0863805307951179,3.3052850052427685,-0.016238298267126,-0.0249071344733238,0.0238911155611276,0.2123811051249504,0.4061657255887985,-9.178000772595404,14993.0
39.9,3.900000095367432,3.0,21.435108184814453,34.081302642822266,-79.78275134866277,40.45898460038653,329.09835498046874,-0.0057178144343197,-0.0186114218086004,-0.7500071525573729,0.6611430644989014,-0.0101700509613543,0.0636401875875169,3.238018135527588,0.0522987656295299,0.1269764006137848,0.1020101383328437,0.1082001583557576,0.2158166001364589,-9.323112877607349,14994.0
40.0,3.900000095367432,3.0,21.52901268005371,32.47504425048828,-79.78275130299902,40.458984711948254,329.42102496337884,-0.0028226210270076,-0.020450908690691,-0.7506966590881348,0.6603244543075562,-0.0190947632853829,0.0880827479875085,3.22481639546533,0.0594834834337234,0.0974524617195129,-0.0138636734336614,0.3411710000038147,0.4175697695463896,-9.612758213281632,14994.0
40.2,3.900000095367432,5.0,21.64795684814453,30.45529365539551,-79.78275132666819,40.45898499805907,330.0985838623047,-0.0003149640397168,-0.0183872170746326,-0.7511394023895264,0.6598875522613525,-0.0391666230208956,0.1094745553690701,3.2562137906906266,-0.041532140225172,-0.0245839040726423,-0.0612587891519069,0.2035593925975263,0.3555029641091824,-9.741823804378509,14995.0
40.3,3.900000095367432,5.0,21.5352725982666,32.673839569091804,-79.7827511979115,40.45898520783629,330.79282061767583,-0.0015358773525804,-0.0135221751406788,-0.7509399056434631,0.6602303385734558,-0.0337406448495081,0.086223344441325,3.2646942425546173,-0.0880783423781395,-0.0319768562912941,-0.0321764200925827,0.1598868860676884,0.3052537835016847,-9.56595066726208,14995.0
40.5,3.900000095367432,7.0,21.564069747924805,30.924448013305664,-79.78275117010891,40.45898529248577,331.1187178344726,-0.0017337049357593,-0.0148005355149507,-0.7505462169647217,0.6606500148773193,-0.0326964970037081,0.0701317803395855,3.2510696357212363,-0.1012444719672203,0.0448037721216678,-0.1112556830048561,0.1888002711161971,0.4298306133225561,-9.626000987291336,14996.0
40.6,3.900000095367432,6.0,21.54403686523437,32.60227203369141,-79.7827511541142,40.4589854838906,331.4743429870605,-0.0024569015949964,-0.0166329946368932,-0.7500337958335876,0.6611858010292053,-0.0134239304347996,0.0832812084266487,3.2587707957254435,-0.0551778934895992,-0.0056174946948885,-0.0930691137909889,0.2773047870397568,0.4230467833578586,-9.524224351644516,14996.0
40.8,3.900000095367432,6.0,21.622915267944336,30.002042770385746,-79.7827510963699,40.45898570568312,332.1371428222656,-0.0066176489926874,-0.0158239677548408,-0.7493247389793396,0.6619806289672852,0.0109471818469169,0.0807320810160923,3.231070825742734,-0.0525072142481803,-0.047960840165615,-0.0212338082492351,0.2180427447706461,0.3802586499229073,-9.611201099753384,14997.0
40.9,3.900000095367432,4.0,21.58785820007324,30.80517196655273,-79.78275105564563,40.45898576930293,332.45936267089843,-0.0079373531043529,-0.0158918444067239,-0.7490845918655396,0.6622362732887268,0.0211456012393104,0.0742690540964236,3.208752515462128,-0.083184115588665,-0.0222770236432552,-0.0710531026124954,0.190183612704277,0.3377639736235142,-9.5719803160429,14997.0
41.1,3.799999952316284,4.0,21.49270248413086,33.27022171020508,-79.78275102470958,40.4589859529296,333.11435382080083,-0.0056871129199862,-0.0188543386757373,-0.7476165890693665,0.6638386249542236,0.0357289493835429,0.0894749481738279,3.197753337604506,-0.0279716290533542,0.0691925510764122,0.0177303571254014,0.1651855598017573,0.3219987473264337,-9.740621032118796,14998.0
41.2,3.799999952316284,4.0,21.456392288208008,33.127090454101555,-79.78275091114719,40.45898611171514,333.7656943054198,0.0002715993032325,-0.0207430534064769,-0.7455641627311707,0.6661109924316406,0.0469400145907204,0.1337345875366448,3.272578715942556,0.0763742849230766,0.038503173738718,0.055918239057064,0.186937658842653,0.2665915916115046,-10.07902220606804,14998.0
41.4,3.700000047683716,4.0,21.49270248413086,32.47504425048828,-79.78275085522999,40.45898615852405,334.09508959960937,0.0028436256106942,-0.019596355035901,-0.7452086210250854,0.666537344455719,0.0387113536313212,0.1418608433354469,3.3095545560830124,0.1062092334032058,-0.0072525250725448,0.0418498367071151,0.3189043642580509,0.3593712627142668,-10.179676176309586,14999.0
41.5,3.5999999046325684,4.0,21.524003982543945,31.22661590576172,-79.78275080998297,40.45898619486583,334.4278837890625,0.0053831078112125,-0.0170015413314104,-0.7449589967727661,0.6668719649314879,0.0384671837692733,0.1439485500319344,3.3363026063713166,0.0427716374397277,-0.0687562152743339,-0.0594077929854393,0.2285745486058295,0.341630481518805,-10.065069580078122,14999.0
41.7,3.5999999046325684,4.0,21.562816619873047,30.48710060119629,-79.78275080673639,40.45898642365432,335.0700194091797,0.0041807414963841,-0.0142664378508925,-0.7449878454208374,0.6669124960899353,0.0392154213330674,0.1195146740782094,3.312335427535192,0.0245103538036346,-0.1001948565244674,0.0931154116988182,0.2765450875461102,0.1874410127475858,-9.801730867624284,15000.0
41.81,3.5999999046325684,4.0,21.68927383422852,28.037954330444336,-79.7827508945348,40.45898650814888,335.38965289306634,0.0013944881502538,-0.0139825418591499,-0.7454143762588501,0.6664533019065857,0.0478221958031455,0.0944809036350297,3.2806532005149687,-0.0234907232224941,-0.0334453880786895,0.104276418685913,0.1815287650935352,0.1348547731339931,-9.690794568657877,15000.0
42.0,3.5999999046325684,3.0,21.619159698486328,29.81915283203125,-79.78275090171522,40.458986486798295,336.0381590576172,-0.0046722753904759,-0.0184694416821002,-0.7471425533294678,0.6643908023834229,0.1066595222493871,0.0641352952080271,3.1896504105676167,-0.0373421087861061,-0.0173546411097049,-0.0790430903434753,0.2226003570109606,0.3396866477653384,-9.314350824952124,15001.0
42.11,3.5,2.0,21.53026390075684,31.902517318725582,-79.78275095849115,40.45898648919779,336.66604296875,-0.0050119035877287,-0.0192166715860366,-0.7490869164466858,0.6621739864349365,0.1418384809310388,0.0589996584437905,3.090668916200641,0.0672099292278289,0.0531134642660617,-0.02051967009902,0.194268203470856,0.6029822735488415,-9.213912616968155,15001.0
42.3,3.5,3.0,21.54654121398925,31.60034942626953,-79.78275095816086,40.45898648657568,336.98751513671874,-0.0056377667933702,-0.0177702419459819,-0.7495700120925903,0.6616625785827637,0.1471593024364371,0.0684216854989799,3.089490231180458,0.1088733598589897,0.0263250712305307,-0.0029005056712776,0.2189059582538902,0.3149203638732433,-9.461995359063147,15001.0
42.4,3.5,3.0,21.66548538208008,28.42759132385254,-79.78275096156626,40.45898644972007,337.2953535766601,-0.0053920056670904,-0.0157430451363325,-0.7500129938125609,0.6612138152122498,0.1454477801591061,0.0656871810500256,3.0641874316730298,0.0870709717273712,-0.0254304520785808,-0.0116534298285841,0.236090139336884,0.235578142516315,-9.548124260902403,15002.0
42.6,3.400000095367432,4.0,21.511484146118164,31.60034942626953,-79.78275085312323,40.458986343575695,337.9246336669922,-0.0038535690400749,-0.0137184336781501,-0.7502288222312927,0.6610247492790222,0.148955794960415,0.0722444127320228,3.058837869723164,-0.0247637815773487,-0.0276626423001289,-0.0633802041411399,0.2199961898848414,0.43962901186198,-9.6228048992157,15002.0
42.7,3.400000095367432,5.0,21.666736602783203,28.181087493896484,-79.78275089930487,40.45898623630021,338.542881652832,-0.0042072185315191,-0.0189118236303329,-0.7495564222335815,0.6616568565368652,0.1697224502783554,0.0904092249923296,3.0454486593116084,-0.0032219788990914,0.0392755754292011,0.025297999382019,0.2492124972492457,0.4019021552056074,-9.715993729233745,15003.0
42.9,3.400000095367432,5.0,21.602882385253903,28.92855262756348,-79.78275088075435,40.45898615374024,338.8455244750976,-0.0051892381161451,-0.0219851434230804,-0.749146580696106,0.6620190143585205,0.1909428662687078,0.0920714363925991,2.992999668057436,0.031327698379755,0.1003701239824295,0.1412916481494903,0.2248736996389925,0.2064508224651216,-9.369522228240967,15003.0
43.0,3.400000095367432,4.0,21.596622467041016,30.21674156188965,-79.78275086427406,40.458986069383286,339.1433684082031,-0.0049323146231472,-0.0244612917304039,-0.7489174008369446,0.6621934175491333,0.190606937801504,0.1022758312258109,2.9513951160806986,-0.1051272824406623,-0.0487324260175228,-0.033510897308588,0.3141526244580745,0.3816186391934753,-9.381343544125556,15004.0
43.2,3.299999952316284,3.0,21.56907844543457,31.377700805664062,-79.78275082605569,40.45898599158621,339.74129168701165,-0.0056091248989105,-0.023984394967556,-0.7484925985336304,0.6626855134963989,0.2170539872435524,0.1158874438240616,2.9145581366876194,0.124278225004673,0.0692229866981506,0.1011233180761337,0.2988039026409388,0.3426476046815515,-9.494290700554847,15004.0
43.3,3.299999952316284,1.0,21.451385498046875,33.86660385131836,-79.78275078133852,40.45898590965518,340.04056231689447,-0.0043002651073038,-0.0209890529513359,-0.7481240034103394,0.6632129549980164,0.2166871010643415,0.1120363578867306,2.9193518016877484,0.1319216042757034,-0.0195223987102508,0.1161137819290161,0.2636562528088689,0.1598829026520252,-9.60894758284092,15005.0
43.5,3.2000000476837163,358.0,21.53026390075684,31.886613845825195,-79.78275073745056,40.45898573777302,340.6290861816406,-0.002103250240907,-0.0199632700532674,-0.7475723028182983,0.663877010345459,0.1759756598853727,0.1049603059551278,2.962156879681222,-0.0445221625268459,0.0046114325523376,-0.1431168913841247,0.2041743552312255,0.2792554547265172,-9.988804346323011,15005.0
43.6,3.2000000476837163,356.0,21.46265411376953,32.70564651489258,-79.78275066576,40.4589856550696,340.9193770141601,-0.0027616650331765,-0.0217400472611188,-0.7472627758979797,0.6641672253608704,0.1933734806613592,0.1159258365115106,2.975210609168392,-0.1093272641301155,0.0550913251936435,-0.0276894364506006,0.2228017753176391,0.451799698881805,-9.96335258603096,15005.0
43.8,3.2000000476837163,352.0,21.336196899414062,35.250213623046875,-79.78275066812819,40.4589854905193,341.504795715332,-0.0065632020123302,-0.027332630008459,-0.7457563281059265,0.6656255722045898,0.223608149170732,0.1169429254223913,2.9813916338402144,-0.0255216658115386,0.003102155169472,-0.0456986427307128,0.297368703559041,0.3627601992711425,-9.909312618970873,15006.0
43.9,3.2000000476837163,350.0,21.510231018066406,32.07745742797852,-79.78275065131481,40.458985398139134,341.8044249267578,-0.0075662499293684,-0.029281910508871,-0.7456349730491638,0.6656680107116699,0.2314996111557877,0.1221700823952343,2.9990835288059463,-0.0804733633995056,0.023230817168951,-0.045492548495531,0.3410919529572129,0.3107998310029507,-9.959397529363631,15006.0
44.1,3.0999999046325684,349.0,21.49270248413086,31.958179473876957,-79.78275062194233,40.458985261217926,342.3882109375,-0.0036073946394026,-0.0295510236173868,-0.7471461892127991,0.663992702960968,0.2365248650721556,0.1126118529296669,3.0250301581934718,0.0502025783061981,0.0392259284853935,0.0698933005332946,0.2610267416574061,0.5306398271396756,-10.174617165327072,15007.0
44.2,3.2000000476837163,348.0,21.51398658752441,31.822999954223643,-79.78275063432714,40.45898518814789,342.6951719970703,-0.0022912002168595,-0.0288865529000759,-0.7486280798912048,0.6623566746711731,0.2140085626233475,0.1197328354134165,3.091013317834532,0.011359354481101,-0.0381814204156398,-0.0418586656451225,0.3861397428810597,0.6018858840689063,-10.315177212953568,15007.0
44.4,3.2000000476837163,349.0,21.53902816772461,30.35192108154297,-79.7827507093205,40.458985178659965,343.2914015502929,-0.0012553215492516,-0.021220214664936,-0.7513520121574402,0.6595591902732849,0.1868217680076937,0.0987601052413321,3.1105103665387794,-0.1100101247429847,-0.1143961995840072,-0.0456183888018131,0.3136385080218315,0.4511129799485207,-9.989296681880951,15008.0
44.51,3.2000000476837163,348.0,21.66798973083496,28.713855743408203,-79.78275089378427,40.458985127693246,343.87328021240234,-0.0059091662988066,-0.0228209104388952,-0.7511285543441772,0.6597350239753723,0.1965005359829269,0.0445939667679823,3.0370251292220525,0.0683313310146331,0.0869205594062805,0.1085485592484474,0.234553911332041,0.5428701192140579,-9.815705713033676,15008.0
44.7,3.299999952316284,350.0,21.540281295776367,30.32011413574219,-79.78275094744363,40.4589850529909,344.1766859741211,-0.0069991135969758,-0.0259886849671602,-0.750196635723114,0.6606669425964355,0.2039187163828966,0.046396984460857,3.0240255360147628,-0.0934726446866989,-0.0405650585889816,-0.121296152472496,0.2876861895248294,0.3581684173643589,-9.72653976738453,15009.0
44.8,3.299999952316284,350.0,21.640443801879886,28.10951995849609,-79.78275107502323,40.45898502834597,344.4642378540039,-0.0076050516217947,-0.0275960322469472,-0.7495623230934143,0.6613146066665649,0.2106787870215521,0.0460340095046288,3.0063281005385667,-0.0516787096858024,-0.0261836126446724,-0.0242697391659021,0.2636209319718182,0.4611212204396725,-9.76949516773224,15009.0
45.0,3.299999952316284,351.0,21.46014976501465,32.80902099609375,-79.78275121243749,40.45898490763181,345.06478564453124,-0.0071524092927575,-0.0278779864311218,-0.7495027184486389,0.6613752841949463,0.2030754855175773,0.0450240579333862,2.9777278082651115,-0.044409018009901,0.0524173192679882,-0.0111468937247991,0.2435734607465565,0.4251517079025508,-9.598494515419008,15010.0
45.1,3.299999952316284,353.0,21.55655670166016,29.65216445922852,-79.78275131000237,40.458984891535465,345.3565260620117,-0.0090172514319419,-0.0272992644459009,-0.7497490048408508,0.6610975861549377,0.2038808278351714,0.0388860243776708,2.9852257801087383,0.0193832423537969,-0.0271899886429309,0.093762494623661,0.1798760130442679,0.2924403778463602,-9.835248277187349,15010.0
45.3,3.2000000476837163,353.0,21.511484146118164,31.52878379821777,-79.7827515445936,40.458984879644696,345.9490248413086,-0.0100083742290735,-0.0239115096628665,-0.7499027252197266,0.6610400676727295,0.197077788276894,0.0074438146742753,2.97437483945857,0.1334448456764221,0.0107984328642487,0.0689159706234932,0.3191123789548874,0.1431035407539457,-9.676372995972631,15010.0
45.4,3.2000000476837163,354.0,21.684267044067383,28.419639587402344,-79.78275169723237,40.458984850589424,346.540783569336,-0.0109686339274048,-0.0234375968575477,-0.7497339844703674,0.6612332463264465,0.1368068531354065,0.0033861005242996,2.931871680941604,-0.072005346417427,-0.0403595343232154,-0.0395772457122802,0.2675300331786275,0.2660156225971877,-9.644999175667763,15011.0
45.6,3.2000000476837163,353.0,21.48644256591797,32.53070831298828,-79.78275184542362,40.4589848445564,346.8375059814453,-0.0087579162791371,-0.021773787215352,-0.7494161128997803,0.6616833209991455,0.1642401615536384,0.0008468664022676,2.9329216205837114,0.1139118000864982,0.0146802878007292,-0.108526200056076,0.3255901071801781,0.4358253249898553,-9.653096399903298,15011.0
45.7,3.2000000476837163,352.0,21.48268699645996,31.75143241882324,-79.78275191127383,40.458984834485015,347.13099353027343,-0.0058791670016944,-0.0184234324842691,-0.7490109801292419,0.6622753739356995,0.1425957483493359,0.0146450976330986,2.9342459743288622,0.1637335121631622,0.0232131201773881,-0.006947333458811,0.2582657046988607,0.3033379067480564,-9.751198645234108,15012.0
45.9,3.0999999046325684,351.0,21.468914031982425,32.578418731689446,-79.78275206604539,40.45898489706123,347.7266813964844,-0.0030762804672122,-0.016823835670948,-0.7482877373695374,0.6631538271903992,0.0947979421434202,0.0143310707761548,2.965967133412644,0.0263339504599571,0.067974753677845,0.115895539522171,0.3062265226431191,0.0834076442196965,-9.869744510650635,15012.0
46.0,3.0999999046325684,352.0,21.51398658752441,30.638185501098643,-79.78275211489951,40.45898489507599,348.0239607543945,-0.0015434586675837,-0.0189609657973051,-0.7473414540290833,0.6641678214073181,0.096257898852221,0.0265615490325221,2.979452904096024,0.0313086360692977,-0.0145771447569131,0.0230339523404836,0.3547114703804255,0.1055146692506969,-9.957479642629623,15013.0
46.21,3.0999999046325684,352.0,21.53902816772461,30.08951187133789,-79.78275228364544,40.45898498199976,348.6264921875,-0.0029190825298428,-0.0226602833718061,-0.7459041476249695,0.6656613945960999,0.1056551689999258,0.0492695193580028,3.0170445121416467,0.0236099250614643,-0.0559976212680339,0.1180431544780731,0.3030233996361494,0.1976022310182452,-9.903155500888824,15013.0
46.3,3.0999999046325684,350.0,21.456392288208008,33.484920501708984,-79.78275240196669,40.458985062474255,349.22608630371093,-0.0081822667270898,-0.0155864879488945,-0.7466900944709778,0.6649391651153564,0.1175340822606969,0.032151483284223,3.03230898194632,0.0831220746040344,-0.0424077697098255,0.0653941333293914,0.3400421950221062,0.3251817522570491,-9.86993746876717,15014.0
46.5,3.0999999046325684,348.0,21.57158088684082,29.509033203125,-79.78275243322949,40.4589850617005,349.5309416503906,-0.0085631031543016,-0.0170146562159061,-0.7473060488700867,0.6642069816589355,0.1028254756828105,0.0114842729510634,3.0587314685946434,-0.0286533366888761,0.0448348447680473,0.0282955635339021,0.2181860015541315,0.1629822193086147,-10.048581601381304,15014.0
46.6,3.2000000476837163,346.0,21.527759552001957,31.544687271118164,-79.78275247400508,40.45898513703705,349.8305174560547,-0.0062715872190892,-0.0206631142646074,-0.7478607892990112,0.6635043025016785,0.1002089645302667,0.0247196572359482,3.0467473127221067,-0.0725185126066207,0.1190035417675972,-0.0815184339880943,0.2629475519992411,0.4180692679435015,-9.852625032663346,15014.0
46.8,3.2000000476837163,344.0,21.471418380737305,31.679866790771484,-79.78275248795767,40.45898515341278,350.43897692871093,-0.0035190044436603,-0.0234441868960857,-0.7488465309143066,0.6623193025588989,0.0933730935026793,0.0872099912383083,3.0440776040507584,-0.0208712443709373,-0.0197416339069604,-0.0249548200517892,0.4395846826583147,0.4314669200778008,-9.898550233840943,15015.0
46.9,3.2000000476837163,345.0,21.493953704833984,30.76541328430176,-79.78275254717977,40.45898524950751,351.04909197998046,-0.0014555259840562,-0.0197055339813232,-0.748595118522644,0.6627330183982849,0.0848900083737623,0.0923971106683991,3.064571057763901,-0.0063713733106851,-0.0076422994025051,-0.0175847318023443,0.3782529087737203,0.3677658178657293,-9.951435960531237,15016.0
47.1,3.2000000476837163,343.0,21.477678298950195,32.60227203369141,-79.78275257512924,40.45898537152616,351.350857421875,-0.0011190181830897,-0.0189391151070594,-0.7484824061393738,0.6628832221031189,0.0767224537327893,0.077293162881144,3.030794026875096,0.0677125379443168,0.0460628420114517,0.0824384540319442,0.2660766711831093,0.2119257532060146,-9.5930618673563,15016.0
47.2,3.2000000476837163,344.0,21.50397109985352,30.76541328430176,-79.7827525795276,40.45898538774314,351.652615234375,-0.0013330238871276,-0.0206111744046211,-0.7483650445938109,0.6629654765129089,0.068475491652668,0.0770841249022678,3.006507854866516,-0.0198159087449312,-0.0078342603519558,0.11936866492033,0.2585641867853701,0.0822483606263995,-9.591763200759887,15016.0
47.4,3.2000000476837163,344.0,21.54654121398925,30.99601554870605,-79.78275255564199,40.4589855017344,352.262348815918,-0.0010124188847839,-0.0211547818034887,-0.7481043934822083,0.6632429957389832,0.0762509818715364,0.0952106668829883,2.996469740869382,-0.0141456983983516,-0.0649637654423713,-0.1063371151685714,0.3258082814142108,0.3920604507252574,-9.560665369033812,15017.0
47.5,3.299999952316284,342.0,21.490198135375977,30.84493064880371,-79.7827525485044,40.45898550951258,352.5610930175781,-0.0005796485347673,-0.0211205463856458,-0.7478517889976501,0.6635294556617737,0.0698391640952499,0.0941338190184412,2.976951357527802,-0.0575507767498493,-0.0378775224089622,0.0267945174127817,0.2005583639815449,0.3879178080707789,-9.6091884881258,15017.0
