time,wind_speed,wind_angle,battery_voltage,battery_current,position_x,position_y,position_z,orientation_x,orientation_y,orientation_z,orientation_w,velocity_x,velocity_y,velocity_z,angular_x,angular_y,angular_z,linear_acceleration_x,linear_acceleration_y,linear_acceleration_z,node_ids
0.0,0.2000000029802322,122.0,24.31357192993164,0.0159035474061965,-79.78275952444461,40.45898845623925,272.1535171341896,-0.0003341116826049,-0.0010799248702824,-0.7029347419738771,0.7112534642219543,0.0050139946298537,0.0032844692343031,0.0010921025792422,0.0030175149440765,0.0003689196892082,0.0044971024617552,0.0113417574064806,0.0094664605578873,-9.809695360064508,14937.0
0.19,0.2000000029802322,122.0,24.30856513977051,-0.0159035474061965,-79.78275951291502,40.45898838770324,272.1501484584808,-0.0003231017908547,-0.0010769128566607,-0.7029424905776978,0.7112458944320679,0.0071525987180847,0.0024952384672823,0.0010419225618792,0.0057826754637062,0.0008583707385696,0.0045234495773911,0.010529043538263,0.0162319323210977,-9.80807743549347,14937.0
0.29,0.2000000029802322,121.0,24.309816360473643,-0.0238553211092948,-79.78275952163477,40.458988302880414,272.14631254196166,-0.0003378697147127,-0.0010592045728117,-0.7029314637184143,0.7112568020820618,0.0113219256296267,-0.0020545288160153,0.0010563647561249,-0.0036928355693817,-0.0047162096016108,-0.0052354992367327,0.0101887492917012,0.01084484457504,-9.809689512848854,14937.0
0.49,0.2000000029802322,121.0,24.306060791015625,-0.0079517737030982,-79.78275952380373,40.45898829241253,272.1464328241348,-0.0003412269579712,-0.0010639820247888,-0.7029253840446472,0.7112627029418945,0.0121029653877912,-0.0019638685460121,0.0012196234313985,0.0076546091586351,0.0036724498495459,0.0028029838576912,0.0103263118921313,0.012104832753539,-9.808541119694713,14937.0
0.6,0.2000000029802322,122.0,24.31106948852539,0.0,-79.78275956395424,40.458988241535714,272.1395546865463,-0.0003325079160276,-0.0010710937203839,-0.7029216885566711,0.7112663984298706,0.0065095519908267,-0.0095829703457666,-0.0033416501594292,-0.0004890155396424,0.0004203351854812,-0.0018489728681743,0.0091231410624459,0.0158843895827885,-9.808492003083227,14937.0
0.8,0.2000000029802322,122.0,24.30731201171875,0.0318070948123931,-79.78275954467465,40.45898818571835,272.1348199915886,-0.0003372602222952,-0.0010675851954147,-0.7029256224632263,0.7112625241279602,0.004976805011099,-0.00558467281508,-0.0021268279812558,0.0041352142579853,0.0025184559635818,0.0027733999304473,0.0103299058740958,0.009614176985342,-9.808973813652992,14937.0
0.9,0.2000000029802322,123.0,24.31106948852539,0.0079517737030982,-79.78275955106066,40.458988181655045,272.1346276473999,-0.0003372602222952,-0.0010675851954147,-0.7029256224632263,0.7112625241279602,0.0038727813436715,-0.0054353212652857,-0.0017391030515818,-0.0073132258839905,-2.093368129862938e-05,-0.0075913360342383,0.0104135233419947,0.0209831125242635,-9.807804955244064,14937.0
1.09,0.2000000029802322,123.0,24.309816360473643,0.0159035474061965,-79.78275957539425,40.45898813872585,272.12768805742263,-0.0003356084343977,-0.0010750904912129,-0.7029282450675964,0.7112599015235901,7.013995600714054e-05,-0.0098450260549776,-0.0041962825178326,0.0030693355947732,0.0011970449704676,0.0046101426705718,0.0110266952659003,0.009227255762089,-9.810364866256712,14937.0
1.2,0.2000000029802322,122.0,24.31357192993164,0.0318070948123931,-79.78275958463684,40.45898807163936,272.119996137619,-0.0003288027655798,-0.0010684677399694,-0.7029304504394531,0.7112577557563782,0.00403178608791,-0.0096676680137142,-0.0062225062510837,0.0039935605600476,0.0019707307219505,0.0030716191977262,0.0099347916967235,0.0260798334795981,-9.807710230350494,14937.0
1.4,0.2000000029802322,122.0,24.306060791015625,0.0079517737030982,-79.78275959589448,40.45898806841331,272.1193933558464,-0.0003288027655798,-0.0010684677399694,-0.7029304504394531,0.7112577557563782,0.0033137671651395,-0.0095016909533427,-0.0058627642723215,-0.0044084666296839,-0.0019178309012204,0.0032357752788811,0.0112202872114721,0.0115190673689357,-9.810008186101914,14937.0
1.49,0.2000000029802322,125.0,24.302305221557607,0.0397588685154914,-79.78275960445824,40.45898799160696,272.1105535697937,-0.0003248087596148,-0.0010642163688316,-0.7029331922531128,0.7112550735473633,0.0072113424425123,-0.009815244205974,-0.0076960733386042,0.0068711815401911,0.0028609898872673,0.0041338526643812,0.0085126135189784,0.0287633011839352,-9.807569312453271,14937.0
1.69,0.2000000029802322,124.0,24.31232070922852,0.0159035474061965,-79.78275961589367,40.45898798556127,272.10979915380483,-0.0003248087596148,-0.0010642163688316,-0.7029331922531128,0.7112550735473633,0.0061725839458637,-0.0096826279534595,-0.007438989624679,-0.0035742109175771,-0.0009220401989296,0.0015113259432837,0.0091964448185171,0.0161400590871926,-9.8084487336874,14937.0
1.79,0.2000000029802322,124.0,24.31106948852539,0.0159035474061965,-79.78275962330636,40.45898790363831,272.0998234820366,-0.000319677114021,-0.0010588516015559,-0.7029346227645874,0.7112536430358887,0.0090432727047604,-0.0095270246881406,-0.0087106153472454,0.001930906320922,0.0025597857311367,0.0044509368017315,0.0097544576274231,0.0258748040604405,-9.807039554715155,14937.0
1.99,0.2000000029802322,124.0,24.31232070922852,0.0159035474061965,-79.78275963433738,40.45898789582591,272.098970181942,-0.000319677114021,-0.0010588516015559,-0.7029346227645874,0.7112536430358887,0.0078886560215129,-0.0093809748382327,-0.0084279122280008,-0.0077716037631034,-0.0019533913582563,-0.0070848651230335,0.0107340078614652,0.0230108698108233,-9.807706722021104,14937.0
2.1,0.2000000029802322,124.0,24.31232070922852,0.0079517737030982,-79.78275964733076,40.458987817667975,272.0886075568199,-0.0003174533194396,-0.0010568146826699,-0.7029373645782471,0.711250901222229,0.0094120306380224,-0.0094029003226326,-0.0089728722543534,-0.0014735824661329,0.0021520636510103,0.0014112201752141,0.0094306686316849,0.018914240860613,-9.807940025925635,14937.0
2.29,0.2000000029802322,124.0,24.302305221557607,0.0159035474061965,-79.78275964802786,40.45898775781331,272.07849694013595,-0.0003175389720126,-0.0010571186430752,-0.7029394507408142,0.7112488746643066,0.0063877305745395,-0.0094215594573924,-0.0095172085692992,-0.0047833751887083,-0.0018667976837605,-0.005581721663475,0.009986748547526,0.0284389200434088,-9.808850437402723,14937.0
2.4,0.2000000029802322,124.0,24.309816360473643,0.0079517737030982,-79.78275965904483,40.45898775161015,272.0775471997261,-0.0003175389720126,-0.0010571186430752,-0.7029394507408142,0.7112488746643066,0.00729482639058,-0.0094438087463608,-0.0095012297184551,0.0032664788886904,0.0005883079720661,0.0079868370667099,0.0104113728913944,0.0121371854434255,-9.809183728694917,14937.0
2.6,0.2000000029802322,123.0,24.31232070922852,0.0159035474061965,-79.7827596700667,40.4589876666394,272.0656848025322,-0.0003132214478682,-0.0010531393345445,-0.702941358089447,0.7112469673156738,0.0091192656964319,-0.0095227183400281,-0.0098936478273773,0.0035685091279447,-0.0005104013253003,-0.0020484752021729,0.0091813653975259,0.0268606560397893,-9.807875121831897,14937.0
2.69,0.2000000029802322,125.0,24.31106948852539,0.0238553211092948,-79.78275965523781,40.45898760044423,272.0527282428741,-0.0003184267552569,-0.0010506062535569,-0.7029437422752379,0.7112446427345276,0.0059552146756106,-0.0055089043056709,-0.0103016025339429,-0.0022013578563928,-0.0016449397662654,-0.0050224056467413,0.0105261907365638,0.0092232477926881,-9.81018477201462,14937.0
2.89,0.2000000029802322,125.0,24.31232070922852,0.0079517737030982,-79.78275966160237,40.45898759454212,272.0517053079605,-0.0003184267552569,-0.0010506062535569,-0.7029437422752379,0.7112446427345276,0.0067592740784936,-0.0054537743744984,-0.0101805371626158,0.002809785073623,-0.002006548224017,0.0019517375621944,0.0091655710630584,0.0191492521064356,-9.808074511885644,14937.0
3.01,0.2000000029802322,125.0,24.30856513977051,0.0318070948123931,-79.78275964944244,40.45898752873551,272.03711242198943,-0.0003179012564942,-0.0010473650181666,-0.7029452323913574,0.7112431526184082,0.0048865065100702,-0.0037622457720688,-0.0127093305949145,-0.0018969959346577,-0.0009387388126924,-0.0056305681355297,0.0105936952424235,0.010360543228453,-9.809533392190934,14937.0
3.2,0.2000000029802322,124.0,24.31106948852539,0.0159035474061965,-79.78275965380321,40.45898752390257,272.03584433317184,-0.0003179012564942,-0.0010473650181666,-0.7029452323913574,0.7112431526184082,0.005795087584602,-0.0038095355082361,-0.0126103888439081,0.0080547695979476,0.0015100489836186,0.005360675510019,0.010355255609611,0.0129562181874644,-9.810081861019135,14937.0
3.3,0.2000000029802322,121.0,24.30856513977051,0.0159035474061965,-79.78275963732256,40.458987442633926,272.02186215639114,-0.0003165302914567,-0.0010428330861032,-0.7029498219490051,0.7112386226654053,0.0074993394862804,-0.0018886310801225,-0.0118627415141324,-0.0028560811188071,0.0023146574385464,-0.0026165666058659,0.0102890050574205,0.0134696082898881,-9.80980938076973,14937.0
3.49,0.2000000029802322,121.0,24.31232070922852,0.0079517737030982,-79.78275963940506,40.45898743572143,272.020688123703,-0.0003291016910225,-0.0010379402665421,-0.7029545903205872,0.711233913898468,0.0081467223019983,-0.001833816632576,-0.0116931437977709,0.004410105291754,0.0007753610843792,0.0020849595312029,0.010616710659815,0.0102270793891511,-9.810342646837237,14937.0
3.59,0.2000000029802322,121.0,24.30480766296387,0.0159035474061965,-79.78275966825859,40.45898738352283,272.0050161552429,-0.0003279522061347,-0.0010472519788891,-0.7029477953910828,0.7112406492233276,0.0044881884844011,-0.0089796686126146,-0.0156923896664596,-0.0046538962051272,0.0002621223975438,-0.0031271276529878,0.0106504509213846,0.019107736875303,-9.808832895755769,14937.0
3.79,0.2000000029802322,120.0,24.31232070922852,0.0238553211092948,-79.7827596277086,40.45898731878129,271.989783949852,-0.000350097194314,-0.001060994924046,-0.7029549479484558,0.7112335562705994,0.0037528230983522,-0.0001067621427994,-0.0138118450144634,0.0029449167195707,0.0013266198802739,0.002610707655549,0.0096155051712412,0.0097208509838674,-9.809531053304672,14936.0
3.9,0.2000000029802322,119.0,24.31732940673828,0.0,-79.78275962773212,40.4589873156687,271.98841173172,-0.0003592263383325,-0.001060830312781,-0.7029637694358826,0.7112248539924622,0.0028256640782962,-2.791390512292308e-05,-0.0135463970687638,-0.0070815840736031,-0.0024378397502005,-0.0064063286408782,0.0099280011607334,0.0264896593429148,-9.808252851963044,14936.0
4.1,0.2000000029802322,118.0,24.31106948852539,0.0079517737030982,-79.78275963059116,40.45898725877646,271.9714235138893,-0.0003782237763516,-0.0010558750946074,-0.7029715180397034,0.7112171649932861,0.0026142638162609,-0.0022680808400993,-0.0155018693117008,-0.0016646811272948,-0.0014878190122544,0.0001747175119817,0.0094490028504515,0.012669204409467,-9.810311071872713,14936.0
4.21,0.2000000029802322,117.0,24.3148250579834,0.0159035474061965,-79.78275959843238,40.458987191372415,271.955462641716,-0.0003644204407464,-0.0010437215678393,-0.7029832005500793,0.7112056612968445,0.0065907243230627,0.0030941496162036,-0.0138333357352549,0.0042755850590765,0.0006521001923829,0.0036500075366348,0.0099490043136756,0.0288187743583694,-9.807845301032067,14936.0
4.4,0.2000000029802322,116.0,24.30105209350586,-0.0715659633278846,-79.78275959453191,40.45898718602097,271.9540923309325,-0.0003676375490613,-0.0010349015938118,-0.7029691934585571,0.7112194895744324,0.0054368775231945,0.0033592038783426,-0.0136339099287354,-0.005315707065165,-0.0008905901340767,-0.0013545572292059,0.0097402027552016,0.0195173800131306,-9.808090299367905,14936.0
4.5,0.2000000029802322,114.0,24.309816360473643,0.0159035474061965,-79.78275957944194,40.45898711279607,271.9396130812168,-0.0003673678438644,-0.0010377319995313,-0.7029740214347839,0.7112147212028503,0.0081438581939279,0.0024287184380292,-0.0082901570568178,0.003146352013573,0.0009609928238205,0.0081622907891869,0.0110435254254844,0.0226795862149447,-9.808050538301467,14936.0
4.7,0.2000000029802322,115.0,24.30856513977051,0.055662415921688,-79.78275957632749,40.45898710575233,271.9387986135484,-0.0003745579160749,-0.001039968105033,-0.7029786705970764,0.7112101912498474,0.0072816553823365,0.0026671325307983,-0.008042704014841,-0.0044625243172049,-0.003665265860036,-0.0071265678852796,0.0099531076429411,0.0281625979905948,-9.807303848862649,14936.0
4.79,0.2000000029802322,113.0,24.31232070922852,0.0079517737030982,-79.78275961616,40.45898706921006,271.9214474630356,-0.0003760516701731,-0.0010388016235083,-0.7029860019683838,0.71120285987854,0.0005090000152125,-0.00615620041796,-0.0094815992607443,-0.0014645132469013,0.0005751861608587,-0.0005121603026054,0.0099554819322656,0.0138314538658596,-9.809030531644822,14936.0
4.99,0.2000000029802322,111.0,24.309816360473643,0.0874695107340812,-79.78275962325928,40.458987068385575,271.9205078852177,-0.0003651068254839,-0.0010365413036197,-0.7029966115951538,0.7111924290657043,0.0006552100641755,-0.005917140429553,-0.0092291684787868,-0.0007805540226399,-0.0039691901765763,-0.0007002849597483,0.0103108944289851,0.0257918261317536,-9.808469198942182,14936.0
5.1,0.2000000029802322,107.0,24.30856513977051,0.1033730581402778,-79.78275961632163,40.45898700701496,271.903631157875,-0.0003763507702387,-0.0010285490425303,-0.7029950022697449,0.7111940383911133,0.0030703213530551,-0.0037642010605655,-0.0097318966664418,-0.0078080501407384,-0.0021355925127863,-0.0088535556569695,0.0102639488247223,0.009255866005551,-9.810267802476885,14936.0
5.3,0.2000000029802322,105.0,24.306060791015625,0.0954212844371795,-79.78275960547299,40.458986952298496,271.88724593043327,-0.0003777119272854,-0.0010383708868175,-0.7030001878738403,0.7111887931823729,0.0066745061459237,-0.002154155203207,-0.0106718785761714,0.0032220624852925,0.000251669465797,0.0010227260645478,0.0113569418946281,0.0170920074940659,-9.808900723457336,14936.0
5.39,0.2000000029802322,103.0,24.306060791015625,0.0954212844371795,-79.78275960780707,40.45898694672349,271.8861945343017,-0.0003741719410754,-0.0010407938389107,-0.7029973864555359,0.711191713809967,0.0059581488345239,-0.001950323274116,-0.0104666457760287,-0.0006477441056631,0.0008937978418543,0.0017352155409753,0.0101084973989054,0.0122342058259528,-9.809304181337357,14936.0
5.59,0.2000000029802322,103.0,24.30105209350586,0.055662415921688,-79.78275961998388,40.45898690260756,271.8704559278488,-0.0003915960842277,-0.0010521220974624,-0.7029866576194763,0.7112021446228027,0.0043232693993606,-0.0049649158340101,-0.0069119575102688,0.0014391972217708,0.0026967015583068,0.0042789061553776,0.010253197713755,0.010483164594043,-9.809813473820688,14936.0
5.7,0.2000000029802322,102.0,24.302305221557607,0.055662415921688,-79.78275963726247,40.45898684517117,271.85233847022056,-0.0003806576423812,-0.0010621928377076,-0.7029735445976257,0.7112151980400085,0.0068865902881273,-0.0068555670515961,-0.0091409852390522,0.004485254175961,0.0029977327212691,0.0018530405359342,0.0103313482634257,0.0218075333861634,-9.80865806400776,14936.0
5.89,0.2000000029802322,101.0,24.302305221557607,0.0636141896247863,-79.78275964508977,40.45898683930093,271.8514355790615,-0.000396160990931,-0.0010661153355613,-0.7029631733894348,0.7112253308296204,0.0063873754007755,-0.0066633147082377,-0.0090600682102817,0.0003629374841693,-0.0018838087562471,0.0056580491364002,0.0098698921711184,0.0093036053236573,-9.809767865538596,14936.0
5.99,0.2000000029802322,101.0,24.29729652404785,0.1033730581402778,-79.78275965274595,40.45898683357375,271.85054639697074,-0.0004009443218819,-0.0010918440530076,-0.7029752135276794,0.7112134695053101,0.0056971581946563,-0.0064468572608662,-0.0087577369025221,-0.0059403963387012,-0.0058696512132883,-0.0063139125704765,0.0094299508631229,0.0279773554578423,-9.807657605409624,14936.0
6.19,0.2000000029802322,101.0,24.306060791015625,0.0874695107340812,-79.78275964839294,40.45898678325626,271.83494359970086,-0.0004071226576343,-0.0010872542625293,-0.7029685974121094,0.7112200260162354,0.0068356978787776,-0.0040884939736158,-0.0064187480279198,-0.0054400213994085,0.0012130003888159,-0.0007221037521958,0.0085981022100895,0.018682358788792,-9.809310613274574,14936.0
6.3,0.2000000029802322,103.0,24.30480766296387,0.0874695107340812,-79.78275964984581,40.45898675475693,271.81739989638334,-0.0004046765097882,-0.0010832058032974,-0.7029637694358826,0.7112247347831726,0.0046384024716497,-0.0022876851099718,-0.0082970759561883,0.002095075789839,-0.0009088733349926,0.0046580620110034,0.0089494262239895,0.0233083720318973,-9.808410142064096,14936.0
6.5,0.2000000029802322,103.0,24.29353904724121,0.0636141896247863,-79.78275965242166,40.45898675083557,271.81658292531966,-0.0004127041902393,-0.0010937424376606,-0.7029731869697571,0.7112153768539429,0.0037063944293183,-0.0021563314653357,-0.0079607087853229,-0.0050211669877171,-0.0039981021545827,-0.0071294601075351,0.0093618861894356,0.0282219655020162,-9.809253895282746,14936.0
6.6,0.2000000029802322,106.0,24.303556442260746,0.0874695107340812,-79.78275962642013,40.45898670705096,271.8008513224125,-0.0004455393645912,-0.0010884817456826,-0.7029778957366943,0.7112107872962952,0.0061430442143516,0.0031214294060883,-0.0056904456081875,-0.0037273704074323,1.993886689888313e-05,-0.0027125887572765,0.010819529100554,0.013572524995543,-9.809417032599448,14936.0
6.79,0.2000000029802322,108.0,24.30105209350586,0.0795177370309829,-79.78275965235207,40.45898667276016,271.7834660482406,-0.000435319612734,-0.0010903356596827,-0.7029778957366943,0.7112107872962952,0.0079549086176558,-0.0026550740574381,-0.0086107565297958,-0.0011987118050456,-0.0002783723175525,-0.0002784694661386,0.0092736349173355,0.0261772809829562,-9.807016165852549,14936.0
6.9,0.2000000029802322,110.0,24.29980087280273,0.1113248318433761,-79.78275965520409,40.45898666563173,271.7826130759716,-0.000435319612734,-0.0010903356596827,-0.7029778957366943,0.7112107872962952,0.0080893590322104,-0.0024248690034417,-0.0085147945512436,0.0037301103584468,0.0008084107539616,0.0067328652366995,0.0106728108110837,0.0086600387276848,-9.808949255347253,14936.0
7.09,0.2000000029802322,112.0,24.30856513977051,0.1351801604032516,-79.78275966326784,40.45898664601647,271.7655609619617,-0.0004366070497781,-0.0010918222833424,-0.7029801607131958,0.7112085819244385,0.0059436705944316,-0.0014454746057813,-0.0095776281559294,0.0056382901966571,0.0028067287057638,0.0034876787103712,0.010458707929356,0.0148713686072733,-9.808735831975936,14936.0
7.19,0.1000000014901161,112.0,24.302305221557607,0.1351801604032516,-79.78275966942407,40.45898661837637,271.748396910429,-0.0004324398760218,-0.0010881590424105,-0.7029822468757629,0.7112064361572266,0.0068432796014972,-0.000584476242299,-0.0102990386138159,-0.0007522677187807,0.0013088871492072,-0.001066118478775,0.0092950474895769,0.0140092103637289,-9.808714197278023,14936.0
7.4,0.1000000014901161,112.0,24.302305221557607,0.0954212844371795,-79.78275966993634,40.45898661229358,271.747368581295,-0.0004324398760218,-0.0010881590424105,-0.7029822468757629,0.7112064361572266,0.0069362524283373,-0.0004258434888583,-0.0103255054602945,0.0047995932400226,0.0016413058619946,0.0035499625373631,0.0102534843643661,0.0086757142905844,-9.809747400283817,14936.0
7.49,0.1000000014901161,115.0,24.29479217529297,0.1113248318433761,-79.7827597249133,40.45898659961363,271.73000390052795,-0.0004262553411535,-0.001099043758586,-0.7029832005500793,0.7112054824829102,0.0040006940782654,-0.0088194539223094,-0.0109943972205944,0.0069950786419212,0.0010856149019673,0.0052687372080981,0.00935450293764,0.0275828077294863,-9.80724596142769,14936.0
7.69,0.1000000014901161,117.0,24.30480766296387,0.1113248318433761,-79.7827597350754,40.45898659654896,271.72891444683074,-0.000426024547778,-0.00110317801591,-0.7029783725738525,0.7112102508544922,0.0027181657149772,-0.0085589500599602,-0.0108116934585984,-0.0045172795653343,0.0003655276959761,-0.0002235632127849,0.0094705690263072,0.0170891683967784,-9.80946614921093,14936.0
7.8,0.1000000014901161,120.0,24.30731201171875,0.0715659633278846,-79.78275974314478,40.45898657525749,271.7113109004497,-0.0004234979569446,-0.0011007887078449,-0.7029895186424255,0.7111992835998535,0.0052061560878441,-0.0051223432406639,-0.0113325056154416,0.0032683978788554,-0.0009662416414357,0.0030490031931549,0.0098404276859946,0.023227764966432,-9.808787872195245,14936.0
7.99,0.1000000014901161,121.0,24.30480766296387,0.0159035474061965,-79.78275974904943,40.45898657065349,271.71018154144286,-0.0004206426092423,-0.0010981690138578,-0.7029879689216614,0.7112008333206177,0.0045074664526503,-0.005020399922406,-0.0111909531225054,-0.0013828029623255,-0.0022404524497687,-0.0059370971284806,0.0094909126544371,0.0290128996339626,-9.807067621350289,14936.0
8.09,0.1000000014901161,124.0,24.30856513977051,0.0238553211092948,-79.78275977683515,40.45898656701339,271.6955546808244,-0.0004192238266114,-0.0011059318203479,-0.7029991745948792,0.7111896872520447,0.0020610289733051,-0.0062977530571594,-0.0079250541230507,-0.0062934877350926,-0.0002331076248083,-0.006340404972434,0.0103590802825056,0.0091748637962155,-9.809258573055269,14936.0
8.29,0.1000000014901161,124.0,24.30856513977051,0.0079517737030982,-79.78275979954897,40.45898655482029,271.6815587055683,-0.0003982939233537,-0.0010933729354292,-0.7030045390129089,0.7111844420433044,0.0052182659022123,-0.0074831461558745,-0.0063995953345005,0.0068751224316656,0.0024409359320998,0.0047137201763689,0.0114814133557956,0.0150501460838131,-9.808521823883057,14936.0
8.39,0.1000000014901161,127.0,24.30856513977051,0.0,-79.78275980813626,40.45898655062987,271.680926553607,-0.0003987253294326,-0.0010889696422964,-0.7029888033866882,0.7111999988555908,0.0041078458404039,-0.0072346970904621,-0.0062262363331683,-0.0041048685088753,-0.0009519841987639,0.0003221618826501,0.0092533455358352,0.0149499885330442,-9.809395397901538,14936.0
8.59,0.1000000014901161,128.0,24.30856513977051,0.0079517737030982,-79.78275978874457,40.45898653409953,271.667658470273,-0.0004008804098702,-0.0010713015217334,-0.7030125260353088,0.7111765742301941,0.0057388415987536,0.0004855636589275,-0.0029250065493009,-0.0018161484040319,0.0004416612791828,0.0023116695228964,0.0101606712362263,0.0094848199014086,-9.810274819135666,14936.0
8.69,0.1000000014901161,131.0,24.30856513977051,0.0159035474061965,-79.78275978805907,40.45898652915457,271.6673722338676,-0.0003845932078547,-0.0010727804619818,-0.7030196785926819,0.7111694812774658,0.0049434635000731,0.0006139615635362,-0.0027486430075983,-0.0020691868849098,-0.0006156607996672,-0.0064952713437378,0.0102720081608276,0.0289546536002308,-9.808270978331567,14936.0
8.89,0.1000000014901161,134.0,24.306060791015625,0.0,-79.78275983085287,40.45898654032391,271.65327436447143,-0.0004042809887323,-0.0010717593831941,-0.7030178308486938,0.7111713886260986,0.0012009650071559,-0.0046267396882547,-0.0023302219232154,-0.0031077528838068,-0.0011785118840634,-0.0039024534635245,0.008747833186062,0.0230776925222016,-9.80735647380352,14936.0
8.99,0.1000000014901161,140.0,24.289783477783203,-0.0636141896247863,-79.78275984023566,40.45898654467214,271.63984159350395,-0.0004123534308746,-0.0010824739001691,-0.7030025720596313,0.7111863493919373,0.0003528865525182,-0.0030904970001659,-0.0021985827934792,-0.0043051531538367,-0.0007014201255515,0.0005215330747887,0.0093350969196762,0.0168009315000381,-9.80863701403141,14936.0
9.2,0.1000000014901161,142.0,24.289783477783203,-0.1033730581402778,-79.78275984380937,40.4589865441296,271.63962370872497,-0.000416777387727,-0.0010708024492487,-0.7030016183853149,0.7111873030662537,0.000463311931062,-0.0029586550660926,-0.0020898916884192,0.000434552464867,-0.0007534039323218,-0.0014849789440631,0.0089487524237483,0.0258505495358258,-9.808030073046686,14936.0
9.3,0.1000000014901161,148.0,24.303556442260746,-0.0954212844371795,-79.78275987313758,40.45898653665604,271.626545689702,-0.0004254861851222,-0.0010733485687524,-0.7030009031295776,0.7111881375312805,0.0034356346887127,-0.0056185696380569,-0.0017060750225992,-0.0062656155787408,-0.0017646529013291,-0.0032650302164256,0.0101305546495132,0.029291416676715,-9.807219064235689,14936.0
9.5,0.1000000014901161,150.0,24.306060791015625,0.0079517737030982,-79.7827598795812,40.45898653321415,271.62637395381927,-0.0004382955667097,-0.0010558380745351,-0.7029916048049927,0.7111972570419312,0.0042254176199197,-0.0054146081904482,-0.0017907211815233,0.0086760837584733,0.0032898585777729,0.0070892954245209,0.0111464010179042,0.0103001821471843,-9.809304181337357,14936.0
9.59,0.1000000014901161,156.0,24.298547744750977,0.0159035474061965,-79.78275988194656,40.45898654510773,271.61345580935483,-0.000450412655482,-0.0010519205825403,-0.7029958963394165,0.7111929655075073,0.0016493836481077,-0.0026012276146413,-0.0015184737628832,0.0023838924244046,-0.0002420402306597,0.001934632891789,0.0092229205998592,0.0214457232132554,-9.808487325310708,14936.0
9.79,0.1000000014901161,159.0,24.31106948852539,0.0079517737030982,-79.78275988370058,40.45898654069953,271.60073631227016,-0.0004494366294238,-0.00104741146788,-0.7029905319213867,0.7111983299255371,0.0044304220670304,-0.0010782668027588,-0.0015332044914553,-0.0019046850502491,-0.0003683299582917,-0.0001982897083507,0.0113799573120195,0.0131870404514484,-9.809769034981729,14936.0
9.89,0.1000000014901161,166.0,24.30731201171875,0.0079517737030982,-79.78275988543948,40.45898653262893,271.60043565154075,-0.0004651741473935,-0.0010265775490552,-0.7029706835746765,0.7112178802490234,0.0045077500220514,-0.0004643590849001,-0.0014740167125695,0.0007076022448018,0.0008685478242114,0.006367071531713,0.0105726544023491,0.0265138887427747,-9.80746230840683,14936.0
10.09,0.1000000014901161,167.0,24.30856513977051,0.0159035474061965,-79.78275991011564,40.45898653687436,271.5884976011514,-0.0004720635479316,-0.0010404762579128,-0.7029767036437988,0.7112120389938354,0.0052306448116674,-0.0033339268623005,-0.0013026269449571,-0.0030456744134426,-0.0009069458465091,-0.0077441143803298,0.0084594980743713,0.0290706066275015,-9.807848809361456,14936.0
10.19,0.1000000014901161,172.0,24.30105209350586,0.0318070948123931,-79.78275992113365,40.45898654876984,271.5785426270961,-0.0004805528442375,-0.0010470941197127,-0.7029658555984497,0.7112227082252502,0.0024953194566056,-0.0016084918144697,0.0023354765068295,-0.0069320620968937,-0.0021881542634218,-0.0041792634874582,0.0110310452745761,0.0105792348040267,-9.810076013803483,14936.0
10.39,0.1000000014901161,173.0,24.30731201171875,0.0079517737030982,-79.78275992287607,40.45898654614517,271.5787695121765,-0.0004800060996785,-0.0010459825862199,-0.7029678821563721,0.7112207412719727,0.0031874842640605,-0.0014145248577431,0.0022155409221078,8.008131408132614e-05,0.0042234612628817,0.0046561434864997,0.0096197169937659,0.016781416417798,-9.808460428118709,14936.0
10.5,0.2000000029802322,175.0,24.31106948852539,0.0159035474061965,-79.78275992433912,40.45898654378513,271.5790037286281,-0.0004997280775569,-0.0010468030814081,-0.7029513120651245,0.7112370729446411,0.002305950247097,-0.0010816927797121,0.0023747502710554,-0.0026150685735046,-0.0008217250579036,-0.0012349805328994,0.0087464695970993,0.0134881811938248,-9.809167941212657,14936.0
10.7,0.2000000029802322,174.0,24.30731201171875,0.0238553211092948,-79.78275995687737,40.45898651647287,271.56766947329044,-0.0004754250403493,-0.0010611596517264,-0.7029387950897217,0.7112493515014648,0.0103644018624808,-0.0047656940766467,0.0006591850582685,0.0024825606960803,0.0023788705002516,0.0052229189313948,0.011318153841421,0.0084053313871845,-9.809292486906052,14936.0
10.8,0.2000000029802322,173.0,24.30480766296387,0.0,-79.78275995562723,40.45898653989893,271.55731091618543,-0.000484041753225,-0.0010359697043895,-0.7029295563697815,0.7112586498260498,0.0053095734237881,-0.0020807947182942,-9.472082430204812e-05,0.0052604619413614,-0.002195700071752,0.0046800994314253,0.0102931095287203,0.0261629370320588,-9.808660987615584,14936.0
11.0,0.2000000029802322,174.0,24.309816360473643,0.0238553211092948,-79.78275995780112,40.45898653571345,271.55731096833944,-0.000481834198581,-0.0010439502075314,-0.7029296159744263,0.7112585306167603,0.0041132111936494,-0.0017470453333336,3.062101897402312e-05,-0.0042134854011237,-5.806051194667816e-05,-0.0012208825210109,0.0087460647459374,0.0152640205586794,-9.8095205283165,14936.0
11.1,0.2000000029802322,173.0,24.30856513977051,0.0238553211092948,-79.78275997749428,40.45898655423655,271.54814571112394,-0.0004707027110271,-0.0010534819448366,-0.7029331922531128,0.7112549543380737,0.0025289194042376,-0.0038569389763418,-0.0002882039976601,0.0022628256119787,0.0010699374834075,0.0060427030548453,0.009055070678587,0.0244669064506888,-9.808566262722016,14936.0
11.29,0.2000000029802322,174.0,24.30856513977051,0.0318070948123931,-79.78275995982708,40.45898657376339,271.5399013456702,-0.0004882593930233,-0.001039067050442,-0.7029342651367188,0.7112539410591125,0.0004824325368449,0.0018942349489557,-0.0004421515080758,-0.0016379884909838,-0.0049555776640772,-0.0060394681058824,0.0096092468232382,0.0272863881569355,-9.80801954805851,14936.0
11.4,0.2000000029802322,173.0,24.29980087280273,0.0079517737030982,-79.78275995736122,40.45898657300856,271.5398598012328,-0.0004991633468307,-0.0010313332313671,-0.7029239535331726,0.7112640738487244,0.0012427751082136,0.0022569406173632,-0.000358807073449,0.0051895091310143,0.0030934263486415,0.0018847797764465,0.010651419366477,0.0139591333013959,-9.809936850070956,14936.0
11.6,0.2000000029802322,172.0,24.29353904724121,-0.0397588685154914,-79.78276000307872,40.45898657341007,271.5322272402048,-0.0004906471585854,-0.0010454398579895,-0.7029123902320862,0.7112755179405212,0.0045510877020371,-0.0082184043429107,-0.0003723722291122,0.0035776293370872,-0.0012598736211657,-0.0041209287010133,0.0098548709938768,0.0256526806717738,-9.807954059243205,14936.0
11.7,0.2000000029802322,168.0,24.298547744750977,-0.0636141896247863,-79.78275999867755,40.45898659073118,271.5256550085544,-0.0004948751884512,-0.0010446392698213,-0.7029150128364563,0.7112728953361511,0.0015455017286921,-0.0041753331077444,-0.0005279420913978,-0.0038646128959953,0.0025298404507339,-0.0099866427481174,0.010616547348909,0.008691364157712,-9.809877793192864,14936.0
11.89,0.2000000029802322,167.0,24.306060791015625,0.0,-79.78276000337492,40.45898658896119,271.52560098439454,-0.0004948751884512,-0.0010446392698213,-0.7029150128364563,0.7112728953361511,0.0022691896734251,-0.0038263369476008,-0.0005463345733785,0.0079983081668615,0.0020731724798679,0.0024908515624701,0.0106130321673117,0.0146152194484602,-9.809106545448303,14936.0
11.99,0.2000000029802322,167.0,24.31106948852539,0.0079517737030982,-79.7827600077037,40.458986587538746,271.525548107624,-0.0004948751884512,-0.0010446392698213,-0.7029150128364563,0.7112728953361511,0.0010602050395643,-0.0034688225882128,-0.0005115039880409,-0.0018822752172127,-0.0017049830639734,-0.000507085234858,0.0097614365990739,0.0133566359721589,-9.809174957871438,14936.0
12.19,0.2000000029802322,166.0,24.30856513977051,0.0159035474061965,-79.78276001911033,40.45898659058585,271.5199080404639,-0.0004886780516244,-0.0010433933930471,-0.7029187083244324,0.7112692594528198,0.0038913904218364,-0.0048156696930746,-0.0006508980212072,0.0032688942737877,0.0013314206153154,0.0046440418809652,0.0109037187276408,0.0097958004113752,-9.80913051903248,14936.0
12.3,0.2000000029802322,164.0,24.303556442260746,0.0,-79.78276000342409,40.458986597556326,271.5149927955866,-0.0004880345368292,-0.0010403611231595,-0.7029226422309875,0.7112653851509094,0.0050220376951265,-0.0025053968750574,-0.0004806583856386,-0.0045861331745982,-0.0003664310206659,-0.0055022039450705,0.0105873295431956,0.0238477274263277,-9.808504866957666,14936.0
12.5,0.2000000029802322,163.0,24.303556442260746,0.0079517737030982,-79.7827600085814,40.45898658805285,271.5149015930295,-0.0004880345368292,-0.0010403611231595,-0.7029226422309875,0.7112653851509094,0.0049265803451386,-0.0020179685184641,-0.0004893646938407,0.0003065268101636,0.0014744362561032,0.0032749711535871,0.0088624711608281,0.0104060658579692,-9.80960765182972,14936.0
12.6,0.2000000029802322,161.0,24.309816360473643,0.0159035474061965,-79.78275998733031,40.458986606649454,271.51045570492744,-0.0004891661228612,-0.0010402050102129,-0.7029250860214233,0.7112630009651184,0.002622321726927,-0.0003417926953885,-0.0004413455548849,0.0071414848789572,0.001804715488106,0.0057765152305364,0.0088037426176015,0.0285155642498284,-9.80745880007744,14936.0
12.79,0.2000000029802322,159.0,24.30856513977051,0.0079517737030982,-79.78275998574286,40.458986624720566,271.50470384553074,-0.0004869840631727,-0.0010453780414536,-0.7029268741607666,0.7112612128257751,0.0001966228804884,-0.0037170335402871,-0.0044665464537801,-0.0034445577766746,-0.0005901001859456,-0.0034860463347285,0.0100729675695765,0.018463807683438,-9.808929374814031,14936.0
12.89,0.2000000029802322,157.0,24.306060791015625,0.0,-79.78275998994657,40.45898662417415,271.5042581033706,-0.0004869840631727,-0.0010453780414536,-0.7029268741607666,0.7112612128257751,0.0005393429710901,-0.0034460851331701,-0.0043761191143694,0.0014954385114833,-0.0022836590651422,0.0014579873532056,0.0086342624423559,0.0235817362158559,-9.808675605654717,14936.0
13.1,0.1000000014901161,154.0,24.29604339599609,0.0238553211092948,-79.78275998371163,40.45898664018904,271.49920779064297,-0.0004784396733157,-0.0010474597802385,-0.7029302716255188,0.7112578749656677,-0.0009328734879572,-0.0045538393020171,-0.0060266207978177,-0.0073903505690395,-0.003351594088599,-0.0087831802666187,0.0100546619016677,0.0082435159751912,-9.810468946695329,14936.0
13.2,0.1000000014901161,150.0,24.30731201171875,0.0397588685154914,-79.78275996425387,40.45898664387033,271.4961165559292,-0.0004946839180774,-0.0010541580850258,-0.7029132843017578,0.7112745642662048,0.0024596336140181,-0.0021301691149644,-0.0038373600812678,-0.0022729726042598,-0.0002689540269784,0.0003621273790486,0.0104467702447436,0.0145263680373318,-9.809258573055269,14936.0
13.4,0.1000000014901161,149.0,24.30105209350586,-0.0079517737030982,-79.78275996653494,40.45898664148172,271.49573249712586,-0.000482434843434,-0.0010596227366477,-0.7029216289520264,0.7112663984298706,0.0022849358487807,-0.0018342785314466,-0.0037636356949007,-0.0035478300414979,-0.0028569540008902,-0.0005787581321783,0.0098191789956763,0.0275311763584613,-9.8081610506773,14936.0
13.51,0.1000000014901161,144.0,24.309816360473643,0.0079517737030982,-79.782759960261,40.45898664086993,271.4917527732253,-0.0004922301741316,-0.001063153380528,-0.7029097080230713,0.7112782001495361,0.0041500161133182,-0.0045713722367362,-0.0065519657567448,-0.0045746476389467,-0.0016046391101554,-0.007712657097727,0.010965361171402,0.0096864255017135,-9.8100958943367,14936.0
13.69,0.1000000014901161,144.0,24.303556442260746,-0.0079517737030982,-79.78275996546469,40.45898663673749,271.4910969656706,-0.0004901220672763,-0.0010356634156778,-0.7029159665107727,0.7112720012664795,0.0047587507975033,-0.0043367199627002,-0.0065665559424025,0.001652083476074,0.0020955926738679,0.0028717804234474,0.0098091062530875,0.0184334067301824,-9.808528255820272,14936.0
13.8,0.1000000014901161,146.0,24.30105209350586,-0.0238553211092948,-79.78275998563183,40.458986654235865,271.48755786910647,-0.0004974225303158,-0.0010433489223942,-0.7029112577438354,0.711276650428772,0.0011904415754078,-0.0102913996941374,-0.0080570458087566,-0.0029344456270337,-0.0041173766367137,-0.0053401351906359,0.0095345063880085,0.0113573598791845,-9.80997544169426,14936.0
13.99,0.1000000014901161,144.0,24.30731201171875,0.0,-79.78275999750154,40.45898665294132,271.4867497195304,-0.0005041171680204,-0.0010445101652294,-0.7029064893722534,0.711281418800354,0.0017268549285588,-0.0099129350555568,-0.008129229765807,0.006406020373106,0.0021972171962261,0.0035864312667399,0.0112643046397715,0.0110428790340665,-9.809503571391106,14936.0
14.1,0.1000000014901161,138.0,24.30105209350586,0.1908425688743592,-79.78275996133195,40.45898665480686,271.4864385907352,-0.0005039616371504,-0.0010391548275947,-0.7029116153717041,0.7112763524055481,0.0027201219821543,-0.0062292107036501,-0.0055416112372489,-0.0047563523985445,-0.0028219544328749,-0.00438217446208,0.0097102551895659,0.0210627579968422,-9.808583804368975,14936.0
14.29,0.1000000014901161,136.0,24.29479217529297,0.3101191818714142,-79.78275992651301,40.45898665551553,271.4860979911685,-0.000497447035741,-0.001026680227369,-0.702883243560791,0.7113044261932373,0.004761533448897,-0.0031085683446652,-0.0032487540259687,-0.0041939904913306,-0.0007328896317631,-0.0095211314037442,0.0025038439803756,0.0293594453763216,-9.808883181810383,14936.0
14.4,0.1000000014901161,131.0,24.289783477783203,0.3180709481239319,-79.78275992981932,40.45898665075372,271.4857667718828,-0.0004965930711477,-0.0010252498323097,-0.7030106782913208,0.7111783623695374,0.0043322117484557,-0.0024752778686844,-0.0030350222482674,-0.005224697291851,-0.0004623147542588,-0.0057289632968604,0.0087476464634528,0.036505174592603,-9.809649751782418,14936.0
14.59,0.1000000014901161,128.0,24.29353904724121,0.3021674156188965,-79.78275991237561,40.45898664847192,271.4843507629633,-0.0005132994847372,-0.0010418181773275,-0.7029994130134583,0.7111895680427551,0.0061083313231424,-0.0048743945523242,-0.0058053405854203,-0.001793525298126,-0.0043263123370707,-0.0010825045173987,0.0093083059368655,0.0145932615548372,-9.808721798658372,14936.0
14.69,0.1000000014901161,127.0,24.29479217529297,0.3180709481239319,-79.78275991790078,40.4589866430582,271.4837675538659,-0.0005059688119217,-0.0010303003946319,-0.7029080986976624,0.7112798094749451,0.0061947483902464,-0.0042784722028679,-0.005875032180489,-0.0010561475064605,-0.0002742371580097,0.003043414093554,0.0115452016820199,0.0314069941174238,-9.808147017359737,14936.0
14.9,0.2000000029802322,128.0,24.28727912902832,0.3339745104312897,-79.78275990205644,40.458986666048936,271.4826040264964,-0.0005070047918707,-0.001026319223456,-0.7029199600219727,0.7112680673599243,0.0019073447451306,-0.0057891647273819,-0.0073641372142893,-0.005183617118746,-0.0022621504031121,-0.0049188388511538,0.0116457326780073,0.0265522565273568,-9.810278327465056,14936.0
15.0,0.2000000029802322,130.0,24.28853225708008,0.3816851377487183,-79.78275990849164,40.45898666398693,271.481860987544,-0.000506056647282,-0.00103212648537,-0.7029976844787598,0.7111912369728088,0.0025815562960904,-0.0058826340248438,-0.0074421991525449,0.0051983916200697,0.0039557563140988,0.0054112644866108,0.0056151948234764,0.0128328876185696,-9.809849726557731,14936.0
15.19,0.1000000014901161,131.0,24.28352355957031,0.4532511234283447,-79.78275989228085,40.458986691168505,271.4811848734319,-0.000504107621964,-0.0010356013663113,-0.703001856803894,0.7111871838569641,0.0003376681135733,-0.0058928664531475,-0.0081201278470766,0.0019017125014215,0.0016411854885518,0.0039706267416477,0.0044726194776012,0.0170579817239195,-9.805314041376112,14936.0
15.3,0.2000000029802322,128.0,23.16043472290039,28.578676223754893,-79.78275985650163,40.4589867002623,271.4808126088977,-0.000526049581822,-0.0010497657349333,-0.703080415725708,0.7111093997955322,0.0021793719935931,-0.0013738719142756,-0.0077110740004906,-0.0082342335954308,-0.0046901246532797,-0.0017278031446039,0.0086823809158522,0.0149427000700961,-9.810693479776385,14936.0
15.49,0.2000000029802322,125.0,24.279767990112305,0.4930099844932556,-79.78275985888597,40.45898669788925,271.4799942147732,-0.0004614841600414,-0.0009402059367857,-0.7030306458473206,0.7111588120460509,7.032571707221957e-05,-0.0005406915147276,-0.0076827718278743,-0.0205505266785621,-0.0226237941533327,-0.0147955482825636,0.0008468732563778,0.1008340096659958,-9.784050056934356,14936.0
15.6,0.2000000029802322,122.0,24.28853225708008,0.2544567584991455,-79.78275981520778,40.45898670823104,271.48221094504,-0.0004830415418837,-0.0009687770507298,-0.703025758266449,0.7111635208129883,0.0035580309934452,-0.0003332686955864,-0.0055284202547613,-0.0084803793579339,-0.0003730188764166,0.0137182716280221,0.0173909669509157,0.0251063634362071,-9.81236812233925,14936.0
15.79,0.2000000029802322,123.0,24.230937957763672,1.6460171937942505,-79.78275979947834,40.458986747614425,271.4837462265789,-0.0005173993413336,-0.0009957808069884,-0.7031257748603821,0.7110646367073059,0.0021009607931538,-0.0056549895289733,-0.005665531141303,0.0053612957708537,0.0294647868722677,-0.0024016178213059,-0.0096091337618418,0.0156633271439932,-9.80753247499466,14936.0
15.9,0.2000000029802322,124.0,24.27350616455078,0.4532511234283447,-79.78275980365639,40.45898674669198,271.48308352351194,-0.0005004400736652,-0.0009138520690612,-0.7031010389328003,0.7110891938209534,0.0039463482626982,-0.0032156857459509,-0.0077393008296824,0.0332985185086727,0.0467964336276054,0.0229519568383693,-0.0011487174918875,-0.0355829681851901,-9.801147900223732,14936.0
16.09,0.1000000014901161,125.0,24.279767990112305,0.2703603208065033,-79.7827597966766,40.4589867781116,271.48327269375324,-0.0004926436813548,-0.0009491210221312,-0.7030564546585083,0.7111333012580872,-0.0011916214222589,-0.0046257222821281,-0.0078148402280314,-0.0161614138633012,0.007952481508255,0.0156692862510681,0.0009664488164708,-0.0035236486396752,-9.80167590379715,14936.0
16.19,0.1000000014901161,126.0,24.21716499328613,1.884570360183716,-79.7827597697067,40.45898679803591,271.4860714931786,-0.0005001924582757,-0.0010156476637348,-0.7030562162399292,0.7111334204673767,0.0024437176177128,-0.0022171099224303,-0.0036461897771035,-0.00465670786798,0.0088021866977214,0.0062711737118661,0.0041983585112029,-0.0082727891695685,-9.816070579290392,14936.0
16.39,0.1000000014901161,127.0,24.06817054748535,4.64383602142334,-79.78275977145441,40.45898679448828,271.485647175163,-0.0005199598963372,-0.0009724912815727,-0.7030626535415649,0.7111270427703857,0.0026016984894861,-0.0015159083083529,-0.0041090516849063,-0.011139796115458,-0.0175952911376953,0.0012246189871802,-0.0207914334861561,0.0395843617524951,-9.796510473489764,14936.0
16.49,0.1000000014901161,118.0,24.02935791015625,5.836602210998535,-79.78275976768639,40.45898682036736,271.4873017926514,-0.0004281717992853,-0.0009644560050219,-0.7031903266906738,0.7110009193420409,0.0005350463176308,-0.003416390080554,-0.0063564005167454,-0.0486806258559227,-0.0211966317147016,-0.0045412555336952,-0.0100436424126382,0.0342734591150656,-9.809431065917016,14936.0
16.69,0.1000000014901161,122.0,23.93044471740723,8.174423217773438,-79.78275977267153,40.45898681484925,271.4867264699936,-0.0004453277215361,-0.0007927978876978,-0.7032074332237244,0.7109842300415039,0.0105061967690798,-0.0076564461915143,-0.0062638039538984,0.0436201579868793,0.1190884783864021,-0.0033884025178849,0.0274609732255339,0.05230291003827,-9.849171667099,14936.0
16.8,0.1000000014901161,110.0,23.86659049987793,9.494418144226074,-79.78275974614965,40.458986868714646,271.48883289813995,4.546942363958807e-06,-0.0004749432555399,-0.703404426574707,0.7107897400856018,-0.0025505134254259,-0.0010260208863582,-0.007278996023263,-0.0395883917808532,-0.0785200148820877,-0.0231341011822223,0.0166675384668633,0.0763554407609626,-9.830430171489716,14936.0
16.99,0.1000000014901161,112.0,23.73136901855469,12.43657398223877,-79.78275974683373,40.45898686426416,271.4881923791766,0.0003269066510256,0.0002238421875517,-0.7035917639732361,0.7106043696403503,0.0057170796931752,0.0068395156540548,-0.0053506355403275,-0.0095008388161659,-0.0629411563277244,0.021037895232439,0.01147699710913,0.1862975897267461,-9.796273076534272,14936.0
17.1,0.2000000029802322,120.0,23.65374183654785,13.979218482971191,-79.78275974112691,40.4589868817812,271.493920892179,0.0026783908251672,0.0021042530424892,-0.7037877440452576,0.710402250289917,0.006961566278733,-0.0047282755119934,0.0033514934570431,0.03404451161623,-0.0359998755156993,0.0286828726530075,0.0827525185234844,0.0924539903271943,-9.856861925125123,14936.0
17.29,0.2000000029802322,134.0,23.49473190307617,17.61318016052246,-79.78275969969427,40.45898691189097,271.49882945761084,0.0038833688013255,0.0023266321513801,-0.7037894725799559,0.7103941440582275,0.0023724046891532,-0.0066991646777419,0.0148716786378226,0.0324626713991165,0.0576850362122058,-0.0392921306192874,-0.0360307529848068,-0.1299632666073739,-9.928523061275484,14936.0
17.39,0.3000000119209289,200.0,23.420860290527344,19.100160598754886,-79.78275971680878,40.458986903277314,271.50017284199595,0.0062104011885821,0.0013485717354342,-0.7036151885986328,0.7105528116226196,0.0182637520967798,-0.0197332456723374,0.0091972535319729,0.077932134270668,0.0213591810315847,-0.0285421684384346,-0.0930709355324506,0.0611054592300206,-9.800746781229972,14936.0
17.6,0.3000000119209289,227.0,23.22554016113281,22.83749389648437,-79.78275968389667,40.458986921956594,271.5068783943355,0.0066248793154954,-0.0008048315066844,-0.7025048732757568,0.711647629737854,0.0089028996231585,0.003873954650819,0.0294147383321027,-0.0546848773956298,-0.0161528047174215,0.0092413621023297,0.1032353971805423,-0.1046813222486525,-9.973544282913206,14936.0
17.69,0.4000000059604645,243.0,23.147912979125977,24.92881202697754,-79.78275964563825,40.45898687085957,271.5166394037008,0.0047764563933014,-0.007529767230153,-0.7020388841629028,0.7120828628540039,0.0131980814168784,-0.0121193433546528,0.1114010042873703,-0.066766656935215,0.0007197225349955,-0.052848033607006,0.0460050339438021,-0.0160880885319784,-10.194241590499876,14936.0
17.89,0.4000000059604645,241.0,23.413349151611328,18.28907966613769,-79.78275966003636,40.45898685958206,271.534571505785,0.0003493333933874,-0.012848193757236,-0.701676607131958,0.7123796343803406,0.0056212266549579,-0.002788737875747,0.2529055945377696,-0.2431145310401916,-0.0420114584267139,0.0852042883634567,0.2629927217401564,-0.169094149377197,-11.081512126922608,14936.0
18.0,0.6000000238418579,250.0,23.402080535888672,19.17967796325684,-79.78275966746908,40.458986856709146,271.56669063091283,-0.0082504265010356,-0.0132133895531296,-0.7014748454093933,0.7125240564346313,-0.0071790416677701,0.0046184501951538,0.3597543704349217,-0.1852547973394394,-0.2114233076572418,-0.157121255993843,0.0680494846310466,0.2758170543797314,-10.740887256860736,14936.0
18.2,0.699999988079071,240.0,23.402080535888672,18.60715103149414,-79.7827597008935,40.4589867801834,271.62690072476863,-0.0074175158515572,-0.0020420318469405,-0.7011401057243347,0.7129820585250854,-0.0079517816102297,0.0132102321648376,0.3030328883774473,0.0881538316607475,-0.0023955726064741,0.0285824127495288,0.1160652389936149,0.0822158811707049,-9.649140758514404,14936.0
18.3,0.8999999761581421,240.0,23.280630111694336,20.984731674194336,-79.78275957215048,40.45898708959546,271.66234267473214,-0.0052703036926686,0.0016513541340827,-0.7008069753646851,0.7133296132087708,-0.0295153154466327,0.045303953406199,0.1297322835961938,-0.0699152871966362,0.0233086254447698,-0.0628679618239402,0.1229569866321981,0.0888438554294407,-9.319398141503337,14936.0
18.49,0.8999999761581421,240.0,23.24056434631348,22.026412963867188,-79.78275951002999,40.45898711376789,271.6731354367733,-0.0027110045775771,-0.0018426366150379,-0.7005775570869446,0.7135688066482544,-0.0282384476637967,0.0585880008906215,0.0883581586127824,-0.0131464013829827,0.0895166099071502,-0.0491892881691455,0.0974473206326365,0.187293151281774,-9.372168093323708,14936.0
18.6,1.0,242.0,23.23931312561035,21.72424697875977,-79.78275936107698,40.458987252157705,271.713796145916,0.0052058962173759,-0.0045590596273541,-0.7006112933158875,0.7135096192359924,-0.0220340120028506,0.0792513638995502,0.0564280800233118,-0.0069767711684107,-0.014675036072731,0.014806886203587,0.1550679581053555,0.1313147774152457,-9.410081439614297,14936.0
18.79,1.0,240.0,23.155426025390625,23.131710052490234,-79.78275919815594,40.45898732168467,271.7502332401276,0.0049169855192303,-0.0036147418431937,-0.7010027766227722,0.7131325006484985,-0.0200636457931937,0.0885548511435242,0.0684110746033836,-0.0151439234614372,-0.0185116101056337,0.0343585498631,0.2007442323490976,0.0375410705152899,-9.576256969571114,14936.0
18.89,1.0,240.0,23.135393142700195,22.64665222167969,-79.78275909377322,40.458987333960174,271.75671208620065,0.0047088991850614,-0.0019553701858967,-0.7013260126113892,0.7128224372863771,-0.0023690782761541,0.0869517301081462,0.0614296581163244,0.0174542311578989,0.0360810980200767,0.0215175542980432,0.0846335038449615,0.0008843091409653,-9.730540432333944,14936.0
19.1,1.0,232.0,23.09031867980957,24.35628318786621,-79.78275876712017,40.458987505304215,271.7925970029831,0.0044223512522876,-0.0050723324529826,-0.7015817761421204,0.7125571966171265,-0.0213578572203588,0.0904110924243992,0.126284619655446,-0.0554125756025314,0.0602608993649482,-0.0578159540891647,0.0241630613710731,-0.1232074119150638,-9.902727484703064,14936.0
19.2,1.0,239.0,23.15667724609375,22.972675323486328,-79.78275846077868,40.45898761925153,271.8351672959328,0.0023452835157513,-0.0088040856644511,-0.7024900317192078,0.7116352915763855,-0.0155791067758423,0.101511246478447,0.1648356009905819,0.0255444776266813,0.0861876383423805,0.008966963738203,0.1774943690188229,-0.0752156402729451,-10.08832395672798,14936.0
19.39,1.0,241.0,23.1003360748291,23.71219062805176,-79.78275834192686,40.45898763487606,271.8525564146042,0.003368501085788,-0.0083993338048458,-0.7028343081474304,0.7112960219383241,-0.0322601879714999,0.105235228117458,0.1808739774871335,-0.1205253973603248,-0.0909704193472862,-0.1164120957255363,0.034233862501569,0.3049795856326818,-9.953687138557434,14936.0
19.5,0.8999999761581421,244.0,23.14540863037109,22.78183174133301,-79.78275797193469,40.45898763414444,271.8967394900322,0.0064845820888876,-0.0091888792812824,-0.7033409476280212,0.7107637524604797,0.0162898668621291,0.1078251295156707,0.1876332112853664,0.0921614468097686,0.085201509296894,0.0862268656492233,0.1360081729665398,-0.0912665944173932,-9.893955491781234,14936.0
19.69,0.8000000119209291,246.0,23.08656311035156,24.11773109436035,-79.78275784985317,40.45898763110593,271.9163257551193,0.0064513920806348,-0.0107913818210363,-0.7032818198204039,0.710800051689148,-0.0011011976221701,0.1099260714587511,0.19657562844212,-0.0723491534590721,-0.0140369283035397,-0.0854633376002311,0.1595221294462681,0.1930790077149868,-9.880375918149946,14936.0
19.8,0.8000000119209291,252.0,23.49222755432129,16.39655876159668,-79.78275759494196,40.458987586640895,271.9515995454788,0.00664436025545,-0.0099474946036934,-0.7032265663146973,0.7108652591705322,0.0180663349229142,0.0833567251444923,0.0620268014958291,-0.003223970066756,-0.0477933473885059,-0.0172582641243934,0.1635515188425779,0.1205900337360799,-9.82377720952034,14936.0
20.0,0.699999988079071,248.0,22.926300048828125,26.76567077636719,-79.78275750247185,40.45898757599576,271.9524634552002,0.0038700248114764,-0.0094523569568991,-0.7034751176834106,0.7106465697288513,0.0153843866439981,0.0773430856054223,-0.0273166123509321,-0.0081141982227563,-0.067580759525299,0.0629376098513603,0.1410575543157756,-0.0383188369916752,-9.0260117572546,14936.0
20.1,0.699999988079071,240.0,22.78481864929199,30.0736083984375,-79.78275707503192,40.45898771411344,271.9994637441635,0.0011161755537614,-0.0093163829296827,-0.7037099599838257,0.7104254364967346,0.0005117875462415,0.090308476752863,0.0575422801299327,-0.0161316487938165,-0.0756143406033515,-0.036474835127592,0.1545369943790137,0.1059357966855168,-9.864575572013855,14936.0
20.3,0.699999988079071,231.0,22.73724174499512,31.306133270263672,-79.78275679799192,40.45898777779311,272.04206825017934,0.002243194496259,-0.0091761862859129,-0.7034368515014648,0.7106950879096985,-0.004289862953487,0.0970411270257825,0.2922425369640335,0.0222523473203182,-0.0163276903331279,-0.0793259292840957,0.2245813388563692,0.0420407313667237,-11.041708960533144,14937.0
20.39,0.699999988079071,239.0,22.602020263671875,34.51865005493164,-79.7827566928763,40.45898778815543,272.0784854960441,0.0045103738084435,-0.0073279975913465,-0.7032694816589355,0.7108713388442993,-0.0103130144941674,0.0966908362441239,0.4382769784860311,0.0208651032298803,-0.035174299031496,-0.0602236911654472,0.1732689151726663,-0.0147707702312618,-11.2207144510746,14937.0
20.49,0.8000000119209291,267.0,22.62580871582031,33.03166961669922,-79.78275659000795,40.45898780209552,272.1317398619652,0.0064157526940107,-0.0071996059268713,-0.7032452225685121,0.7108819484710693,-0.0112753858594827,0.0988437368732782,0.6339126088002868,0.0354167781770229,0.0116367638111114,-0.0175271015614271,0.193583311792463,-0.0499930634256452,-12.018592754602432,14937.0
20.7,0.8000000119209291,17.0,22.39918708801269,38.57405471801758,-79.78275630815429,40.45898800300739,272.30601013422006,0.0025322993751615,-0.0102427499368786,-0.7033737301826477,0.7107419967651367,-0.0277285299440445,0.0995994321771362,1.106095946716126,-0.0689224153757095,0.0399828515946865,-0.0470416992902755,0.1830183980986476,0.1084343850240111,-12.30641609787941,14937.0
20.9,0.8000000119209291,52.0,22.45052146911621,36.506595611572266,-79.78275602916493,40.4589881481152,272.58343941688537,0.0034051826223731,-0.0063284737989306,-0.703104555606842,0.7110502123832703,-0.0139356274249545,0.1059907757603169,1.631679603454855,0.1458700895309448,-0.0007332929526455,0.0466160103678703,0.1516191515419632,-0.0232033277163282,-12.53259341597557,14937.0
21.0,0.8999999761581421,89.0,22.39918708801269,37.99357604980469,-79.78275593446016,40.45898818465834,272.75974673748016,0.0054237926378846,-0.0034548400435596,-0.7027989625930786,0.7113595604896545,-0.0372231630400004,0.1055045080017303,1.89270187652042,-0.0041888318955898,0.0292263198643922,-0.0655193701386451,0.1027819912880659,0.0925193238258362,-12.408061755895616,14937.0
21.09,0.8999999761581421,90.0,22.488082885742188,36.03744125366211,-79.7827557245458,40.45898832190842,272.9595622491836,0.0062259631231427,-0.0028915228322148,-0.7024965286254883,0.7116541266441345,-0.0432754446083145,0.1132890612847018,2.131935181277354,0.0269009508192539,-0.0040669869631528,0.0027047521434724,0.1413148318044841,0.0391487441863864,-12.41321783065796,14937.0
21.29,0.8999999761581421,84.0,22.38541412353516,37.69935989379883,-79.78275538968352,40.45898846921232,273.4341949892044,0.0054172505624592,-0.0019943413790315,-0.7019396424293518,0.7122130393981934,-0.0354014095999757,0.1323602611129046,2.6299221990410304,0.0137965744361281,0.0397270768880844,-0.0564122088253498,0.1002043559029698,-0.0217266819253563,-12.304242103099826,14938.0
21.49,0.8999999761581421,88.0,22.7497615814209,26.76567077636719,-79.78275514662867,40.45898849925506,274.00748211860656,0.007044153753668,-0.0026475305203348,-0.7017020583152771,0.7124308943748474,-0.0160214556056721,0.1391103174682637,3.0713263050782524,0.0253578815609216,0.026856493204832,-0.0370149463415145,0.148906162250787,0.1415444629266858,-11.824878008365635,14939.0
21.6,1.2000000476837158,80.0,22.09368705749512,29.48517799377441,-79.7827547726141,40.45898860133612,274.30397874832147,0.0087647344917058,-0.0020176253747195,-0.7016968727111816,0.7124188542366028,-0.0196886511504198,0.1664905157415044,3.169148586677239,-0.0054798792116343,0.0073574678972363,-0.0495606400072574,0.1534124286286532,0.1281957994960248,-11.151126737594604,14939.0
21.8,1.2000000476837158,80.0,22.81236457824707,27.27458381652832,-79.78275422139137,40.45898873179924,274.90409452438354,0.0103054791688919,-0.0045222104527056,-0.7014318704605103,0.7126476764678955,-0.0265181365999661,0.1791287238636182,3.2029363385404523,-0.0995054021477699,0.0096000544726848,-0.1213597655296325,0.1337521709874272,0.0986113368161022,-10.332893106937409,14939.0
21.89,1.2999999523162842,82.0,22.889991760253903,26.11362648010254,-79.78275407937987,40.45898871329682,275.22864253044133,0.0105929858982563,-0.0082775400951504,-0.7012470960617065,0.7127915620803833,0.0101765804699886,0.1862803583235442,3.2757264955960848,0.0066967536695301,0.0400194227695465,-0.0003224156680516,0.1693201990798115,-0.0748022147174924,-10.445225136280062,14940.0
21.99,1.2000000476837158,86.0,22.78857421875,27.505186080932607,-79.78275394743422,40.45898868378018,275.5573538017273,0.0107379015535116,-0.0095335561782121,-0.7013477683067322,0.7126746177673341,0.0326401032275703,0.1986826402065973,3.282239962401755,0.0176067873835563,-0.0085074370726943,0.0714377611875534,0.1993036063201724,-0.0295833845995366,-9.986127490997315,14940.0
22.2,1.100000023841858,88.0,22.84992599487305,25.898927688598643,-79.78275307355905,40.45898877078088,276.49842388153075,0.0086814658716321,-0.0053472900763154,-0.7014031410217285,0.7126919031143188,0.0369723668153444,0.1658563510490684,3.2250996869586515,0.0694135427474975,0.0380572862923145,0.0034794718958437,0.1019634998682886,-0.1014115501195192,-9.789008495807648,14941.0
22.39,1.100000023841858,97.0,22.730979919433597,28.37988090515137,-79.78275295193289,40.4589887331676,276.8202784729004,0.0113106956705451,-0.0052797216922044,-0.7013161182403564,0.7127411961555481,0.0234009670984301,0.1673333857975751,3.20736329750508,-0.0770835652947425,0.0207173563539981,-0.0525354593992233,0.1393357503041625,0.1116415279917419,-9.64551373064518,14941.0
22.5,1.0,94.0,22.80109596252441,27.40181350708008,-79.78275283517522,40.45898868818092,277.140472240448,0.0134027991443872,-0.0061593810096383,-0.7013154625892639,0.7126984596252441,0.0237854008752811,0.1681373983374115,3.195506838414293,-0.0479305647313594,0.0128643754869699,-0.0652198493480682,0.2344760154560208,-0.0049851350672543,-9.7240956312418,14942.0
22.69,0.8999999761581421,93.0,22.769794464111328,28.37988090515137,-79.78275239707146,40.45898866176746,277.7517178726196,0.0129797561094164,-0.0128949228674173,-0.7016845345497131,0.7122527956962585,0.0380849338545606,0.1830689862140821,3.1725227106336416,-0.0931088998913765,0.0231660790741443,-0.0641804039478302,0.2264477335475385,0.1037384678609669,-9.89828243136406,14942.0
22.79,1.0,86.0,22.79358291625977,27.51313781738281,-79.78275209947745,40.45898866825493,278.0501430702209,0.0120779750868678,-0.0150253819301724,-0.7018819451332092,0.7120323777198792,0.0574520859033428,0.1865463094085319,3.154512862345938,-0.0872384086251258,-0.0505008287727832,-0.0744483843445777,0.1887593406066298,0.1151776956114918,-9.870676556825636,14943.0
22.89,0.8999999761581421,87.0,22.73974418640137,27.58470344543457,-79.78275202338223,40.45898861167598,278.3659403991699,0.0112450569868087,-0.0146542452275753,-0.7020013928413391,0.7119360566139221,0.0680371247645893,0.1761008429584036,3.152612354630292,-0.0975669249892234,-0.0037399120628833,-0.045243352651596,0.1925732601061463,0.1224229713901877,-9.822418316602707,14943.0
23.1,1.0,98.0,22.799842834472656,27.67217254638672,-79.78275179128076,40.458988404150894,279.29136878967284,0.0080290082842111,-0.0125176236033439,-0.7018682956695557,0.7121515274047852,0.0787652380351057,0.1138899073905587,3.1046259800351925,-0.0222880020737648,-0.0405915006995201,-0.0746277943253517,0.1534956418164074,0.1303016193956137,-9.785725284218788,14944.0
23.19,0.8000000119209291,98.0,22.799842834472656,26.360130310058597,-79.78275187801242,40.45898825549673,279.54965145111083,0.0066663571633398,-0.0122073153033852,-0.7021615505218506,0.7118818163871765,0.0839236516097587,0.080298938809176,3.0273062897153533,-0.0999241396784782,-0.0504542328417301,-0.0663334056735038,0.1284313052427023,0.2270490100421011,-9.558038799762729,14944.0
23.39,0.699999988079071,116.0,22.69467163085937,28.57072448730469,-79.7827518909032,40.45898819219249,279.85052616119384,0.0050339098088443,-0.0130268074572086,-0.7024741768836975,0.7115722298622131,0.1064275751657052,0.0613823495140213,2.9879485786326536,0.1135749369859695,0.0597115233540535,0.1402247548103332,0.2432492509111762,-0.0952640982158482,-9.49005029976368,14944.0
23.59,0.699999988079071,131.0,22.84366607666016,26.7418155670166,-79.78275166421834,40.45898774106962,280.4979270172119,0.0031467350199818,-0.0126058245077729,-0.7033688426017761,0.7107064127922058,0.1319434228133278,0.0567821910392727,2.98619273790631,0.0136874802410602,-0.00161712418776,0.0042570973746478,0.1814767431467772,-0.067515843976289,-9.85189880847931,14945.0
23.7,0.8999999761581421,104.0,22.799842834472656,26.58278083801269,-79.7827516814393,40.45898766517208,280.7961905670166,0.0036959077697247,-0.0116443177685141,-0.7037696242332458,0.7103232741355896,0.1098536056493269,0.0521196970933942,2.9696114793551565,-0.0980135947465896,-0.1170477047562599,-0.0412111803889274,0.1580594484508037,0.1166628792509436,-9.66803720533848,14945.0
23.79,0.8999999761581421,130.0,22.79358291625977,26.46350288391113,-79.78275150841445,40.45898708543107,281.5092347335816,0.0024764316622167,-0.0120960744097828,-0.7035405039787292,0.7105479240417479,0.1517252570066397,0.0599189132518971,2.96951527282794,0.070222184062004,0.0001771316747181,0.0120680062100291,0.2613407005928457,-0.0103963951114565,-9.651732244491578,14946.0
24.0,0.8999999761581421,151.0,22.813615798950195,25.350255966186523,-79.7827515158043,40.45898699080789,281.8057730865478,0.0014308964600786,-0.0128644006326794,-0.7028143405914307,0.7112556099891663,0.1467906422380351,0.0560701540761376,2.9610676262665616,-0.0143756810575723,0.0092579768970608,0.0219328291714191,0.1803262669220567,-0.052989542176947,-9.72210640847683,14946.0
24.19,0.8999999761581421,197.0,22.81612014770508,25.191219329833984,-79.78275107774414,40.45898673662568,282.4857552719116,0.0004982404643669,-0.0139337470754981,-0.7015066146850586,0.7125266194343567,0.1391374060855531,0.0774934538563619,2.9182207899927284,-0.1166752129793167,-0.0444428659975528,-0.1581330448389053,0.1531752143986523,0.3299346980452537,-9.38620959699154,14947.0
24.29,1.0,77.0,22.67338562011719,28.89674568176269,-79.7827512182511,40.45898654135424,282.8644574356078,0.0010629418538883,-0.0139690432697534,-0.7010310292243958,0.7129932641983032,0.1634715261382866,0.0472612730161291,2.9197272063807533,0.1009161621332168,0.0158631559461355,0.0461850352585315,0.2245106971822679,0.0440759370010346,-9.473624301552771,14947.0
24.49,1.0,2.0,22.71720886230469,28.125423431396484,-79.78275123742985,40.45898637853139,283.4437459182738,7.054937304928899e-05,-0.0134810386225581,-0.7010013461112976,0.7130325436592102,0.1295288561112852,0.0489645835610933,2.880898149576109,-0.0544502660632133,-0.0441941060125827,-0.046365275979042,0.208893789164722,-0.0104912753216922,-9.682072861790658,14948.0
24.59,1.0,359.0,22.66963005065918,29.18301010131836,-79.7827512048417,40.45898622736448,284.1169217300415,-0.0018066399497911,-0.0151363788172602,-0.7016116976737976,0.7123964428901672,0.1268738725768704,0.024746256809873,2.935059405965084,-0.0183462798595428,-0.0267841164022684,-0.0565438419580459,0.170597029980272,0.2586869965866208,-9.747655817270278,14949.0
24.69,1.0,359.0,22.714704513549805,27.560848236083984,-79.78275141544401,40.45898616599733,284.48929721832275,-0.0017465956043452,-0.0148239312693476,-0.7017771601676941,0.7122402191162109,0.1129341797323788,0.0061290034551855,2.999188577186461,-0.0076081124134361,-0.0200323108583688,0.00166670687031,0.1497579827997833,0.2253185448423028,-9.884065511226655,14949.0
24.9,1.2000000476837158,4.0,22.710947036743164,27.02012825012207,-79.78275147149333,40.45898613103947,284.78883010864257,-0.0021404037252068,-0.0141312619671225,-0.7018901705741882,0.712141752243042,0.114163073469434,0.0053304172520165,2.9830160010033184,0.1354690790176391,0.0820608213543891,0.1345934420824051,0.2093374101072549,-0.0324021354038268,-9.703222825527194,14949.0
25.09,1.2999999523162842,1.0,22.747257232666016,27.179162979125977,-79.78275155564741,40.45898598172764,285.43915588378906,-0.0028709052130579,-0.0126160541549325,-0.7023419737815857,0.7117221355438232,0.0803986140113402,-0.0108991621093935,2.98753681450186,-0.0897275358438491,-0.0228707641363143,-0.0587128177285194,0.2058000273630023,0.2194193437881768,-9.638413456678393,14950.0
25.2,1.2999999523162842,11.0,22.66963005065918,28.63433837890625,-79.78275161751246,40.458985966879,285.73755008697515,-0.0028925603255629,-0.0129013899713754,-0.7023700475692749,0.711689293384552,0.0758164443880067,-0.0080052969721084,2.979880594556917,0.0358227491378784,-0.0095791723579168,0.0103779807686805,0.1487315863184631,0.1190218835882842,-9.67324648976326,14950.0
25.29,1.2000000476837158,18.0,22.727224349975582,27.79940223693848,-79.78275179899106,40.45898587724428,286.3813451004028,-0.00031279027462,-0.011987498961389,-0.7020435333251953,0.7120331525802612,0.0551060531167256,-0.0105598758436675,3.0095091340441646,-0.0256996713578701,-0.063345193862915,-0.00285035232082,0.1314443663321435,-0.0366844442859292,-9.816458834409712,14951.0
25.49,1.2000000476837158,22.0,22.64333724975586,28.745662689208984,-79.78275186675197,40.45898588753306,286.6827014160156,-0.0003281045355834,-0.011544119566679,-0.7017282843589783,0.7123511433601379,0.0209926177778461,-0.0079967265905333,3.0173447640293825,-0.0994028598070144,0.0069841151125729,-0.0484662763774395,0.1734972123987972,0.1476292399875819,-9.84691815018654,14951.0
25.59,1.2000000476837158,31.0,22.70719146728516,27.38591003417969,-79.7827520847118,40.4589858909877,287.3279555511474,-0.0015270080184563,-0.0104975812137126,-0.7004929184913635,0.7135805487632751,0.0029205646760301,-0.020821761547369,3.0649094960150336,-0.0367603152990341,-0.0018841300625354,-0.0927801206707954,0.1459040464181453,0.2529677984118462,-9.915719997882844,14952.0
25.79,1.100000023841858,31.0,22.66211700439453,28.32421875,-79.78275215514171,40.45898588675984,287.66458160400384,-0.0018837505485862,-0.0091601181775331,-0.6997404098510742,0.7143359780311584,0.0090577239116207,-0.0267801579536317,3.072036604193769,0.0858887210488319,0.0074802623130381,0.029644327238202,0.1774498388171196,0.0050414967443794,-9.8543183863163,14952.0
26.0,1.2000000476837158,33.0,22.66462135314941,27.91867828369141,-79.78275228166302,40.45898599151399,288.28129989624017,-0.0011632954701781,-0.0062938840128481,-0.6982241272926331,0.7158506512641907,-0.0127770531268891,-0.0230857969087173,3.093550417117987,0.150856077671051,0.033907450735569,0.0641427263617515,0.1951300099678337,-0.062951863752678,-9.916821613311768,14953.0
26.1,1.399999976158142,30.0,22.677143096923828,27.823257446289062,-79.78275243075444,40.45898605969328,288.61440116882324,-1.9514312953106128e-05,-0.0057338681071996,-0.697856605052948,0.7162145376205444,-0.0433583016037039,-0.0271178184228611,3.102231538426949,0.0459403730928897,0.0725499168038368,0.0310323480516672,0.1258116704039275,0.1266661678813398,-9.86832948446274,14953.0
26.19,1.399999976158142,28.0,22.640832901000977,27.99819564819336,-79.78275248313132,40.4589861281079,288.9251120758057,0.0009326015715487,-0.0054102507419884,-0.6978204250335693,0.7162517309188843,-0.0432969730231778,-0.0145315479667615,3.1147879099732405,0.1012974306941032,-0.0093138581141829,0.0720234662294387,0.1971345268562436,-0.0556093231961131,-9.951961040496826,14953.0
26.4,1.399999976158142,31.0,22.79358291625977,25.350255966186523,-79.78275255860814,40.45898623298579,289.5680983734132,0.001482269144617,-0.005625213496387,-0.6989462971687317,0.7151505351066589,-0.047992674053799,0.0081023205511282,3.1440261450536418,0.0692124366760253,-0.0125748952850699,0.0073704328387975,0.2373959139548242,0.0682678415905684,-9.944968940019608,14954.0
26.49,1.2000000476837158,27.0,22.693418502807607,26.7418155670166,-79.78275258153101,40.45898629623994,289.8817332458496,0.0019596784841269,-0.0048709763213992,-0.6999479532241821,0.7141746282577515,-0.0516391230307864,0.0190322431732204,3.1248153798215563,0.0220717769116163,0.0329898633062839,0.0609829537570476,0.1507121022138744,0.2083550413325429,-9.66079308986664,14954.0
26.7,1.2999999523162842,22.0,22.727224349975582,26.39988899230957,-79.78275261007569,40.45898633973054,290.51529724121093,0.002449095249176,-0.0031988972332328,-0.7016133666038513,0.7125465273857117,-0.0415698800430974,0.0198138092097889,3.0920202960920498,-0.0064322189427912,0.0614378489553928,0.0053612855263054,0.1299044929537922,0.0452841818891465,-9.771805402636527,14955.0
26.89,1.399999976158142,22.0,22.7497615814209,26.41579246520996,-79.78275254959641,40.45898652907673,291.15064460754394,0.004374245647341,-0.0041062766686081,-0.7028838396072388,0.7112793922424316,-0.0527053718597905,0.0399321481934256,3.0980280125769992,0.0031258712988346,0.0457716919481754,-0.0013343202881515,0.2164007917977869,0.21414822505787,-9.825560610294342,14956.0
27.0,1.399999976158142,5.0,22.65585708618164,27.40181350708008,-79.78275253498815,40.458986572455686,291.46022636413574,0.0040743113495409,-0.0057559632696211,-0.7032520174980164,0.7109057307243347,-0.0385362526536859,0.0560295436234073,3.0890102100625576,0.0290527120232582,0.0287618525326252,0.0705000385642051,0.1576859392784536,-0.0099219940602779,-9.714061224460602,14956.0
27.2,1.5,359.0,22.71345138549805,26.55892562866211,-79.78275251422828,40.45898686908354,292.1191390228272,0.0024489967618137,-0.0061996253207325,-0.7037212252616882,0.7104449272155762,-0.0539034426108274,0.0750841742554671,3.088910785451165,-0.0561509281396865,-0.0636671781539917,-0.0732996985316276,0.182766017653048,0.2200754196569324,-9.662958898544312,14957.0
27.3,1.7000000476837158,356.0,22.730979919433597,26.272661209106445,-79.78275247282515,40.45898691987446,292.4493296813965,0.0046916995197534,-0.0040188627317547,-0.7038097381591797,0.710361659526825,-0.0476324419995415,0.066774154004882,3.0920952086177147,0.0566052012145519,-0.0458315573632717,-0.0775025337934494,0.1918855179101228,0.1885538292489946,-9.712199470996858,14957.0
27.5,1.7000000476837158,358.0,22.66587448120117,27.043983459472656,-79.78275240587097,40.45898702685447,293.0665133666992,0.007902349345386,-0.0071994788013398,-0.7029305100440979,0.7111782431602478,-0.0638896758645593,0.0799609135184558,3.074270109866877,-0.0378477461636066,2.847009000106482e-06,-0.039522647857666,0.1908708615414798,-0.0814818820171058,-9.7022317224741,14958.0
27.6,1.399999976158142,354.0,22.78857421875,24.642547607421875,-79.78275226015964,40.45898706289806,293.39404518127435,0.0072614597156643,-0.0096723129972815,-0.7024157643318176,0.7116641402244568,-0.0546842814117792,0.101502919491934,3.0797609531276207,-0.1623284518718719,-0.0747760608792305,-0.1060865968465805,0.20397523926571,0.3256826759129763,-9.668465806245806,14958.0
27.8,1.399999976158142,355.0,22.62080001831055,28.713855743408203,-79.78275210251887,40.45898708292517,294.0241759490967,0.0040832045488059,-0.0082168839871883,-0.7007142901420593,0.7133829593658447,0.0036722284097611,0.0966121448842415,3.038022981604293,0.0352850072085857,0.0586461015045642,0.0319108478724956,0.1555418018437922,-0.023544681770727,-9.507224741578105,14959.0
27.9,1.5,356.0,22.71345138549805,26.15338516235352,-79.78275206417541,40.45898709983311,294.3271773529052,0.0047490689903497,-0.0078594647347927,-0.7001072764396667,0.7139787077903748,-0.0153019570583839,0.0867616279696697,3.0252324500748187,-0.1528948843479156,-0.090131290256977,-0.0898441225290298,0.1093540698196739,0.2488566576316953,-9.631134842634204,14959.0
28.0,1.5,354.0,22.624555587768555,28.47530174255371,-79.7827520260301,40.458987114092366,294.6296466064453,0.0051886718720197,-0.0079897688701748,-0.700164258480072,0.7139182090759277,0.0056528584021521,0.0813722044824938,3.02095973641526,0.0956814587116241,0.0956504046916961,0.0171917267143726,0.1983047374337912,0.1313160564936697,-9.733913691043854,14959.0
28.2,1.600000023841858,353.0,22.560701370239247,28.817228317260746,-79.78275189800213,40.45898709156796,295.5765326690674,0.0060964412987232,-0.01147495303303,-0.7013636231422424,0.7126852869987488,-0.0034029542343866,0.0972295958459333,3.0592438783169,-0.1003496497869491,-0.0272897109389305,-0.0961102470755577,0.1948756195418536,0.0430261333845555,-9.795349801182748,14960.0
28.3,1.600000023841858,352.0,22.652101516723643,27.55289649963379,-79.7827518659087,40.45898710303064,295.8828833770752,0.00538693042472,-0.0127374613657593,-0.7012701630592346,0.7127615213394165,0.0174929767048592,0.0988982793256214,3.0646857665146183,0.0512449629604816,0.0703927055001258,0.0601296424865722,0.1944692380540073,0.0098235689755529,-9.870264912843703,14960.0
28.5,1.600000023841858,351.0,22.73724174499512,25.42182159423828,-79.78275183694943,40.45898711721086,296.18970710754394,0.0040749739855527,-0.013583144173026,-0.7010175585746765,0.7130030393600464,0.0209716932109308,0.1015535913226734,3.0697165284793693,-0.0037019248120486,-0.0474304482340812,0.0754458755254745,0.1748228492774069,-0.1255436395201832,-9.872111463546752,14961.0
28.69,1.7999999523162842,356.0,22.697175979614247,25.80350685119629,-79.78275170891723,40.45898712908928,296.80868942260736,0.0049314121715724,-0.010050144046545,-0.7007026672363281,0.7133656144142151,0.0219272028627244,0.0973496597876754,3.074085825477124,-0.0730895847082138,-0.1216206923127174,-0.1038796529173851,0.1471894836891442,0.2571932157129049,-9.80414342880249,14961.0
28.8,1.7999999523162842,358.0,22.63832855224609,27.831209182739247,-79.78275167306846,40.45898712584452,297.118978805542,0.0063429158180952,-0.0088384756818413,-0.7007779479026794,0.7132965326309204,0.0261781187974341,0.0856780684889957,3.0771241979299986,0.0405551604926586,0.0884057655930519,0.0034004265908151,0.1553143634274602,0.1958058201894164,-9.822563327550888,14962.0
28.99,1.7999999523162842,358.0,22.67964744567871,26.63049125671387,-79.78275162866609,40.45898711475702,297.7338278961182,0.0068994034081697,-0.0116865914314985,-0.7002565264701843,0.7137623429298401,0.0190911090480758,0.0858213883281068,3.076996760010879,-0.0845024958252906,0.0628467872738838,-0.0148209109902381,0.162411969602108,0.0923963587079197,-9.843781703710556,14962.0
29.1,2.0,359.0,22.67338562011719,26.39988899230957,-79.78275153133593,40.45898710303896,298.3463862609863,0.0057098371908068,-0.0121118715032935,-0.700042188167572,0.7139759659767151,0.0432371525649803,0.0877184357913443,3.0456295297957907,-0.0139913354068994,0.0232080537825822,-0.0185933392494916,0.2205741323344409,0.0985544360987842,-9.704882850050929,14963.0
29.19,2.0,0.0,22.69091415405273,26.54302215576172,-79.78275152527846,40.45898709465624,298.65428192138666,0.0063058310188353,-0.0122124003246426,-0.7000386118888855,0.713972806930542,0.058440576772801,0.0795100726514913,3.0334126890049617,0.0887984037399292,-0.0039938325062394,0.1028378009796142,0.1992471624165773,-0.0172588221612386,-9.672190482616426,14963.0
29.39,2.0999999046325684,2.0,22.648345947265625,27.15530776977539,-79.78275152502968,40.45898707472643,298.95747406005864,0.0060532172210514,-0.011925121769309,-0.6999996304512024,0.7140180468559265,0.0563651833288916,0.0775171808707708,3.0293004068650577,0.0477649867534637,0.0358684659004211,0.0774566680192947,0.1858397710137069,-0.0726970983110368,-9.745270153284071,14963.0
29.59,2.0999999046325684,3.0,22.604522705078125,27.43362045288086,-79.78275153304355,40.45898697707428,299.5660556030273,0.0061323544941842,-0.010659915395081,-0.7005331516265869,0.7135139703750609,0.0588245711344347,0.0608736888261036,3.038284384247427,-0.0635930746793747,-0.0289816036820411,-0.0285500138998031,0.1543035991117358,0.2464341379143297,-9.833889384269716,14964.0
29.71,2.200000047683716,10.0,22.67964744567871,26.73386383056641,-79.78275155219559,40.45898693945257,299.8708861541748,0.0057070907205343,-0.0098561933264136,-0.7006650567054749,0.7133994698524475,0.0540974454501555,0.0524431185932244,3.0559128175016363,-0.0735238716006279,-0.0183653607964515,-0.0671716555953025,0.2444125910103321,0.2262495494820177,-9.940410450696945,14964.0
29.9,2.299999952316284,14.0,22.55819702148437,28.47530174255371,-79.78275160312346,40.45898687007789,300.47982246398925,0.0038401097990572,-0.0124439503997564,-0.7003541588783264,0.7136768102645874,0.0824599835724096,0.0329095341197769,3.04158873029584,0.0865180715918541,0.0897907689213752,0.1110744848847389,0.191645708978176,-0.09554975297302,-9.819941436052323,14965.0
29.99,2.299999952316284,20.0,22.62956428527832,27.89482307434082,-79.78275164429328,40.458986834452965,300.7850993347168,0.00339568243362,-0.0132872182875871,-0.6998800039291382,0.7141288518905641,0.0824527798922426,0.0324440271831239,3.062741239035857,0.0359994918107986,-0.0460275337100029,0.0725177973508834,0.1263811892084777,-0.0234770916122943,-9.9521095597744,14965.0
30.19,2.299999952316284,24.0,22.66462135314941,25.779651641845703,-79.78275171485525,40.45898667251311,301.3939116668701,0.0022264760918915,-0.0096313031390309,-0.6994839906692505,0.7145799398422241,0.0979618142118818,0.0146826210884721,3.0923833539375263,0.0930393263697624,-0.0652640014886856,0.0366414375603199,0.1554077178798616,-0.0562108737789094,-10.020986251831054,14966.0
30.3,2.299999952316284,28.0,22.60076713562012,27.12350082397461,-79.78275179376278,40.45898663173627,301.69937164306634,0.0027473436202853,-0.006949639879167,-0.6995288133621216,0.7145653367042542,0.0909401883509707,0.0018164846798694,3.101744008941361,0.0339177288115024,-0.0006411570939235,0.0488490536808967,0.1185727260634303,8.359691128134726e-05,-9.988375160694124,14966.0
30.49,2.299999952316284,27.0,22.62580871582031,26.209047317504893,-79.7827519049591,40.45898653320543,302.3195002746582,-0.0010019980836659,-0.0059277843683958,-0.7000508308410645,0.7140676975250244,0.0576176713833858,-0.0082694146257807,3.0999123876646744,-0.1400182992219925,-0.0771651938557624,-0.0774210914969444,0.1313892197795212,0.239621948953718,-9.796608706712725,14967.0
30.59,2.299999952316284,30.0,22.66086578369141,26.94061088562012,-79.78275193932654,40.45898650786041,302.6208823394776,-0.0026060645468533,-0.0063525824807584,-0.7002538442611694,0.7138609886169434,0.0862222563916408,-0.0165958553330204,3.090004649464866,0.0286358352750539,0.0236095953732728,-0.0705718174576759,0.1741444260813296,0.21173688814044,-9.864344022274018,14967.0
30.69,2.299999952316284,32.0,22.678394317626957,25.437725067138672,-79.78275197668759,40.45898645984325,302.92940742492675,-0.0017527843592688,-0.0072812461294233,-0.700171709060669,0.7139353156089783,0.0931305238238944,-0.0131363592948036,3.0786575468760287,0.0194924622774124,0.1057378053665161,0.0498762615025043,0.0884030119143426,0.1276327765826136,-9.733318444490427,14967.0
30.9,2.299999952316284,36.0,22.6420841217041,26.28856468200684,-79.78275211466756,40.45898631576731,303.5384677124024,0.0017691303510218,-0.011508110910654,-0.6999398469924927,0.7141069173812866,0.0804780827478393,0.006297931283787,3.065569240818228,-0.0799384862184524,0.0722622498869896,-0.0761890038847923,0.1773313596099615,0.3009021028876305,-9.800250937342645,14968.0
31.1,2.400000095367432,36.0,22.66462135314941,25.75579643249512,-79.78275222260042,40.458986240693775,304.1538241577148,0.0022860032040625,-0.010239222086966,-0.6999329924583435,0.7141315340995789,0.0869120596299425,0.0273556588332785,3.062336015725365,0.0985419377684593,0.0583174042403698,0.098040759563446,0.1670889015868306,0.0375208884850144,-9.72522355914116,14969.0
31.2,2.200000047683716,36.0,22.63707733154297,27.91867828369141,-79.78275226306751,40.45898620588408,304.460079498291,0.0011792918667197,-0.0092779155820608,-0.699881911277771,0.7141973972320557,0.0764104692951751,0.0188514448039544,3.061735993029876,-0.0090725691989064,-0.0488028228282928,0.0142712807282805,0.1226051669754088,-0.1175721030123532,-9.783172974586488,14969.0
31.29,2.0999999046325684,33.0,22.61203575134277,27.00422477722168,-79.78275228499814,40.45898616481429,304.76883346557617,0.0012444292660802,-0.0086617870256304,-0.6999247074127197,0.7141631245613098,0.0625691647927148,0.0119544692833107,3.0470820726740504,-0.0587399080395698,0.0041474713943898,-0.0545087754726409,0.171187397763133,0.2314743473008275,-9.696651724576949,14969.0
31.5,1.8999999761581416,26.0,22.519384384155277,29.278430938720703,-79.78275235458192,40.45898610190206,305.3785021972656,0.0027820845134556,-0.0099316360428929,-0.6998295187950134,0.7142354846000671,0.0725086909990345,0.0175471807079676,3.0499437052073946,0.0945667400956154,0.0817381665110588,0.1096261665225029,0.2207501883432269,-0.0923347254004329,-9.84236901640892,14970.0
31.59,1.8999999761581416,27.0,22.645841598510746,26.25675773620605,-79.78275238527272,40.45898608442676,305.6907427978516,0.0026517752557992,-0.0107567403465509,-0.6999293565750122,0.7141262292861938,0.0673937014034782,0.0275037437007413,3.0731851027147186,0.0235808137804269,-0.0234044715762138,0.0946604311466217,0.1483975823968649,-0.0622801831271499,-9.925149217844009,14970.0
31.8,1.7999999523162842,27.0,22.61704444885254,27.25072860717773,-79.78275247039795,40.45898601808726,306.30639678955083,0.001699473708868,-0.0103435544297099,-0.7001742124557495,0.7138950824737549,0.0677166101141197,0.0252959297873479,3.067601325408107,-0.0505679212510585,-0.0822284668684005,-0.0762515738606453,0.1376745746098459,-0.0195714530535042,-9.728405029177669,14971.0
31.99,1.8999999761581416,28.0,22.561954498291016,28.01409912109375,-79.78275255468834,40.45898596233553,306.91418869018554,0.0014128033071756,-0.0081144226714968,-0.701288640499115,0.7128298878669739,0.072650136180722,0.0080559943006838,3.0183613083977963,0.073341354727745,0.0102807832881808,0.0700530409812927,0.1136970983818173,-0.0241348965209908,-9.616157784461976,14971.0
32.1,1.8999999761581416,32.0,22.63457298278809,26.46350288391113,-79.7827526364433,40.45898596814738,307.2283557128906,0.000977674499154,-0.0071126371622085,-0.7016509175300598,0.7124847173690796,0.0675719359992852,-0.0016047994297804,3.029003960346724,0.0650405660271644,0.0735015347599983,0.0739422515034675,0.1767746133171022,-0.034970616241917,-9.741910927891732,14972.0
32.2,2.0,33.0,22.59450721740723,27.043983459472656,-79.7827527240267,40.45898586208916,307.84178955078124,-0.0003165281086694,-0.0057478556409478,-0.7017309665679932,0.712418794631958,0.0655842753515908,0.0003656247545432,3.0333541141917486,0.0653842687606811,0.1099154502153396,0.07488813996315,0.1651740480959415,0.1181677881069481,-9.817813049554823,14972.0
32.4,2.0,35.0,22.65585708618164,25.54109764099121,-79.78275277714141,40.45898579950087,308.4530909729004,-0.0014345475938171,-0.0064815995283424,-0.7008040547370911,0.7133229374885559,0.0539928814133143,0.0023998128669565,3.0765290615325083,-0.1506129503250122,-0.0343462601304054,-0.0824374929070472,0.1304971630778163,-0.1303577983472496,-10.017295489311216,14973.0
32.6,2.0999999046325684,37.0,22.55945014953613,27.86301612854004,-79.7827528063354,40.45898578029019,308.76164657592767,-0.0016667732270434,-0.0084156738594174,-0.7000472545623779,0.714044988155365,0.066037681540075,0.0018403539323541,3.0785261740982848,0.006692006252706,0.0445254519581794,-0.0544872656464576,0.1565995814278722,0.1812690939009189,-9.900043612718582,14973.0
32.7,2.200000047683716,40.0,22.52939987182617,28.825180053710927,-79.78275282758158,40.4589857546509,309.070244140625,-0.0017341906204819,-0.0111387651413679,-0.6993081569671631,0.7147315144538879,0.0779356856502556,0.0148392841692407,3.093393399195252,0.0169392209500074,0.0586182437837123,0.017080595716834,0.1126961098797619,0.0387255017040297,-9.931348435878752,14974.0
32.89,2.299999952316284,42.0,22.6132869720459,26.41579246520996,-79.78275290034165,40.45898567260877,309.6884425354004,-0.0040125623345375,-0.0109246559441089,-0.6984317898750305,0.7155820727348328,0.0908423188176065,0.0202792527086622,3.1323878370248366,0.0197012852877378,-0.0782945081591606,0.0126670934259891,0.1072876089904457,-0.0206622876785695,-10.0589592397213,14974.0
33.0,2.5999999046325684,49.0,22.52439308166504,28.35602569580078,-79.78275292647879,40.45898565510635,310.0027507019043,-0.0051641804166138,-0.0093476129695773,-0.6980260014533997,0.7159928679466248,0.0731576119150176,0.0092861469947951,3.1492327920116634,-0.1041844636201858,-0.0231297947466373,-0.0838810130953788,0.0575263876654207,0.2267458136379719,-9.967700575590133,14975.0
33.09,2.700000047683716,50.0,22.72597312927246,23.9825496673584,-79.78275295656525,40.45898570938896,310.6227801513672,-0.0061971014365553,-0.0061337957158684,-0.6977980136871338,0.7162415981292725,0.0604930633394303,-0.0056644277655943,3.158774459260852,0.033170361071825,0.0166097804903984,-0.0043294657953083,-0.0222549321781843,0.2785923439264298,-9.917933753728867,14975.0
33.29,2.900000095367432,50.0,22.644588470458984,25.76374816894531,-79.78275301673392,40.45898570842331,310.933655090332,-0.0052995178848505,-0.0060956147499382,-0.6979596018791199,0.7160916924476624,0.0647219076777803,-0.0123561816582075,3.1327402863044687,0.0792131200432777,0.0153723610565066,0.1196094080805778,0.0198944591847248,-0.0739372196607291,-9.75322061240673,14975.0
33.4,2.799999952316284,49.0,22.603271484375,26.527118682861328,-79.7827530273563,40.45898571219652,311.2464297485352,-0.0043662483803927,-0.0068391161039471,-0.6981818079948425,0.7158744931221008,0.0450880653412242,-0.0068455295194215,3.1208411448788023,0.0224835202097892,0.0742573291063308,0.0164311490952968,0.0511945566069334,0.0748714402690529,-9.713970592617988,14976.0
33.59,2.799999952316284,52.0,22.55319023132324,27.735788345336918,-79.78275307988497,40.458985774718535,311.87662536621093,-0.0021872222423553,-0.0077323871664702,-0.6987095475196838,0.7153603434562683,0.0426970166480246,0.0090842593839803,3.1308697237568923,0.1364337354898452,0.0928092449903488,0.0673993676900863,0.1310577191971242,0.0795336993969977,-9.87558587908745,14976.0
33.79,2.799999952316284,52.0,22.604522705078125,26.702056884765625,-79.78275309438921,40.45898581411063,312.50723297119134,-0.0012784319696947,-0.0071984366513788,-0.69862300157547,0.7154527306556702,0.0280820083913068,0.0225083077892539,3.141156894161403,0.0251154229044914,0.0087088672444224,-0.0051759425550699,0.1286295989435166,0.0148860060609877,-9.89536467075348,14977.0
33.9,2.799999952316284,54.0,22.69216728210449,24.22110366821289,-79.78275309970459,40.45898582880413,312.82156021118163,-0.0013103514211252,-0.0079021677374839,-0.6987376213073729,0.7153332233428955,0.0070432243408974,0.023554463749674,3.145889445347843,-0.1461243629455566,-0.020313736051321,-0.1429273188114166,0.0427600393909961,0.3237359185516834,-9.82271535515785,14977.0
33.99,2.799999952316284,55.0,22.63707733154297,26.511213302612305,-79.78275310765244,40.45898584506313,313.13571578979486,-0.0011610508663579,-0.0084463274106383,-0.6988053917884827,0.7152610421180725,0.0260702229890125,0.020610064857688,3.1330036767140848,0.0735457688570022,-0.0015315625350922,0.013243930414319,0.1091451323591172,0.150604111449793,-9.703015249371528,14978.0
34.2,2.700000047683716,56.0,22.667125701904297,24.984474182128903,-79.78275315556981,40.45898588719865,314.0798571777344,-0.0013509922428056,-0.0064065936021506,-0.6996517181396484,0.7144540548324585,0.0333557703812979,0.0161406018210978,3.0904381090169104,0.1125716343522071,0.0146990930661559,0.1117843016982078,0.0277166450140066,0.317978859655559,-9.65425590276718,14979.0
34.4,2.700000047683716,57.0,22.632068634033203,25.46953201293945,-79.78275316694409,40.45898590234921,314.388546295166,-0.00094938010443,-0.0065992465242743,-0.6999070048332214,0.7142029404640198,0.0162614753664245,0.0118599498094315,3.0806564144911914,-0.0004692421643994,0.0577006004750728,0.0150990998372435,0.0365684318728745,0.0333296591229736,-9.692712455391884,14979.0
34.5,2.700000047683716,58.0,22.62580871582031,25.98639678955078,-79.78275317985316,40.458985918334456,314.6956370544433,-0.0001566520077176,-0.0073462640866637,-0.7000957727432251,0.7140112519264221,-0.0011754446934168,0.0186005590038288,3.0612878829134984,-0.127433955669403,-0.0873807817697525,-0.1236690878868103,0.0494444073038175,0.3711656814068556,-9.585571584105493,14979.0
34.59,2.5999999046325684,60.0,22.677143096923828,24.332427978515625,-79.78275325409038,40.458985917898325,315.0163233947754,-0.0007323977188207,-0.0077938134782016,-0.7000845074653625,0.7140170931816101,0.0329742450564196,0.0230484976145815,3.0648296034472784,0.0986005961894989,0.0181041117757558,0.0964777842164039,0.1643425923027098,-0.2444811313413084,-9.660121829509736,14980.0
34.8,2.5,61.0,22.59951591491699,26.5748291015625,-79.78275332661717,40.45898604912939,315.95016891479486,0.0009410761413164,-0.0059939315542578,-0.6998310685157776,0.7142826318740845,0.0116627966243426,0.0208871641144206,3.0518582878664984,0.0244862735271453,-0.0518025048077106,-0.057807695120573,0.0856303079333156,0.029940023641102,-9.615797011256216,14980.0
34.99,2.5,62.0,22.65585708618164,24.68230628967285,-79.78275333927745,40.45898606899628,316.25599319458007,0.0018542663892731,-0.0045307520776987,-0.6998399496078491,0.7142829298973083,-0.0048317385957235,0.0195908543111289,3.0669058061502765,0.0184679105877876,0.0398118123412132,-0.0128097347915172,0.1024140186980366,0.3269993226975202,-9.876074706315997,14981.0
35.1,2.5,61.0,22.68214988708496,24.714113235473643,-79.78275342811448,40.45898600993213,316.5813906860352,0.0015038489364087,-0.0041127684526145,-0.6995677947998047,0.7145528197288513,0.0123418964907026,0.0221978781560771,3.097589327632998,0.0705208554863929,-0.0402982383966445,0.0453182682394981,0.1205164684541523,-0.1560776808857918,-9.8977854180336,14981.0
35.29,2.5,61.0,22.8323974609375,20.23726463317871,-79.78275346514666,40.45898604117743,317.20467025756835,0.0011154334060847,-0.005050063598901,-0.6991757154464722,0.7149312496185303,0.0080020408268923,0.0175976189687689,3.076254649947997,-0.048517420887947,0.0762745887041091,-0.0084617855027318,0.0534188465774059,0.1243203197792172,-9.616779928207398,14982.0
35.4,2.5,61.0,22.85243034362793,20.348588943481445,-79.78275347320269,40.45898604264952,317.51052886962884,0.0003571997222024,-0.0069549730978906,-0.6989862322807312,0.7151012420654297,0.0089563425805369,0.022280298967448,3.0329736259500457,-0.1146160215139389,-0.0981294214725494,-0.0741497576236724,0.0746509180124849,0.1085454455763101,-9.39080375432968,14982.0
35.5,2.400000095367432,61.0,22.88498306274414,19.76015853881836,-79.78275348025944,40.45898604006874,317.809501953125,0.0002473555505275,-0.0073496326804161,-0.6990549564361572,0.7150301337242126,0.0436628903668243,0.0225521600454588,2.9420855571204894,0.1089975461363792,0.0617298632860183,0.0826563984155654,0.0753365314565599,-0.0348552113911137,-9.028279892206193,14982.0
35.7,2.400000095367432,59.0,22.814868927001957,21.00858688354492,-79.78275350818853,40.45898601278721,318.3947375488281,0.0010161468526348,-0.0067287762649357,-0.6995719075202942,0.7145298719406128,0.0436117682599125,0.01955700150396,2.719192565578332,0.0594910942018032,0.0775112509727478,0.0306690167635679,0.0794655976071953,-0.0005590646225027,-8.549250258207321,14983.0
35.79,2.400000095367432,59.0,22.910024642944336,19.203533172607425,-79.7827535108891,40.45898603971742,318.6774562072754,0.0017396634211763,-0.0068378313444554,-0.6999090909957886,0.7141971588134766,0.0437218340403149,0.0185695555333189,2.627100380781928,0.0446071773767471,0.0565372109413147,0.0591568350791931,0.1023274981789291,0.0285734425485134,-8.61508464396,14983.0
36.0,2.299999952316284,58.0,22.89249610900879,19.55341148376465,-79.78275353413241,40.45898600658081,319.18016845703124,0.0024796358775347,-0.0084166293963789,-0.7004175782203674,0.7136794328689575,0.0346160018674311,0.0177598311835469,2.3922080191948685,-0.0338611043989658,-0.0069573195651173,-0.0280964989215135,0.0546519101550802,0.1601892053894698,-8.588441221117971,14984.0
36.19,2.299999952316284,58.0,22.83865737915039,21.15171813964844,-79.78275357616589,40.45898599914094,319.6577723693848,0.001693211030215,-0.0086945677176117,-0.7003375887870789,0.7137569189071655,0.0432073969902568,0.015651389897907,2.190000864421705,-0.0411496870219707,-0.0236839801073074,-0.0067264796234667,0.0751942294137552,0.1309564344584942,-8.614177740812304,14984.0
36.29,2.0999999046325684,58.0,22.84867286682129,20.67461204528809,-79.78275356244589,40.45898602448044,319.88929397583007,0.0003078185254707,-0.0094012860208749,-0.6999982595443726,0.7140826582908629,0.0528593544927955,0.0063623044398429,2.110453103159166,0.0080717336386442,0.0334891565144062,0.018575919792056,0.0809357338026166,0.0473177795391529,-8.693532058596611,14984.0
36.39,2.0999999046325684,54.0,22.81236457824707,21.398223876953125,-79.78275359033773,40.45898600064872,320.09492523193364,-0.0017684121849015,-0.0109794810414314,-0.6998375058174133,0.7142155766487122,0.0535169277132269,0.0023516850659788,2.002546737720553,-0.0403562299907207,0.0124893495813012,0.0091869356110692,0.1004136679507792,0.0190356904990039,-8.745075849294663,14985.0
36.6,1.8999999761581416,52.0,22.910024642944336,19.74425506591797,-79.7827536565681,40.45898601659128,320.69407684326166,-0.0036023145075887,-0.0145752439275383,-0.6995521783828735,0.7144237756729126,0.0430841845286328,-0.0074443578017693,1.773221885495452,0.0053652469068765,-0.0102378409355878,-0.0177161619067192,0.1173814472369849,0.2479780769348145,-8.91225242257118,14985.0
36.69,1.7999999523162842,50.0,22.84867286682129,20.698467254638672,-79.78275366526923,40.4589860621396,320.91479522705083,-0.0028584746178239,-0.0145425284281373,-0.6995452642440796,0.7144346237182617,0.0352347617253457,-0.0005985244239666,1.7273025115388678,-0.0114530101418495,-0.0538209602236747,-0.0353966131806373,0.1127184206619858,0.0607408122438937,-8.80518405675888,14985.0
36.9,1.600000023841858,44.0,22.72597312927246,23.27484130859375,-79.78275370210116,40.45898607537174,321.08290893554687,-0.0022143081296235,-0.0141240879893302,-0.6994965672492981,0.7144929766654968,0.0169378717397264,-0.0035037860095654,1.6401587147815422,-0.0130554744973778,-0.0330433882772922,0.014483000151813,0.1129447901342064,0.1211605209857225,-8.921906760334968,14986.0
37.1,1.5,39.0,22.829893112182607,20.68256378173828,-79.78275370155863,40.458986140391055,321.46169692993163,-0.0011475397041067,-0.0116036646068096,-0.6991766691207886,0.7148538827896118,-0.0127952309745623,-0.0006890272834669,1.6040793138854288,-0.0594876706600189,-0.0361566580832004,-0.0765280127525329,0.1133705587964505,0.2889973179996014,-9.397818658947946,14986.0
37.2,1.2999999523162842,30.0,22.841161727905277,20.94497299194336,-79.78275368526597,40.458986229484175,321.84285385131835,-0.0005118970875628,-0.0103780478239059,-0.6983576416969299,0.7156736254692078,-0.0216190812137596,0.0019753270333121,1.5912246691023018,-0.0759567618370056,-0.0359049700200557,-0.0543649122118949,0.1167422643397003,0.2487953715026378,-9.436741234660149,14986.0
37.29,1.2000000476837158,26.0,22.861194610595703,20.33268547058105,-79.78275370771942,40.45898626559448,321.9987223815918,-0.0008838885114528,-0.0103818718343973,-0.6980060338973999,0.7160161137580872,-0.0265964150687089,0.0040217434097148,1.5264650155559318,-0.048337947577238,-0.017498355358839,-0.0748580768704414,0.1395123910345137,0.2317955056205392,-9.174486595988274,14986.0
37.49,1.0,16.0,23.09657859802246,16.63511085510254,-79.78275372539997,40.45898630528046,322.14691192626947,-0.0006553665734827,-0.01005245372653,-0.6975919604301453,0.7164245247840881,-0.0207297281426303,0.0066526141167467,1.4115262528808312,0.0286074206233024,-0.0213584583252668,0.0014009729493409,0.156712578870356,0.0797604982741177,-8.580068593025208,14987.0
37.69,0.8999999761581421,12.0,22.913780212402344,18.479923248291016,-79.78275369893326,40.45898641458292,322.44643432617187,0.0036772899329662,-0.0032105660066008,-0.6696788668632507,0.7426347732543945,-0.0515134548207155,0.0038917831377199,0.927839879021566,0.074598990380764,-0.0079446136951446,-0.6606824994087219,0.0967292916867882,-0.2323259028978646,-7.448111962080003,14987.0
37.8,0.8000000119209291,3.0,22.89875602722168,19.116064071655277,-79.7827537572102,40.45898649482526,322.5093310546875,0.0046978020109236,-0.0047220326960086,-0.6432688236236572,0.7656115293502808,-0.0700243117293108,-0.0048884495674756,0.7401559758217465,-0.0080853635445237,0.0239942912012338,-0.7249537706375122,0.0701989622181281,-0.0135045636759605,-7.769625207781793,14987.0
38.0,0.699999988079071,0.0,22.859941482543945,20.078229904174805,-79.78275380605027,40.458986604404025,322.62803298950195,0.0053664934821426,-0.0084485821425914,-0.5892624258995056,0.8078797459602356,-0.0550368266156138,-0.0031128114530921,0.4785868604685536,-0.0162708982825279,0.0221659000962972,-0.5883491635322571,0.1484804118610918,0.045248824506998,-8.657741251587868,14987.0
38.09,0.699999988079071,347.0,22.74475288391113,23.091951370239247,-79.78275390605287,40.45898675565521,322.61311370849614,0.0053621744737029,-0.0087513178586959,-0.5684577226638794,0.8226485848426819,-0.0445072736239256,-0.0029924787206929,0.3976891398456305,0.0694547966122627,0.0551798306405544,-0.4139741659164429,0.1010409645549953,0.0146513225790113,-8.985238537788392,14987.0
38.2,0.6000000238418579,339.0,22.62705993652344,25.00832939147949,-79.78275401109403,40.45898690773557,322.60464508056634,0.0033354302868247,-0.0062508471310138,-0.5409339666366577,0.8410351872444153,-0.0335025213769263,0.0128689083361824,0.3291432025846487,0.139109119772911,-0.1372378319501876,-0.1006399244070053,0.2398547229543329,-0.0317433460615575,-9.657291777133944,14987.0
38.4,0.6000000238418579,341.0,22.75602149963379,22.86930084228516,-79.78275400146809,40.45898695585205,322.6384967041016,-0.0095517188310623,0.0024520482402294,-0.5342509746551514,0.8452683687210083,-0.0418881702307029,0.0628369574248442,0.3477536807686314,0.0146162044256925,-0.5000684857368469,-0.0850452929735183,0.4769142575562,0.2310439191386104,-9.883976633548738,14987.0
38.5,0.699999988079071,347.0,22.62580871582031,24.91290855407715,-79.78275391958033,40.458987020778366,322.6736033630371,-0.0331736877560615,0.0206005424261093,-0.5308962464332581,0.8465366959571838,-0.0437358128166072,0.1290840554073858,0.3544067310944949,-0.0593497864902019,-0.7480548620223999,-0.123982086777687,0.2748618568852544,0.2780992409214377,-9.848211554288865,14987.0
38.7,0.8000000119209291,351.0,22.59575843811035,25.97049331665039,-79.78275321318337,40.45898730694178,322.73847991943364,-0.0764058530330658,0.0525605604052543,-0.528757631778717,0.8436912298202515,-0.0164056337794112,0.3212151975202168,0.4697540148387951,-0.0222625117748975,-0.3356608748435974,0.0683067440986633,-0.1165496534015983,0.1628507483191788,-10.111350291967392,14987.0
38.9,0.8999999761581421,344.0,22.66963005065918,23.64857482910156,-79.78275243325756,40.45898780424285,322.76588088989257,-0.1014397367835044,0.0651268139481544,-0.5289334058761597,0.8400582671165466,-0.014270898737309,0.6311633394591745,0.6979059338000752,-0.0289412513375282,-0.1870295107364654,0.090158499777317,-0.2043745492771268,0.0837135997787118,-10.64382113814354,14987.0
39.0,1.2000000476837158,1.0,22.76478576660156,22.60689353942871,-79.78275148771502,40.45898815786693,322.8237002563476,-0.1083307042717933,0.0695668011903762,-0.5290529131889343,0.8387657999992371,-0.003456107771255,0.8438071515036747,0.8334080192544233,0.0583187080919742,-0.1825430393218994,0.0533276461064815,-0.1043819630797952,-0.0361045740824192,-10.680653918981552,14987.0
39.09,1.399999976158142,9.0,22.7785587310791,21.90713691711425,-79.78274949771306,40.45898935190768,322.7928202819824,-0.1149852648377418,0.0769152268767356,-0.5307283401489258,0.836175799369812,-0.029597484437617,1.2587235583257732,0.9538134038724932,0.0380115956068038,0.0244592484086752,0.0296171177178621,-0.1761159427464008,0.0599447823548689,-10.162476006746294,14987.0
39.29,1.7999999523162842,19.0,22.813615798950195,20.97677993774414,-79.7827461836319,40.45899109886822,322.7548411560058,-0.1144334971904754,0.0799452662467956,-0.5343986749649048,0.8336257338523865,-0.0529066131451435,1.7265611945168515,0.9876040141517608,0.0607777647674083,-0.043140560388565,-0.0533854998648166,-0.2609616731107235,-0.2474170731380582,-9.95818247795105,14987.0
39.5,2.0,24.0,22.77480316162109,21.18352508544922,-79.78274401178874,40.45899191400715,322.80061370849614,-0.1131599098443985,0.0845732688903808,-0.5367868542671204,0.8318065404891968,-0.0525148544833199,1.9656714242903504,1.0272796247002558,0.139469489455223,-0.0542199611663818,0.0884426236152648,-0.282940625846386,-0.1006144284456968,-9.849714288711546,14987.0
39.7,2.5999999046325684,35.0,22.81236457824707,20.316781997680664,-79.78273912982523,40.45899436276694,322.7759326171875,-0.1215514168143272,0.0890398547053337,-0.5385007858276367,0.8290441632270813,-0.1026997532430388,2.422875710576125,1.0437148874809672,-0.1239485144615173,-0.202486902475357,-0.0958461537957191,-0.4115812340006232,0.04947334645316,-9.438499492406846,14987.0
39.81,3.2000000476837163,44.0,22.821128845214844,21.54135513305664,-79.7827332984542,40.45899724912893,322.7417109680176,-0.1374570727348327,0.0989431291818618,-0.5388150811195374,0.8252237439155579,-0.1107103628874617,2.8760807705662272,1.05868821034795,0.0951375439763069,-0.1215458512306213,0.0356431230902671,-0.4147626674920321,0.0298514017788693,-9.259518560171127,14987.0
39.99,3.5,47.0,22.85243034362793,20.11798858642578,-79.78272991661217,40.45899849606438,322.7477648925781,-0.1453485041856765,0.1075453236699104,-0.5384195446968079,0.8230505585670471,-0.1289329027528994,3.108956329626495,1.1116361340628798,-0.0649426653981208,-0.3328606784343719,-0.0277178902179002,-0.7881238321959972,0.1103447617404163,-9.15064398944378,14987.0
40.1,4.099999904632568,45.0,22.814868927001957,20.642805099487305,-79.78272632511087,40.45900050275336,322.6890185546875,-0.1527086496353149,0.1133265048265457,-0.5358787178993225,0.822600245475769,-0.1444038823463201,3.3464690446061347,1.1754314234107972,0.0942784920334816,-0.0650751814246177,0.0058449455536901,-0.7424911379814149,-0.2185071598738432,-9.12171547472477,14987.0
40.29,4.5,42.0,22.734737396240234,22.479665756225582,-79.78271826762385,40.459004122195786,322.6199534606933,-0.1584979593753814,0.1174210011959076,-0.5320698618888855,0.823403000831604,-0.1458855647185527,3.8499917135694592,1.3211316360275314,-0.0045357183553278,0.0606272406876087,0.0262780971825122,-0.9341912991553546,-0.0375003821169957,-9.328361923098564,14987.0
40.4,5.099999904632568,43.0,22.753517150878903,22.36833953857422,-79.78271380809754,40.4590057615386,322.592891998291,-0.1589980870485305,0.1165330857038498,-0.5309517979621887,0.8241540789604187,-0.1140390346213575,4.11174798426313,1.4020189648541512,-0.0815913453698158,-0.0030974738765507,-0.1271136254072189,-1.23423861220479,-0.24171307772398,-9.480886543393137,14987.0
40.49,5.400000095367432,43.0,22.68214988708496,23.89508056640625,-79.78270904440117,40.459007487347314,322.5618556213379,-0.1585856527090072,0.1159158498048782,-0.5305552482604979,0.8245759010314941,-0.0756852945233961,4.375900292557514,1.4764136938143515,0.0729707404971122,0.0133102321997284,-0.0349230952560901,-1.1825115843862295,-0.0610296738334,-9.697780237197875,14987.0
40.7,6.0,43.0,22.79358291625977,20.841598510742188,-79.78269876351347,40.45901183974188,322.48398239135736,-0.1554819941520691,0.1213135942816734,-0.5316320061683655,0.823696494102478,-0.0688616849112993,4.8807637623820135,1.6829048278453471,0.1302593946456909,0.0087638245895504,0.1948880553245544,-1.2440009772777558,-0.1797063707001507,-10.056788753271103,14987.0
40.89,6.300000190734862,42.0,22.619548797607425,24.87314796447754,-79.78268753497083,40.45901677529044,322.4032061767578,-0.1555000990629196,0.1203831359744072,-0.5314835906028748,0.823925256729126,-0.1205018498258475,5.367700553530974,1.8617911052011888,-0.1238862946629524,0.0055824741721153,-0.1410300582647323,-1.096425586491823,0.0769125753454864,-10.061191706657407,14987.0
40.99,6.9000000953674325,42.0,22.693418502807607,23.33050537109375,-79.78268133781766,40.45901899339432,322.36941177368163,-0.154140830039978,0.1205201894044876,-0.5321294665336609,0.8237437009811401,-0.0868818017952911,5.596658308625674,1.9811887432204345,0.0450769923627376,0.0402775034308433,0.0573819205164909,-1.54346802726388,0.2429656974971294,-10.161766154766084,14987.0
41.19,7.300000190734862,42.0,22.63707733154297,24.41989707946777,-79.78266860547829,40.45902462133357,322.2981112670898,-0.1498191356658935,0.1176773682236671,-0.5302295684814453,0.8261736035346985,-0.0868212420106455,6.037892989787171,2.2037287500132274,-0.0439111553132534,0.0404356271028518,-0.0238799899816513,-1.6660493485629562,0.0491570303589105,-10.480328310728074,14987.0
41.3,7.800000190734862,44.0,22.747257232666016,22.7977352142334,-79.78266217418853,40.45902819071375,322.24439651489257,-0.1502643525600433,0.1109479814767837,-0.5269582867622375,0.8291116952896118,-0.144384041764311,6.252418777196634,2.3132265568052097,-0.1722817420959472,0.1349741369485855,-0.1591101586818695,-1.6236033868789674,0.0449823879031464,-10.660188664197925,14987.0
41.49,8.0,44.0,22.62580871582031,25.127605438232425,-79.78264748814573,40.45903347374481,322.21429092407226,-0.1470432132482528,0.101680152118206,-0.5251354575157166,0.8320290446281433,0.030139511262462,6.666342806339253,2.4243639746732946,0.0592099986970424,0.0502805821597576,-0.095723271369934,-1.6423716334998608,0.0703506928961724,-10.154121505022047,14987.0
41.6,8.399999618530272,45.0,22.604522705078125,25.42977333068848,-79.78264009477553,40.45903705868482,322.15200073242187,-0.1434978246688842,0.1003367006778717,-0.5225996971130371,0.8344042897224426,-0.0068077534003093,6.87536435490329,2.4505743738478607,0.0438298173248767,0.0703273266553878,0.1590519994497299,-1.6742803278565408,0.2135917711257934,-10.152920486927034,14987.0
41.79,8.600000381469728,44.0,22.69216728210449,23.12375831604004,-79.78262441228063,40.459043866052816,322.06346160888666,-0.1356905102729797,0.0965233072638511,-0.5194854140281677,0.8380968570709229,0.0191094537176318,7.259472901187299,2.5431123453964166,0.041297610849142,0.0297654680907726,-0.061586894094944,-1.5552615688741207,0.0593656933028251,-10.554530646800997,14987.0
41.9,9.0,45.0,22.714704513549805,22.20135307312012,-79.78261613981894,40.45904688918076,322.06127960205083,-0.1335760205984115,0.0953391790390014,-0.5191878080368042,0.838756263256073,0.103494111987257,7.44643711736195,2.5741211780062327,0.016060346737504,-0.0767008438706398,0.021928071975708,-1.5316358940303327,-0.0469942001067102,-10.187580442428589,14987.0
41.99,9.100000381469728,45.0,22.61704444885254,24.642547607421875,-79.78260766477018,40.45904996534144,322.0610011291504,-0.1364173144102096,0.0973759368062019,-0.5190772414207458,0.8381330966949463,0.1303232002043849,7.619573925749536,2.5949330420085484,0.034648410975933,-0.2250625193119049,0.1814680993556977,-1.6313401302695276,-0.2423074289225042,-9.880630856752395,14987.0
42.21,9.399999618530272,45.0,22.491838455200195,27.97434043884277,-79.78258211224528,40.45906255083009,321.8271449279785,-0.1502174288034439,0.0981717333197593,-0.5138259530067444,0.8389159440994263,0.0423161924868976,8.073201900968957,3.0021621098602926,0.1229807287454605,0.1364550590515136,-0.2201161682605743,-1.8212901467084883,0.0541454362124204,-10.013356804847716,14986.0
42.39,9.5,45.0,22.446765899658203,29.175058364868164,-79.7825729177528,40.45906603583239,321.8231280517578,-0.1424595415592193,0.1015333831310272,-0.5155093073844911,0.8388364315032959,0.092687357277488,8.245010634949258,3.092920946818621,0.1901754289865493,0.0140903638675808,0.2072118669748306,-1.6855233541131016,-0.0391523895598948,-10.29632812857628,14986.0
42.5,9.800000190734863,44.0,22.46805000305176,28.149280548095703,-79.78256351044159,40.45906958449972,321.82469207763666,-0.1387526392936706,0.1030664667487144,-0.517031192779541,0.8383340239524841,0.0624430631493281,8.427069495100076,3.1389681821797533,0.022833913564682,-0.0205773748457431,-0.1142689436674118,-1.79564498975873,0.0374511284613981,-10.44780609726906,14986.0
42.69,9.899999618530272,46.0,22.50310707092285,27.22687339782715,-79.78254433323586,40.45907825515039,321.71167022705083,-0.1335973292589187,0.1018762961030006,-0.5173805952072144,0.8391008973121643,0.0218824876075883,8.761406729789622,3.2698512309260312,0.0906289890408516,0.1224128380417823,-0.2679727971553802,-1.7987045453488828,0.2605021550506353,-10.601176224946975,14986.0
42.8,10.199999809265137,46.0,22.50686264038086,26.79747772216797,-79.7825243332915,40.45908702107102,321.6273616027832,-0.1358161121606826,0.104816161096096,-0.5169376134872437,0.8386555910110474,0.0074884608669858,9.047272063537374,3.3944598425870933,-0.0899858176708221,-0.0586144141852855,-0.0470979437232017,-2.0540254095196726,0.190118416249752,-10.433918960094454,14986.0
42.99,10.399999618530272,46.0,22.41421127319336,28.32421875,-79.78251402671779,40.45909088341735,321.6484149169922,-0.1409477293491363,0.1051951348781585,-0.5163225531578064,0.8381400108337402,0.0514348781035966,9.157773882840504,3.5156533891693145,-0.0438791550695896,0.0028401217423379,0.0551398545503616,-2.0327453452348707,0.2285876865684986,-10.03526749134064,14986.0
43.1,10.699999809265137,45.0,22.431739807128903,28.554821014404297,-79.78250350368248,40.459096036636296,321.534729309082,-0.1467033177614212,0.1038132905960083,-0.5141333937644958,0.8386703133583069,0.0300162764192416,9.293823311578262,3.6224100390227534,-0.0696368962526321,-0.0583917684853076,0.1588461101055145,-2.2501341520249847,0.0386844661273062,-10.069687711000444,14986.0
43.29,10.899999618530272,46.0,22.64709281921387,22.71026611328125,-79.78248185160469,40.45910563096693,321.43947631835937,-0.142130509018898,0.0876487866044044,-0.5123836994171143,0.8423654437065125,0.0912643048968618,9.51566194453446,3.8594947760181375,-0.1592222452163696,0.2979913353919983,0.0418976061046123,-2.5018148320913323,0.025464331805706,-10.316730233430864,14986.0
43.39,11.199999809265137,46.0,22.624555587768555,24.077970504760746,-79.78247095323577,40.45910974997452,321.4681056213379,-0.1256433427333831,0.071718543767929,-0.5134065747261047,0.8458628654479979,0.1903835989815416,9.675952428092163,3.708538563715864,-0.0636385902762413,0.4543049037456513,-0.0299252644181251,-2.2922899456322194,0.3403082433342934,-10.228148424625395,14986.0
43.49,11.399999618530272,46.0,22.7597770690918,21.58906555175781,-79.78245996559272,40.45911388937931,321.5013011169433,-0.1093740016222,0.0577538087964057,-0.5135918259620667,0.8490731716156006,0.2416583075407913,9.882565787699724,3.3076553842908893,-0.0700949430465698,0.3081593215465545,-0.1464557647705078,-2.172105398029089,-0.0959562349598854,-9.918648283481598,14986.0
43.69,11.699999809265137,56.0,22.73598861694336,21.19147682189941,-79.78243732187507,40.45912354949631,321.4137232971192,-0.0964154452085495,0.0401003360748291,-0.5120021104812622,0.8526135683059692,0.2503486162315188,10.133062397775634,2.5128117940557257,-0.1363522261381149,-0.0013863934436812,-0.048847246915102,-2.25569046869874,-0.0476337027736008,-9.34959784090519,14986.0
43.89,11.800000190734863,59.0,22.799842834472656,19.839675903320312,-79.78241430666912,40.45913281695636,321.4261935424805,-0.0846303254365921,0.0396373234689235,-0.5136938691139221,0.8528688549995422,0.2260407736869317,10.203999412615143,2.1794901110972904,0.141622707247734,0.0134291248396039,0.1137748584151268,-2.257762868106365,-0.0910647558420896,-9.360278365015985,14986.0
44.0,12.0,59.0,22.82488441467285,19.060401916503903,-79.78240336874525,40.45913707769661,321.44366485595697,-0.0756662562489509,0.0386895239353179,-0.5148609876632689,0.8530510067939758,0.1712541629387806,10.17496009731075,2.0906198625633343,0.0602722913026809,0.2047609090805053,0.1161340624094009,-2.244720945954323,0.2293250752799213,-9.518772407770156,14986.0
44.19,12.0,58.0,22.856185913085927,18.535585403442383,-79.7823803462085,40.45914619606381,321.5136302185058,-0.0537471994757652,0.0390603840351104,-0.5170639157295227,0.8533642888069153,0.1409391210133065,10.171081777274535,1.6613445431306773,0.1281008869409561,0.1550765335559845,0.1696429550647735,-2.250457649230957,0.056814909428358,-9.141627582907676,14986.0
44.3,12.100000381469728,61.0,22.753517150878903,21.08015251159668,-79.78236851385684,40.459150779140046,321.57904846191406,-0.041357148438692,0.0366595946252346,-0.5176179409027101,0.8538250923156738,0.1299007604491983,10.143712923897686,1.4706387675819346,0.1355368643999099,0.3471637368202209,0.1019488200545311,-1.999039655327797,0.1199487951770424,-9.243822294473649,14986.0
44.5,12.199999809265137,63.0,22.652101516723643,22.535327911376957,-79.78234717293422,40.4591590005798,321.59899169921874,-0.0286941044032573,0.0127461003139615,-0.5167363882064819,0.8555686473846436,0.1589077726315111,9.965484804357676,0.9635914102326656,-0.1112797632813453,0.3097790777683258,0.0622215494513511,-2.0580529716610907,0.0950232660211622,-9.5904271119833,14986.0
44.6,12.199999809265137,63.0,22.7497615814209,19.394376754760746,-79.78233612601497,40.45916344682729,321.6443026733398,-0.0227441638708114,0.0023756187874823,-0.5157011151313782,0.8564634323120117,0.204076326980248,9.864637255939469,0.7606311854080288,0.0477502010762691,0.1971197128295898,0.0235024690628051,-1.9079754111170768,0.3496927320957184,-9.96500968694687,14986.0
44.69,12.100000381469728,63.0,22.87747001647949,18.583295822143555,-79.78231471479741,40.45917163824236,321.72281677246093,-0.0047684391029179,3.704360096890014e-06,-0.5157179832458496,0.856745183467865,0.2373234111372885,9.639982736298066,0.4419987860620164,0.0194942485541105,0.0960928499698638,-0.2513468861579895,-1.7192965793609618,0.1024245436862111,-9.923692091703415,14986.0
44.9,12.0,72.0,23.006431579589844,15.187888145446776,-79.78230464377697,40.45917549376957,321.7467311096192,-0.0049665067344903,-0.0064159608446061,-0.5159529447555542,0.8565785884857178,0.2030294279033054,9.457870042419865,0.3183137001554055,-0.1885588020086288,0.0535525493323802,0.1516438126564026,-1.9553839047253128,0.0070103730261325,-9.774900333881376,14986.0
45.1,11.899999618530272,75.0,22.773550033569336,20.746177673339844,-79.78228422532364,40.459183098363454,321.8125575256348,-0.0095701683312654,-0.0172667074948549,-0.5138759613037109,0.8576372861862183,0.2341329898162673,9.18037365589712,0.1459266121888266,0.0144248027354478,0.0578977987170219,0.1276679337024688,-1.5692821687459946,0.0192330454476177,-9.461328776478767,14986.0
45.2,11.699999809265137,74.0,22.93882179260254,17.144023895263672,-79.78227463417969,40.45918676347093,321.8296054077148,-0.0098999319598078,-0.0191459748893976,-0.5127238631248474,0.8582831025123596,0.2433068917104308,9.022023384374338,0.1442477308859991,-0.0448397397994995,0.1137483641505241,-0.0892797783017158,-1.5535601752996446,0.0697029493097216,-9.592890543937685,14986.0
45.4,11.600000381469728,74.0,22.777305603027344,20.022565841674805,-79.78225520219415,40.459194088155016,321.918575592041,-0.0090190973132848,-0.0187818054109811,-0.5108609199523926,0.8594108819961548,0.2768371470984457,8.736920696282697,0.0550000321224094,0.0659559816122055,0.0309422221034765,-0.1039981991052627,-1.402785334289074,0.2646586117520929,-9.322921673655513,14986.0
45.5,11.399999618530272,75.0,22.910024642944336,17.263301849365234,-79.78224608840817,40.45919760291575,321.927421875,-0.0101347276940941,-0.0166284088045358,-0.510797381401062,0.8594805598258972,0.2418040589496097,8.57869320551054,0.0202813939520514,-0.0222843158990144,-0.0814591273665428,0.0797742307186126,-1.538232868909836,0.178704377207905,-9.305316876769066,14986.0
45.7,11.300000190734863,75.0,22.91127586364746,18.122093200683597,-79.78222791871823,40.459204499971335,321.98089630126947,-0.0189474914222955,-0.0173790920525789,-0.5102060437202454,0.8596678972244263,0.227194594790671,8.314096675775081,0.0697154688794189,-0.0899773016571998,-0.042856927961111,-0.0310726258903741,-1.5001642790436744,-0.1198426682129502,-9.443864897489547,14986.0
45.8,11.0,74.0,22.93882179260254,17.048603057861328,-79.78221898599907,40.459207884258646,322.0148623657226,-0.0278130751103162,-0.0180258583277463,-0.5096724033355713,0.859730064868927,0.2285808856523492,8.195438015158976,0.123453487802488,-0.0440474972128868,-0.3140620291233063,0.1394676715135574,-1.4804046370089057,0.0363503124564886,-9.35805116057396,14987.0
45.99,10.899999618530272,74.0,22.90501594543457,17.42233657836914,-79.78220201631522,40.45921458070879,322.0071528625488,-0.0466187670826911,-0.0098337326198816,-0.5097098350524902,0.8590261340141296,0.1452842565086985,8.010570277736976,0.2925405472468008,-0.1001740843057632,-0.2541558146476745,-0.007807629648596,-1.4010133355855945,0.1775127694755792,-9.282136175036433,14987.0
46.09,10.699999809265137,70.0,22.821128845214844,20.91316604614257,-79.78219349951904,40.45921776090382,322.03850204467767,-0.056467916816473,-0.0035971759352833,-0.5090422034263611,0.8588798046112059,0.1535467467645347,7.923153689225278,0.4440629938830517,0.1260295063257217,-0.3574965298175812,0.1316218078136444,-1.413650338053703,0.0406046186573803,-9.230445034503935,14987.0
46.3,10.5,68.0,22.859941482543945,18.893415451049805,-79.78217682563162,40.45922417404319,322.05225021362304,-0.0789640322327613,0.0162057876586914,-0.5091161131858826,0.856914758682251,0.1104822032246728,7.834147500902183,0.7854808586830917,-0.0954754501581192,-0.2365516871213913,0.1029629334807396,-1.3460448306798936,0.1253810412436724,-9.290201239585876,14987.0
46.4,10.300000190734863,68.0,22.78231430053711,20.07027816772461,-79.78216863759806,40.45922750647436,322.03223068237304,-0.0923750102519989,0.0215481296181678,-0.5092844367027283,0.8553549647331238,0.0723955709077245,7.806883645886459,0.9605437057373056,-0.048640850931406,-0.369260162115097,0.0722963735461235,-1.7818353281915191,0.2463412585482001,-8.958433731794358,14987.0
46.49,10.199999809265137,68.0,22.70218276977539,22.90110969543457,-79.7821604577948,40.45923087030437,322.0063136291504,-0.1033091321587562,0.0241596605628728,-0.5090873241424559,0.8541508316993713,0.0238800441887719,7.811689011066653,1.1411462288630028,-0.0347212702035903,-0.2264384925365448,0.0212454404681921,-1.5053228388726712,0.1999317251890897,-9.327905840277673,14987.0
46.7,10.0,58.0,22.740997314453125,20.65870857238769,-79.7821440488514,40.45923749361656,321.97881729125976,-0.1179374828934669,0.0266976356506347,-0.5084015130996704,0.8525878787040709,-0.0334232192803921,7.857149934252515,1.4390416178035268,-0.0186277814209461,-0.1337033361196518,0.1904931813478469,-1.6353616990149022,-0.0329402893781662,-9.642157428860664,14986.0
46.89,10.0,57.0,22.624555587768555,24.483510971069336,-79.78212750552458,40.459244232115005,321.9721301269531,-0.1310852020978927,0.0400337353348732,-0.5082605481147766,0.8502266407012941,-0.1168108087849191,7.938166598748372,1.748142425939844,-0.021174544468522,-0.2591098845005035,-0.0869804099202156,-1.6502918332815166,0.2415565916150809,-9.52224740803242,14986.0
47.0,9.899999618530272,57.0,22.68715858459473,22.28087043762207,-79.78211913885282,40.459247883790376,321.9453318786621,-0.1358525454998016,0.0490988045930862,-0.5088081359863281,0.8486740589141846,-0.1848579097490104,8.001334724450405,1.926311707876824,0.1159378513693809,-0.1466448456048965,-0.0754339322447776,-1.6633249846100808,0.0393424286367371,-9.727698685526848,14986.0
47.2,9.899999618530272,57.0,22.58073425292969,24.730016708374023,-79.7821023735775,40.45925498229306,321.92569000244134,-0.144144132733345,0.0680335387587547,-0.5093573331832886,0.8456649780273438,-0.26690081738492,8.128768117597765,2.292906859222809,0.0509475208818912,-0.1224547997117042,0.0689006596803665,-1.6306402185559274,-0.0288844984327442,-9.603211464285849,14986.0
47.29,9.899999618530272,52.0,22.63832855224609,23.86327362060547,-79.78209411763264,40.45925835294217,321.92505294799804,-0.1453168243169784,0.0771340578794479,-0.508992612361908,0.8449022769927979,-0.2534580936087872,8.165826724005282,2.44506630298042,0.1981750130653381,-0.0761967003345489,-0.1352075189352035,-1.8859464646875856,0.2230305476300418,-9.59190177977085,14986.0
