time,wind_speed,wind_angle,battery_voltage,battery_current,position_x,position_y,position_z,orientation_x,orientation_y,orientation_z,orientation_w,velocity_x,velocity_y,velocity_z,angular_x,angular_y,angular_z,linear_acceleration_x,linear_acceleration_y,linear_acceleration_z,node_ids
0.0,0.8000000119209291,70.0,23.480958938598643,0.0079517737030982,-79.7827631201845,40.45897888834524,269.48758201408384,0.0137470392510294,0.0118981944397091,-0.7334415912628174,0.6795092821121216,0.0069123186663841,-0.001325265984688,0.0064745080082628,0.0060589229688048,0.0026102273259311,0.0032965564168989,0.0138069538038689,-0.3607707937806845,-9.801593458056448,14934.0
0.1,0.8000000119209291,72.0,23.48471450805664,-0.0079517737030982,-79.78276312225348,40.45897888252184,269.48821632671354,0.0137470392510294,0.0118981944397091,-0.7334415912628174,0.6795092821121216,0.0058705393692248,-0.0011387366360647,0.0067266108389919,-0.0037990701384842,-0.0012748608132824,-0.0016773351235315,0.0117778694734443,-0.3562404441833496,-9.802488082051276,14934.0
0.2,0.8000000119209291,72.0,23.48346328735352,-0.0079517737030982,-79.78276307551054,40.45897895039301,269.49989490318296,0.013741509988904,0.0118950484320521,-0.7334455847740173,0.6795052289962769,0.0025931299818801,-9.914726646664948e-05,0.0087491493309399,-0.0040492699481546,-0.0022804252803325,0.0011393050663173,0.0130353520286735,-0.3554358673095703,-9.80286171913147,14934.0
0.4,0.8000000119209291,71.0,23.47595024108887,-0.0159035474061965,-79.78276302670581,40.458979020928695,269.5107187490463,0.0137375732883811,0.0118931354954838,-0.733445942401886,0.679504930973053,0.0004717850809931,0.0003836670826359,0.0099559487502326,0.0003037638962268,0.0004899826599285,-0.0041541699320077,0.012090356326662,-0.3471872001886368,-9.802503869533538,14934.0
0.5,0.699999988079071,70.0,23.47970771789551,-0.055662415921688,-79.7827630256498,40.45897901918634,269.51273660469053,0.013739638030529,0.0118942391127347,-0.7334505915641785,0.6794998645782471,-9.829927325361327e-05,0.0006807186723276,0.0102297790312412,-0.0002896687947213,-0.0030798688530921,-0.0058128996752202,0.0131559405731968,-0.3655008623376489,-9.803055846691132,14934.0
0.7,0.699999988079071,70.0,23.48471450805664,-0.0079517737030982,-79.78276300699439,40.4589790663938,269.52335636425016,0.013745229691267,0.0118931159377098,-0.7334504723548889,0.6794999241828918,0.0048865170352458,-0.0033772953626668,0.0107433517173445,0.0060748774558305,0.0045246030203998,0.0037529952824115,0.0132061341230291,-0.3628219604864717,-9.80171274125576,14934.0
0.8,0.8000000119209291,66.0,23.48221015930176,0.0,-79.78276296509866,40.45897910770218,269.5350141983032,0.0137451766058802,0.0118959359824657,-0.7334543466567993,0.6794956922531128,0.0080826304530027,-0.0016812924212319,0.011163493811373,0.0047965482808649,0.0001326004858128,0.0033981187734752,0.0124551826121751,-0.3530607648566365,-9.80086138665676,14934.0
1.0,0.8000000119209291,64.0,23.48471450805664,-0.0079517737030982,-79.7827629677444,40.458979100460624,269.53611211586,0.0137446457520127,0.0118953632190823,-0.7334557771682739,0.6794941425323486,0.0074314355868551,-0.0014431884767784,0.0113510075846324,-0.0055534592829644,-0.0004308634379412,-0.0015774613711982,0.0116984649701043,-0.3619667321071029,-9.80208287000656,14934.0
1.1,0.8000000119209291,65.0,23.480958938598643,0.0,-79.78276294568923,40.458979145519656,269.54580263900755,0.013756095431745,0.011894354596734,-0.7334496378898621,0.6795004606246948,0.0086386565046888,-0.0041253197407173,0.0075293737240357,0.0031628373544663,-0.0018183905631303,0.0014114213408902,0.01301108722575,-0.3477851876243949,-9.801631464958191,14934.0
1.3,0.8999999761581421,64.0,23.47845458984375,-0.0079517737030982,-79.78276295129925,40.45897913795177,269.54653029251097,0.0137470532208681,0.0119021600112319,-0.7334561944007874,0.6794935464859009,0.0080452758650356,-0.0039770868286097,0.007706044008551,-0.0055757882073521,-0.0006032941164448,-0.0022105264943093,0.0137692301266361,-0.3458618556708097,-9.80215186715126,14934.0
1.4,1.0,60.0,23.480958938598643,-0.0079517737030982,-79.78276290249771,40.45897918876362,269.55849461364744,0.0137335211038589,0.0118985334411263,-0.7334675192832947,0.6794816255569458,0.0075559709684935,-0.0013491823422704,0.009514727835561,-0.0024100593291223,-1.3929208762419876e-05,-0.0056576854549348,0.0138898403698112,-0.3647209899500013,-9.803631212711334,14934.0
1.6,1.0,60.0,23.487218856811523,0.0,-79.7827629047306,40.45897918126765,269.5594205121994,0.0137261971831321,0.0118902353569865,-0.7334778904914856,0.6794707179069519,0.008517211619384,-0.0012084813239333,0.0096114141886223,0.0076184696517884,0.0034387193154543,0.0039141168817877,0.0133922229032032,-0.3583862626925111,-9.802334885001184,14934.0
1.7,1.0,58.0,23.48847198486328,0.0159035474061965,-79.78276288693004,40.45897928038492,269.57168035316465,0.0137023590505123,0.0118834292516112,-0.7334991693496704,0.6794483065605164,-0.0005920056906179,-0.004774685814105,0.0104273365847484,0.0031887339428067,4.487438491196372e-05,0.0039107501506805,0.0115400522493291,-0.3598732827231288,-9.802632508277894,14934.0
1.91,1.0,55.0,23.48221015930176,0.0,-79.7827628241056,40.45897933480601,269.58123736190794,0.0136806201189756,0.0118981543928384,-0.7334955930709839,0.6794524192810059,0.0017065395275737,0.0001372207087322,0.0080947056459285,0.0032501486130058,0.0011795979226008,0.0045002149417996,0.0123787348356563,-0.3648124988749624,-9.802950012087823,14934.0
2.0,1.0,53.0,23.48221015930176,-0.0159035474061965,-79.78276282344345,40.45897933182936,269.5828831653595,0.0136781297624111,0.0119014671072363,-0.7335155606269836,0.6794307827949524,0.0016938804237431,0.0007702295771085,0.0083877714742296,0.0046622827649116,0.0025006751529872,0.0057497168891131,0.012498770635575,-0.3454607001319528,-9.801419211030009,14934.0
2.2,1.100000023841858,54.0,23.48471450805664,-0.0079517737030982,-79.78276282141029,40.45897940140611,269.5922664861679,0.0136834047734737,0.0118922851979732,-0.733514666557312,0.6794317960739136,5.099607862762138e-05,-0.0077403712697643,0.0054869203609759,-0.0044077690690755,0.0004788188380189,-0.0033710661809891,0.0118678309419192,-0.3525270237028599,-9.803509590625763,14934.0
2.3,1.100000023841858,53.0,23.4859676361084,0.0079517737030982,-79.78276277599217,40.4589794666965,269.6042793254852,0.013680625706911,0.0118951397016644,-0.7335191965103149,0.679426908493042,-0.0009209416046513,-0.0041575037551325,0.0077205461203238,-0.0022555552423,-0.002237370237708,-0.0009521772735752,0.0134913457708898,-0.3569588477164507,-9.802304479479789,14934.0
2.5,1.100000023841858,52.0,23.480958938598643,-0.0079517737030982,-79.78276278080408,40.45897946750755,269.6050566892624,0.0136806368827819,0.0118939960375428,-0.7335216403007507,0.6794242858886719,-0.0009822373988687,-0.0039511739546725,0.0078305067432153,0.0015694588655605,-8.879624510882422e-05,-0.0014188959030434,0.0134674270043615,-0.3478483375534415,-9.80139055967331,14934.0
2.61,1.100000023841858,51.0,23.48221015930176,0.0,-79.78276275584645,40.45897953723594,269.6153707962036,0.0136810410767793,0.0118909077718853,-0.7335212826728821,0.6794248223304749,-0.0017845570088542,-0.0061050721593304,0.0049795788285759,-0.0026962156407535,-0.0029693264514207,-0.0034974331501871,0.0135515698080416,-0.3656540959328413,-9.803603146076204,14934.0
2.8,1.100000023841858,48.0,23.48346328735352,0.0636141896247863,-79.78276276275196,40.45897953855828,269.6158818464279,0.0136833675205707,0.0118918903172016,-0.7335245609283447,0.6794211864471436,-0.0007640023728688,-0.0057393157045387,0.005134544862072,0.0028916457667946,0.0021712312009185,0.0043858177959918,0.0137152233242522,-0.3611978232488036,-9.802893878817557,14934.0
2.9,1.0,52.0,23.48346328735352,-0.0159035474061965,-79.7827627194032,40.45897957748205,269.6266707639694,0.0136829214170575,0.0119030103087425,-0.7335329055786133,0.6794120073318481,0.0038887698150746,-0.0030230281645656,0.0046176129619976,0.001513591967523,-0.000267609138973,0.0028666586149483,0.012238014510367,-0.3545764727890492,-9.801467158198356,14934.0
3.1,1.0,51.0,23.487218856811523,0.0079517737030982,-79.78276272308405,40.45897957440072,269.6271281700134,0.0136660952121019,0.0119000496342778,-0.7335285544395447,0.6794170141220093,0.0033114312239015,-0.0027700759306549,0.0047901781002943,0.0009652383741922,0.0010025425581261,0.0026536050718277,0.0113281923229806,-0.364556244648993,-9.80332189500332,14934.0
3.2,1.0,53.0,23.48346328735352,0.0238553211092948,-79.78276269667636,40.45897964188354,269.6400047998428,0.0136584332212805,0.011891352944076,-0.7335223555564879,0.6794240474700928,0.0014078577308376,-0.0047280614005506,0.0074112007893286,0.003669046331197,0.0035235006362199,0.0013484203955158,0.0130441868060734,-0.3460773986577988,-9.801247302889823,14934.0
3.4,1.0,52.0,23.47845458984375,-0.0318070948123931,-79.78276264456285,40.458979681975045,269.6500879983902,0.0136744771152734,0.011886210180819,-0.7335090041160583,0.6794382929801941,0.0070992327482477,-0.0017319851037098,0.0052419954265789,-0.0031780237331986,8.069270552368836e-05,-0.0059518972411751,0.0127283252414781,-0.3494942922145128,-9.80034741640091,14934.0
3.5,0.8999999761581421,51.0,23.48346328735352,-0.0159035474061965,-79.78276264962159,40.45897966863609,269.6510967473984,0.0136603033170104,0.0118831666186451,-0.7334980368614197,0.6794503927230835,0.0067881391767937,-0.0012588948860317,0.0055453251322408,0.0015623194631189,0.001088774879463,-0.0006406792090274,0.013974784881575,-0.3588256444036961,-9.801944875717163,14934.0
3.7,0.8999999761581421,51.0,23.48471450805664,0.0,-79.78276262264119,40.45897976403168,269.6612039070129,0.013655143789947,0.0118747362866997,-0.7334994077682495,0.679449200630188,-0.001407216175842,-0.0049348177501126,0.003628830644285,-0.0011621594894677,-0.0020318194292485,-0.0019674568902701,0.0130052971118129,-0.3490204119309783,-9.801681751012802,14934.0
3.8,0.8999999761581421,52.0,23.48471450805664,0.0079517737030982,-79.78276259322743,40.45897981831562,269.67213074970243,0.0136320916935801,0.0118729518726468,-0.7334845662117004,0.679465651512146,0.000992143642512,-0.0054662053884187,0.0033107621564825,-0.0024622296914458,0.0012260641669854,-0.0055365483276546,0.01256084362627,-0.3651819332689047,-9.802990357875824,14934.0
4.0,0.8000000119209291,51.0,23.48346328735352,0.0,-79.78276259964119,40.45897981731992,269.67245940971367,0.0136299869045615,0.011867880821228,-0.7334826588630676,0.6794678568840027,0.0016495827411429,-0.0051022130549272,0.0033660176966631,0.0017697238363325,0.0047013717703521,0.006358977407217,0.0142129161651246,-0.3655869260430336,-9.802730156779289,14934.0
4.1,0.8000000119209291,54.0,23.487218856811523,0.0159035474061965,-79.78276257372137,40.45897986991733,269.68345098304746,0.0136324251070618,0.0118687199428677,-0.7334826588630676,0.6794677972793579,0.0042280846924049,-0.0059821032463484,0.0028095577315323,0.0052015478722751,0.0029453749302774,0.0074755777604877,0.0125556736369617,-0.3471210535615683,-9.800928629636765,14934.0
4.3,0.8000000119209291,55.0,23.4859676361084,0.0079517737030982,-79.78276258096453,40.45897986705501,269.68372742938993,0.0136328879743814,0.0118678463622927,-0.7334855198860168,0.6794647574424744,0.0029893030601539,-0.0056903508300936,0.0029780761786239,-0.0061925109475851,-0.0020578380208462,-0.0011701084440574,0.0125109093182254,-0.3529376078769565,-9.801156671047211,14934.0
4.4,0.699999988079071,56.0,23.474699020385746,0.0079517737030982,-79.78276250524597,40.458979917779374,269.6970135431289,0.0136291738599538,0.0118759535253047,-0.7334902286529541,0.6794595718383789,0.0042953606633509,0.0017239837136413,0.0064695134761671,-0.0019769286736845,-0.0030278589110821,-0.0017483051633462,0.0138248894526623,-0.3566915568709373,-9.801306359767914,14934.0
4.6,0.699999988079071,56.0,23.4859676361084,0.0079517737030982,-79.78276250350216,40.458979913535146,269.69764904785154,0.0136291738599538,0.0118759535253047,-0.7334902286529541,0.6794595718383789,0.0042001470615629,0.001967672965897,0.0065684575609932,0.0022496837191283,0.001136140548624,-0.001534774666652,0.0128406694403383,-0.3486349342390895,-9.801546680331231,14934.0
4.7,0.699999988079071,56.0,23.4859676361084,0.0159035474061965,-79.78276251928816,40.45897998326904,269.70867733764646,0.0136348605155944,0.0118660070002079,-0.7334977984428406,0.6794514656066895,0.0014675642926547,-0.0074631334122559,0.0041897109277125,-0.0036206843797117,-0.0044516902416944,-0.005873444955796,0.0142076376825571,-0.3660928198322654,-9.802362951636317,14934.0
4.9,0.699999988079071,56.0,23.48847198486328,0.0238553211092948,-79.78276245445305,40.45898003638215,269.7198150615692,0.0136062791571021,0.011871644295752,-0.7334906458854675,0.6794596314430237,0.0036310145087898,-0.0019906146530204,0.0035587243476759,0.0059681795537471,0.0007394538260996,0.005984038580209,0.0136551557458005,-0.3644212105125189,-9.801709817647934,14934.0
5.0,0.699999988079071,59.0,23.477203369140625,-0.0079517737030982,-79.78276245898351,40.45898003132848,269.7205368738174,0.0135961761698126,0.0118845188990235,-0.7334922552108765,0.67945796251297,0.003010412484483,-0.0013394543255707,0.0037985657072577,0.0062013939023017,0.0001199528487632,0.0064846752211451,0.0128433395165484,-0.3475884288176894,-9.800971899032591,14934.0
5.2,0.699999988079071,60.0,23.4859676361084,0.0079517737030982,-79.78276242641505,40.45898008340456,269.73162917900083,0.0135859511792659,0.0118931708857417,-0.7334870100021362,0.6794636845588684,0.0043480302857754,-0.0037091758943434,0.0030690338908765,-0.0044496934860944,-0.0002777307527139,-0.0048534357920289,0.0121474626101553,-0.3530029139667749,-9.8010929363966,14934.0
5.3,0.699999988079071,63.0,23.4859676361084,0.0,-79.78276237523772,40.45898013253016,269.74310271549217,0.0135913910344243,0.0119026228785514,-0.7334821820259094,0.6794685125350952,0.0050332366860794,-0.000940806167159,0.0027496359703738,-0.0037804541643708,-0.0009154583094641,0.0007342926692217,0.0133655027265194,-0.3593159699812531,-9.802024397850037,14934.0
5.5,0.699999988079071,64.0,23.480958938598643,-0.0079517737030982,-79.7827623767911,40.458980127689856,269.74336163806913,0.0136109460145235,0.0118927797302603,-0.7334877252578735,0.6794624328613281,0.0056047277501289,-0.0006890389031723,0.0028619057717954,0.0054531111381947,0.0014774699229747,0.0054489248432219,0.0138753696531057,-0.3553447603806853,-9.802656481862073,14934.0
5.6,0.699999988079071,66.0,23.48346328735352,0.0159035474061965,-79.78276234596362,40.458980198117374,269.75486438083647,0.0136214075610041,0.0118918707594275,-0.7334691882133484,0.6794822216033936,0.0021243948823514,-0.003486923023365,0.0024896621596818,0.0022016265429556,0.0018892225343734,-0.0028072276618331,0.0109926820581313,-0.3599467749148608,-9.801933766007425,14934.0
5.8,0.699999988079071,67.0,23.474699020385746,0.0079517737030982,-79.78276235003067,40.45898019663388,269.7551117401123,0.0136089231818914,0.0118883410468697,-0.7334678769111633,0.679483950138092,0.0015103692777548,-0.0029818204405748,0.0025735210939344,-0.0004046236281283,7.384610216831788e-05,0.0003987023956142,0.0132963970885612,-0.3626389060914517,-9.801454879045489,14934.0
5.9,0.699999988079071,71.0,23.48221015930176,-0.0159035474061965,-79.78276230224961,40.4589802455916,269.7680408220291,0.0136103993281722,0.011891646310687,-0.7334704399108887,0.6794810891151428,0.0029295867979784,-0.0009535619777657,0.0055013096163489,-0.0001976436906261,0.0006579144392162,0.0036863924469798,0.0126055405649822,-0.349042996801436,-9.80176828980446,14934.0
6.1,0.699999988079071,71.0,23.48471450805664,0.0874695107340812,-79.7827623034488,40.45898024299069,269.76858525085447,0.0136103993281722,0.011891646310687,-0.7334704399108887,0.6794810891151428,0.0024316368584525,-0.000644543825528,0.0056518419681673,0.0003945303324144,-0.0009368081227876,-0.0022620889358222,0.0134243094990961,-0.3459313279017806,-9.801849566102028,14934.0
6.2,0.699999988079071,76.0,23.48221015930176,0.0874695107340812,-79.78276227839667,40.458980326311405,269.7798679332733,0.0136080961674451,0.0118831926956772,-0.7334732413291931,0.6794782280921936,-0.003416370611588,-0.0034138947615483,0.0042535589274974,0.0003450664517004,-0.0031329242046922,-0.0089039159938693,0.0133972467121202,-0.3656005573645234,-9.802738927602768,14934.0
6.4,0.699999988079071,77.0,23.47845458984375,0.0795177370309829,-79.7827622493703,40.458980371296505,269.7905518274307,0.0136130154132843,0.0118850795552134,-0.7334733009338379,0.6794780492782593,0.0023359025850859,-0.005242888567156,0.0031450909208791,0.001135989325121,-0.0005596202099695,0.0037932270206511,0.0132449335965793,-0.3666483053192496,-9.802326114177704,14934.0
6.51,0.699999988079071,81.0,23.47219467163086,0.1590354740619659,-79.78276226127024,40.45898036888909,269.79119031238554,0.0136141180992126,0.0118847545236349,-0.7334765791893005,0.6794744729995728,0.0018292070268341,-0.0045822956364923,0.0032756315961355,0.0028113909065723,0.0045277578756213,0.0074484990909695,0.0139386760408524,-0.3453588489443064,-9.80067193686962,14934.0
6.7,0.699999988079071,83.0,23.47219467163086,0.1113248318433761,-79.78276220742819,40.45898041546639,269.8019698123932,0.013612744398415,0.0118888728320598,-0.7334770560264587,0.6794739365577698,0.0032526466181808,-0.0016465405519933,0.0028333027484705,-0.0057640164159238,-0.0047756154090166,-0.0070928200148046,0.0125660821376368,-0.3486236052587628,-9.800828642249108,14934.0
6.8,0.699999988079071,85.0,23.47219467163086,0.0715659633278846,-79.78276218130793,40.45898045937057,269.8127435903549,0.0136172855272889,0.0118891149759292,-0.7334803938865662,0.6794702410697937,0.004456396964436,-0.0034160585705607,0.0026558060110483,-0.0051594884134829,0.0017671972746029,-0.0030124140903353,0.0139566025533713,-0.3623857581987977,-9.80200042426586,14934.0
7.0,0.699999988079071,85.0,23.47845458984375,0.0954212844371795,-79.7827621857133,40.458980455157736,269.81299416828153,0.0136178089305758,0.0118886474519968,-0.7334833145141602,0.6794671416282654,0.0051605880639246,-0.0031781389572774,0.0027251200325477,0.0037698552478104,-0.0002117754047503,0.0020535057410597,0.0132303692330606,-0.3573104846477509,-9.801984052062036,14934.0
7.1,0.699999988079071,87.0,23.47595024108887,0.0795177370309829,-79.78276214291036,40.45898051559694,269.8236181001663,0.0136129166930913,0.0118872886523604,-0.7334834933280945,0.679466962814331,0.0016220573279667,-0.0011186130160204,0.0023424453679583,0.0008403687970712,0.0005104261799715,-0.0035983743146061,0.011324891843833,-0.3596226929873228,-9.801954231262208,14934.0
7.3,0.699999988079071,87.0,23.48221015930176,0.0954212844371795,-79.78276214419915,40.4589805143244,269.823852227211,0.013614373281598,0.0118874283507466,-0.7334863543510437,0.6794638633728027,0.001350240016773,-0.0007633882301012,0.0024383241076533,0.003147687530145,-0.0018954761326313,0.0042523927986621,0.0122990288352593,-0.3653792767971754,-9.801975865960124,14934.0
7.4,0.699999988079071,88.0,23.474699020385746,0.055662415921688,-79.78276213083157,40.45898057489122,269.8343832950592,0.0136174708604812,0.0118833156302571,-0.7334882020950317,0.6794618368148804,0.0002679900174713,-0.003819877246992,0.0019634025415777,0.0010796439601108,0.0047783493064343,0.0032570455223321,0.012768517996883,-0.3451743692904711,-9.8002684789896,14934.0
7.6,0.699999988079071,88.0,23.480958938598643,0.0795177370309829,-79.78276213512838,40.45898057543658,269.8345877389908,0.0136174708604812,0.0118833156302571,-0.7334882020950317,0.6794618368148804,-0.0009534891828213,-0.0035071254074131,0.0021032898168207,-0.0037084410432726,-0.0056286356411874,-0.0025013494305312,0.0122503473388496,-0.355576090849936,-9.8013402736187,14934.0
7.7,0.699999988079071,91.0,23.47595024108887,0.0715659633278846,-79.78276209402674,40.45898061454513,269.8452007036209,0.0136180529370903,0.011886665597558,-0.7334917783737183,0.67945796251297,0.0026522656742992,-0.0006799937364999,0.0021640127665516,0.0025709122419357,0.0036088216584175,0.0043784817680716,0.0130426404916215,-0.3509070891514421,-9.801104630827904,14934.0
7.9,0.699999988079071,92.0,23.474699020385746,0.0874695107340812,-79.78276205834554,40.45898065882787,269.8564755182266,0.0136176794767379,0.0118880411610007,-0.7334924340248108,0.6794572472572327,0.0032746296136982,0.0001828691295885,0.0050297046508787,-0.0057487129233777,-0.0003041896561626,-0.0059170764870941,0.0138139556162059,-0.3475727509707213,-9.801178890466687,14934.0
8.0,0.699999988079071,92.0,23.47219467163086,0.0874695107340812,-79.78276205767268,40.458980652035066,269.85746042537687,0.0136196780949831,0.011888476088643,-0.7334948182106018,0.6794545650482178,0.0029722281652697,0.0010638908088094,0.0051727977412668,-0.0051665385253727,-0.004185342695564,0.0040652314200997,0.0146784299053251,-0.3596057726070285,-9.801450201272964,14934.0
8.2,0.699999988079071,92.0,23.48346328735352,0.0874695107340812,-79.78276204303144,40.45898067988772,269.86702315616606,0.0136260939761996,0.0118898013606667,-0.733494758605957,0.6794545650482178,0.0086521958474872,-0.001912969127334,0.0040137697438663,0.0008528885664418,3.507445944705978e-05,-0.0027286137919873,0.0137642040336504,-0.3478460352122784,-9.800529264807704,14934.0
8.31,0.699999988079071,93.0,23.47219467163086,0.0954212844371795,-79.78276201012108,40.45898073581914,269.8766698102951,0.0136214429512619,0.0118863889947533,-0.7334977388381958,0.6794515252113342,0.0035815649061128,-0.0002893668428322,0.0028779825484533,-0.0057764644734561,-0.0017083106795325,-0.0035001663491129,0.012420287753921,-0.3638558943942189,-9.800993533730509,14934.0
8.5,0.699999988079071,93.0,23.473445892333984,0.0874695107340812,-79.78276201073245,40.45898073214536,269.8769482831955,0.013622717000544,0.011885997839272,-0.733501136302948,0.6794478297233582,0.004025954364454,-1.528095279527313e-05,0.0030350368915097,0.0027198835741728,-0.0005827106069773,0.00217553996481,0.0133262281666975,-0.3534851996228099,-9.801637312173844,14934.0
8.6,0.6000000238418579,92.0,23.47845458984375,0.0715659633278846,-79.78276197631862,40.45898079117072,269.8861811618805,0.0136190485209226,0.0118836257606744,-0.7335011959075928,0.6794478297233582,0.0003772505855498,0.0008066022312895,0.0025249538526948,-0.0042812884785234,-0.0039558811113238,-0.0061131920665502,0.0128787243075203,-0.3641661988198757,-9.801376526355744,14934.0
8.8,0.6000000238418579,92.0,23.48221015930176,0.0715659633278846,-79.78276197524136,40.458980790331616,269.88643352794645,0.0136210490018129,0.0118844015523791,-0.7335032224655151,0.6794455647468567,0.0009877950395953,0.0011867302307723,0.0025997467548912,0.0044075963087379,0.0009270553709939,0.0036420142278075,0.0134013386210426,-0.3597074045240879,-9.801920902132988,14934.0
8.9,0.699999988079071,90.0,23.48346328735352,0.0,-79.78276194629544,40.45898083392608,269.8950428228378,0.0136224078014493,0.0118846856057643,-0.7335073351860046,0.6794411540031433,0.001881169110232,0.0019342610995176,0.0025090306906142,-0.0018796429503709,-0.0015186409000307,-0.0024555153213441,0.0115510717383585,-0.3604971075430513,-9.801075394749642,14934.0
9.1,0.699999988079071,88.0,23.48471450805664,0.0079517737030982,-79.782761943864,40.45898083200753,269.895283744812,0.0136224078014493,0.0118846856057643,-0.7335073351860046,0.6794411540031433,0.0021793957248622,0.0024688224590816,0.0025090790288384,0.0009397506364621,0.0003991987323388,0.0051542385481297,0.0137614448787644,-0.3642010262981057,-9.801498733162882,14934.0
9.2,0.699999988079071,87.0,23.48221015930176,0.0079517737030982,-79.7827619159177,40.45898088965769,269.90334670352934,0.0136232860386371,0.0118830753490328,-0.7335095405578613,0.6794387698173523,4.290208945722805e-05,0.0025577828297897,0.002091402372354,0.0004059731727465,-0.0020623209420591,-0.0009029963403008,0.0138616298383567,-0.3526762007921934,-9.800128145813945,14934.0
9.4,0.699999988079071,87.0,23.48471450805664,0.0,-79.78276189155919,40.45898093415017,269.91276674079893,0.0136254355311393,0.0118846418336033,-0.7335101962089539,0.6794379353523254,0.0030765063321749,0.002492095333078,0.0058641579036503,-0.0001521032536402,0.0016174943884834,-0.0015702189411967,0.0126822510093916,-0.3633528876677156,-9.801242625117304,14934.0
9.5,0.6000000238418579,86.0,23.48346328735352,-0.0159035474061965,-79.78276188559303,40.45898092870425,269.91397671508787,0.0136258313432335,0.0118834041059017,-0.7335135340690613,0.6794343590736389,0.0028114949743792,0.0031229954401705,0.0062986494552015,0.0059719239361584,0.0004378679441288,0.0028035335708409,0.0131963777239434,-0.3462331904098392,-9.801464819312097,14934.0
9.7,0.6000000238418579,85.0,23.48471450805664,0.0079517737030982,-79.78276186222499,40.45898097488352,269.92296092319486,0.0136267095804214,0.0118837533518672,-0.7335139513015747,0.6794338822364807,0.0036037216221868,0.0029618517409248,0.008287934895241,-0.0043340637348592,0.0002162317250622,-0.0012711957097053,0.0120537746837362,-0.360389080233872,-9.800568441152572,14934.0
9.8,0.6000000238418579,84.0,23.48346328735352,0.0159035474061965,-79.78276183747293,40.45898103062708,269.9303043346405,0.0136272823438048,0.0118817538022995,-0.7335172891616821,0.679430365562439,0.0020718647943532,0.0027170605234799,0.0060868246606724,0.0037680000532418,-2.873295125027653e-05,0.006285395938903,0.0127302632736973,-0.3475558671355248,-9.80012346804142,14934.0
10.01,0.6000000238418579,83.0,23.48221015930176,0.0397588685154914,-79.78276183431875,40.45898102892672,269.9309158782959,0.0136280758306384,0.0118813132867217,-0.7335191369056702,0.6794283390045166,0.0007904117966125,0.0030145057536916,0.0062116753510913,-0.0078005893155932,-0.0014049835735931,-0.0039817080833017,0.0120127722260076,-0.3529766380414367,-9.800508214831352,14934.0
10.1,0.6000000238418579,81.0,23.4859676361084,0.0079517737030982,-79.78276181048375,40.45898107014237,269.93748156833647,0.0136299924924969,0.0118822585791349,-0.7335190176963806,0.6794283986091614,0.0038379802154787,0.0027629730434252,0.0044603741479392,0.0003630638238973,0.0001190703405882,0.0040687220171093,0.0113138266734313,-0.351906889937818,-9.80071169793606,14934.0
10.3,0.6000000238418579,82.0,23.480958938598643,0.0079517737030982,-79.78276180751755,40.4589810665004,269.9379252653122,0.0136313661932945,0.011882659047842,-0.7335225343704224,0.6794245839118958,0.0029676207828671,0.0029944462818246,0.0046749034161094,-0.0083890752866864,-0.0010495703900232,-0.0056840707547962,0.0123701136186718,-0.3465976181253791,-9.800474885702132,14934.0
10.4,0.6000000238418579,82.0,23.48221015930176,0.0,-79.78276181679071,40.45898114664652,269.9440832595825,0.0136313755065202,0.0118720019236207,-0.7335239052772522,0.6794233322143555,-0.0036118748784292,-0.0021847091913996,0.0030894653731535,-0.0042648301459848,0.0014910816680639,0.0009465196635574,0.0132923520030453,-0.3592880495265127,-9.800846183896065,14934.0
10.6,0.6000000238418579,82.0,23.4859676361084,0.0079517737030982,-79.78276181893085,40.45898114977132,269.94440643596647,0.0136313755065202,0.0118720019236207,-0.7335239052772522,0.6794233322143555,-0.0037204245165956,-0.0020003314317189,0.0031891421397312,-0.0013648211024701,-0.0003967167285736,0.0012809943873435,0.0122340699238702,-0.3480798507481814,-9.80090231716633,14934.0
10.7,0.5,80.0,23.48346328735352,0.0079517737030982,-79.78276179267495,40.45898116191464,269.950459526062,0.0136375576257705,0.0118795270100235,-0.7335276603698729,0.6794189214706421,0.0044397375121612,0.0002785863286319,0.0028935188457358,-0.0035079335793852,-0.0020192808005958,-0.0032741904724389,0.0121427003270946,-0.3642627509683371,-9.80163029551506,14934.0
10.9,0.5,80.0,23.48221015930176,-0.0079517737030982,-79.7827617907639,40.45898120931801,269.9559314708709,0.0136396661400794,0.0118774473667144,-0.7335275411605835,0.6794190406799316,0.0061206173535357,-0.0021226804166514,0.0024443813840817,0.0021692891605198,0.0026088419836014,0.0011109012411907,0.0133449529611971,-0.3548986178264022,-9.801301681995392,14934.0
11.0,0.5,80.0,23.48471450805664,-0.0079517737030982,-79.78276179610178,40.458981199422816,269.9564019899368,0.0136419869959354,0.0118785910308361,-0.7335304021835327,0.6794159412384033,0.0046921271586502,-0.0015192930485176,0.0027216886307782,-0.0026949420571327,-0.0013153876643627,-0.0061132814735174,0.0122195900708902,-0.3652855386212469,-9.80141394853592,14934.0
11.2,0.5,79.0,23.480958938598643,0.0079517737030982,-79.78276177735944,40.45898124467188,269.9598362903595,0.0136411003768444,0.0118795773014426,-0.7335301041603088,0.6794162392616272,0.0066143741577613,-0.0002664354207219,-0.001197186060345,0.0030669511761516,-0.0006264030234888,0.0038446348626166,0.0140084280702285,-0.3618293590843677,-9.801658946871758,14934.0
11.3,0.5,79.0,23.477203369140625,0.0159035474061965,-79.78276174081424,40.45898128363047,269.96496228981016,0.0136376814916729,0.01188257150352,-0.7335343956947327,0.6794115900993347,0.0063809100917722,0.0048415224070578,-2.1846220864023905e-05,0.0027548188809305,0.0019133721943944,-0.0005066843586973,0.0111291106184944,-0.3591620054841041,-9.802427855730055,14934.0
11.5,0.5,78.0,23.480958938598643,0.0,-79.78276173553397,40.45898127766221,269.96494405078886,0.0136403311043977,0.0118838446214795,-0.7335375547409058,0.679408073425293,0.0061871581019506,0.0052214780756528,7.531829097285914e-05,-0.0012880937429144,0.00172797718551,0.0034132252912968,0.0136336112685967,-0.3648492266982794,-9.801518028974533,14934.0
11.6,0.5,77.0,23.48471450805664,0.0159035474061965,-79.78276173929144,40.45898134971393,269.9676758508682,0.0136326253414154,0.0118834367021918,-0.7335463166236877,0.6793988943099976,-4.3038596996554985e-06,1.347851184638353e-05,-0.0033271919034951,0.0051728677935898,0.001065227552317,0.0027052487712353,0.0136838219489436,-0.3459730989485979,-9.799719425439836,14934.0
11.8,0.5,77.0,23.4859676361084,0.0159035474061965,-79.78276173903107,40.458981350462594,269.9673551778793,0.0136518320068717,0.0118841445073485,-0.7335429787635803,0.6794020533561707,-0.0013076898152957,0.0004251173048713,-0.0031241843890517,-0.0035202612634748,-0.0008419843506999,-0.0057924352586269,0.0125033501931466,-0.3511308913305402,-9.800828057527545,14934.0
11.9,0.5,77.0,23.48346328735352,0.0,-79.78276170236538,40.45898137266281,269.96984653282163,0.0136497281491756,0.0118872616440057,-0.7335383296012878,0.6794070601463318,0.0043193611514536,0.0046389664372974,-0.0045754867246694,-0.0033650556579232,0.0016051265411078,-0.0013595167547464,0.0144580149999819,-0.3564414422214031,-9.802086378335952,14934.0
12.1,0.5,75.0,23.48221015930176,0.055662415921688,-79.78276169714131,40.45898136851915,269.96937386798857,0.0136630153283476,0.011900320649147,-0.7335415482521057,0.6794031262397766,0.0042279785663465,0.004920449311577,-0.0045329552550624,-0.0006697824574075,0.0009643946541473,-0.0017563619185239,0.0129608057392761,-0.3492524002119899,-9.800350340008738,14934.0
12.2,0.5,74.0,23.48471450805664,0.0,-79.78276170548652,40.45898141967138,269.9714897136688,0.0136771230027079,0.0118863303214311,-0.7335389852523804,0.6794058084487915,0.0016774036272644,0.0003093528600657,-0.0059787632172762,-0.0025925182271748,-0.0004318578867241,-0.0046764737926423,0.0134072395123075,-0.3659715997427702,-9.802389848828318,14934.0
12.4,0.5,73.0,23.48346328735352,0.0079517737030982,-79.78276167173853,40.45898145215487,269.9739172916412,0.0136792575940489,0.0118821309879422,-0.7335371375083923,0.6794078350067139,0.0047822784040063,0.0047707280369537,-0.0070396505250613,0.0065843909978866,0.0024529676884412,0.0039239409379661,0.0135706417809706,-0.3640044502168894,-9.80179401755333,14934.0
12.5,0.5,72.0,23.47970771789551,-0.0159035474061965,-79.78276166059966,40.45898144484261,269.9725163440704,0.0136782443150877,0.0118931056931614,-0.7335411906242371,0.6794033050537109,0.0040841785299989,0.0052850001640973,-0.0067287133599898,0.0030523482710123,0.0014907218283042,0.0013622906990349,0.0124557193682994,-0.3522406197711825,-9.800907579660416,14934.0
12.7,0.5,73.0,23.47845458984375,-0.0079517737030982,-79.78276170941827,40.458981493399975,269.97490243721006,0.013683189637959,0.0118830557912588,-0.7335407733917236,0.6794037818908691,0.0020356453697715,-0.0050365042598933,-0.0076903551787279,-0.0029177591204643,-0.0022154457401484,-0.0026253992691636,0.0111814032273832,-0.3624591407552361,-9.80175367176533,14934.0
12.8,0.5,73.0,23.47595024108887,0.0159035474061965,-79.78276170034152,40.45898151911455,269.9777917127609,0.0136845195665955,0.0118858935311436,-0.7335451245307922,0.6793990135192871,0.0036852795981088,-0.0028888045209533,-0.0052119633000942,0.0055372971110045,0.0009742974652908,0.0040943659842014,0.0127643381513189,-0.3486707484349609,-9.80011118888855,14934.0
13.0,0.5,73.0,23.480958938598643,-0.0079517737030982,-79.78276170395458,40.45898151655275,269.9772681455612,0.0136848799884319,0.0118853487074375,-0.7335478067398071,0.6793961524963379,0.0026125640521775,-0.0026965245169504,-0.0050010904940884,-0.00316519360058,-0.0017887457506731,-0.0027716688346117,0.0138155578903388,-0.3464939762279391,-9.800981254577636,14934.0
13.1,0.5,73.0,23.487218856811523,0.0,-79.78276170962697,40.45898152480515,269.9804360132217,0.0136908115819096,0.011887926608324,-0.7335481047630309,0.6793956756591797,0.0079870121701083,-0.0040941772747431,-0.0023454185250663,-0.0043680174276232,-0.0034424827899783,-0.0058798976242542,0.0136900997115299,-0.3633308875188232,-9.802366459965707,14934.0
13.3,0.5,72.0,23.48346328735352,0.0079517737030982,-79.78276171516409,40.458981517471216,269.9801741104126,0.0136926043778657,0.0118884798139333,-0.7335508465766907,0.6793926954269409,0.008653103480603,-0.0038810683627707,-0.0022386026916116,0.00548672163859,-0.0011087381280958,0.0006148231914266,0.0146413834544364,-0.3562112081050873,-9.802064743638038,14934.0
13.4,0.5,72.0,23.48221015930176,-0.0238553211092948,-79.78276169772668,40.45898155264098,269.98112134742735,0.0136880446225404,0.0118859680369496,-0.7335540652275085,0.6793892979621887,0.0041463718705213,-0.001696083375915,-0.0047310753030101,-0.0005092380451969,-0.0011653404217213,-0.00296864612028,0.0122522579622454,-0.363010240830481,-9.802279336452484,14934.0
13.6,0.5,72.0,23.48471450805664,-0.0079517737030982,-79.7827616998763,40.45898154923525,269.9806406955719,0.0136880446225404,0.0118859680369496,-0.7335540652275085,0.6793892979621887,0.0043006316324745,-0.0014005447350193,-0.0045824144894953,0.0020762833300977,-0.0015339908422902,0.0041732350364327,0.0134573120065033,-0.3662509139254689,-9.80246176958084,14934.0
13.7,0.5,73.0,23.47970771789551,-0.0318070948123931,-79.78276171269401,40.458981558629176,269.98419360923765,0.0136940320953726,0.0118860732764005,-0.7335565090179443,0.6793865561485289,0.0063476968614061,-0.004170353361335,-0.0017782942712942,0.006145326886326,0.0032472247257828,0.0063756634481251,0.0129907338903285,-0.3483990356326103,-9.801801034212112,14934.0
13.9,0.5,73.0,23.47970771789551,-0.0238553211092948,-79.78276169035091,40.45898158698779,269.9870064716339,0.0136905871331691,0.0118854502215981,-0.7335567474365234,0.6793863773345947,0.0031459360959482,-0.0025054014918401,-0.0009826356142573,-0.0006541331531479,0.001546211540699,-0.0034745067823678,0.0119299461878836,-0.3587291653454304,-9.801075394749642,14934.0
14.0,0.5,73.0,23.47845458984375,-0.0159035474061965,-79.78276169644772,40.45898158147236,269.9868206243515,0.0136906104162335,0.0118846176192164,-0.7335596084594727,0.6793832778930664,0.003340007076167,-0.0020876274226418,-0.0006915514929884,0.004462266806513,-0.0002075992670143,0.0058454480022192,0.0126446232630405,-0.3501027315482497,-9.801342612504962,14934.0
14.2,0.5,73.0,23.480958938598643,0.0159035474061965,-79.78276165624767,40.45898156861085,269.9915320138931,0.0136907510459423,0.0118935853242874,-0.7335606217384338,0.6793820261955261,0.0079255243305172,0.0033605483453978,0.0039600991368566,-0.0072617749683558,0.0010078976629301,-0.0088161500170826,0.0126659427594859,-0.345756057612598,-9.800288944244388,14934.0
14.3,0.5,74.0,23.480958938598643,0.0,-79.78276168887095,40.458981579705856,269.99413029956816,0.0136981317773461,0.0118822883814573,-0.7335640788078308,0.6793783903121948,0.004083849901051,-0.0071511207008603,0.0024921269952202,-0.0047948164865374,0.0001235509698744,-0.0031849006190896,0.0136405616893898,-0.3617720198258757,-9.801541417837145,14934.0
14.5,0.5,74.0,23.47845458984375,-0.0159035474061965,-79.78276169764482,40.4589815761556,269.99436633396147,0.0136982584372162,0.0118816588073968,-0.7335661053657532,0.6793761849403381,0.0044847807656981,-0.0069959241122014,0.0025938469485041,0.0017119877738878,0.0025078239850699,-6.224159733392297e-06,0.0124961279681883,-0.3518747302517295,-9.80034624695778,14934.0
14.6,0.5,74.0,23.47970771789551,-0.0477106422185897,-79.78276167677672,40.45898154933562,269.9970313768386,0.0137001974508166,0.0118896216154098,-0.733566403388977,0.6793757081031799,0.0094716685944461,-0.0029780570400319,0.0022426811478646,-0.0026885201223194,-5.42918496648781e-05,-0.0029059599619358,0.0127372856426518,-0.3645850056409836,-9.801767705082892,14934.0
14.8,0.5,75.0,23.48346328735352,0.0,-79.78276168110726,40.45898154062488,269.99722759532926,0.0137017453089356,0.0118903284892439,-0.7335699200630188,0.6793718934059143,0.0101997081678272,-0.0028430200761137,0.0023389735028833,0.0039471657946705,0.0009727968717925,0.0046804100275039,0.0121048761508427,-0.3635028687492013,-9.801553112268447,14934.0
14.9,0.4000000059604645,75.0,23.473445892333984,-0.0079517737030982,-79.78276166414314,40.45898154928329,269.99987916755674,0.0136969061568379,0.0118866376578807,-0.7335719466209412,0.6793698668479919,0.0041899842174516,-0.0017640643185006,0.0019719765150013,0.0028500186745077,0.0004257046384736,0.0040215225890278,0.0118039592471905,-0.3541529516503215,-9.800521078705788,14934.0
15.1,0.4000000059604645,75.0,23.48221015930176,0.0,-79.78276166644386,40.45898154593177,270.0000679950714,0.0136969061568379,0.0118866376578807,-0.7335719466209412,0.6793698668479919,0.0036992493688583,-0.001521355884784,0.0020868916819311,-0.0044633508659899,0.0004805963253602,0.0054259793832898,0.0120571916503831,-0.3646809730678797,-9.801936104893684,14935.0
15.2,0.4000000059604645,75.0,23.474699020385746,0.3339745104312897,-79.78276164529642,40.4589815265624,270.00232033538816,0.0137030556797981,0.0119036827236413,-0.7335678339004517,0.6793738007545471,0.0047577115387741,5.58227726509329e-05,0.0018833611247662,0.0034412150271236,0.0018836583476513,-0.0071453270502388,0.0125817793991882,-0.3468415566533804,-9.799221242666246,14935.0
15.4,0.4000000059604645,75.0,23.469690322875977,0.2942156493663788,-79.78276162487138,40.45898150709844,270.0061359863281,0.0137026896700263,0.0118872784078121,-0.733525812625885,0.6794195771217346,0.0051729671922225,0.000737666984555,0.0052672570959988,-0.0024850696790963,-0.0018353943014517,-0.0142857553437352,0.0152847484813537,-0.3669843374937773,-9.799535238146785,14935.0
15.5,0.4000000059604645,75.0,23.469690322875977,0.2862638533115387,-79.78276162424034,40.45898149510368,270.0072142343521,0.0136952046304941,0.0118781402707099,-0.7335065007209778,0.6794407367706299,0.0066896486541459,0.0008290461675215,0.0057561177241897,0.0001890219427878,-0.0009198845364153,0.0087914764881134,0.0156838369381148,-0.3514895814657211,-9.804643950462342,14935.0
15.7,0.4000000059604645,75.0,23.46843910217285,0.3101191818714142,-79.78276160343512,40.45898148821063,270.01075355815885,0.0136859398335218,0.0118641182780265,-0.733555018901825,0.6793887615203857,0.0032824818008223,0.0012646652009724,0.0081481237773448,-0.0004301051667425,0.0005042127449996,-0.0019150439184159,0.0197908835252746,-0.3420755277201533,-9.80586309492588,14935.0
15.8,0.4000000059604645,75.0,23.47219467163086,0.3101191818714142,-79.78276162591106,40.45898148174317,270.0144129257202,0.0136787444353103,0.0118490532040596,-0.7335417866706848,0.6794033646583557,-0.0026936935703323,-0.0065720784898206,0.0084111634117202,-0.0061778672970831,-0.001055093249306,-0.0119957197457551,0.0179266598413232,-0.3713000577315688,-9.804836908578872,14935.0
16.0,0.4000000059604645,74.0,23.46843910217285,0.3339745104312897,-79.78276163297836,40.458981483393465,270.0153092603683,0.013652260415256,0.0118500804528594,-0.7335341572761536,0.6794122457504272,-0.0022819404843115,-0.00568654918429,0.0087798267801463,0.0045791389420628,0.0048997197300195,-0.004117221571505,0.0083177002397133,-0.3638779310882092,-9.795018264055251,14935.0
16.1,0.4000000059604645,74.0,23.46718597412109,0.3657816052436829,-79.78276168404534,40.45898147566058,270.01476006317137,0.0136893317103385,0.0118404710665345,-0.7335587739944458,0.6793850064277649,-0.0032907530714269,-0.0146647801020129,0.0026676960149263,0.0083961365744471,0.0019454712746664,0.0067167561501264,0.0092255975282751,-0.3502172273397446,-9.80193668961525,14935.0
16.3,0.4000000059604645,73.0,23.46343040466309,0.4532511234283447,-79.78276170098839,40.45898148047164,270.0150025348663,0.0136851109564304,0.0118425302207469,-0.7335938811302185,0.6793471574783325,-0.0050470596613859,-0.0144022714778314,0.0020669343423736,-0.0035756884608417,0.0002886084257625,0.0071842414326965,0.016913218597183,-0.3626919695734978,-9.805816901922228,14935.0
16.4,0.4000000059604645,72.0,22.767290115356445,11.275615692138672,-79.7827617344342,40.45898145498687,270.0156553249359,0.0136845214292407,0.0122510101646184,-0.7337568998336792,0.6791638731956482,-0.0037516209105934,-0.0178860421698139,0.0012477815571855,-0.014507564716041,0.0062620947137475,-0.0014097826788201,0.0190483065519947,-0.3294129436835646,-9.819921555519104,14935.0
16.6,0.5,72.0,23.46343040466309,0.3021674156188965,-79.78276175563575,40.458981459735725,270.01579289245603,0.0135840540751814,0.0121124777942895,-0.7336995005607605,0.6792303323745728,-0.0056231425154881,-0.0185769620221394,0.0023747008856917,-0.0059600751847028,0.042388767004013,0.0034638931974768,0.0081785279419273,-0.2686709711328149,-9.807827759385107,14935.0
16.7,0.5,71.0,23.46593475341797,0.2385532110929489,-79.78276174614722,40.45898140500586,270.013376996994,0.0136757660657167,0.0120549965649843,-0.7337764501571655,0.679146409034729,0.0035108565228919,-0.0063701570885387,0.0012037708878151,-0.0141014764085412,-0.0415465906262397,0.0081475572660565,0.0580073485616594,-0.4230850826203824,-9.797824927568437,14935.0
16.9,0.5,71.0,23.413349151611328,0.787225604057312,-79.78276174537667,40.45898135630874,270.0129718046188,0.0137907024472951,0.0121790654957294,-0.7338361740112305,0.6790773272514343,0.0068504604482893,-0.0097979364461948,-0.0028842976050132,-0.0051246401853859,-0.0461826622486114,0.0563264191150665,0.022429112966638,-0.455389048755169,-9.769844246506691,14935.0
17.0,0.5,72.0,23.457170486450195,0.2942156493663788,-79.7827617704295,40.45898134980082,270.0125693540573,0.0136268837377429,0.012175178155303,-0.7338061332702637,0.6791131496429443,0.0059980527631756,-0.0101765043733413,-0.000259192375521,0.015436721034348,0.0113228242844343,0.0058718100190162,0.0430441044364124,-0.349120070412755,-9.806751871705057,14935.0
17.2,0.5,73.0,23.45216178894043,0.4930099844932556,-79.7827617496155,40.458981288584646,270.012235329628,0.0137038705870509,0.0119947437196969,-0.7337434887886047,0.6791825294494629,0.0041683144034288,-0.0076038013702262,-4.48661618795567e-05,-0.0541759766638278,0.0265813879668712,0.0024639246985316,0.0311843431089073,-0.2942077170498669,-9.805849061608315,14935.0
17.3,0.5,71.0,23.38830757141113,2.7910726070404053,-79.78276173784873,40.45898124702936,270.01202099132536,0.0137355178594589,0.0117769101634621,-0.7337289452552795,0.6792013645172119,0.0029022049702727,-0.004547102798013,0.0015237526690317,-0.0140593731775879,0.0141766080632805,-0.0160932429134845,0.0086646268505137,-0.3812043274194002,-9.77820050239563,14935.0
17.5,0.5,69.0,23.27186584472656,4.85853385925293,-79.78276174025136,40.45898124164953,270.012089179039,0.0136722270399332,0.0120727149769663,-0.7337938547134399,0.6791273355484009,0.0080417258134266,-0.001591111885785,0.002732761116013,0.0065335622057318,-0.0057447990402579,0.0076127597130835,-0.0053814723633695,-0.3245370967313647,-9.797441350221632,14935.0
17.6,0.5,67.0,23.23305320739746,6.250094413757324,-79.78276175072405,40.45898118223045,270.01122932243345,0.0136519512161612,0.012025554664433,-0.7339534759521484,0.6789560914039612,0.0028827177155708,-0.0035519664800775,0.0018493221849677,-0.0207626018673181,-0.0100477943196892,-0.0254365503787994,-0.0277584000723436,-0.3188374136388302,-9.79712092280388,14935.0
17.8,0.5,66.0,23.135393142700195,8.444784164428711,-79.78276175520955,40.45898117495214,270.0112997751236,0.0136895002797245,0.0122601389884948,-0.7340006828308105,0.6789001226425171,0.0085814970158309,-0.0016451695283257,0.0006329071426497,0.0099744107574224,-0.0349734500050544,0.0173634979873895,0.0264876265218481,-0.2886024847626686,-9.79613917529583,14935.0
17.9,0.6000000238418579,63.0,23.07404327392578,9.796585083007812,-79.78276177372001,40.45898112555729,270.0106653432846,0.0136886350810527,0.0099036004394292,-0.7341957688331604,0.6787276268005371,0.0011320965453217,-0.0154879831234225,0.0033443891134514,0.0058507523499429,0.0644474402070045,0.053861454129219,-0.0265010157320648,-0.2752887949906289,-9.799924662709236,14935.0
18.1,0.6000000238418579,62.0,22.95885467529297,12.51609230041504,-79.78276178368745,40.45898112191699,270.010767624855,0.0136259300634264,0.0098095433786511,-0.7344423532485962,0.678463339805603,0.0086655790943697,-0.0031572949473032,0.0003443509274682,0.0304880272597074,-0.0263210870325565,-0.0355505794286727,0.0265411148406565,-0.3025245407782495,-9.731349686980248,14935.0
18.2,0.6000000238418579,60.0,22.887487411499023,14.14620590209961,-79.78276176205549,40.45898104552308,270.01042716312406,0.0142430011183023,0.011131283827126,-0.7344005107879639,0.6784756183624268,0.0119467222123096,-0.0067339389771651,0.0129911685140787,0.0059345569461584,0.0258403271436691,0.058803491294384,-0.0331642560102045,-0.2659725359268486,-9.833409912586214,14935.0
18.4,0.6000000238418579,59.0,22.740997314453125,17.30306053161621,-79.78276174331559,40.45898098493868,270.0088614683151,0.0151028726249933,0.0111007532104849,-0.7343367934226991,0.6785265207290649,0.0083285959891032,-0.0083976787571827,0.0033624570875679,0.0015015410026535,0.0241375342011451,-0.0465605184435844,0.0250432454841211,-0.3511847222596407,-9.830811409950256,14935.0
18.5,0.699999988079071,52.0,22.66211700439453,18.941125869750977,-79.78276177575053,40.45898097620867,270.0119073848724,0.0175948310643434,0.0050237220712006,-0.7330418229103088,0.6799374222755432,-0.008969468766392,-0.0315887519013616,0.0182713206917611,-0.0888602212071418,0.1674952358007431,-0.074565514922142,-0.0880024136882275,-0.4738967653736472,-9.777490065693856,14935.0
18.7,0.699999988079071,51.0,22.50060272216797,22.54327964782715,-79.78276176174734,40.45898091638944,270.00936393547056,0.0189549848437309,0.0016250277403742,-0.7326822876930237,0.6803048849105835,0.0070576587981399,-0.0253875506141686,0.0361879164206652,0.0037909653037786,0.0794176086783409,0.0114224068820476,0.1734748285263777,-0.3154992382228375,-9.987008081674576,14935.0
18.8,0.699999988079071,46.0,22.41546440124512,24.66640281677246,-79.7827618613385,40.45898081652928,270.01695303726194,0.0115368720144033,-0.01096813660115,-0.7312195897102356,0.68195641040802,0.0072521993973993,-0.0575647092373981,0.1072912680344432,-0.250381588935852,-0.0354660339653492,-0.0181914176791906,-0.0267019521002657,-0.2053823899850248,-9.945168914794923,14935.0
19.0,0.8000000119209291,45.0,22.24768829345703,21.62882423400879,-79.78276194669142,40.45898080552217,270.0330278139114,0.0038220421411097,-0.0163070727139711,-0.7299979925155641,0.6832441091537476,0.0246555002276238,-0.0715801356738165,0.2256627610142994,-0.0626146420836448,0.0269709303975105,-0.0311681702733039,0.2341822659596801,0.1163135537970811,-10.904021065235137,14935.0
19.1,0.8999999761581421,43.0,22.72221565246582,17.81992530822754,-79.78276204505808,40.4589807924183,270.06226293849943,-0.0018673459999263,-0.0146988602355122,-0.7287610173225403,0.6846078038215637,0.0160348465956489,-0.0725377051795664,0.3511541933125147,-0.0467177703976631,-0.2276230752468109,-0.0951259434223175,0.1100921437516808,0.2537647921778261,-10.9194097673893,14935.0
19.31,0.8999999761581421,43.0,22.55569267272949,20.07027816772461,-79.78276237831601,40.45898064617382,270.1087632637024,-0.006699823308736,0.001698269508779,-0.7281534671783447,0.6853792667388916,0.023177203318813,-0.0689818713651656,0.2565431948362608,0.0867995917797088,-0.0491705797612667,0.044717751443386,0.1090003863628953,0.0397057188861072,-9.420571929216385,14935.0
19.4,0.8999999761581421,44.0,22.488082885742188,22.73412132263184,-79.78276283452699,40.45898076244353,270.10905329990385,-0.0037368233315646,0.0036313643213361,-0.7287986874580383,0.6847082376480103,0.0143995133748789,-0.0309917844775268,0.0724918718081615,0.007988816127181,-0.0373472161591053,-0.0099957548081874,0.165540266521275,-0.0218018414871767,-9.158529544472692,14935.0
19.6,0.8999999761581421,45.0,22.47430992126465,21.62882423400879,-79.78276286930449,40.458980741048336,270.11399214076994,4.641941632144153e-05,0.0043098470196127,-0.7295244932174683,0.6839411854743958,0.0236182075401955,-0.0133993966311707,0.0137296344501542,-0.0003677766653709,-0.0445952452719211,0.0308934450149536,0.1787168939039111,-0.002007536998135,-9.171652450561524,14935.0
19.7,0.8999999761581421,44.0,22.439252853393555,22.59894180297852,-79.78276294901539,40.45898062896314,270.1301746826172,-0.0009453142993152,-0.0032815660815685,-0.7309362292289734,0.6824373006820679,0.0307980032294147,-0.003274483369349,-0.0143716927239007,-0.0898898988962173,-0.0354585349559783,-0.0084341783076524,0.182635186202824,-0.0378543031169101,-9.3496481269598,14935.0
19.9,0.8999999761581421,47.0,22.31154441833496,24.68230628967285,-79.78276300918512,40.458980757312695,270.1509889822006,-0.0040979892946779,-0.0055497996509075,-0.7314186096191406,0.6818939447402954,0.0186913295018791,0.0055056315488918,0.0096826359285505,-0.1015278175473213,-0.0729904025793075,-0.0310910046100616,0.20153395364061,0.0425033055106178,-9.69538112461567,14935.0
20.0,1.0,53.0,22.356616973876957,23.56110572814941,-79.78276298298141,40.458980719797,270.1607441167831,-0.0023702741600573,-0.0042867786251008,-0.73194819688797,0.6813426613807678,0.0178494293621445,0.0212212894450869,0.0888979033827601,0.1175903230905532,-0.0423393957316875,-0.0149966021999716,0.1727316108718514,0.0299919953383505,-10.098406895399094,14935.0
20.2,1.0,57.0,22.35787010192871,23.338457107543945,-79.78276290587075,40.458980580971605,270.1847696762085,0.0006208894774317,-0.0011861834209412,-0.7319613099098206,0.6813449263572693,0.018729925870313,0.0298805660617183,0.1279256944453207,0.0478464141488075,-0.0584508404135704,-0.0150339808315038,0.2313108262605965,0.0387716581625864,-10.03961665034294,14935.0
20.3,1.0,64.0,22.36162567138672,23.04424095153809,-79.78276265243704,40.45898049080453,270.2148314576149,-0.0008005924755707,-0.0024339940864592,-0.731607973575592,0.6817208528518677,0.0078400702153029,0.0683279370047817,0.1540544526057357,-0.1099012270569801,0.0507676862180233,-0.033109426498413,0.1545993951335549,-0.082621997706592,-10.015562374591829,14935.0
20.5,1.0,70.0,22.37539863586425,21.795812606811523,-79.78276256847028,40.45898047527703,270.23111520814894,-0.001946143922396,-0.0049507520161569,-0.7313683032989502,0.6819620728492737,0.0143167973546384,0.0797070282025628,0.1717660143843086,-0.0273884609341621,0.0434826090931892,0.0128994053229689,0.0726530614681542,0.0354581552557647,-9.96553125858307,14935.0
20.6,1.0,77.0,22.28900718688965,27.03603172302246,-79.78276247346491,40.458980459843055,270.248469815731,-0.0023382275830954,-0.005925296805799,-0.7309619784355164,0.6823886036872864,0.0058519511531052,0.0859216212931754,0.1740197910976082,-0.0699573382735252,-0.0448471903800964,-0.0676677823066711,0.0894315828289836,0.1345474745426327,-9.84670414209366,14935.0
20.8,0.8999999761581421,81.0,22.402942657470703,22.304725646972656,-79.78276215294034,40.458980479337015,270.276360080719,-0.0019931970164179,-0.0083824517205357,-0.7300922274589539,0.6832943558692932,-0.0071359725688914,0.0838325690715295,0.2201457778729621,0.1160345897078514,0.0975850149989128,0.1042946055531501,0.198710388019681,-0.1414260111283511,-10.18193904876709,14935.0
20.9,1.0,84.0,22.3353328704834,24.28471755981445,-79.78276204135192,40.45898036242439,270.28797428417204,-0.0019948524422943,-0.0074394941329956,-0.7298875451087952,0.6835238933563232,-0.0180890097605173,0.0900822935877893,0.2000188172416712,0.0035541967954486,-0.0488569661974906,-0.0985544174909591,0.1599358747713268,0.2351195380836725,-9.88659618616104,14935.0
21.1,1.0,84.0,22.302780151367188,23.64857482910156,-79.78276183666655,40.45898039910246,270.3272434930801,0.0016191230388358,-0.0068556037731468,-0.7300039529800415,0.68340665102005,-0.0243041550692554,0.0854526895773389,0.2026366974376271,0.1337604075670242,0.1084382981061935,0.0632366091012954,0.1139935156702995,-0.0749980781693011,-9.89550968170166,14935.0
21.2,1.0,86.0,22.326568603515625,24.984474182128903,-79.78276150597603,40.45898048773571,270.3699622612,0.002884789602831,-0.0091273533180356,-0.7300348877906799,0.6833428740501404,-0.0541220053145461,0.0971063361564834,0.2380724162420331,-0.0271623935550451,0.0314110033214092,0.0132713485509157,0.1585052986443043,0.2962175695225597,-10.003672646284103,14935.0
21.4,1.100000023841858,87.0,22.26521682739257,25.39796638488769,-79.78276133916856,40.45898057805466,270.3866271238327,0.0040180035866796,-0.0084767015650868,-0.7301357388496399,0.6832377910614014,-0.0764268425166425,0.0817066216848193,0.2353863270572135,-0.0833164304494857,-0.0560406036674976,-0.0865658968687057,0.0664237942267209,0.2380790514685213,-9.974945275783538,14935.0
21.5,1.100000023841858,91.0,22.79608726501465,15.092467308044435,-79.78276124883264,40.458980633670734,270.41081403303144,0.0058268597349524,-0.0075654876418411,-0.7301907539367676,0.6831766366958618,-0.0612383583941587,0.0795115027048961,0.2483310361939663,0.0139830652624368,-0.0149287246167659,-0.0114267915487289,0.1719450507313013,-0.0873954452946782,-9.957832814455031,14935.0
21.71,1.100000023841858,90.0,22.197607040405277,26.646394729614247,-79.7827610008605,40.45898055691551,270.4380416731834,0.0071484399959445,-0.0029198294505476,-0.7305171489715576,0.6828507781028748,-0.0419713020874806,0.0688351259271577,0.0840996178093627,0.0425569452345371,-0.0165127199143171,0.0214591566473245,0.2125843506865203,-0.039895968097262,-9.406688885092736,14935.0
21.9,1.100000023841858,89.0,21.948448181152344,32.920345306396484,-79.78276061027606,40.45898040647068,270.4983470301628,0.0027344143018126,-0.0032157357782125,-0.7305856347084045,0.6828081011772156,-0.0433368030667492,0.0989260396261392,0.2202928362385184,-0.2232254296541214,-0.0937757417559623,-0.1269449442625045,0.103746727053076,0.1651832574605941,-10.297433252334596,14935.0
22.0,1.2000000476837158,90.0,21.932172775268555,32.554561614990234,-79.78276049605594,40.45898042206623,270.5258530836105,0.0010638586245477,-0.0046880431473255,-0.7303233146667479,0.6830847859382629,-0.0209107951508031,0.0961949209315232,0.3424958293282617,0.0178949236869812,-0.0087889367714524,-0.0022648351732641,0.1336711322329938,0.1329544371832162,-10.926070915460588,14935.0
22.2,1.2000000476837158,91.0,21.83075523376465,34.55841064453125,-79.78276017645862,40.45898054621624,270.62381397295,0.0021030642092227,-0.0058260848745703,-0.7298769950866699,0.6835504770278931,-0.0346063460925401,0.0896749064160853,0.6570273782423784,-0.0510572157800197,0.0707564353942871,-0.0656357258558273,0.1259063222073018,0.1303030629269778,-11.465411070585253,14935.0
22.3,1.2999999523162842,90.0,21.81072425842285,36.02948760986328,-79.78276007393816,40.45898057126642,270.6990685622692,0.0029789474792778,-0.0062969322316348,-0.7299606204032898,0.6834537386894226,-0.0316418913358168,0.0944524016717246,0.8530369681194657,-0.0276080314069986,0.032763622701168,-0.0132562033832073,0.143880708804354,-0.0059325210470706,-11.71683666586876,14935.0
22.5,1.2999999523162842,90.0,21.759389877319336,35.93406677246094,-79.78275973524711,40.458980543997775,270.9132799665928,0.0052921036258339,-0.0039878189563751,-0.7302017211914062,0.6831995248794556,-0.0213075559857278,0.1039267950712443,1.3236529162475148,0.0659978836774826,0.0432706177234649,-0.007962854579091,0.1043395616300404,-0.0779665359668433,-12.403255344629288,14935.0
22.6,1.399999976158142,91.0,21.659225463867188,35.29792404174805,-79.78275936169777,40.4589805319194,271.2301485362947,0.0066908076405525,-0.0036229693796485,-0.7303876280784607,0.6829906105995178,-0.0356286531937521,0.1096088243205356,1.841742474149731,-0.0720634162425994,0.0542750656604766,-0.0303500276058912,0.1095263342745602,-0.0373617163114249,-12.481940156221391,14936.0
22.8,1.399999976158142,95.0,21.699291229248047,36.196475982666016,-79.78275925597076,40.458980541175976,271.42553274440763,0.0059991120360791,-0.0042127780616283,-0.7302197813987732,0.6831730604171753,-0.0261209388446604,0.111225829854771,2.0623864238682263,-0.0300264041870832,0.0203856285661458,0.0243757218122482,0.1153094863705337,-0.0165587208699435,-12.133436747789386,14936.0
22.9,1.399999976158142,96.0,21.649208068847656,37.46080780029297,-79.78275899659096,40.45898048565103,271.625963912487,0.0036500045098364,-0.0052406503818929,-0.7302095293998718,0.6831933856010437,-0.0192419250522709,0.1157808041704614,2.245985619530392,-0.050993975251913,0.0696185529232025,-0.0185689069330692,0.0670523059554398,-0.1212569817714393,-12.021163190603255,14936.0
23.1,1.399999976158142,92.0,21.848285675048828,31.95022773742676,-79.78275877691719,40.45898049456528,272.12159447479246,0.0021625629160553,-0.0043729487806558,-0.7295219898223877,0.6839399933815002,0.0098876008261464,0.1231684311094229,2.7071938262423503,0.0792197585105896,0.0328405648469924,-0.0324899218976497,0.1101905962452292,0.0715234616305679,-12.083019715547564,14937.0
23.2,1.399999976158142,89.0,21.843276977539062,31.4890251159668,-79.78275851319593,40.45898043972859,272.38079087543485,0.0037815847899764,-0.001782942097634,-0.7291646003723145,0.684325635433197,0.0096765153798409,0.1246397924035565,2.8487993886097502,0.1038917079567909,0.0254198461771011,0.0239558424800634,0.1149246025364846,0.1264471439737826,-11.646287670135498,14937.0
23.4,1.2999999523162842,86.0,21.258569717407227,30.43939018249512,-79.78275813632483,40.45898037267707,272.9703103761673,0.0066052926704287,-0.0024702595546841,-0.7287314534187317,0.6847633123397827,-0.0008732731086656,0.1411229791174671,3.0002911557576004,-0.0317252986133098,0.0217062905430793,-0.0018481988226994,0.1065984141267836,-0.0991161890700459,-10.497902702093125,14937.0
23.5,1.2999999523162842,88.0,21.297382354736328,31.01987075805664,-79.78275787389168,40.45898031810797,273.57791642951963,0.0072166076861321,-0.0083553800359368,-0.7295874357223511,0.6837984919548035,0.0290632303952499,0.1627663746561127,3.063782972907339,0.046201791614294,0.0681783780455589,0.0684265941381454,0.0948195819184184,-0.0765370744653046,-10.262843463420866,14938.0
23.7,1.2999999523162842,91.0,21.84703254699707,32.45914077758789,-79.78275760296962,40.45898026209643,273.89419560241697,0.0094113945960998,-0.0085089998319745,-0.7301379442214966,0.6831820607185364,0.0445302100088602,0.1764020597570949,3.1069347391580737,0.1245586052536964,-0.015046278014779,0.042264387011528,0.2166345525160432,0.0780585747957229,-10.290954537391665,14938.0
23.8,1.2999999523162842,89.0,21.95345687866211,30.033849716186523,-79.78275748802147,40.45898022007671,274.2084727745056,0.012316383421421,-0.0066826147958636,-0.7305718660354614,0.6826919913291931,0.0334893144808233,0.1754350109402542,3.172993517448468,0.0703894793987274,-0.0183288305997848,0.0206854809075594,0.1938070408813655,0.0914946084190159,-10.431487687826158,14939.0
24.0,1.2000000476837158,89.0,22.032337188720703,27.48133087158203,-79.78275718372423,40.45898015096937,274.82514385986326,0.0141938468441367,-0.0057337647303938,-0.7311257123947144,0.6820710897445679,0.0157909655869718,0.1569715666554207,3.223368458474608,-0.0699744597077369,0.0092085627838969,-0.0515049025416374,0.1469302419014275,0.0130436671804636,-10.047686977386476,14939.0
24.1,1.100000023841858,95.0,22.017311096191406,29.310237884521484,-79.78275711743835,40.45898009012101,275.14766173171995,0.0128349801525473,-0.0061270566657185,-0.7311340570449829,0.6820855736732483,0.025456490788448,0.1449994807322614,3.2194551512384235,-0.0878214463591575,-0.066381350159645,-0.0675762295722961,0.1742948091588914,-0.080145647060126,-9.833133924007416,14940.0
24.3,1.0,91.0,22.00979995727539,29.12734794616699,-79.78275693162462,40.45898001891128,275.7398963432312,0.0111435437574982,-0.0060903215780854,-0.7307894229888916,0.6824848651885986,0.0547675660011994,0.109673177514849,3.1772278084335444,-0.0030184176284819,-0.0500594638288021,-0.0296808443963527,0.1465858591720462,-0.046468206513673,-9.801076564192773,14940.0
24.41,0.8999999761581421,88.0,22.09368705749512,26.87699508666992,-79.78275674052715,40.458979835218464,276.3597612838745,0.0097649060189723,-0.0055124312639236,-0.7306497693061829,0.6826604008674622,0.060917313952699,0.0837668629148748,3.1193992290901624,-0.0744842216372489,-0.0620560608804225,-0.0535571426153183,0.091664488306269,0.0986622806824743,-9.726454398036005,14941.0
24.6,1.0,91.0,22.038597106933597,28.022050857543945,-79.78275673756588,40.4589797493116,276.67083124923704,0.008574366569519,-0.0062778601422905,-0.7307676076889038,0.6825436949729919,0.0637361340969837,0.0696537804770871,3.107492131183953,-0.1038040816783905,0.0303170923143625,-0.068105861544609,0.112735797856003,0.2072891304641962,-9.673893776535987,14941.0
24.7,0.8999999761581421,96.0,22.099946975708008,26.30446815490723,-79.78275668646727,40.4589796136538,276.9603405456543,0.0076351393945515,-0.0076841260306537,-0.7309118509292603,0.6823859810829163,0.0840167160165708,0.0562324429739159,3.0669203867203283,-0.0419816523790359,-0.0429917275905609,-0.0753334760665893,0.1376424880139529,0.042374337860383,-9.698088970184326,14941.0
24.9,1.0,100.0,22.03984832763672,27.48133087158203,-79.7827566478884,40.45897932783339,277.4964390258789,0.006825144868344,-0.0077031604014337,-0.7308737635612488,0.6824350953102112,0.1258051213992085,0.035854970115151,2.934254165196581,0.104304201900959,-0.0147567680105566,0.0589776001870632,0.1298372682463378,-0.0855922918953001,-9.458553687930108,14942.0
25.0,1.100000023841858,108.0,22.07740974426269,26.54302215576172,-79.78275674680108,40.45897913218607,278.075525806427,0.0063857994973659,-0.0077590285800397,-0.7306732535362244,0.6826533675193787,0.1021742677598918,0.0212961506418462,2.85971986701638,-0.1245929077267646,-0.0614207945764064,-0.0352926403284072,0.1376510761119425,-0.1557452118583023,-9.438998259902,14943.0
25.2,1.100000023841858,112.0,21.955961227416992,29.47722625732422,-79.78275670011699,40.45897922610151,278.47138886260984,0.0033519575372338,-0.0081499349325895,-0.7309107184410095,0.6824162006378174,0.0810581588437351,0.0076138724514581,2.862214127614468,-0.0922828912734985,-0.0894304811954498,-0.0773961767554283,0.1606859263591468,-0.0291028348356485,-9.574453103542329,14943.0
25.3,1.2000000476837158,118.0,22.02482414245605,28.864938735961918,-79.78275676556383,40.45897915673545,278.7573147277832,0.0016961533110588,-0.0088518597185611,-0.7310523986816406,0.6822618842124939,0.0778590414283973,-0.0076548802196775,2.861363207182716,-0.0917251706123352,-0.0008793353335931,-0.0633839443325996,0.0787377471663057,0.305551004782319,-9.736957751512527,14943.0
25.51,1.2000000476837158,115.0,22.043603897094727,27.06783866882324,-79.7827568102585,40.45897895566032,279.4927120666504,0.0022061122581362,-0.0075191599316895,-0.7305432558059692,0.68282151222229,0.0906325071250528,-0.0169678506906605,2.915579881469052,0.0319502316415309,0.0409839563071727,-0.0399889275431633,0.1068908845447004,0.1820107949338853,-9.699896344542504,14944.0
25.6,1.2000000476837158,107.0,21.97974967956543,28.38783264160156,-79.78275688504246,40.458978903546,279.7828340988159,0.0027316065970808,-0.0065412353724241,-0.7296261191368103,0.6838096380233765,0.088938640833575,-0.0170721673311431,2.88612146458381,0.0795322358608245,-0.0260301232337951,0.069308802485466,0.1088451062422245,-0.1152411835826933,-9.568995897173885,14944.0
25.8,1.2000000476837158,104.0,22.05111694335937,27.560848236083984,-79.78275686666692,40.45897865111661,280.4775238494873,0.002744456520304,-0.007486302871257,-0.7283690571784973,0.6851387023925781,0.0628070124811707,-0.0085797280598754,2.8933157622939136,-0.1638363599777221,0.0375815853476524,-0.0557558499276638,0.1012827286496758,0.1128620885778218,-9.62110862195492,14945.0
25.9,1.2000000476837158,110.0,21.950952529907227,29.151203155517567,-79.78275690516706,40.45897856908092,281.159199760437,-0.0011745349038392,-0.0141345812007784,-0.7299710512161255,0.6833309531211853,0.0973461822316964,-5.530946291355463e-05,2.926793558866306,0.0376633889973163,0.056843601167202,-0.0209509208798408,0.1356280948128551,0.1109260297939181,-9.64648787677288,14946.0
26.1,1.2000000476837158,120.0,22.05988121032715,26.447599411010746,-79.7827569614363,40.45897853186837,281.4519939880371,0.0004446512029971,-0.0148072307929396,-0.7310912013053894,0.6821189522743225,0.0893970398337268,0.0096711466389469,2.923782820584069,-0.018128091469407,0.0282095782458782,-0.0411087684333324,0.158079566527158,0.3519535580277443,-9.74470706641674,14946.0
26.2,1.2000000476837158,142.0,21.994773864746094,28.53096389770508,-79.78275705995969,40.45897847566521,281.83025173950193,0.0031020424794405,-0.0139198089018464,-0.7321505546569824,0.6809936165809631,0.0970410861610567,0.0065545192281956,2.9395658697730696,0.1403955221176147,0.0052388319745659,0.1175537556409835,0.2143989427015184,-0.1184151710104197,-9.657063735723495,14946.0
26.4,1.2000000476837158,168.0,22.06989860534668,25.27868843078613,-79.78275712295262,40.458978393301024,282.4976091842651,0.0067557170987129,-0.010046768002212,-0.7333963513374329,0.6796935796737671,0.0366236250929938,0.0109419634463998,2.9731010336440784,-0.092302992939949,-0.0854477211833,-0.0141459526494145,0.2115558254532516,0.0517134513147175,-9.76893909752369,14947.0
26.5,1.2000000476837158,237.0,22.01605987548828,27.44157218933105,-79.7827572818112,40.45897836702727,283.08939556884764,0.0050818077288568,-0.0083837583661079,-0.7340821623802185,0.6789898872375488,0.028453215594131,0.0002791763298408,2.9400147749759227,0.0070367706939578,0.0278911273926496,0.0499069616198539,0.242266900409013,0.1002075718715787,-9.67524155974388,14948.0
26.7,1.2000000476837158,254.0,21.869569778442383,30.16903114318848,-79.78275727464481,40.4589782807648,283.45607762145994,0.0029042293317615,-0.0088932299986481,-0.7340505123138428,0.6790304780006409,0.0266503211414074,-0.0048076306984915,2.9770817750310825,-0.079659454524517,-0.1003012135624885,-0.0440556779503822,0.3013859965279699,-0.0572787398099899,-9.770851721763613,14948.0
26.81,1.2999999523162842,271.0,22.00979995727539,27.354103088378903,-79.78275734459682,40.45897827215153,283.75450424957273,0.0011140696005895,-0.0091393934562802,-0.7339625954627991,0.6791275143623352,0.0256821303531693,-0.0030585532658759,2.9960765815330315,-0.0408465415239334,-0.0039185034111142,-0.0981434881687164,0.2134768185205757,0.2607153774239123,-9.918521983623505,14948.0
27.0,1.399999976158142,273.0,21.98350715637207,26.78952598571777,-79.78275746654622,40.45897825632064,284.4139032821655,0.0022914549335837,-0.0106007726863026,-0.7328945398330688,0.6802558898925781,0.0357058885297674,-0.0082906912729715,3.037379232684037,0.073649413883686,0.1341882795095443,0.0802710950374603,0.2044995883293449,-0.1096557770110666,-9.87653312802315,14949.0
27.1,1.600000023841858,265.0,22.02983283996582,27.497234344482425,-79.7827575200629,40.45897826913329,284.7179089050293,0.004489691928029,-0.011392350308597,-0.7321708202362059,0.6810109615325928,0.0110915322325973,0.0176123178844237,3.0410526375074225,-0.057957399636507,-0.0269906222820282,-0.0603195168077945,0.246981985475868,-0.0089806471578776,-9.814462594985963,14949.0
27.3,1.7999999523162842,263.0,22.02231979370117,26.48735809326172,-79.78275760280589,40.45897853173364,285.386024520874,0.0061977468430995,-0.0120034655556082,-0.7311580181121826,0.6820743680000305,-0.0403972761786073,0.0521947315444886,3.047724677067212,-0.0120810884982347,-0.0015162646304816,0.0004111207672394,0.310543649867177,0.1470604064036161,-9.732921418547631,14950.0
27.4,2.0,261.0,22.02482414245605,25.723989486694336,-79.7827577087957,40.4589785264368,285.7583675842285,0.0042574489489197,-0.0110942181199789,-0.7308396100997925,0.6824458241462708,-0.0153883198731911,0.0514952437788415,3.0754391150961538,0.0713369697332382,-0.0709899365901947,0.083677053451538,0.2844087703339755,-0.2990224423259497,-9.730424657464027,14950.0
27.6,2.0999999046325684,262.0,21.954710006713867,28.92060089111328,-79.78275775296194,40.45897862969283,286.3711777191162,0.0051740803755819,-0.0073088179342448,-0.731136679649353,0.6821722388267517,-0.0398312787048412,0.0380886245259977,3.052767841092728,0.0983470976352691,0.0505527257919311,-0.027812547981739,0.2382723933085799,0.2405566446483136,-9.706530010700224,14951.0
27.71,2.400000095367432,260.0,22.033588409423828,27.00422477722168,-79.78275770281762,40.45897879426313,286.7331953506469,0.0083313453942537,-0.0061838803812861,-0.7312554121017456,0.6820248961448669,-0.0545340075844391,0.0388334625369136,3.0968114983553585,0.1051446199417114,0.0511635541915893,0.0600405670702457,0.2828861736506224,-0.0837272493727505,-9.890918447971345,14951.0
27.9,2.5,262.0,21.975994110107425,26.59073257446289,-79.78275768270214,40.45897882752399,287.3771648864746,0.0108456593006849,-0.0058897682465612,-0.7317739129066467,0.6814357042312622,-0.079521098567319,0.0568745066509167,3.0919054788570093,-0.0506574437022209,-0.0002998226846102,-0.0313515849411487,0.2797038630768657,0.1341813840251416,-9.771994267702103,14952.0
28.0,2.700000047683716,258.0,21.997278213500977,28.35602569580078,-79.78275768986079,40.45897886710075,287.68657688903807,0.0100677674636244,-0.0063748899847269,-0.7319130897521973,0.6812938451766968,-0.0658131453242057,0.0694448623739694,3.0915365519179367,-0.0162558443844318,-0.0204037874937057,-0.0090933935716748,0.2819961360655725,0.0513070424180477,-9.735027585625652,14952.0
28.2,2.700000047683716,256.0,22.021068572998047,27.57675170898437,-79.78275766473206,40.45897905334039,288.3355312805176,0.0086669437587261,-0.0068836747668683,-0.7317426800727844,0.6814911961555481,-0.0720316530027459,0.0601389089848493,3.07812769585603,-0.0642178803682327,0.0258791223168373,-0.0238036848604679,0.2840994160808623,0.0557834834279492,-9.732006914019586,14953.0
28.3,2.799999952316284,254.0,22.07615852355957,26.09772109985352,-79.78275759916156,40.458979214067696,288.97902684020994,0.0084033962339162,-0.0076348581351339,-0.7322031259536743,0.6809917092323303,-0.0578819823747725,0.0751426471488827,3.0431406309857114,0.0767024159431457,0.019661920145154,0.1387718766927719,0.2501971683651209,0.2161937090009451,-9.625744879245758,14953.0
28.5,2.799999952316284,252.0,22.001035690307614,27.091693878173828,-79.7827575832062,40.458979269355936,289.2828407745361,0.0083678429946303,-0.0078351395204663,-0.7327030897140503,0.6804519295692444,-0.071142969794826,0.0794400652852938,3.029474111509592,-0.0243627373129129,-0.0109900934621691,-0.004845309536904,0.3084633932635188,-0.1303880302794277,-9.651626994609831,14954.0
28.6,2.799999952316284,247.0,21.945945739746094,27.218921661376957,-79.7827575596558,40.4589793289971,289.58515362548826,0.0089337490499019,-0.0078241536393761,-0.7332226634025574,0.6798850297927856,-0.0851181786232048,0.0849325175414961,3.015032877281028,-0.0291929896920919,0.0116790179163217,-0.0099759548902511,0.2222618763148784,0.179059668648988,-9.64284681558609,14954.0
28.8,2.799999952316284,244.0,21.870820999145508,28.08566474914551,-79.78275747968013,40.45897952506069,290.22390560913084,0.0120980460196733,-0.0047110915184021,-0.7332438230514526,0.6798419356346129,-0.0983635080770021,0.0872316913011274,3.02204566423948,-0.0148708838969469,-0.0398900471627712,-0.024374971166253,0.3370469588041305,-0.1684784558415413,-9.777695887684825,14955.0
28.9,2.700000047683716,242.0,22.002286911010746,27.98229217529297,-79.78275742045733,40.458979727916,290.5588112335205,0.0137360217049717,-0.0042462921701371,-0.7329103350639343,0.680173397064209,-0.1305118857040465,0.0858137935446242,3.039915343611464,0.0267126113176345,0.0533452704548835,-0.0395087674260139,0.2428272829391062,0.0789560493081808,-9.829139106273647,14955.0
29.1,2.700000047683716,240.0,22.033588409423828,26.32832336425781,-79.78275735850444,40.45897988308051,291.1666450958252,0.0148622700944542,-0.0056463214568793,-0.7318730354309082,0.681255578994751,-0.125241457807121,0.1027645327939347,3.040955008951717,0.0122790308669209,0.0009229308343492,-0.0358643680810928,0.3381976177543402,-0.2304642407968641,-9.87748505473137,14956.0
29.2,2.700000047683716,237.0,21.937179565429688,26.59868431091309,-79.7827573141077,40.45897995623872,291.4926147918701,0.014656689018011,-0.0059683821164071,-0.731522798538208,0.6816334128379822,-0.126106621827623,0.1037788126973918,3.043952660702637,-0.0743573531508445,-0.013884101063013,-0.063930407166481,0.2153548162803054,0.0404182295221835,-9.812845255136487,14956.0
29.4,2.700000047683716,235.0,21.982254028320312,27.354103088378903,-79.78275712831791,40.45898022499821,292.117584274292,0.015102207660675,-0.0063495347276329,-0.7308842539787292,0.6823048591613771,-0.1047041932363706,0.1115652705399897,3.055375161076304,0.1682649105787277,0.0366686023771762,0.0815935060381889,0.3407081197947264,-0.3161142922192812,-9.84787007689476,14957.0
29.5,2.5999999046325684,231.0,21.981002807617188,28.08566474914551,-79.78275709583659,40.45898029896425,292.423736618042,0.015807881951332,-0.0058316923677921,-0.7310141921043396,0.6821542978286743,-0.1275607401298156,0.1116260708690562,3.060914765599748,-0.0428239591419696,0.0072068301960825,-0.0392668657004833,0.3005288495309651,-0.1177745354454964,-9.856223409175874,14957.0
29.7,2.5999999046325684,230.0,21.88083839416504,30.21674156188965,-79.78275705428449,40.458980440026224,293.04827694702146,0.0164308492094278,-0.0055497698485851,-0.7318357825279236,0.6812604069709778,-0.1075058962641539,0.1089696015325202,3.079950288514332,0.0931615233421325,-0.0196648016571998,0.1473765522241592,0.2646704523637891,-0.2990802201256156,-9.951872162818908,14958.0
29.8,2.5,228.0,21.994773864746094,26.169288635253903,-79.78275698822628,40.45898065454875,293.6791706542968,0.0161467306315898,-0.0040358784608542,-0.7324479818344116,0.6806195974349976,-0.1355489369661541,0.10435833787633,3.1182107699995965,-0.0680709108710289,0.0114097939804196,-0.0607955381274223,0.3413403499871492,-0.3365682911127806,-10.0893600833416,14958.0
30.0,2.5,228.0,21.994773864746094,27.25868034362793,-79.78275696918877,40.45898071652177,293.99102978515623,0.0169716347008943,-0.0036615363787859,-0.7326498627662659,0.6803842782974243,-0.1328366816033635,0.0999160569522198,3.113559148006649,-0.0838000923395156,-0.04575901851058,-0.1449200958013534,0.2296163762547076,0.0870951542258262,-9.815924398899078,14958.0
30.1,2.5,229.0,21.902122497558597,28.85698699951172,-79.78275695159817,40.45898077369501,294.30208401489256,0.018511451780796,-0.0037702254485338,-0.7324122190475464,0.6805993914604187,-0.1078912616833541,0.0959569793123328,3.1043644226314355,0.14959517121315,0.0919937714934349,0.0864414498209953,0.262439812682569,-0.3508386767283082,-9.794222458004953,14959.0
30.3,2.5,230.0,22.028579711914062,25.98639678955078,-79.78275685818431,40.45898092330489,294.9325848083496,0.0237926039844751,-0.0034872896503657,-0.731828510761261,0.6810645461082458,-0.1149561949720388,0.1056254698115499,3.0978357820496463,0.0308116097003221,0.0302016455680131,-0.0805274620652198,0.3022527731582523,0.1364883938245475,-9.766431811451913,14959.0
30.4,2.5,228.0,21.982254028320312,26.717960357666016,-79.78275683216945,40.458981018317225,295.2519455413818,0.0230646580457687,-0.0028166170231997,-0.7314140796661377,0.6815376877784729,-0.1003484939409743,0.1108582529354305,3.0656528299628163,0.0156119652092456,0.0299400314688682,0.031634759157896,0.310201331935823,-0.2334388290345669,-9.640208551883696,14960.0
30.61,2.5999999046325684,228.0,22.052370071411133,24.81748580932617,-79.78275686718692,40.45898103247383,295.86328701782224,0.0185088776051998,-0.0073508457280695,-0.7316833734512329,0.6813536882400513,-0.0710551343172223,0.0835975816102795,3.047160503198916,-0.0562187060713768,-0.0350291468203067,-0.0383402854204177,0.2551076783426106,-0.0576196781639009,-9.70107514321804,14960.0
30.7,2.5999999046325684,227.0,21.888351440429688,29.31818962097168,-79.78275683268244,40.458981133075206,296.49474530029295,0.0173440258949995,-0.0056043309159576,-0.7319256663322449,0.6811407208442688,-0.0524328448912986,0.090482881185103,3.016314683180428,-0.0298121087253093,-0.0371650159358978,0.0052598817273974,0.4375860312581063,-0.2359562198258936,-9.65791567504406,14961.0
30.9,2.5999999046325684,226.0,21.96597671508789,27.28253555297852,-79.78275679612953,40.458981133277504,296.82397465515135,0.0159497261047363,-0.0035556061193346,-0.7320074439048767,0.681100606918335,-0.0728613187896059,0.0824621998146797,3.0249104158970823,-0.13380166888237,-0.0912400037050247,-0.1590158492326736,0.2895652288198471,0.068484796131961,-9.677958760857583,14961.0
31.0,2.5999999046325684,226.0,21.950952529907227,29.29433441162109,-79.78275681357606,40.45898113815432,297.1255951385498,0.014902857132256,-0.0032495607156306,-0.7324226498603821,0.680679440498352,-0.0553034202112107,0.0688316437847798,3.0083115506565408,0.0175245814025402,-0.0092234648764133,0.0855856761336326,0.2487501286715269,-0.2822586029581725,-9.659587978720666,14962.0
31.2,2.5999999046325684,225.0,21.90337562561035,29.039878845214844,-79.78275680315821,40.45898118734304,297.75247006225584,0.0171149149537086,-0.0047643287107348,-0.7325071692466736,0.6805274486541748,-0.0676420206290115,0.079942098398216,3.0294769416157568,-0.0461605712771415,-0.009974593296647,-0.0291222650557756,0.3060550895892084,-0.1471750940568745,-9.88723353266716,14962.0
31.31,2.700000047683716,223.0,21.954710006713867,26.63049125671387,-79.78275680237886,40.45898119517617,298.05618099975584,0.0185876339673996,-0.0053024245426058,-0.7323169708251953,0.6806895732879639,-0.0793160487732543,0.0929943934263367,3.043981204809878,-0.1012194901704788,0.0005587031482718,-0.1511046439409256,0.3061126663908362,0.1425538019835949,-9.901201361417767,14963.0
31.5,2.700000047683716,223.0,21.875829696655277,27.94253349304199,-79.78275683353976,40.458981189632894,298.6901836853027,0.0207004826515913,-0.0057113645598292,-0.7314959168434143,0.6815076470375061,-0.0389056277501453,0.0978000922581488,3.0602464310860182,0.1549884974956512,0.0582229048013687,0.0399743542075157,0.3341363975778222,-0.4331955762952566,-9.921278361082075,14963.0
31.6,2.700000047683716,221.0,21.90462684631348,27.457475662231445,-79.78275684514105,40.45898118239847,298.9975109558105,0.0215033404529094,-0.0056251315400004,-0.731445848941803,0.6815372109413147,-0.0667121197827576,0.1013083854546716,3.079550537628141,-0.0868831649422645,0.0343216992914676,-0.0253861099481582,0.3337062983214855,-0.1586431284807622,-9.94698739886284,14963.0
31.8,2.700000047683716,220.0,21.944692611694336,26.20109558105469,-79.78275686713631,40.45898118477447,299.6307774047852,0.0192400105297565,-0.0070716724731028,-0.7321453690528871,0.6808400154113771,-0.0494294457350798,0.0948676182438777,3.102639019996168,0.0246973354369402,-0.0313861519098281,-0.0341270007193088,0.3523266834765673,-0.0896072825230658,-9.963267216682434,14964.0
31.9,2.700000047683716,222.0,21.929668426513672,28.37988090515137,-79.7827568955819,40.45898118427071,299.94812016296385,0.0185731872916221,-0.0078695090487599,-0.7324840426445007,0.6804853081703186,-0.0308165057129345,0.0852244661618605,3.091686318557538,0.0648220926523208,0.0618254393339157,0.1032358855009079,0.3553534581139684,-0.1842902954109013,-9.87983563542366,14964.0
32.1,2.700000047683716,222.0,21.92716407775879,26.79747772216797,-79.78275696927379,40.45898115286506,300.5654373626709,0.0185855738818645,-0.0067545394413173,-0.7326017618179321,0.6803702712059021,-0.0385257047182324,0.0834091345481725,3.079159329110752,-0.0722569599747657,-0.09534452855587,-0.0161628648638725,0.2817543719708919,-0.2868811010196805,-9.742675158977509,14965.0
32.2,2.799999952316284,224.0,21.93342399597168,25.946638107299805,-79.78275699401743,40.45898116272261,301.19570736694334,0.0195267479866743,-0.0058293682523071,-0.73250412940979,0.6804575324058533,-0.0341357529946909,0.0746655484083098,3.055412325758464,0.1306328624486923,0.0986125841736793,0.1318915635347366,0.338812013939023,-0.0280142842791974,-9.742724275588987,14966.0
32.4,2.700000047683716,224.0,21.89335823059082,28.91264915466309,-79.7827570236703,40.45898115292745,301.5213184814453,0.0194631908088922,-0.0053936494514346,-0.732367217540741,0.6806103587150574,-0.0471808964849488,0.0802922493544923,3.0293249365625434,-0.0902457758784294,-0.0369694903492927,-0.0289640948176384,0.3505194187536836,-0.194050321597606,-9.546185908913614,14966.0
32.5,2.700000047683716,225.0,21.89085388183593,27.74374008178711,-79.78275705623385,40.45898113479876,301.8232574920654,0.0183964930474758,-0.0047745881602168,-0.7324929237365723,0.6805092692375183,-0.0549062985191442,0.0814590910881448,3.013949333388928,-0.1283184587955474,-0.0761606246232986,-0.1506939530372619,0.3344035056978464,0.0806103545241058,-9.620404032468796,14966.0
32.7,2.700000047683716,225.0,21.83952140808105,29.29433441162109,-79.78275716888899,40.45898111413807,302.45520596313474,0.017278341576457,-0.006045511458069,-0.7323533296585083,0.6806787252426147,-0.0158680736160269,0.0598076529268881,3.0380531811377782,0.0913523137569427,0.079049102962017,0.1206098794937133,0.3571807495504618,-0.3258931391313672,-9.837243347167972,14967.0
32.8,2.700000047683716,227.0,21.9209041595459,27.696027755737305,-79.78275720921626,40.45898109004072,302.7597580413818,0.0172259323298931,-0.0069863572716712,-0.7321333289146423,0.6809077262878418,-0.0255752412426614,0.069027067880964,3.0509740324439103,-0.0572687871754169,0.0379464030265808,-0.0757994949817657,0.3147573727369309,-0.101316779544577,-9.875514543056488,14967.0
33.0,2.799999952316284,227.0,21.832008361816406,29.64421272277832,-79.78275724527586,40.45898106266908,303.39118389892576,0.0174601506441831,-0.0075615718960762,-0.7320900559425354,0.680942177772522,-0.0183782117439028,0.0807610757980311,3.0627346704760803,0.0156692713499069,-0.0065017393790185,-0.1224334686994552,0.424184980429709,-0.0101644342392683,-9.861164306402207,14968.0
33.1,2.799999952316284,227.0,21.977245330810547,25.21507453918457,-79.7827572767291,40.45898103955099,303.69829373168943,0.0179699882864952,-0.0073375236243009,-0.7321790456771851,0.6808356046676636,-0.026427550847458,0.0810793716499335,3.0789560286406297,-0.0006764145800843,0.0128860753029584,0.0372015200555324,0.3060923838615417,0.0080452753789722,-9.938211897611616,14968.0
33.3,2.799999952316284,228.0,21.988513946533203,26.95651435852051,-79.7827573154197,40.458981083043135,304.3269901733398,0.0201345905661582,-0.0071021942421793,-0.73223876953125,0.6807132959365845,-0.0276565053916957,0.0839522615387352,3.0719118648781185,0.0288388151675462,0.006804637145251,0.009709196165204,0.2925906147435308,-0.4160934937745333,-9.780956295132636,14969.0
33.4,2.700000047683716,228.0,21.97348976135254,26.455551147460927,-79.78275731113659,40.45898108645913,304.64721112060545,0.0202307719737291,-0.0074744042940437,-0.732147216796875,0.680804967880249,-0.0460519257535714,0.0865851890078099,3.053425183254078,-0.0322893634438514,-0.0215836185961961,-0.0317634530365467,0.4240980761870742,-0.146930991075933,-9.707660862207414,14969.0
33.6,2.700000047683716,228.0,21.81072425842285,29.47722625732422,-79.7827573816276,40.4589810562606,305.2559605102539,0.0187714211642742,-0.0068425489589571,-0.7322789430618286,0.6807116866111755,-0.0344587101406391,0.0838533685509835,3.0338377000033088,0.0209405235946178,0.0100452378392219,0.062076348811388,0.3586021345853806,-0.117378149041906,-9.705882139205931,14970.0
33.7,2.700000047683716,226.0,21.89461135864257,27.91867828369141,-79.78275748782048,40.4589811239504,305.5777569274902,0.018548659980297,-0.0054323906078934,-0.7325379848480225,0.6804518103599548,-0.0372486963042952,0.0658858763113868,3.033362331023264,0.0332998931407928,-0.0173651278018951,-0.0127866854891181,0.3283923487365246,-0.2497841904871166,-9.731923883557322,14970.0
33.9,2.700000047683716,227.0,21.89210700988769,27.71193122863769,-79.78275753215118,40.45898104282152,306.19473843383787,0.0167805757373571,-0.0044709565117955,-0.7334166169166565,0.6795576810836792,-0.0254683383905212,0.0483947386087006,3.025554603504576,0.0136261936277151,-0.0111677637323737,-0.018197689205408,0.3219224777072668,0.006997326426208,-9.698127561807633,14971.0
34.0,2.700000047683716,226.0,21.842023849487305,29.039878845214844,-79.78275763547273,40.45898098041546,306.7989750366212,0.0169570408761501,-0.0056643588468432,-0.7336168885231018,0.6793281435966492,-0.0206304002349169,0.0527928660402931,3.024599806719108,-0.1189154833555221,-0.0166539475321769,-0.0564313828945159,0.2868715079315007,-0.2636193788051605,-9.731976508498192,14971.0
34.2,2.700000047683716,226.0,21.87708282470703,29.18301010131836,-79.78275775311162,40.45898100252121,307.1199207763672,0.0168273411691188,-0.0067351427860558,-0.7333034873008728,0.679659903049469,-0.0264803081309426,0.047696988517896,3.0361128794579715,-0.0372806042432785,-0.0239727385342121,-0.0888293609023094,0.4020546944439412,-0.0789727321453392,-9.864265669584276,14972.0
34.3,2.5999999046325684,225.0,21.942188262939453,24.94471549987793,-79.78275780973645,40.45898097956736,307.4236736755371,0.0165546368807554,-0.0071914093568921,-0.7329525351524353,0.6800402998924255,-0.0237983300431175,0.0512339487518951,3.0418822239861445,-0.0076041761785745,0.0240934807807207,-0.0323248207569122,0.2738855545967817,-0.0227880429290235,-9.838513362407683,14972.0
34.5,2.5999999046325684,224.0,21.84077262878418,28.817228317260746,-79.78275796013072,40.458981004176735,308.04804425048826,0.0166776590049266,-0.005705143790692,-0.7321898937225342,0.6808724403381348,-0.017604594354544,0.0442982753915896,3.0387366264317484,0.1033980399370193,0.0178905483335256,0.0616597048938274,0.3013746492750943,-0.40499233558774,-9.78513471543789,14973.0
34.61,2.5999999046325684,222.0,21.940937042236328,26.320371627807607,-79.78275802131554,40.45898099324209,308.3523960571289,0.0162068977952003,-0.0050387484952807,-0.7320528030395508,0.6810364127159119,-0.0337796050310309,0.0449543201072518,3.0511070033596086,-0.013499523513019,0.0052164350636303,-0.0459032692015171,0.31971197437495,-0.2899333110451698,-9.888454431295395,14973.0
34.8,2.5999999046325684,222.0,21.8670654296875,27.89482307434082,-79.78275812712477,40.45898090462536,308.9735317687988,0.0139872189611196,-0.0043784212321043,-0.7319965958595276,0.6811506748199463,-0.0274891552783827,0.0362111657366164,3.066486078818208,-0.0561531707644462,-0.0233881827443838,-0.0841665640473365,0.2437860070355237,0.0276050796825438,-9.904467616081238,14973.0
34.9,2.5999999046325684,219.0,21.845781326293945,27.354103088378903,-79.78275815489081,40.45898095674665,309.29071240234373,0.0142588149756193,-0.004965603351593,-0.7321011424064636,0.6810286045074463,-0.0182402092106924,0.0331794532670529,3.078807304767224,0.0609589219093322,0.0214920006692409,0.0077695832587778,0.308066878952086,-0.2307657561264932,-9.967748522758484,14974.0
35.1,2.5999999046325684,218.0,21.832008361816406,28.13337707519531,-79.78275824983521,40.45898093515071,309.9091549377441,0.0148322293534874,-0.0050522214733064,-0.7325395345687866,0.6805441379547119,-0.0274100744812123,0.0543187003045059,3.0987277639550985,0.0201168674975633,0.0138326678425073,-0.0213788710534572,0.3212439814209938,-0.2180675771646201,-9.895665217638015,14974.0
35.2,2.5999999046325684,217.0,21.885847091674805,27.640365600585927,-79.78275828835153,40.45898103359004,310.2258739929199,0.0150284897536039,-0.004210612270981,-0.7329277992248535,0.6801274418830872,-0.0352816374810672,0.0469683886268113,3.0983679724856423,-0.0117130326107144,-0.0375937670469284,-0.0226990841329097,0.2809055024385452,-0.3538714447617531,-9.89420224428177,14975.0
35.4,2.5999999046325684,217.0,21.870820999145508,27.56879997253418,-79.78275844278507,40.458981040928336,310.8534679870605,0.0150722442194819,-0.0043620569631457,-0.7333084344863892,0.6797150373458862,-0.0567071646612696,0.0440505358857568,3.108386952697223,-0.0735451728105545,-0.0324973464012146,-0.1218495145440101,0.299625052716583,0.0757677636109292,-9.913833686113357,14975.0
35.5,2.5999999046325684,218.0,21.925912857055664,26.72591209411621,-79.78275848793089,40.45898103889694,311.1642780761718,0.0144856451079249,-0.0042625395581126,-0.7333852052688599,0.6796456575393677,-0.0348690562063743,0.0490205056371022,3.1061912061920967,0.0836421996355056,-0.0134125752374529,0.0579047389328479,0.3564961136877537,-0.2852807180956006,-9.825920798778537,14976.0
35.7,2.5999999046325684,218.0,21.83952140808105,27.52108955383301,-79.78275855576419,40.458981117589225,311.79350476074217,0.0148885603994131,-0.0038101577665656,-0.7335336208343506,0.6794794797897339,-0.0662229656160181,0.0531021389675597,3.083899161208969,-0.1156826019287109,-0.0544416196644306,-0.1142371073365211,0.2584884470701217,-0.0127700414706487,-9.72769342303276,14976.0
35.8,2.5999999046325684,217.0,21.925912857055664,27.44952392578125,-79.78275869266756,40.4589812243015,312.4236546020508,0.0146586997434496,-0.0029360363259911,-0.7333796620368958,0.6796550154685974,-0.049215266580584,0.0395362832495764,3.0775265036040924,0.1717025637626648,0.0836410075426101,0.0967072248458862,0.2422394733130932,-0.0983303872402757,-9.768377764821055,14977.0
36.0,2.5999999046325684,217.0,21.898366928100582,27.76759529113769,-79.78275872925842,40.45898124058821,312.7320003967285,0.0161008089780807,-0.0034207771532237,-0.7334188222885132,0.6795777678489685,-0.0751084803231584,0.0436824107188308,3.0844638799315085,-0.0503102727234363,0.0244067031890153,-0.0031421093735843,0.2840988861769438,-0.1960429978743196,-9.842763118743896,14977.0
36.1,2.5999999046325684,215.0,21.86205673217773,27.393861770629893,-79.78275876151136,40.45898125544261,313.0399189453125,0.0177094507962465,-0.0037826069165021,-0.7335032224655151,0.6794447898864746,-0.088630615749128,0.0585119371294452,3.0732859029668784,-0.1146914586424827,-0.0297709945589304,-0.1650497019290924,0.3122558973357081,0.1118671939708292,-9.720760379433631,14978.0
36.3,2.5999999046325684,215.0,21.801958084106445,29.516984939575195,-79.78275879057605,40.45898129229889,313.6646633605957,0.0163937769830226,-0.0043444689363241,-0.7331993579864502,0.6798022985458374,-0.0592873028758388,0.064333668050151,3.0460104271415704,0.1105712279677391,0.0914824903011322,0.0893981009721756,0.2746481776982546,-0.3460446907952428,-9.65446406364441,14978.0
36.4,2.700000047683716,215.0,22.008546829223643,23.64062309265137,-79.78275883371137,40.45898137238382,314.2927914123535,0.0167818814516067,-0.0045093279331922,-0.7325651049613953,0.6804751753807068,-0.0765297603426362,0.0659165644023628,3.0317953436341427,-0.0745794102549552,-0.0991233140230178,-0.0793000906705856,0.2345192848518491,-0.1633140122517943,-9.724999610781673,14979.0
36.6,2.700000047683716,214.0,21.87708282470703,27.131452560424805,-79.78275885777477,40.45898138880237,314.59499554443363,0.0164767019450664,-0.0034802036825567,-0.7325335741043091,0.680522620677948,-0.0620092409273044,0.0683607644367178,3.0117113528282333,0.1036776304244995,-0.003601238830015,0.0775265321135521,0.3198866233974695,-0.34032848931849,-9.623583748340607,14979.0
36.7,2.700000047683716,213.0,21.818235397338867,29.008071899414062,-79.78275892755953,40.45898147091413,314.91774182128904,0.0156942047178745,-0.0020473445765674,-0.7325855493545532,0.6804909110069275,-0.073997909027917,0.0553562430660571,3.0178393186446173,0.1051001325249672,0.0281507670879364,0.1324583888053894,0.231830369643867,-0.3366614811122417,-9.66558780670166,14979.0
36.9,2.700000047683716,213.0,21.87457847595215,27.07579040527344,-79.78275891983589,40.458981525738,315.5434551696777,0.0164166595786809,-0.0008727892418392,-0.7323733568191528,0.6807048320770264,-0.0866765495057886,0.0591566444604889,3.0465472274257386,-0.0848784372210502,-0.0812190249562263,-0.1084017753601074,0.2373184931650757,-0.1410776906646788,-9.859454580545425,14980.0
37.0,2.700000047683716,214.0,21.912139892578125,26.69410514831543,-79.78275892730514,40.45898153914212,315.848821685791,0.0160209275782108,-0.0022075790911912,-0.7323294878005981,0.6807584762573242,-0.0855335782733867,0.0667323111253425,3.0528622736637794,-0.0041205147281289,0.0327471569180488,0.0384512618184089,0.3047641157358885,-0.0954430595599114,-9.836667981147766,14980.0
37.2,2.700000047683716,213.0,21.875829696655277,27.12350082397461,-79.78275893405902,40.45898164400805,316.4693279724121,0.0158249847590923,-0.0051275533623993,-0.7319685220718384,0.681135356426239,-0.0646030711799981,0.0828365544596063,3.0444794269530147,-0.0076634748838841,-0.002975259674713,0.0213343221694231,0.2201104115881026,-0.4120577455312014,-9.794273913502693,14981.0
37.3,2.799999952316284,214.0,21.79820251464844,28.83313179016113,-79.7827589717377,40.45898171827247,317.0881443481445,0.0175980012863874,-0.0062388749793171,-0.7322012186050415,0.6808324456214905,-0.0862773414497673,0.090471774013301,3.04275860261189,-0.0528247021138668,0.0106034809723496,-0.0914443209767341,0.3981537245213986,-0.2436057848855853,-9.800360864996913,14982.0
37.5,2.799999952316284,215.0,21.89085388183593,25.60471153259277,-79.78275897576361,40.45898173940645,317.39287380981443,0.0185536593198776,-0.0061997566372156,-0.7323430180549622,0.6806549429893494,-0.0782390244080248,0.0970640050542764,3.0523650452524564,-0.0135412821546196,-0.0317983031272888,0.0047979038208723,0.2285309685766697,-0.1167636432219296,-9.875411632061006,14982.0
37.6,2.799999952316284,216.0,21.791942596435547,30.145174026489247,-79.78275897987876,40.45898175915913,317.6985836486816,0.0189742483198642,-0.0055200811475515,-0.7325221300125122,0.6804563999176025,-0.0665886230066509,0.1000764386810985,3.049387301864294,0.1145139262080192,0.0098550654947757,0.0712872818112373,0.4456702819839121,-0.2866829900443554,-9.788181114792824,14982.0
37.8,2.799999952316284,216.0,21.78693389892578,28.85698699951172,-79.78275896325933,40.45898183936518,318.3154736022949,0.0181449819356203,-0.0048606321215629,-0.7326377630233765,0.6803596019744873,-0.0876445167731098,0.0933214076040641,3.046639808521276,-0.0934572592377662,-0.0576145201921463,-0.0135884685441851,0.2462319887056947,-0.2270135978423059,-9.812736496925355,14983.0
37.9,2.799999952316284,218.0,21.74686813354492,29.827104568481445,-79.7827589693126,40.45898191359944,318.9367351989746,0.0195399299263954,-0.0048726690001785,-0.7328968644142151,0.6800417304039001,-0.0887369474432423,0.0933577639847015,3.0729199988641867,-0.0651971921324729,-0.0268894229084253,-0.0629521086812019,0.3647664155066013,-0.0672128302976489,-9.879616949558258,14983.0
38.1,2.799999952316284,218.0,21.86330986022949,27.25868034362793,-79.78275898046483,40.458981923505824,319.2455234985352,0.0193946901708841,-0.0050912578590214,-0.7329257726669312,0.680013120174408,-0.0748173089353849,0.0908360077498498,3.0944216645102096,0.045985884964466,0.0017081237165257,-0.0544992834329605,0.3338305516541004,-0.0390640417858958,-9.988271080255506,14984.0
38.2,2.900000095367432,219.0,21.819488525390625,29.49312973022461,-79.7827589608525,40.45898202137453,319.558725402832,0.0204046629369258,-0.005088597536087,-0.7329400777816772,0.6799681782722473,-0.0696862167471412,0.0849517322184002,3.0833686887344034,0.0841414853930473,0.0650961175560951,0.1106938868761062,0.2945665350928903,-0.2340428098663688,-9.784927139282226,14984.0
38.4,2.900000095367432,219.0,21.89961814880371,27.57675170898437,-79.78275901636141,40.45898209177958,320.1816845397949,0.0199527610093355,-0.0037549014668911,-0.7331267595291138,0.6797890067100525,-0.0654723389556306,0.0788414700093588,3.0992711257563537,0.1114960238337516,0.0275035109370946,0.110720157623291,0.3440289728343487,-0.3546644002944231,-9.972676556110384,14985.0
38.5,2.900000095367432,220.0,21.82449531555176,27.34615135192871,-79.78275904624545,40.45898209291551,320.4919338684082,0.0196277126669883,-0.0021333883050829,-0.7332905530929565,0.6796286702156067,-0.0669933556237679,0.0767310822963883,3.1004639879153206,0.0213379971683025,-0.0011424341937527,-0.0299730114638805,0.2528759971261025,-0.2393745751865209,-9.833321034908296,14985.0
38.7,2.900000095367432,220.0,21.799455642700195,28.5468692779541,-79.78275912002029,40.45898211420997,321.1123486022949,0.0202243532985448,-0.0009189407574012,-0.7330290675163269,0.6798959970474243,-0.0784767765085944,0.0614146265223279,3.0714520895171487,-0.0087591521441936,0.0384336151182651,-0.0596015192568302,0.2912081502377987,-0.0575284159183502,-9.696068172454837,14986.0
38.8,2.900000095367432,219.0,21.86205673217773,27.56879997253418,-79.78275914724313,40.45898209905221,321.41961483764646,0.0192188359797,-0.002300679218024,-0.7328324913978577,0.6801337003707886,-0.0706682766923263,0.0690545747186121,3.0716662996215467,-0.061453178524971,-0.0001414518919773,-0.0555547401309013,0.2642291337624192,-0.0685393442586064,-9.726950241923332,14986.0
39.0,2.900000095367432,219.0,21.73184394836425,30.69384765625,-79.78275915719793,40.458982114811455,322.0407925109863,0.0165091641247272,-0.0043038120493292,-0.7325685620307922,0.6804794669151306,-0.0284062457387198,0.0795216138652656,3.053382740541007,0.0713874399662017,0.0493491105735302,0.0257871989160776,0.3590364365279674,-0.2679744763858616,-9.733314351439477,14987.0
39.1,2.900000095367432,220.0,21.78067398071289,28.87289047241211,-79.78275916713375,40.45898214075171,322.3547344665527,0.0166944414377212,-0.0043013896793127,-0.7324796319007874,0.6805707216262817,-0.043267739487602,0.0792799251535013,3.050166595949072,-0.117111936211586,-0.0248359404504299,-0.0708909332752227,0.2935677575692534,-0.0986070153582841,-9.75657399058342,14987.0
39.3,2.900000095367432,219.0,21.82073974609375,26.81338119506836,-79.78275919345148,40.45898209788922,322.9664020996093,0.0169539153575897,-0.006347173359245,-0.7325462698936462,0.6804765462875366,-0.0313868969989792,0.0832362776226585,3.0665724875854665,-0.0097989942878484,0.0267258994281292,0.0312232505530118,0.3151686147227883,-0.0448834831640124,-9.874092500209809,14987.0
39.4,2.900000095367432,221.0,21.908382415771484,26.29651641845703,-79.78275925405654,40.458982115230185,323.28216366577146,0.0171605702489614,-0.0065099005587399,-0.7326606512069702,0.6803467273712158,-0.0233993821513849,0.0815101231970408,3.07067974046527,0.0045935958623886,-0.0209251549094915,-0.022757014259696,0.2837381129711867,0.0250067871809005,-9.78968852698803,14988.0
39.6,2.900000095367432,221.0,21.7844295501709,27.79145050048828,-79.782759305737,40.4589820587948,323.8913479309082,0.0167492050677537,-0.0057322289794683,-0.7329152822494507,0.6800895929336548,-0.0227991992117785,0.0740235681788333,3.0297108704093687,-0.030435299500823,0.031218035146594,0.0472470559179782,0.2762380721792579,-0.2125800200924277,-9.693681923747064,14988.0
39.7,2.900000095367432,221.0,21.829504013061523,28.30831527709961,-79.78275923241054,40.45898203601519,324.51862530517576,0.0151393748819828,-0.0062886322848498,-0.7329962253570557,0.6800351142883301,-0.0135620320823041,0.0848761842367026,3.0490487548981204,-0.0164530277252197,-0.030378432944417,-0.0885401740670204,0.2747611385956406,-0.188183152321726,-9.802013288140296,14989.0
39.9,2.799999952316284,221.0,21.811975479125977,27.33024787902832,-79.78275925151901,40.4589820387189,324.8363438110352,0.0156191671267151,-0.004965656902641,-0.7328013777732849,0.6802452206611633,-0.0195464573952433,0.0804629096755649,3.0769060945215387,-0.0569226257503032,-0.0519464910030365,-0.0626442730426788,0.2442926865443588,0.0796285704709589,-9.945647217035292,14989.0
40.0,2.900000095367432,222.0,21.816984176635746,28.08566474914551,-79.78275926563252,40.45898200912851,325.1449299316406,0.0152352824807167,-0.0040667979046702,-0.7325619459152222,0.6805177927017212,-0.0134533337108896,0.0769073547655213,3.0880363264348087,0.0554994493722915,-0.0063113681972026,-0.0552292056381702,0.3139525765925646,-0.0215685147419571,-9.904238405227662,14990.0
40.21,2.900000095367432,222.0,21.73434829711914,29.326141357421875,-79.78275934324282,40.458982000958,325.7688541870117,0.0149816805496811,-0.0063023776747286,-0.7321687340736389,0.68092942237854,-0.0037369655675609,0.0694045295353923,3.0929914927898388,-0.0221041329205036,-0.0017127757892012,0.0053475485183298,0.2475626505352557,-0.2959978055767715,-9.873796631097797,14990.0
40.3,2.900000095367432,222.0,21.88083839416504,25.60471153259277,-79.78275936284885,40.45898196721148,326.0790882568358,0.0144339017570018,-0.0075112665072083,-0.7319869995117188,0.6811242699623108,0.0013854802276856,0.0774999590189335,3.1097286121374683,0.0209188219159841,0.0527732595801353,0.0912608206272125,0.2961312500014901,-0.241077887378633,-9.965847008228303,14991.0
40.5,2.900000095367432,222.0,21.706802368164062,29.83505630493164,-79.78275940242206,40.4589819337086,326.70049099731443,0.0113660553470253,-0.0079161999747157,-0.7320329546928406,0.6811284422874451,0.0078734927862397,0.0752684551909677,3.0645689243440817,-0.0374772734940052,-0.0631342157721519,-0.0621005073189735,0.3287582748010755,-0.1558690449222922,-9.62268678545952,14991.0
40.6,2.799999952316284,221.0,21.83701705932617,26.89289855957031,-79.78275944947086,40.45898187698772,327.3228893737793,0.0123433545231819,-0.00560890045017,-0.7322709560394287,0.6808784604072571,-0.0018541839692993,0.0680124480120916,3.0680856661755604,-0.0292064417153596,-0.0383236035704612,-0.0637192651629448,0.2557273370213807,0.0310654162243008,-9.775409041643146,14992.0
40.8,2.799999952316284,221.0,21.76439666748047,29.04783058166504,-79.78275946772342,40.45898185001755,327.6290035705566,0.0134324105456471,-0.0050437790341675,-0.732528030872345,0.6805857419967651,0.0122477596245553,0.0629992283999816,3.0563241575885574,0.135813683271408,0.0411458760499954,0.0798368528485298,0.3059866954386234,-0.2942618220672011,-9.73718637764454,14992.0
40.9,2.799999952316284,220.0,21.76439666748047,27.21096992492676,-79.78275953699098,40.458981852760274,327.9493198852539,0.0151076782494783,-0.0053921239450573,-0.7328162193298341,0.6802375316619873,-0.0028429760013381,0.060349897766719,3.0672665727875863,0.0534974336624145,0.0920286402106285,0.0886385589838028,0.277622638028115,-0.2289400178566575,-9.799004310965536,14992.0
41.1,2.799999952316284,220.0,21.82574844360352,28.14132881164551,-79.78275958019799,40.458981795436905,328.56292538452146,0.0151350749656558,-0.0053799706511199,-0.7331511378288269,0.6798760294914246,-0.0152319204965408,0.0748603344160442,3.048266075100841,-0.0501036085188388,-0.033606544137001,-0.0030380825046449,0.2720938946306706,-0.1906461274623871,-9.621528452038763,14993.0
41.2,2.799999952316284,218.0,21.789438247680664,26.08976936340332,-79.78275963204042,40.458981789342936,328.8745975952148,0.0145147386938333,-0.0054499329999089,-0.7331487536430359,0.6798916459083557,-0.0254928802556338,0.0632681717257629,3.0363442276400785,-0.1410134434700012,-0.0455647446215152,-0.1240475848317146,0.2176850778982043,0.1782554937712848,-9.64407940864563,14993.0
41.4,2.799999952316284,217.0,21.730592727661133,29.59650230407715,-79.78275972448137,40.45898177550377,329.4915905456543,0.0128623461350798,-0.0076213260181248,-0.73247230052948,0.6806326508522034,0.0109692272871334,0.0552794226880516,2.998688483521112,0.1060955300927162,0.0652648508548736,0.0832881405949592,0.2867703328281641,-0.3108687916025519,-9.514831384420397,14994.0
41.5,2.799999952316284,214.0,21.845781326293945,26.773622512817383,-79.78275980589059,40.458981730223286,330.0875225524902,0.0127875655889511,-0.0064807366579771,-0.7323281764984131,0.6808009743690491,-0.0088257042650751,0.0518441060905308,2.9564607836115844,-0.1082416996359825,-0.1183881014585495,-0.0694613084197044,0.2404775793291629,-0.0174285752826835,-9.587276047468183,14995.0
41.7,2.799999952316284,213.0,21.7844295501709,27.870967864990234,-79.78275986564044,40.45898174029538,330.40446667480467,0.0119371060281991,-0.005363751668483,-0.7322617769241333,0.68089759349823,-0.0052845045248747,0.0401766753138475,2.9752881381334384,0.0136011894792318,-0.0255625396966934,-0.0113625740632414,0.2774357098527252,-0.0236912824306637,-9.712511127591132,14995.0
41.8,2.799999952316284,212.0,21.775665283203125,29.92252540588379,-79.78275990954033,40.458981719781725,330.7023678283691,0.0106761008501052,-0.0044115460477769,-0.7322355508804321,0.6809535026550293,-0.0124362152936692,0.0376397167310518,2.978836191416188,-0.0357121527194976,-0.033266108483076,-0.0798508822917938,0.2206083933636546,0.1463451914303004,-9.764230919480324,14995.0
42.0,2.799999952316284,211.0,21.70555114746093,30.11336708068848,-79.7827600065778,40.45898171858521,331.3174381713867,0.0091572515666484,-0.0062170936726033,-0.7323845028877258,0.6808013916015625,-0.0110321744349641,0.0299624474493632,3.006136913874998,0.0109298313036561,0.0758249014616012,0.0460526756942272,0.2593243065476417,-0.1650187131576239,-9.887076827287675,14996.0
42.1,2.799999952316284,208.0,21.743112564086918,28.332170486450195,-79.78276008075704,40.458981762729046,331.9303112487793,0.0073930318467319,-0.0083612371236085,-0.7328875660896301,0.6802582144737244,-0.0056325974006283,0.0475025891769924,3.0541376747463658,0.0791114121675491,0.0526893623173236,0.0757636129856109,0.3023320212028921,-0.2382257069461048,-10.007258158922197,14996.0
42.3,2.799999952316284,208.0,21.622915267944336,30.59047508239746,-79.78276010209527,40.45898177394114,332.2363720397949,0.0081192320212721,-0.006830328144133,-0.7330855727195741,0.6800537705421448,-0.0085030594000245,0.0516918638654849,3.067137039292525,0.0809511318802833,-0.0450084097683429,0.0580524541437625,0.2666132263094187,-0.1975966030731796,-9.976860823631286,14997.0
42.4,2.799999952316284,207.0,21.67174530029297,28.499156951904297,-79.78276020679418,40.4589818403679,332.5415859680176,0.0085195545107126,-0.0051050838083028,-0.7332568764686584,0.6798793077468872,-0.026375043345734,0.0411514899449407,3.0884971577956115,0.0669346153736114,0.0215877275913953,0.0480437763035297,0.2277130710147321,-0.1163147689215838,-10.1192931497097,14997.0
42.6,2.799999952316284,206.0,21.723079681396484,28.50710868835449,-79.78276024343529,40.45898189274577,333.1633854370117,0.0093429731205105,-0.0026307345833629,-0.7332878708839417,0.6798490881919861,-0.0522536276063283,0.0398038451000167,3.0907952519058552,0.0687124282121658,0.0672090649604797,0.0794023349881172,0.2205536122620106,-0.1002675423771143,-9.641773266792296,14998.0
42.7,2.799999952316284,205.0,21.776918411254886,27.40181350708008,-79.78276035344541,40.45898197454053,333.4571209411621,0.0099878469482064,-0.0025265221484005,-0.7330296635627747,0.68011873960495,-0.0572197568059994,0.0379227543180047,3.0404452773450474,0.0322462059557437,-0.005362304393202,0.0248252693563699,0.1889275211468339,-0.2777736789174378,-9.633001273870468,14998.0
42.9,2.799999952316284,206.0,21.73184394836425,28.39578437805176,-79.78276048314373,40.45898205475654,334.0623112182617,0.0113413836807012,-0.0027055877726525,-0.7327036261558533,0.6804479956626892,-0.083911383925084,0.0446308829207282,2.994727233072749,-0.1268058419227599,-0.0456149019300937,-0.0604492016136646,0.2395476527698338,0.0285926561336964,-9.571618373394012,14999.0
43.0,2.799999952316284,205.0,21.70054244995117,28.594579696655277,-79.78276049443967,40.45898208579479,334.36100964355467,0.010636206716299,-0.0033459085971117,-0.7326915860176086,0.6804695725440979,-0.0731560018240827,0.0471227897155504,2.980235817167149,-0.0243030879646539,-0.027278771623969,-0.0816065296530723,0.2691612601652741,0.0060662852413952,-9.655505452752116,14999.0
43.2,2.799999952316284,205.0,21.789438247680664,27.87891960144043,-79.78276058365863,40.45898220926298,334.9650211791992,0.0113327391445636,-0.0042549837380647,-0.7328437566757202,0.6802893877029419,-0.065997261433335,0.0470304303491217,2.982185516823645,0.0147557826712727,-0.0207253620028495,0.0689351558685302,0.1577982240915298,-0.0836133017577231,-9.749276665449145,14999.0
43.3,2.799999952316284,205.0,21.660476684570312,31.679866790771484,-79.78276059528416,40.45898223984256,335.2631168823242,0.0120013672858476,-0.0042667887173593,-0.7330179810523987,0.680090069770813,-0.0544272268560939,0.0511151952038392,2.976142952244964,0.1353609710931778,0.0691566839814186,0.1128947287797928,0.2745094890519977,-0.184244486130774,-9.735387189388277,15000.0
43.5,2.799999952316284,204.0,21.679258346557614,30.18493461608887,-79.78276065800722,40.45898234484496,335.86906628417967,0.0106753399595618,-0.0041638598777353,-0.7336766123771667,0.679402232170105,-0.0670319660695301,0.0530112099925936,3.022216286751564,0.0583202056586742,0.0316128879785537,0.0897744446992874,0.2574613470956683,-0.2069988162070513,-9.996160143613816,15000.0
43.6,2.799999952316284,203.0,21.70054244995117,28.92060089111328,-79.78276066624245,40.45898238063186,336.1724567871093,0.0100717693567276,-0.0046253693290054,-0.7338261008262634,0.6792470216751099,-0.0671673478265117,0.0534969468712003,3.04540951258841,0.0163347888737916,-0.0219879243522882,0.1065836399793624,0.1734095772542059,-0.1946096443198621,-10.040173305273058,15001.0
43.8,2.799999952316284,202.0,21.72683525085449,28.14132881164551,-79.78276071777779,40.45898253293894,336.785532043457,0.0092839300632476,-0.0041494104079902,-0.7335424423217773,0.6795675754547119,-0.0668145688020814,0.0480169897612059,3.0685709618211625,0.0769709274172782,-0.0314332507550716,0.0140034211799502,0.1850306808203458,-0.1421980080474168,-9.859335297346115,15001.0
43.9,2.900000095367432,199.0,21.64545249938965,31.07553291320801,-79.7827607399846,40.45898266593017,337.3900700073242,0.0096907094120979,-0.0035097727086395,-0.7324247360229492,0.6807700395584106,-0.0796121780329387,0.0521838008836989,3.0611634583639624,0.0301706064492464,-0.049832496792078,0.0569779686629772,0.2465441386587918,-0.0812440099753439,-9.828858439922334,15002.0
44.1,2.799999952316284,198.0,21.765649795532227,28.125423431396484,-79.78276074087776,40.45898271549055,337.69762615966795,0.0088724289089441,-0.0032643163576722,-0.7321149110794067,0.6811156272888184,-0.0828931711736151,0.0527039620571372,3.0799203478120414,0.0398928225040435,0.0364329330623149,0.0024054909590631,0.229776187967509,0.0785510382615029,-9.901068044900894,15002.0
44.2,2.799999952316284,197.0,21.733097076416016,27.32229423522949,-79.7827607921791,40.4589827789268,337.9960117797852,0.0092209093272686,-0.0019541268702596,-0.7318369150161743,0.6814146637916565,-0.0702937335922212,0.0467091410839099,3.0510121544830064,0.08496805280447,-0.0613779835402965,0.039511427283287,0.1798069428093731,-0.1079929293785244,-9.775636498332023,15002.0
44.4,2.799999952316284,195.0,21.68927383422852,29.40566062927246,-79.78276083908844,40.45898291148509,338.6048908691406,0.0139840031042695,0.0003879026917275,-0.7314563989639282,0.6817446947097778,-0.089611825024125,0.0436287307858715,3.031539589992116,0.0412514619529247,0.0347815230488777,0.1065946817398071,0.1709243278764188,-0.1994086552038788,-9.750941952466963,15003.0
44.5,2.900000095367432,193.0,21.65797233581543,31.41745948791504,-79.78276084318917,40.45898294711258,338.90843395996086,0.0144133986905217,-0.0011947725433856,-0.7315231561660767,0.6816632747650146,-0.0871556048511187,0.0502139877514756,3.034083363103143,0.0926186889410018,0.0551493875682354,0.0821562260389328,0.2974834551662206,-0.2094923613220452,-9.831245273351673,15003.0
44.71,2.900000095367432,194.0,21.776918411254886,27.38591003417969,-79.78276086879856,40.45898305756083,339.5220966796875,0.0115365386009216,-0.000388376385672,-0.7317965030670166,0.6814255118370056,-0.0753680611615972,0.0604672219228233,3.0640735734521933,0.0270435959100723,-0.0532022379338741,-0.0282482672482728,0.2449122538603842,-0.0320171510707587,-9.9262917637825,15004.0
44.8,2.900000095367432,195.0,21.75062561035156,28.32421875,-79.78276084972872,40.458983139462994,340.1324482421875,0.0090454015880823,0.0006986566004343,-0.7325221300125122,0.6806828379631042,-0.0540367036779436,0.055057087302277,3.026420652406654,0.0607897229492664,-0.001354809035547,0.124111495912075,0.1952989214099944,0.0864989392273128,-9.67890016257763,15005.0
45.0,2.799999952316284,196.0,21.636688232421875,31.26637458801269,-79.78276082527813,40.4589831503712,340.435434387207,0.0091577973216772,0.0005650676903314,-0.7330460548400879,0.680117130279541,-0.0401559902289808,0.058944804348741,3.031276631522088,0.1104955449700355,0.0882317498326301,0.1079639196395874,0.257644255310297,-0.3021253221295774,-9.824887011051178,15005.0
45.1,2.900000095367432,198.0,21.82073974609375,26.3521785736084,-79.78276078638514,40.45898315420247,340.7394352416992,0.0102118710055947,-0.000997180934064,-0.7335084080696106,0.6796029806137085,-0.0458334756743708,0.0741584881370562,3.0495491112186417,-0.0281795226037502,0.0548131056129932,-0.0044234008528292,0.169643732830882,-0.129567729877308,-9.94858485817909,15005.0
45.3,2.900000095367432,202.0,21.733097076416016,26.479406356811523,-79.7827607557207,40.45898317360604,341.3541279296875,0.0149931143969297,-0.005119995214045,-0.7346004247665405,0.6783149838447571,-0.0554903297219613,0.104590732775471,3.033930936953683,-0.1065258383750915,0.0269587375223636,-0.0593867115676403,0.2311954533867538,0.0883542150724679,-9.755926119089128,15006.0
45.4,2.799999952316284,206.0,21.83451271057129,25.89097595214844,-79.78276072863173,40.45898320056921,341.6620884399414,0.0152903972193598,-0.0077427462674677,-0.735040009021759,0.677807092666626,-0.0381761231006015,0.1197873584571521,3.036432726899978,0.0124361682683229,0.0203505251556634,-0.0335589684545993,0.288214631639421,0.0134102784655988,-9.738557549715043,15006.0
45.6,2.799999952316284,208.0,21.99602699279785,21.64472770690918,-79.78276065622195,40.45898318374835,342.2604008178712,0.0150713576003909,-0.0108446134254336,-0.7347571849822998,0.6780760288238525,-0.0333187023645727,0.1314448336432714,2.9257274089999665,-0.1339094191789627,-0.0620765686035156,-0.1350874304771423,0.2421100488491356,0.1456616062391549,-9.131467460989953,15007.0
45.7,2.700000047683716,213.0,21.944692611694336,24.55507850646973,-79.78276055728644,40.45898318254645,342.83842663574217,0.0142303453758358,-0.0089549832046031,-0.7345617413520813,0.678333580493927,-0.0201264571103392,0.1134859487258539,2.715801479949077,-0.0407712496817112,0.0006859354907646,0.0057840989902615,0.2562701961770653,-0.098213415518403,-8.796416156888007,15007.0
45.9,2.700000047683716,213.0,22.02732849121093,20.968828201293945,-79.78276054194069,40.45898318199714,343.12224011230467,0.0130872363224625,-0.0097504248842597,-0.7342250347137451,0.6787101030349731,-0.0211530287272498,0.1009851484671106,2.619587082514231,-0.0528496205806732,-0.0187680516391992,-0.0437579080462455,0.2169546875730157,0.0227789980173111,-8.516434514522553,15008.0
46.0,2.5999999046325684,217.0,21.99853134155273,22.78183174133301,-79.78276052846103,40.458983175054975,343.3771305541992,0.0125411357730627,-0.0104293627664446,-0.7338829636573792,0.6790801286697388,-0.0143650782836531,0.0894622560119498,2.4748075020712683,-0.0303250290453434,-0.0673621520400047,-0.0220242105424404,0.1764511161111295,0.0281448850384913,-8.377413454055787,15008.0
46.2,2.5999999046325684,217.0,21.978498458862305,22.583038330078125,-79.78276052390386,40.45898319529928,343.86152081298826,0.0127079086378216,-0.0104506378993392,-0.7330915927886963,0.6799309253692627,-0.0155429320540972,0.0689634523696759,2.2210060223562347,-0.0092356530949473,-0.0200881212949752,-0.0899917930364608,0.2198049128428101,0.0235227958252653,-8.426268694996834,15008.0
46.3,2.5,218.0,21.940937042236328,23.720142364501957,-79.78276052145415,40.45898321949117,344.2969761352539,0.0134395537897944,-0.009590059518814,-0.7329456806182861,0.6800868511199951,-0.0187410551280377,0.0523325071142292,2.0047044712870297,-0.0048466697335243,-0.0118445502594113,0.0293089319020509,0.1941843690164388,-0.021242918476928,-8.501895997524263,15009.0
46.5,2.400000095367432,218.0,21.99978256225586,22.0661735534668,-79.78276053451955,40.45898322930209,344.4926166992188,0.0127603551372885,-0.0089043909683823,-0.7329695820808411,0.6800835132598877,-0.0167652138947768,0.046040975197387,1.902261402716144,0.0607190728187561,0.0419031791388988,0.0383527129888534,0.2749097857810557,-0.1998977565206587,-8.742546928524972,15009.0
46.6,2.299999952316284,216.0,21.96096992492676,23.70423889160156,-79.78276055352967,40.45898324451578,344.6777668457031,0.0117718903347849,-0.0081922225654125,-0.7330086827278137,0.6800681352615356,-0.0215745912839274,0.0357673120469302,1.7980340473269187,0.050452709197998,0.0111606046557426,0.0995808094739914,0.2144895379990339,-0.2473769466206432,-8.744113397598268,15009.0
46.8,2.200000047683716,217.0,21.884593963623047,26.12157821655273,-79.78276054818087,40.45898329427437,345.06080822753904,0.0088484175503253,-0.0086010443046689,-0.7330084443092346,0.6801076531410217,-0.0418725908899927,0.0268500037882139,1.6763965967263583,-0.0734039470553398,-0.0724561959505081,-0.010599048808217,0.1775553079694509,-0.0147274871310219,-8.963792704939841,15010.0
46.9,2.0999999046325684,215.0,21.84703254699707,25.44567680358887,-79.78276053095816,40.45898331227913,345.2842350463867,0.0088287936523556,-0.0082282191142439,-0.7329450249671936,0.6801809072494507,-0.0365671169094664,0.0259931293155839,1.6695866790895315,0.0126861492171883,-0.0047583309933543,-0.0531904511153698,0.256506624687463,-0.0481174959149211,-9.176189305186274,15010.0
47.1,2.0,214.0,21.86330986022949,25.366159439086918,-79.78276055845753,40.45898338109085,345.61114697265623,0.0100262863561511,-0.0089508071541786,-0.733115017414093,0.6799718737602234,-0.0616547350430855,0.0275143833499086,1.5983764342080526,-0.0783623903989791,-0.0212408881634473,-0.0954927131533622,0.2648781746998429,0.0725813143048435,-9.39454831123352,15010.0
47.2,1.8999999761581416,214.0,21.9209041595459,23.49749183654785,-79.78276055234805,40.45898339241104,345.86103253173826,0.0091118961572647,-0.0093220584094524,-0.7331092953681946,0.6799859404563904,-0.0479065806137309,0.0321515975808349,1.6387143824074129,0.0181888751685619,0.010819218121469,0.019142098724842,0.3153613535687327,-0.2356230564415455,-9.484529358744622,15010.0
47.4,1.8999999761581416,215.0,22.02357292175293,22.0025577545166,-79.78276053021152,40.45898345092418,346.27377514648435,0.0087796151638031,-0.0074526891112327,-0.7333731651306152,0.6797288060188293,-0.0619387663979759,0.0287462943830645,1.6108281859460325,0.0030644081998616,-0.0901349484920501,-0.0031361007131636,0.1661300130374729,-0.072146180961281,-9.068081889152529,15011.0
47.5,1.7999999523162842,218.0,22.78982734680176,7.2758731842041025,-79.78276053667341,40.45898350457031,346.4298267822265,0.0100675588473677,-0.0062659913673996,-0.7335326671600342,0.67955082654953,-0.0661213230543635,0.026321546705086,1.5016672852565158,0.0118751768022775,-0.0475810542702674,-0.0273812469094991,0.1562509046494961,0.0019182019354775,-8.696653302311898,15011.0
