time,wind_speed,wind_angle,battery_voltage,battery_current,position_x,position_y,position_z,orientation_x,orientation_y,orientation_z,orientation_w,velocity_x,velocity_y,velocity_z,angular_x,angular_y,angular_z,linear_acceleration_x,linear_acceleration_y,linear_acceleration_z,node_ids
0.0,0.699999988079071,198.0,25.44542694091797,-0.0397588685154914,-79.78274507704809,40.458992325405,276.2177355575562,0.0275251660495996,0.0204617511481046,-0.7480090260505676,0.6628017425537109,-0.0068582030721256,-0.0037516415166689,0.0022056926115165,-0.0014324816875159,0.0012837537797167,0.0061227539554238,0.0593029316654428,-0.6843385317921639,-9.786956123113631,14941.0
0.1,0.8000000119209291,195.0,25.44417381286621,-0.0397588685154914,-79.78274508036213,40.45899233228906,276.21801593780515,0.027516758069396,0.0204812064766883,-0.7480090260505676,0.6628016233444214,-0.0082226603836509,-0.0036229390664992,0.0025174189530581,-0.0041503412649035,-0.0013215544167906,-0.0037305685691535,0.0592291790898889,-0.6656302922219038,-9.784313181638716,14941.0
0.3,0.8000000119209291,193.0,25.44167137145996,-0.0477106422185897,-79.78274509618367,40.45899231227886,276.2186831521988,0.0275212228298187,0.0204872693866491,-0.7480255961418152,0.6627824902534485,0.0005196263055503,-0.0008441432763986,0.0062615555182049,-0.0074408445507287,-0.0047790110111236,-0.0059273792430758,0.0600829410972073,-0.6689249789714814,-9.785382637381554,14941.0
0.4,0.8999999761581421,191.0,25.44793128967285,-0.0318070948123931,-79.78274509738476,40.45899231116238,276.2193051862717,0.0275271739810705,0.0204773712903261,-0.748029887676239,0.6627777218818665,0.0009643581813977,-0.0007048268062593,0.0063834099866877,0.0067592286504805,0.0027423012070357,0.0050568087026476,0.0600261089019477,-0.6791382374614477,-9.786685981750493,14941.0
0.6,0.8999999761581421,187.0,25.44793128967285,0.0,-79.78274508851634,40.45899230342486,276.2199302005768,0.0275369603186845,0.0204904433339834,-0.7480278015136719,0.6627792119979858,0.0020221926394381,0.0040389068532838,0.0083440560934578,0.0043874569237232,-0.0001463768276153,-0.0004865217779297,0.0589415463292971,-0.6712033465504647,-9.7849932128191,14941.0
0.7,0.8999999761581421,183.0,25.44667816162109,-0.0318070948123931,-79.78274508401859,40.4589923010502,276.2207664537429,0.0275404769927263,0.0204931553453207,-0.7480239272117615,0.6627833247184753,0.0011993085390533,0.0044220346229689,0.0085620509370392,0.0001448225666536,-0.0002937406825367,0.0023663328029215,0.0596383425733074,-0.6834310439229012,-9.786701184511186,14941.0
0.9,0.8999999761581421,183.0,25.449182510375977,-0.0238553211092948,-79.78274514112995,40.458992312686256,276.21947625160215,0.0275565609335899,0.0204785820096731,-0.7480235695838928,0.6627835631370544,0.0005157394546628,-0.0031372288939709,0.0064173442540932,0.0014439768856391,0.0017939810641109,0.0043155504390597,0.0594829528173431,-0.6851262979209424,-9.787542598843576,14941.0
1.0,1.0,183.0,25.440418243408203,-0.0238553211092948,-79.78274515584185,40.45899230879469,276.21763566017154,0.0275587495416402,0.0204828381538391,-0.7480233311653137,0.6627835631370544,0.0023222477768066,-0.0016228289706548,0.0045489965259951,-0.0050975955091416,-0.00070212589344,-0.0065798358991742,0.0587426998838782,-0.6676097209006548,-9.784073445796968,14941.0
1.2,1.0,185.0,25.44417381286621,-0.0159035474061965,-79.7827451600014,40.45899230427188,276.21853223323825,0.0275619160383939,0.0204844567924738,-0.7480241060256958,0.6627826094627379,0.0012409807918725,-0.0011110985636241,0.0048695347927643,-0.0050709350034594,-0.0009254752658307,-0.0023233762476593,0.0596230438817292,-0.6765545721352101,-9.785145825147628,14941.0
1.31,1.0,184.0,25.449182510375977,-0.0238553211092948,-79.78274519732592,40.45899231394446,276.2165592002869,0.027564637362957,0.0204802118241786,-0.7480234503746033,0.6627833843231201,0.0008818898277841,-0.0042379094037114,0.0032538092298948,0.0004222771385684,-0.0004371626710053,0.0014704680070281,0.0595557552203536,-0.6720647145062686,-9.784348264932632,14941.0
1.5,1.0,183.0,25.44793128967285,-0.0238553211092948,-79.78274523811254,40.45899232154402,276.21498098850253,0.0275682229548692,0.0204766821116209,-0.748024582862854,0.6627820134162903,-0.0005694733045897,-0.0065940941858287,0.0022683532324455,-0.0051033678464591,0.0009395481320098,-0.0044025108218193,0.0594633418042212,-0.6653626359254122,-9.78439796626568,14941.0
1.6,0.8999999761581421,180.0,25.449182510375977,-0.0238553211092948,-79.78274524567003,40.45899232252845,276.2152111816406,0.0275682229548692,0.0204766821116209,-0.748024582862854,0.6627820134162903,-0.0001921838320064,-0.0064018008809491,0.0023469353356458,0.0046260533854365,-0.0009952584514394,0.0049311760812997,0.0599625112954527,-0.6818778041750193,-9.785755105018618,14941.0
1.8,1.0,179.0,25.449182510375977,-0.0159035474061965,-79.78274526147105,40.45899232042056,276.2126177835465,0.0275728646665811,0.0204827301204204,-0.748026430606842,0.6627795696258545,0.0013322342750697,-0.0042285149302051,-0.0001989055793762,0.002624018350616,0.0003107705852016,0.0019234359497204,0.0599275650456547,-0.6740309138596058,-9.785425322055817,14941.0
1.9,1.0,181.0,25.44417381286621,-0.0397588685154914,-79.78274526652444,40.45899232025364,276.2126037168503,0.027573237195611,0.0204821433871984,-0.748028039932251,0.6627777814865112,0.0004081411514949,-0.0041019582102315,4.843836663819719e-05,-0.0022183959372341,0.00042880338151,0.0022961858194321,0.0587252450315281,-0.6833904057741166,-9.787087100744248,14941.0
2.1,1.0,182.0,25.44292259216309,-0.0159035474061965,-79.78274532036718,40.45899232843935,276.209362654686,0.0275788567960262,0.0204768739640712,-0.7480268478393555,0.6627789735794067,0.0004760602919305,-0.0093178434741817,-0.0029828120108874,0.0032879046630114,-0.0016765224281698,0.0067213494330644,0.0580126750096678,-0.6662334325164557,-9.783548365831376,14941.0
2.2,1.0,181.0,25.449182510375977,-0.0159035474061965,-79.78274533116551,40.45899232955637,276.20907607555387,0.0275823473930358,0.020478880032897,-0.7480295896530151,0.6627756357192993,-0.0010333678328593,-0.0091293465213786,-0.0026534061354199,-0.0058110798709094,0.0003616759204305,-0.0052734911441802,0.0594467868749052,-0.6696552962064743,-9.784721902012825,14941.0
2.4,1.0,181.0,25.44793128967285,-0.0238553211092948,-79.78274536127357,40.45899233758589,276.2078048276901,0.027583809569478,0.0204781461507082,-0.7480313181877136,0.6627736687660217,-0.001148720637495,-0.0091336200164253,-0.0011356971338049,-0.0008092388161458,-0.0008502191631123,0.0031497147865593,0.0606534511875361,-0.6758716173470021,-9.786329886317253,14941.0
2.5,0.8999999761581421,179.0,25.44167137145996,-0.0238553211092948,-79.78274537926744,40.45899234278878,276.2064250993729,0.0275850724428892,0.0204784180968999,-0.7480312585830688,0.6627736687660217,-0.0011219399379343,-0.0093638745502011,-0.0003543941577749,-0.0042586135677993,-0.0008960600825957,-0.0062515442259609,0.0598424286721274,-0.6658179147541523,-9.7858445674181,14941.0
2.7,0.8999999761581421,180.0,25.44167137145996,-0.0159035474061965,-79.7827454004826,40.458992347118894,276.2064084100724,0.0275885015726089,0.0204799640923738,-0.7480342984199524,0.6627700924873352,-0.0024484540056595,-0.0090609950008746,0.0001859397801498,-0.0056833126582205,-0.0020929654128849,-0.0020508866291493,0.0606940482230857,-0.6836280220001937,-9.786240423917771,14941.0
2.8,0.8999999761581421,174.0,25.436662673950195,-0.0159035474061965,-79.78274539994167,40.45899236435239,276.2049085187912,0.0275839902460575,0.0204799510538578,-0.7480345368385315,0.6627700328826904,-0.0046710733479983,-0.0066065622759689,-0.000101455817602,0.0011147338664159,0.0020422276575118,-0.000524126458913,0.0599782074149698,-0.6716591370105743,-9.783650692105294,14941.0
3.0,0.8000000119209291,176.0,25.44292259216309,-0.0318070948123931,-79.78274542296833,40.45899236386983,276.20209935188296,0.0275903772562742,0.020483061671257,-0.7480357885360718,0.6627681851387024,-0.001322129805668,-0.0069937401086556,-0.0024837014863306,-0.0067607993260025,-0.0014407029375433,-0.0053113372996449,0.0592264975933358,-0.6845100744813681,-9.786669609546662,14941.0
3.1,0.8000000119209291,175.0,25.44292259216309,-0.0318070948123931,-79.78274543088965,40.45899236579147,276.20185914516446,0.0275903772562742,0.020483061671257,-0.7480357885360718,0.6627681851387024,-0.0008935657615945,-0.0068811779729593,-0.0024426991077142,0.0044882968068122,0.0015916874399408,0.0061535290442407,0.0599054643977433,-0.6811981384456158,-9.785887836813927,14941.0
3.3,0.8999999761581421,179.0,25.44793128967285,-0.0238553211092948,-79.7827454555595,40.45899235791922,276.20018640041354,0.0275987293571233,0.0204880069941282,-0.7480376958847046,0.662765622138977,0.00189580663602,-0.0073277420920661,-0.0010044640058375,0.003229189896956,-0.0024886501487344,0.0002693526330403,0.0596171509847045,-0.6699409326910973,-9.784419600963592,14941.0
3.4,0.8000000119209291,180.0,25.45168685913086,-0.0238553211092948,-79.78274546425574,40.458992357413045,276.2000842380524,0.0275990758091211,0.0204874873161315,-0.7480391263961792,0.6627639532089233,0.0015512728401736,-0.0071579538417114,-0.000819283933537,0.0030527166090905,0.0003690488520078,0.0046993056312203,0.0601527742110192,-0.6850537924468517,-9.786953199505808,14941.0
3.6,0.8000000119209291,179.0,25.449182510375977,-0.0159035474061965,-79.78274548853838,40.458992384798975,276.1985651540756,0.0275961738079786,0.020481888204813,-0.7480389475822449,0.6627644300460815,-0.0035607671104416,-0.0085243400950521,-0.0003640746332554,0.006201206240803,0.0025453683920204,0.0033411376643925,0.0595276063587516,-0.6664385966956616,-9.785237041711806,14941.0
3.7,0.8000000119209291,178.0,25.45043563842773,-0.0159035474061965,-79.78274549788364,40.45899238942646,276.1985687303544,0.0275962706655263,0.0204891208559274,-0.7480429410934448,0.6627597212791443,-0.0049230904387902,-0.0083710117170284,-0.0001013950636946,-0.003552321344614,-0.0026567333843559,-0.0016221951227635,0.058691194136627,-0.6787485936284066,-9.785488471984864,14941.0
3.9,0.8000000119209291,178.0,25.44292259216309,-0.0318070948123931,-79.78274552173787,40.45899237151556,276.19720271110543,0.0276115462183952,0.0204860400408506,-0.7480438947677612,0.6627581119537354,0.0008050478506642,-0.0083258333557786,0.0006421541823743,0.0030567408539354,0.0020302871707826,0.0036898988764733,0.0600047345878556,-0.6852514283359051,-9.7866134762764,14941.0
4.0,0.699999988079071,177.0,25.45168685913086,-0.0159035474061965,-79.78274553170216,40.45899237659608,276.1956600236893,0.0276231151074171,0.0204873587936162,-0.7480523586273193,0.6627480387687683,-0.0004303428727622,-0.0086654446889204,0.0006976601950855,-0.0044452082365751,-0.0012214138405397,-0.0044571640901267,0.0591951418993994,-0.6673783904314041,-9.784345341324808,14941.0
4.2,0.699999988079071,178.0,25.44417381286621,-0.0159035474061965,-79.7827455518694,40.45899237888647,276.1958341884613,0.0276338439434766,0.0204792004078626,-0.7480457425117493,0.6627553105354309,-0.0011081820818599,-0.0085416143521461,0.0011572456295769,-0.0011830495204776,-0.0018833506619557,-4.347602953203023e-05,0.0582504282798618,-0.6808331990987063,-9.787025704979897,14941.0
4.3,0.699999988079071,176.0,25.44417381286621,-0.0238553211092948,-79.78274549540083,40.458992366888616,276.194197087288,0.0276366658508777,0.0204976927489042,-0.7480485439300537,0.6627514362335205,0.0015579941397691,0.0031659827913909,0.0011117907177856,0.0012516984716057,-0.0016476036980748,0.0018794198986142,0.059418953214772,-0.667840320467949,-9.784631854891778,14941.0
4.5,0.699999988079071,177.0,25.42914962768555,-0.0079517737030982,-79.78274548239584,40.45899235860413,276.1929350185394,0.0276469998061656,0.0204983316361904,-0.7480491399765015,0.6627503633499146,0.0031145493008892,0.0027306770722111,0.0012827295048272,-0.0063108769245445,-0.000916950230021,-0.0054000541567802,0.0600461767287924,-0.6847196240723133,-9.786812866330148,14941.0
4.6,0.699999988079071,178.0,25.44292259216309,-0.0159035474061965,-79.7827454796866,40.458992355143046,276.19304337978366,0.0276435520499944,0.0204938761889934,-0.7480566501617432,0.6627421379089355,0.0036488289687791,0.0027601989471208,0.0013718574268679,0.0041897245682775,-0.0019457043381407,0.0027726858388632,0.0601747834961861,-0.6764402590692044,-9.785768553614618,14941.0
4.8,0.699999988079071,176.0,25.44292259216309,0.0318070948123931,-79.78274549089514,40.45899236197021,276.1917736816406,0.0276442673057317,0.02048110216856,-0.7480590939521791,0.6627397537231445,0.0010588157724983,-0.0020810508250481,0.0013396745127522,-0.0008971190545707,-0.0024599751923233,-0.0050618308596313,0.0586645253514871,-0.6827427535504103,-9.787005239725111,14941.0
4.9,0.6000000238418579,176.0,25.436662673950195,0.055662415921688,-79.78274549350094,40.45899236108561,276.1919091033936,0.0276448540389537,0.0204811636358499,-0.7480591535568237,0.6627396941184998,0.0014301509630214,-0.0020131962279483,0.0015169537070597,0.0053100129589438,-0.0048373346216976,0.0025846785865724,0.0599074652418494,-0.6824633297324181,-9.78678304553032,14941.0
5.1,0.6000000238418579,176.0,25.43415832519531,0.0477106422185897,-79.78274547972181,40.45899236721176,276.1906220006943,0.0276436284184455,0.0204815659672021,-0.7480591535568237,0.6627397537231445,-0.0003909607953499,-0.0013296638645181,0.0015082735596823,-0.0007851659902371,-0.0024829618632793,-0.0009776175720617,0.0585700882505625,-0.6754783920943738,-9.7854878872633,14941.0
5.2,0.6000000238418579,176.0,25.426645278930664,0.1272283792495727,-79.78274548115247,40.45899236782636,276.1907882976532,0.0276453271508216,0.0204824637621641,-0.7480607032775879,0.6627377867698669,-0.0007940837815935,-0.0011801929732608,0.0016644873004529,0.0028045065701007,0.0007075842004269,0.003171841148287,0.0592872264096513,-0.6850113270431757,-9.7874361795187,14941.0
5.4,0.6000000238418579,175.0,25.422889709472656,0.0477106422185897,-79.78274546615826,40.45899235758052,276.1894645977021,0.0276492740958929,0.0204874202609062,-0.7480624914169312,0.6627355217933655,0.0022987123099511,-0.0001647508868157,0.0015833225571998,0.0049766558222472,0.0002237117732875,0.0061022252775728,0.0600462955003604,-0.6788100624829531,-9.785693709254266,14941.0
5.5,0.6000000238418579,176.0,25.42539405822754,0.055662415921688,-79.78274546992337,40.45899235026114,276.18757870674136,0.0276553407311439,0.0204873122274875,-0.7480620741844177,0.6627357602119446,0.004548721486096,-0.0033353517120989,0.0014534888112238,-0.0025556224863976,-0.0007643342833034,0.0017637893324717,0.0584151050588116,-0.6813759668916464,-9.786568452715873,14941.0
5.7,0.6000000238418579,176.0,25.43791389465332,0.0397588685154914,-79.78274547893712,40.45899234302657,276.18784597396854,0.0276563204824924,0.0204875227063894,-0.7480654120445251,0.6627318859100342,0.0043561008570356,-0.0032214842274311,0.0018147303989811,0.0053627053275704,0.0007044665399007,0.0066800764761865,0.0596038211602717,-0.6842919002473354,-9.786619908213616,14941.0
5.8,0.6000000238418579,176.0,25.430402755737305,0.0477106422185897,-79.78274545488621,40.45899233685749,276.1861135053635,0.0276428163051605,0.0204816553741693,-0.7480757236480713,0.6627209782600403,0.0048351471224847,-0.0012125513287116,0.0016590340135739,-0.0032525269780308,-0.0015445570461452,-0.0055480119772255,0.0588234645500779,-0.6703528690338135,-9.784738274216652,14941.0
6.0,0.6000000238418579,176.0,25.42914962768555,0.0397588685154914,-79.78274545392576,40.45899234019296,276.1845345783234,0.0276393685489892,0.0204676017165184,-0.7480677962303162,0.6627305746078491,0.0030612511557596,-0.0037711975832538,0.0013454442828589,-0.0009386947494931,-0.000451555737527,0.0024928878992795,0.0591087675606832,-0.6757424669712783,-9.785680260658264,14941.0
6.1,0.6000000238418579,175.0,25.42539405822754,0.0238553211092948,-79.7827454587288,40.45899233794661,276.1846581983566,0.0276507660746574,0.0204686801880598,-0.748071551322937,0.6627257466316223,0.0022372548590931,-0.0036836119766226,0.0015950127906154,-0.0003986649680882,0.0020576049573719,-0.0068076606839895,0.0599945796187967,-0.6658375029265879,-9.784285699725151,14941.0
6.3,0.5,175.0,25.43415832519531,0.0636141896247863,-79.78274543763222,40.45899234438943,276.1828301239014,0.0276130121201276,0.0204728431999683,-0.7481013536453247,0.6626936197280884,9.393907553188624e-05,-0.0019316878998795,0.0013493262383417,-0.005545939784497,0.0004347250214777,-0.0033715027384459,0.0595257471268996,-0.6757176893949509,-9.785692539811135,14941.0
6.4,0.5,174.0,25.432905197143555,0.0397588685154914,-79.78274543997334,40.45899234408829,276.18296995639804,0.0276118740439414,0.0204698909074068,-0.7481131553649902,0.662680447101593,0.0001916208586067,-0.0018653790248607,0.0015559859171979,0.0021382465492933,-0.0004255476524122,0.0005332143045961,0.0589061249932274,-0.6710339965671301,-9.785545774698257,14941.0
6.6,0.5,173.0,25.432905197143555,0.0795177370309829,-79.78274544113663,40.45899235124397,276.18301644802096,0.0276058949530124,0.0204839687794446,-0.7481259107589722,0.6626658439636229,-0.0014603222077264,-0.0048334732633951,0.005478615407208,-0.0061171385459601,-0.0007110608858056,-0.0042748609557747,0.0592260499158874,-0.6663477455824613,-9.784300902485848,14941.0
6.7,0.5,173.0,25.432905197143555,0.055662415921688,-79.78274544666108,40.45899235249893,276.1835700559616,0.0276186671108007,0.0204779878258705,-0.7481456398963928,0.6626432538032532,-0.0009237772973229,-0.0046771034061515,0.0055309867986639,0.0086075952276587,0.0029906628187745,0.0026575888041406,0.0609323451016098,-0.6802726703882218,-9.786304743289948,14941.0
6.9,0.5,173.0,25.43540954589844,0.0477106422185897,-79.78274539628045,40.458992360031935,276.1832740592957,0.0276188105344772,0.0204858053475618,-0.7481425404548645,0.6626464128494263,-0.0029297319435047,0.0015641442923822,0.0075379702851977,-0.0004261625872459,0.0035729946102947,0.0005737917963415,0.0590209542587399,-0.6681005946546793,-9.784646472930907,14941.0
7.01,0.5,173.0,25.42414093017578,0.0477106422185897,-79.78274535745645,40.458992345418416,276.1801559019089,0.0276213884353637,0.0204942356795072,-0.7481424808502197,0.6626461148262024,0.0029450590101135,0.0049147767357642,0.0057844146007648,0.0040892250835895,0.0020412991289049,0.0066349231638014,0.0600578574556857,-0.6848299171775579,-9.786671363711356,14941.0
7.2,0.5,172.0,25.42038536071777,0.0874695107340812,-79.78274534660959,40.45899233984783,276.18135192871097,0.0276213474571704,0.0204935036599636,-0.7481439113616943,0.6626445651054382,0.0021941900867809,0.0050616172122236,0.0062898996723906,0.0046357009559869,0.0035780903417617,0.0023637572303414,0.0588061147648841,-0.6655852686613799,-9.784136595726013,14941.0
7.3,0.5,170.0,25.426645278930664,0.055662415921688,-79.78274534454508,40.45899233480811,276.1792903232575,0.0276280269026756,0.0204915907233953,-0.7481436729431152,0.662644624710083,0.0036415393712885,0.0004414590493892,0.0080260523859391,-0.00245434907265,-0.0006074066041037,-0.0046604764647781,0.0584906711848452,-0.6785084192454816,-9.785687277317049,14941.0
7.5,0.5,169.0,25.43165397644043,0.0238553211092948,-79.782745322293,40.458992338865535,276.17753496646884,0.0276289843022823,0.0204922258853912,-0.7481458783149719,0.6626421213150024,0.0017529800697048,0.0007391278496407,0.0087028836840506,-0.0008435790077783,-0.0014165474567562,0.0035623752046376,0.0593278234452009,-0.6698065198212863,-9.78450730919838,14941.0
7.6,0.5,168.0,25.43415832519531,0.0,-79.78274532179198,40.45899233705664,276.17840650558475,0.0276289843022823,0.0204922258853912,-0.7481458783149719,0.6626421213150024,0.0006441850078946,0.0007990474104284,0.0089974910637526,-0.0046944003552198,-0.0005083908326923,-0.0021650718990713,0.0598513045627623,-0.6657987651228905,-9.784144781827925,14941.0
7.8,0.5,168.0,25.44793128967285,-0.0159035474061965,-79.78274530008274,40.45899232741628,276.17396190643314,0.0276315379887819,0.0204949006438255,-0.7481468915939331,0.6626406908035278,0.0031203793996075,0.0014034629977179,0.005723724385098,-0.0043324925936758,-3.467600981821306e-05,-0.003539562691003,0.0592519101407378,-0.6828752660751343,-9.786195985078812,14941.0
7.9,0.5,167.0,25.44542694091797,-0.0159035474061965,-79.7827452990344,40.45899232366856,276.174515156746,0.0276338569819927,0.0204961486160755,-0.7481488585472107,0.6626383662223816,0.0036813565778348,0.001480379354081,0.0058401083191406,0.0058464808389544,0.0041495915502309,0.0022360142320394,0.0593605084670707,-0.6761037518084051,-9.786094828248023,14941.0
8.1,0.5,168.0,25.44167137145996,-0.0159035474061965,-79.7827453008763,40.45899233476034,276.1698228406906,0.0276354178786277,0.0204922817647457,-0.7481483221054077,0.6626390218734741,0.0015385052364221,-0.0014748501331032,0.0042228817992461,0.0003199449565727,0.000727787381038,0.0009918117430061,0.0590402866154909,-0.6695665647089482,-9.78394539177418,14941.0
8.2,0.5,169.0,25.440418243408203,-0.0238553211092948,-79.78274530289359,40.458992333474775,276.17024138450626,0.0276364628225564,0.0204922687262296,-0.7481498122215271,0.6626372933387756,0.0013184249544257,-0.001422762228271,0.0043564883119444,-0.0002246231742901,0.0013874013675376,0.0054417513310909,0.059612843231298,-0.6854405857622624,-9.78702044248581,14941.0
8.4,0.4000000059604645,167.0,25.44417381286621,-0.0318070948123931,-79.78274530835881,40.45899234628905,276.16477325439456,0.0276392865926027,0.0204899366945028,-0.7481504082679749,0.6626365780830383,0.0003908005117116,-0.0039197983178704,0.0029698830601695,0.0055198548361659,0.0022462029010057,0.0061644040979444,0.0598691796837374,-0.6660920029878616,-9.784119054079056,14941.0
8.5,0.4000000059604645,168.0,25.449182510375977,-0.0159035474061965,-79.78274529050522,40.45899234352309,276.1584756660462,0.0276390574872493,0.020492723211646,-0.7481469511985779,0.662640392780304,0.0023535797760917,-0.0017711051423929,0.0019832882519962,-0.0047611398622393,-0.0018008671468123,-0.0015876312972977,0.0587542207259684,-0.6768320225179196,-9.785692539811135,14941.0
8.7,0.4000000059604645,168.0,25.44667816162109,-0.0159035474061965,-79.78274529525834,40.45899233934488,276.1588547515869,0.0276343282312154,0.0205045659095048,-0.74814772605896,0.662639319896698,0.0020545346059397,-0.0015571578427426,0.0022490922679666,0.0020168335177004,-0.0007389854290522,0.002213236875832,0.0598675762675702,-0.684047998264432,-9.787722693085673,14941.0
8.8,0.4000000059604645,169.0,25.43791389465332,-0.0159035474061965,-79.7827453044347,40.45899233629925,276.1519856142998,0.0276505220681428,0.0205178689211606,-0.7481481432914734,0.6626377701759338,0.0041120571870729,-0.0040924824993409,0.0014409590202973,-0.006239715963602,-0.0008724797517061,-0.0047818403691053,0.0593347487412393,-0.6656686645746231,-9.784158815145494,14941.0
9.0,0.4000000059604645,169.0,25.44542694091797,-0.0318070948123931,-79.78274529795628,40.45899233314681,276.1453361201286,0.0276428367942571,0.0205120611935854,-0.7481453418731691,0.6626414656639099,0.0048145533822655,-0.0022577270969415,0.0011042507720918,-0.0024997955188155,-0.0020309928804636,-0.0028414267580956,0.059001663015224,-0.6742335198819638,-9.785442863702777,14941.0
9.1,0.4000000059604645,169.0,25.44542694091797,-0.0159035474061965,-79.78274530123151,40.45899232879308,276.14541253328326,0.0276519805192947,0.0205285958945751,-0.7481526136398315,0.6626323461532593,0.0051549000745536,-0.0021061572176315,0.0011575602002643,0.0046999487094581,0.0016893530264496,0.0029286588542163,0.0593769446248188,-0.6750663095712662,-9.784714300632476,14941.0
9.3,0.4000000059604645,169.0,25.436662673950195,-0.0159035474061965,-79.78274529111931,40.45899235482314,276.1379385876656,0.0276369899511337,0.0205031242221593,-0.7481580972671509,0.6626275777816772,-0.0021877653857309,-0.0015519578831705,0.0004809924176988,0.0004355087585281,-0.000215277672396,-0.0087989186868071,0.0588849608134478,-0.6828037838637829,-9.78682105243206,14941.0
9.4,0.4000000059604645,170.0,25.436662673950195,-0.0238553211092948,-79.7827452925572,40.458992356861785,276.137999265194,0.0276372227817773,0.0205014981329441,-0.7481606006622314,0.6626248359680176,-0.001884522419039,-0.001348730521817,0.000500888079497,0.0041024796664714,0.0007751925149932,0.0021584341302514,0.0596701870579272,-0.683818641230464,-9.786863737106325,14941.0
9.6,0.4000000059604645,169.0,25.44292259216309,-0.0079517737030982,-79.78274528226521,40.45899235321552,276.1280269312859,0.0276608876883983,0.0205257907509803,-0.7481626272201538,0.6626208424568176,0.0014179121783134,-0.0001958390878919,-0.0028889981810885,0.0050915400497615,0.0054789972491562,0.0044209170155227,0.060466317445971,-0.6792207562923431,-9.78623925447464,14941.0
9.7,0.4000000059604645,167.0,25.44542694091797,0.0079517737030982,-79.78274528254366,40.458992352655656,276.127750723362,0.0276535544544458,0.0205324199050664,-0.7481620311737059,0.6626215577125549,0.0002385950870807,-6.858408683232164e-05,-0.0026359054168302,-0.0045198993757367,0.0011808577692136,0.0036336085759103,0.0586620220122858,-0.6815554764121772,-9.786312929391864,14941.0
9.9,0.4000000059604645,166.0,25.44417381286621,-0.0477106422185897,-79.78274529689854,40.45899234077053,276.118986158371,0.027634909376502,0.0205483138561248,-0.7481679320335388,0.6626152396202087,0.0036412255022224,-0.0027373168552008,-0.00181533730893,0.0032989881001412,-0.0029613527003675,0.0028630667366087,0.059478311589919,-0.6841450620442628,-9.786457355618476,14941.0
10.0,0.4000000059604645,164.0,25.43415832519531,-0.0238553211092948,-79.78274530299342,40.45899235934595,276.110417573452,0.0276282206177711,0.0205553229898214,-0.7481760382652283,0.6626061201095581,-0.001728472997443,-0.0053163600692144,-0.001579401049788,-0.0008832116727717,-0.0027769429143518,-0.0075965491123497,0.0585126667656004,-0.668570418432355,-9.784737689495088,14941.0
10.2,0.4000000059604645,165.0,25.44542694091797,-0.0238553211092948,-79.78274531470441,40.45899236337708,276.110139875412,0.027619743719697,0.0205493383109569,-0.7481878995895386,0.6625931859016418,-0.002263328042756,-0.0049649302396196,-0.0013245914355406,-0.0028865875210613,-0.0027603281196206,-0.0012228026753291,0.0586101142689585,-0.677632944881916,-9.786510565280915,14941.0
10.3,0.4000000059604645,166.0,25.44417381286621,-0.0159035474061965,-79.78274530175477,40.45899236666801,276.09946057081225,0.027621341869235,0.0205453690141439,-0.7481841444969177,0.6625975966453552,-0.0018067708651598,-0.0030947225620169,-0.00444438415999,0.0010955639882013,0.0033880893606692,-0.0024414826184511,0.0599587745591998,-0.668390324190259,-9.78465699791908,14941.0
10.5,0.4000000059604645,166.0,25.440418243408203,-0.0079517737030982,-79.78274533411455,40.45899237155636,276.0876230287552,0.0276344306766986,0.0205403584986925,-0.7481805682182312,0.662601113319397,-0.0011795769466188,-0.0089261902244417,-0.0068549912756214,-0.0042370385490357,-0.004040686879307,-0.005373943131417,0.0590735152456909,-0.6680884616822005,-9.78440030515194,14941.0
10.6,0.4000000059604645,168.0,25.44292259216309,0.0,-79.78274534423302,40.45899237370773,276.086940972805,0.0276344306766986,0.0205403584986925,-0.7481805682182312,0.662601113319397,-0.0006838624805558,-0.0088071823346982,-0.006784912281226,0.0067217149771749,0.0020110078621655,0.0039005947764962,0.0591631649388,-0.6773941592127085,-9.786109446287156,14941.0
10.8,0.4000000059604645,169.0,25.43916702270508,0.0318070948123931,-79.78274534286513,40.45899234392298,276.0764217662812,0.0276409275829792,0.0205524023622274,-0.7481815218925476,0.6625995039939879,0.0056848284704192,-0.0041847243826926,-0.0043101586368927,-0.0020214121323078,-0.0010248402832075,-0.0022770424839109,0.058934027175419,-0.6823990834504366,-9.786055067181588,14941.0
10.9,0.4000000059604645,170.0,25.43916702270508,-0.0238553211092948,-79.78274534850634,40.45899233955637,276.07595273733136,0.027641674503684,0.0205519571900367,-0.7481842041015625,0.6625964045524597,0.0059070571641273,-0.0040817610843035,-0.0042623103293781,0.0043044970370829,1.82738385774428e-05,0.0047180047258734,0.0593668079283088,-0.6849832604080439,-9.786394790410997,14941.0
11.1,0.4000000059604645,171.0,25.43540954589844,-0.0159035474061965,-79.78274534729725,40.45899235745545,276.0654881286621,0.0276364497840404,0.0205488707870244,-0.748184084892273,0.6625968217849731,0.0002853913530397,-0.0028480118644944,-0.0036002407228111,0.0043156333267688,0.0018948114011436,0.0020307661034166,0.0591114079440012,-0.6717524001002312,-9.78460203409195,14941.0
11.2,0.4000000059604645,173.0,25.43916702270508,-0.0318070948123931,-79.78274535046481,40.458992358144656,276.065139977932,0.0276386644691228,0.02054981328547,-0.7481849193572998,0.6625957489013672,-0.0006112874224657,-0.0026007048298655,-0.0034197409463757,-0.0030049476772546,-0.0019853892736136,-0.0021080176811665,0.0591899296548217,-0.6835883340239525,-9.78678421497345,14941.0
11.4,0.4000000059604645,176.0,25.440418243408203,-0.0318070948123931,-79.78274536751894,40.45899234798739,276.05242642641065,0.0276450421661138,0.0205509774386882,-0.7481861114501953,0.6625941395759583,0.0029555468049529,-0.0040674531317625,-0.0056793367466767,0.0047931582666933,0.0034963856451213,0.0002147526392946,0.0587150717899203,-0.6651185877621174,-9.783989830613136,14941.0
11.5,0.4000000059604645,179.0,25.43415832519531,-0.0238553211092948,-79.78274536534305,40.45899233917794,276.04199084520343,0.0276460349559784,0.0205551013350486,-0.7481861710548401,0.6625939011573792,0.0042137581258073,-0.0019583552965964,-0.0039065284255095,-0.0026104336138814,-0.0019648531451821,-0.0062131807208061,0.0595435263169929,-0.6731919115036726,-9.785497827529907,14941.0
11.7,0.4000000059604645,180.0,25.43916702270508,-0.0238553211092948,-79.78274537067371,40.45899233221552,276.041177778244,0.0276470500975847,0.0205551497638225,-0.7481873035430908,0.6625925898551941,0.0041331114848301,-0.0015324765151218,-0.0036847422599645,0.0038415724411606,0.0029570010956376,0.00222699646838,0.0599750097189098,-0.6845450115948916,-9.786580731868744,14941.0
11.8,0.4000000059604645,182.0,25.44167137145996,0.0,-79.78274534039711,40.45899229920908,276.0328429627419,0.0276476722210645,0.0205655451864004,-0.7481880187988281,0.6625914573669434,0.0086676466765453,0.0044485903367216,0.0017204949401976,-0.0024180791806429,-0.0030260647181421,-0.004471730440855,0.0593613581405952,-0.6662362099438907,-9.784226058125496,14941.0
12.0,0.4000000059604645,182.0,25.43791389465332,-0.0318070948123931,-79.7827453564342,40.45899230769111,276.0221983480454,0.027647690847516,0.0205559507012367,-0.7481902241706848,0.6625892519950867,0.0024108139977373,-0.0001448900697458,0.0007491382490631,-0.0005225905333645,-0.0005981824942864,-0.004839479457587,0.0582724329968914,-0.6782814741879702,-9.786151546239854,14941.0
12.1,0.4000000059604645,184.0,25.44167137145996,-0.0238553211092948,-79.78274535689727,40.45899230531804,276.02225306510934,0.027647690847516,0.0205559507012367,-0.7481902241706848,0.6625892519950867,0.0024153322649799,2.8600997598928087e-05,0.0008219155665691,-0.0006135032745078,0.0002433734189253,-0.0007661274867132,0.0590353987086564,-0.6687206187844277,-9.78409157216549,14941.0
12.3,0.4000000059604645,186.0,25.44167137145996,-0.0238553211092948,-79.78274539468566,40.45899231122894,276.01133218288425,0.0276545844972133,0.0205488260835409,-0.7481902241706848,0.6625891327857971,0.0009780925262022,-0.0067458337124103,0.0003136219637412,-0.0035085957497358,-0.0001070417856681,-0.0067562470212578,0.0601050691539421,-0.6683461046218873,-9.784206762313843,14941.0
12.4,0.4000000059604645,189.0,25.436662673950195,-0.0636141896247863,-79.78274540274867,40.45899231062615,276.0113454151154,0.0276563838124275,0.0205492656677961,-0.7481929659843445,0.6625860333442688,0.0016313120039985,-0.0065938682280846,0.0002654977880408,0.0021674700547009,-0.0022124664392322,0.0036112586967647,0.0600916296942159,-0.6777463077753783,-9.785933445096015,14941.0
12.6,0.4000000059604645,190.0,25.44542694091797,-0.0397588685154914,-79.78274540427391,40.45899229688273,275.9999128866196,0.0276568438857793,0.0205541402101516,-0.7481927871704102,0.6625860333442688,0.0029689024344007,-0.0037080467563731,-0.0001192831007665,-0.0055011408403515,0.0021068453788757,-0.0044224490411579,0.0586617799010127,-0.6660159891843797,-9.783504511713982,14940.0
12.7,0.3000000119209289,192.0,25.43916702270508,-0.0238553211092948,-79.78274540894806,40.45899229455153,275.9998837399483,0.0276571232825517,0.0205535106360912,-0.7481940388679504,0.662584662437439,0.0034740913021361,-0.0034740374177749,-3.804561211038696e-05,0.006574431899935,0.0036055906675755,0.0066465325653553,0.0602874383283779,-0.6828644487261772,-9.785959757566454,14940.0
12.9,0.3000000119209289,191.0,25.427898406982425,-0.0397588685154914,-79.78274540628162,40.458992297831735,275.9882688212395,0.0276570655405521,0.0205545052886009,-0.7481957077980042,0.6625827550888062,0.0010593803065318,-0.0018094772190771,-0.0006475535890786,0.0015955591807141,-0.0005779603379778,0.0010022467467933,0.0587106955144554,-0.6694578064978123,-9.784037777781489,14940.0
13.0,0.3000000119209289,190.0,25.440418243408203,-0.0238553211092948,-79.78274540459229,40.45899228874639,275.9772898840904,0.0276586301624774,0.0205573067069053,-0.748195469379425,0.6625828742980957,0.0033706114246803,-0.0006868979666203,-0.0008628760442031,0.0075941123068332,0.0013180109672248,0.0011800326174125,0.0602333059022203,-0.6855293172597885,-9.787221586704254,14940.0
13.2,0.3000000119209289,190.0,25.43916702270508,-0.0238553211092948,-79.78274540646578,40.45899228418439,275.977099685669,0.0276586692780256,0.0205560754984617,-0.7481967806816101,0.6625814437866211,0.0028419913652761,-0.0002201084026791,-0.0006770481472537,0.0037039890885353,0.0035835069138556,0.002839371562004,0.0598930664733052,-0.6672111600637436,-9.784234244227411,14940.0
13.31,0.3000000119209289,189.0,25.42038536071777,-0.0397588685154914,-79.7827454243487,40.45899227297344,275.9660862374306,0.0276640802621841,0.0205557402223348,-0.7481963634490967,0.6625816822052002,0.0047830094371426,-0.0032272156912513,-0.0005340638029408,-0.0003528516099322,-0.0020160384010523,0.0021150147076696,0.0574152997042983,-0.6803818671405316,-9.78611763238907,14940.0
13.5,0.3000000119209289,189.0,25.436662673950195,-0.0238553211092948,-79.78274542962617,40.458992260262754,275.9544208335877,0.0276660416275262,0.0205588117241859,-0.7481980323791504,0.6625795364379883,0.006559745154992,-0.0014122548228975,-0.0008348591458773,0.0066572115756571,0.0020743384957313,0.0049328161403536,0.0600414167298004,-0.6845656230300665,-9.787701058387755,14940.0
13.6,0.3000000119209289,185.0,25.44167137145996,-0.0238553211092948,-79.78274543203636,40.45899225506255,275.95430579662326,0.0276660416275262,0.0205588117241859,-0.7481980323791504,0.6625795364379883,0.0053022032311186,-0.0012133249156287,-0.0006407850576016,-0.0056182541884481,-0.0022412585094571,-0.0049395211972296,0.0599958815379068,-0.6671490333974361,-9.784265819191932,14940.0
13.8,0.3000000119209289,182.0,25.44417381286621,-0.0238553211092948,-79.7827454350895,40.45899224112857,275.94248387098315,0.0276678055524826,0.0205604545772075,-0.7481987476348877,0.6625785827636719,0.0062657560261987,-1.5346249919374975e-05,-0.0008663050892167,-0.0021925678011029,-0.0024354865308851,-0.0020895593333989,0.059062501466833,-0.6784662462025881,-9.786574299931528,14940.0
13.9,0.2000000029802322,172.0,25.40786552429199,0.3657816052436829,-79.78274543597796,40.45899223523754,275.94235476732257,0.027670370414853,0.0205618217587471,-0.7482008337974548,0.6625761985778809,0.0064759973938396,0.0001557899780914,-0.0007328400896978,0.004139341879636,0.0019133551977574,0.0017801030771806,0.0581368095707148,-0.6732661711424589,-9.785480285882947,14940.0
14.1,0.2000000029802322,167.0,25.392841339111328,0.278312087059021,-79.7827454335124,40.458992237464045,275.9313612866402,0.0276546869426965,0.0205592457205057,-0.7482460141181946,0.6625258326530457,0.0030173943330809,0.0006790077209835,-0.0008713912040049,0.0012244909303262,0.0008398279896937,-0.0146805420517921,0.0675750241940841,-0.6780204690992833,-9.785006076693538,14940.0
14.2,0.2000000029802322,155.0,25.400352478027344,0.2624085247516632,-79.78274543346387,40.45899223434221,275.93125894546506,0.0276603382080793,0.0205698031932115,-0.7482337951660156,0.6625391244888306,0.0047151736207495,0.0004389265038172,-0.0008085284870566,0.0046852156519889,-0.0004137619107495,0.0160051621496677,0.0584254884347319,-0.6846045070141554,-9.78587263405323,14940.0
14.4,0.2000000029802322,149.0,25.39910125732422,0.2703603208065033,-79.78274543092164,40.458992255921366,275.91993537426004,0.0276482794433832,0.0205993168056011,-0.7482575178146362,0.6625118851661682,-0.0019080483970141,0.0005544210754462,-0.0013173818083784,0.005727847572416,-0.0020103463903069,0.0063724475912749,0.059958879626356,-0.6742371743917466,-9.78403017640114,14940.0
14.5,0.2000000029802322,138.0,25.396596908569336,0.278312087059021,-79.78274542970237,40.45899227185213,275.9089387941361,0.0276432838290929,0.0205866992473602,-0.7482215166091919,0.6625531315803528,-0.0052104176474055,-0.0002979664461804,-0.0017358501871999,-0.003552212845534,0.001173747703433,-0.0003378789697308,0.0570528317196294,-0.682511349990964,-9.787182995080949,14940.0
14.7,0.2000000029802322,132.0,25.39158821105957,0.3419262766838074,-79.78274542740692,40.458992282090456,275.90868916988376,0.0276629049330949,0.0205753687769174,-0.7482525110244751,0.6625177264213562,-0.0054686341015529,0.0003641178632156,-0.0015445422770959,0.0031911770347505,0.0032720328308641,0.011857496574521,0.0564574024407193,-0.6738051382452249,-9.788509728312492,14940.0
14.8,0.2000000029802322,120.0,25.39158821105957,0.3816851377487183,-79.78274544989355,40.45899226407328,275.8975927519798,0.0276669654995203,0.0205845572054386,-0.7482461929321289,0.6625243425369263,-0.0010369790112213,-0.0026495618413189,-0.0013006002550904,-0.0045441980473697,-0.0030832190532237,-0.0068747331388294,0.0586224573757499,-0.6656649369746447,-9.783208057880405,14940.0
15.0,0.2000000029802322,114.0,25.376564025878903,0.4293957948684693,-79.78274546913238,40.45899225510817,275.8866414117813,0.0276920236647129,0.0205686911940574,-0.7482396960258484,0.6625310778617859,0.0021152653805987,-0.0042312350626077,-0.0012792816724332,-0.0066927950829267,-0.0028458903543651,-0.0004569780139718,0.0581174726458266,-0.6621014975756407,-9.78363139629364,14940.0
15.1,0.2000000029802322,106.0,23.81400489807129,9.033215522766112,-79.78274547447177,40.45899225289239,275.8865398454666,0.0277888346463441,0.0205494482070207,-0.7482919096946716,0.6624687314033508,0.003850059734957,-0.0056587893260807,-0.0007823135682004,0.0124650197103619,0.0162233486771583,0.0023657612036913,0.0617773636942729,-0.7025433260947467,-9.791058529615404,14940.0
15.3,0.2000000029802322,104.0,25.32272529602051,0.2703603208065033,-79.78274549141155,40.45899223667983,275.8752988862992,0.027979290112853,0.0206545889377594,-0.7481921911239624,0.6625699996948242,0.0059655259002347,-0.0059600499975579,-0.0023851070353528,0.0079474067315459,0.0123014487326145,0.0027946287300437,0.0532731732493266,-0.6865555036067963,-9.7813691085577,14940.0
15.4,0.2000000029802322,99.0,25.380319595336918,0.2146978974342346,-79.78274549709819,40.458992233150575,275.87511816501615,0.0279862340539693,0.0206493157893419,-0.7482081055641174,0.6625519394874573,0.0025702933932812,-0.0045668646040507,-0.0017664401492468,0.005224838387221,0.0160501133650541,-0.0055345990695059,0.062836024928838,-0.6841628229618073,-9.77140662252903,14940.0
15.6,0.2000000029802322,96.0,25.18124389648437,0.7474667429924011,-79.78274549557948,40.45899224642111,275.86383560180667,0.0280686039477586,0.0207068379968404,-0.7481562495231628,0.6626052260398865,0.000468911165633,-0.0018484613419221,-0.0027287006737227,0.0053043044172227,0.0046020364388823,-0.0122251082211732,0.0539065089309588,-0.6994832588732243,-9.773397599458695,14940.0
15.7,0.2000000029802322,91.0,25.33274269104004,0.2544567584991455,-79.78274549782962,40.4589922486648,275.8636493968964,0.0280657242983579,0.0206846240907907,-0.7482022643089294,0.6625540256500244,-0.0024170582317868,-0.0019643180704648,-0.002322350022697,-0.0136478645727038,0.0109089026227593,0.0288040768355131,0.0683357606548816,-0.6877058701962233,-9.788546565771105,14940.0
15.9,0.2000000029802322,88.0,25.22381401062012,1.3756568431854248,-79.7827454967556,40.45899224530248,275.8516554522514,0.0279368478804826,0.0206909142434597,-0.7481985092163086,0.6625635623931885,0.0001902648916308,-0.0008901001348091,-0.0024203647734908,-0.0018662746297195,0.0068995798937976,0.0152967749163508,0.0668931200774386,-0.6959854544699192,-9.788618486523626,14940.0
16.0,0.2000000029802322,87.0,25.127405166625977,2.8626387119293213,-79.78274549634011,40.458992216028726,275.8403154301644,0.0277663078159093,0.0206281710416078,-0.7481817603111267,0.6625915765762329,0.0055955655551709,0.0023165404281049,-0.001806969733293,-0.0033078773412853,0.0011198974680155,0.0046488186344504,0.0599233166780322,-0.6715815152227879,-9.77905536532402,14940.0
16.2,0.3000000119209289,82.0,24.738018035888672,6.05925178527832,-79.78274549457338,40.45899220871903,275.84002265214923,0.0278235264122486,0.0206226222217082,-0.7482537031173706,0.6625081300735474,0.0051274613018398,0.0009072674654876,-0.0008258770112387,0.0090587390586733,-0.0173930563032627,4.125830309931189e-05,0.0455957836657762,-0.6275415294617415,-9.786908760666847,14940.0
16.3,0.3000000119209289,71.0,24.60530090332031,6.6238274574279785,-79.78274553984183,40.4589921894984,275.8278799343109,0.027882782742381,0.0206926446408033,-0.7482282519340515,0.6625322103500366,0.0093699492941288,-0.0072281345715436,-0.0005352982619137,0.0225629322230815,0.0468390397727489,0.0208577699959278,0.0768514536693692,-0.6627064651250839,-9.814806411266328,14940.0
16.5,0.3000000119209289,64.0,24.306060791015625,9.168395042419434,-79.78274555358738,40.45899219078451,275.81423374891284,0.0283697992563247,0.0211217664182186,-0.748366117477417,0.6623421907424927,0.0019807184494817,-0.0020396245327882,0.0011823457638247,-0.0032276706770062,0.0051247207447886,-0.0288146901875734,0.03172938126605,-0.6689460289478303,-9.769376469254494,14940.0
16.6,0.3000000119209289,50.0,24.15331077575684,10.265740394592283,-79.78274555789201,40.45899219023861,275.8141995954514,0.0287269540131092,0.0213636606931686,-0.7482861876487732,0.6624093651771545,-0.007746570708409,-0.0001873928775832,0.0012635741959059,-0.048902504146099,-0.0501228384673595,0.0469103790819644,0.0686090220557525,-0.6618198079615831,-9.796502872109414,14940.0
16.8,0.4000000059604645,38.0,23.84154891967773,13.510064125061035,-79.78274557983009,40.45899215654888,275.8008047628403,0.0303253401070833,0.0226246006786823,-0.7484107017517091,0.6621555089950562,0.0165437611765062,-0.0046221390562332,0.0040396265164018,0.0457766465842723,0.0176216755062341,-0.0658279806375503,0.0626078647468239,-0.8074366738647223,-9.769948326945306,14940.0
16.9,0.4000000059604645,21.0,23.670019149780277,14.893672943115234,-79.78274558682317,40.45899214905183,275.8011269259453,0.0313837490975856,0.0233338475227356,-0.7484270334243774,0.6620631217956543,0.0082251762167985,-0.0052091377373581,0.0048919772120099,0.0437629483640193,-0.0037548677064478,0.0477018468081951,-0.0163323879428207,-0.8326242130994798,-9.750904530286787,14940.0
17.1,0.5,11.0,23.35199737548828,18.01872062683105,-79.78274559951551,40.458992109354575,275.79008397340783,0.0334564112126827,0.0229563266038894,-0.7486603856086731,0.6617109775543213,-0.0018298900966493,-0.007339702969176,0.0172900061813575,-0.0386700630187988,0.0453652031719684,-0.0271835904568433,0.0757083367137238,-0.6674744309484959,-9.80950064778328,14940.0
17.2,0.5,353.0,23.18672752380371,20.125940322875977,-79.78274560486703,40.45899210700513,275.79174223423007,0.0320176742970943,0.0225419737398624,-0.7494497299194336,0.6609023213386536,0.0087905805917902,0.0048011916489007,0.0193464012306554,-0.0033293312881141,-0.0981985852122306,0.1262846887111663,0.1397454025782644,-0.9182900154590607,-9.848799784183504,14940.0
17.4,0.5,343.0,22.867454528808597,23.71219062805176,-79.78274565111052,40.45899208448286,275.78248014926913,0.015911690890789,0.0162449460476636,-0.7495577335357666,0.661548376083374,0.0252382346137343,0.0124957300699209,0.0830129622320458,-0.3007327914237976,0.014846796169877,-0.0800958350300788,0.1090628145262599,-0.6502275567501784,-10.018854357004166,14940.0
17.5,0.699999988079071,324.0,22.704687118530277,25.03218460083008,-79.78274573136078,40.4589917716348,275.7649832654,0.005117168650031,0.0057834293693304,-0.7467767000198364,0.6650301218032837,0.0574477943391609,0.0177840838386231,0.1450654341023845,-0.3224590420722961,0.0339294783771038,-0.0908255949616432,-0.0598086107522249,-0.1651732075586915,-10.5325135409832,14940.0
17.7,0.8000000119209291,320.0,23.23806190490723,18.034624099731445,-79.78274567424876,40.45899162145875,275.81573650121686,-0.0059207011945545,-0.0055490988306701,-0.7422606348991394,0.6700621843338013,0.0946640533875678,0.0436886324518593,0.35460620075735,0.0623124279081821,0.0207166019827127,0.0684014707803726,0.0712265327107161,0.0646566286124289,-10.961281678676606,14940.0
17.8,0.8999999761581421,303.0,23.17671012878418,18.980884552001957,-79.78274564897346,40.45899165642654,275.8147207188606,-0.005974122788757,-0.006103416904807,-0.7409432530403137,0.6715133786201477,0.0604288873072903,0.0531079209557934,0.313348590741931,-0.0764469057321548,-0.0295116025954484,-0.0841675698757171,0.0724392680777236,0.1456068434100598,-9.952426478862764,14940.0
18.01,0.8999999761581421,291.0,23.09657859802246,19.855579376220703,-79.78274547570653,40.458991606733576,275.8324552464485,-0.0061762179248034,-0.0077719497494399,-0.7399001717567444,0.6726435422897339,0.0391774824548082,0.0775931763462866,0.1522225808177873,0.0100425062701106,0.0088481334969401,0.0117757078260183,0.1776058863848448,-0.0645151122892275,-9.249439129829408,14940.0
18.1,1.0,267.0,23.00893592834473,20.68256378173828,-79.78274538363404,40.45899157694453,275.8450238990784,-0.0060313902795314,-0.0073617459274828,-0.7401242852210999,0.6724028587341309,0.0272716997136869,0.0922438020458917,0.1011512500436151,0.0990021601319313,-0.0142492037266492,0.08196821808815,0.1810088562592864,-0.1156390866078436,-9.28993636071682,14940.0
18.3,1.0,255.0,22.93882179260254,21.27099609375,-79.78274534297788,40.45899159017589,275.84563603878024,0.0002102115540765,-0.0070739393122494,-0.7416765093803406,0.6707203984260559,-0.0352751307602734,0.082683445470331,0.0442240505509758,0.020470404997468,-0.0387759767472744,0.0455699227750301,0.2425220765545965,-0.1847701690904796,-9.470150470733644,14940.0
18.4,1.100000023841858,235.0,22.94508171081543,21.34256172180176,-79.78274524011174,40.458991621944,275.8487580108643,0.0017295074649155,-0.0068704904988408,-0.7425922155380249,0.6697064042091371,-0.0372756141540567,0.0874383855153259,0.0154716210222504,0.1305899322032928,0.0658653900027275,0.0649188980460167,0.1504148443881422,-0.0499444036278873,-9.498904738426209,14940.0
18.6,1.100000023841858,227.0,22.85869026184082,22.59894180297852,-79.78274499753005,40.45899150716086,275.85271128892896,0.0066275838762521,-0.0052679111249744,-0.7438499927520752,0.6682930588722229,-0.046399322350461,0.0953554607592027,0.0438234690936665,0.1700901687145233,0.1099437773227691,0.1575484871864318,0.1554824343323707,0.1543913621641695,-9.609475001692774,14940.0
18.7,1.100000023841858,215.0,22.78857421875,22.54327964782715,-79.78274487116995,40.45899155824728,275.85728052139285,0.0070737842470407,-0.0067772329784929,-0.7444835901260376,0.6675689220428467,-0.0852422531245358,0.1042883446558296,0.0439449427597373,-0.1225932911038398,-0.0265840869396924,-0.0844549685716629,0.2024945598095655,0.156718535721302,-9.771346980929373,14940.0
18.9,1.100000023841858,210.0,22.72972869873047,23.71219062805176,-79.78274461340014,40.45899154533208,275.8603835391998,0.011505227535963,-0.0083442656323313,-0.7457197904586792,0.6661081314086914,-0.0872234501376627,0.100375555110683,0.0929552735856755,-0.0430514886975288,-0.0140750110149383,-0.0963133946061134,0.1143050717655569,-0.2563230038434267,-9.917768862247469,14940.0
19.0,1.100000023841858,204.0,22.73849296569824,23.338457107543945,-79.7827445280771,40.45899151818448,275.8513852643967,0.0146540328860282,-0.0060643861070275,-0.7462929487228394,0.6654287576675415,-0.0613566362731744,0.0919188088220139,0.1139435483752076,0.1386795938014984,0.0719887688755989,0.1071816012263298,0.1156003305315971,-0.1280681109242141,-9.993618943691256,14940.0
19.2,1.100000023841858,198.0,22.730979919433597,22.805686950683597,-79.7827443347282,40.45899161609107,275.8789462733269,0.0194051694124937,-0.0056572412140667,-0.7467820048332214,0.6647617816925049,-0.0660697994784506,0.0708007958218566,0.1430855093239261,-0.0204232037067413,0.0612609162926673,0.0078902384266257,0.1973344285413623,-0.0274175028316676,-9.856353217363358,14940.0
19.3,1.0,196.0,22.619548797607425,24.3801383972168,-79.78274422435369,40.4589915596826,275.8699546146393,0.0181552749127149,-0.0054805162362754,-0.7466676235198975,0.6649269461631775,-0.0631943652410562,0.0738423919276713,0.1413160923828276,-0.1461507230997085,-0.1100634038448333,-0.0833423286676406,0.1668442321568727,0.0136419012956321,-9.891958082914352,14940.0
19.5,1.0,193.0,23.11661148071289,21.119911193847656,-79.7827440722496,40.4589915727266,275.8805123257637,0.0162496529519557,-0.0070506213232874,-0.746578574180603,0.6650614142417908,-0.0402734206765119,0.0558649203071078,0.0754311639588059,-0.0365612916648387,-0.0524765886366367,-0.0547182634472847,0.0650536408508196,0.0013628763332962,-9.948895930051805,14940.0
19.6,1.0,188.0,22.54317283630371,24.984474182128903,-79.78274399699376,40.45899159970031,275.88253179073337,0.0124093918129801,-0.0044066924601793,-0.7469450235366821,0.6647554039955139,-0.0378128540864288,0.057590878828167,-0.0228165318333002,-0.0555648580193519,-0.1560994833707809,0.0344365611672401,0.2647963136807084,-0.125858301948756,-9.02198185622692,14940.0
19.8,1.0,183.0,22.166305541992188,29.707826614379893,-79.78274385706223,40.4589916163353,275.8591234970093,-0.0007638997631147,0.0030995374545454,-0.7475452423095703,0.6642032861709595,-0.0497346491507436,0.0447119917427131,0.0872177777631333,-0.0157862957566976,-0.0686938762664794,-0.076823353767395,0.1330063403584063,0.0873539117909967,-10.378839358091357,14940.0
19.9,1.0,177.0,22.19510269165039,28.98421669006348,-79.78274378961474,40.45899165207496,275.8740634608269,-0.001526930136606,0.0039353240281343,-0.747426450252533,0.6643311977386475,-0.0397748393440714,0.0516355439331193,0.2203467511492338,0.1166354194283485,0.1300234943628311,0.1219215020537376,0.0082522331230575,-0.2037841084040701,-10.979892196655276,14940.0
20.1,1.0,176.0,21.716819763183597,35.043468475341804,-79.78274372454445,40.45899154723279,275.90572109699247,0.0083164712414145,-0.0034567816182971,-0.7468678951263428,0.6649114489555359,-0.0347870764990789,0.0698631330963621,0.5190918567271052,0.0299762412905693,0.1444758623838424,0.0546864867210388,0.0151109434221871,-0.3079335989803076,-11.291174569129948,14940.0
20.2,1.2000000476837158,168.0,21.74686813354492,34.113109588623054,-79.78274363861601,40.45899157634013,275.96805778026584,0.0095161572098732,-0.0073119024746119,-0.7465866208076477,0.6651800274848938,-0.0546800736220147,0.0761404826900615,0.7307447868241855,-0.0816196128726005,0.0624783858656883,-0.0558163486421108,0.2325245620496572,0.0977698311209678,-11.862384388446806,14940.0
20.4,1.2000000476837158,166.0,21.50897979736328,37.325626373291016,-79.78274351150563,40.45899154697782,276.122704474926,0.0123274680227041,-0.0077373590320348,-0.7467349767684937,0.6649624109268188,-0.0518172734640001,0.0780235474306963,1.1586507249163325,-0.0118034649640321,-0.1001655533909797,-0.0616963990032672,0.1845846479013562,-0.0414293912658467,-11.981866393089296,14941.0
20.5,1.2999999523162842,162.0,21.267333984375,39.32947540283203,-79.78274351348618,40.45899147750279,276.2104299354553,0.0108328340575099,-0.0042149256914854,-0.7471461892127991,0.6645581722259521,-0.0540945909979162,0.067059892522264,1.3784620333732962,-0.0050870641134679,-0.1191605925559997,0.0604103840887546,0.1611198445782065,-0.1715925001725554,-12.268735470771787,14941.0
20.61,1.399999976158142,159.0,21.417579650878903,38.33550262451172,-79.78274348984091,40.45899151485168,276.3618892717362,0.0093639520928263,-0.0036643375642597,-0.7471266984939575,0.6646056175231934,-0.0570374332007512,0.0480994325722861,1.6436210789596766,0.0105089340358972,-0.0674210637807846,0.0574810355901718,0.1383031228836626,-0.1723640037328005,-12.38874138593674,14941.0
20.8,1.600000023841858,156.0,21.32117080688477,38.12080383300781,-79.78274345128847,40.45899146102345,276.66343560695645,0.00795270036906,-0.0013356369454413,-0.746042013168335,0.665850043296814,-0.0572388304667722,0.0360710081012197,2.0878530641494395,-0.0197963472455739,-0.0579054169356823,-0.0505896881222724,0.0758927569817751,-0.1188011511974036,-12.269722480773927,14941.0
21.0,1.7999999523162842,153.0,21.351221084594727,37.47671127319336,-79.78274344705525,40.45899149578995,276.88470736026767,0.0061266925185918,0.0006618773331865,-0.7455627322196959,0.66640704870224,-0.057979107192443,0.0290785213286974,2.3391244745129987,0.0519152209162712,-0.0073287840932607,-0.0298569500446319,0.0534319023136049,-0.1836898411810398,-12.348675094842914,14941.0
21.1,2.0999999046325684,156.0,21.451385498046875,36.24418640136719,-79.78274339167425,40.45899147109645,277.2909677314758,0.0070382016710937,0.0066616758704185,-0.7456350922584534,0.6662840843200684,-0.0510290389306662,0.0199936406331231,2.7161129287500523,0.1148992031812667,0.0265749730169773,-0.00299460045062,0.1104073086753487,-0.0395894049759954,-12.126827055215836,14942.0
21.3,2.299999952316284,158.0,21.815731048583984,31.75938415527344,-79.78274324835685,40.45899135326609,277.6945638942719,0.0071912612766027,0.0105265295132994,-0.7471234798431396,0.6645630598068237,-0.0557181703365643,0.019663121462307,2.9188903983906624,-0.0053721023723483,0.0653326734900474,-0.0195859856903553,0.0071921620471403,-0.099543437808752,-11.416957533359527,14942.0
21.41,2.5,160.0,21.7744140625,32.061553955078125,-79.78274319775268,40.45899133433426,277.992325334549,0.0080354679375886,0.0075884195975959,-0.7476925253868103,0.6639531850814819,-0.0550851569739483,0.0316426189107357,3.0326009290902185,-0.0664312615990638,0.0586512573063373,-0.082763023674488,0.0641261856537312,-0.049707161989063,-11.018063989877698,14942.0
21.5,2.5999999046325684,160.0,21.83075523376465,31.20276069641113,-79.7827430683637,40.45899120702938,278.08038285255435,0.0094151021912693,0.0046253823675215,-0.7480346560478209,0.6635769009590149,-0.0167077610099731,0.0514927060855394,2.9747527800475675,0.0338926091790199,0.0345280095934867,0.0282182767987251,0.0937573255598545,-0.1769851130805909,-10.813326072692874,14943.0
21.7,2.799999952316284,161.0,22.177574157714844,27.05988693237305,-79.78274295261829,40.45899110584904,278.68781879425046,0.0115274554118514,0.0034350692294538,-0.7481330633163452,0.6634396910667419,-0.0104595420870964,0.0864521889746273,3.0780714188587672,-0.0476370118558406,-0.024036169052124,-0.0365193746984005,0.1214938762318343,-0.0710941937752068,-10.24119473218918,14943.0
21.9,2.900000095367432,161.0,22.304031372070312,25.93868637084961,-79.7827428289483,40.4589910313096,278.7833395290375,0.0124112823978066,0.0033271748106926,-0.748047411441803,0.6635209321975708,-0.006380584682236,0.0746499685602509,2.9514251993000555,-0.0575410798192024,0.0271012540906667,-0.042117353528738,0.1309205014910548,-0.0244337691832333,-9.880115132331849,14943.0
22.0,3.0,165.0,22.193851470947266,26.89289855957031,-79.78274269190071,40.45899081271703,279.2550852584839,0.0111359069123864,0.0035650744102895,-0.747624397277832,0.6640188694000244,0.0235128986587423,0.074130320047222,2.7935067511398084,0.0106091639026999,-0.0543814450502395,-0.0488705448806285,0.2091073221713304,0.0484311716258525,-9.402417494058607,14944.0
22.2,3.0999999046325684,164.0,22.129995346069336,27.48928260803223,-79.78274263089963,40.45899063396718,279.80399539947507,0.0108130220323801,0.0032749641686677,-0.7466196417808533,0.665155291557312,0.0418133405027593,0.0582701792318052,2.695746606892451,-0.0743145272135734,0.0494569204747676,-0.0451373048126697,0.0913598666433245,-0.1513281886093318,-9.343989191651344,14944.0
22.3,3.2000000476837163,164.0,22.21138000488281,26.54302215576172,-79.78274275588603,40.45899069207024,279.9504668998718,0.0112395323812961,0.0011424871627241,-0.7464008331298828,0.6654007434844971,0.0305447297301703,0.0324766860051872,2.568276299561344,-0.0857515484094619,-0.0175007637590169,-0.0615246258676052,0.0617133138421922,-0.1426858759671449,-9.401679575443268,14944.0
22.5,3.2000000476837163,164.0,22.16254997253418,27.234825134277344,-79.78274276494486,40.45899060696611,280.2052004623413,0.0127534102648496,-0.0017467674333602,-0.7464392781257629,0.665329098701477,0.0468957656532638,0.031378875545787,2.5274369750469656,-0.0548505932092666,0.0388123951852321,-0.055363979190588,0.1324866325221956,0.0480530486349016,-9.414865046739578,14945.0
22.6,3.2000000476837163,166.0,22.232664108276367,26.09772109985352,-79.78274236704064,40.45899038559255,280.96632221221927,0.0138641195371747,-0.0054506193846464,-0.7470470070838928,0.6646043062210083,0.0471705888951235,0.0713567855646243,2.5902569609302546,-0.0204052925109863,0.0397563055157661,0.0123971728608012,0.1079702531453222,0.095472980858758,-9.570578738451005,14945.0
22.8,3.0999999046325684,168.0,22.091182708740234,27.77554702758789,-79.78274191324138,40.458989827341405,281.67365625381467,0.0164033118635416,-0.0051677417941391,-0.7476176619529724,0.6639067530632019,0.0822722038753424,0.0750144692266382,2.5988224175164234,-0.0200172122567892,0.0150852901861071,0.0280288681387901,0.1277427316457033,-0.3169379090890289,-9.46903774559498,14946.0
22.9,3.0999999046325684,170.0,22.17381858825684,26.61458778381348,-79.78274193200869,40.45898971425607,281.93216875076286,0.0158297047019004,-0.0057779187336564,-0.7477846741676331,0.6637274622917175,0.0695126237430217,0.0696956103747724,2.574209649818717,-0.1052517965435981,-0.0089272819459438,-0.1130215525627136,0.1177865313738584,0.1654725850000977,-9.507178548574448,14946.0
23.0,3.0999999046325684,172.0,22.073654174804688,27.457475662231445,-79.78274171082933,40.4589893468648,282.315496711731,0.0137297771871089,-0.0066877743229269,-0.7477462887763977,0.6638090014457703,0.0893343644507768,0.0719402971305845,2.606393758151912,-0.0689320713281631,-0.0707817077636718,0.0177796203643083,0.1234280712157488,-0.0954103242885321,-9.629225726723671,14947.0
23.2,3.0999999046325684,175.0,22.166305541992188,26.686153411865234,-79.78274178286122,40.4589891134907,282.8348853874207,0.0105214305222034,-0.0075866742990911,-0.7469432950019836,0.6647613048553467,0.1116862517788566,0.0446051892121506,2.58547724852623,-0.0142517862841486,0.0498148314654827,-0.0192756373435258,0.1494709301926195,-0.0865044484008103,-9.656134028434757,14947.0
23.4,3.0999999046325684,177.0,21.97223854064941,28.7218074798584,-79.78274148671821,40.45898872220331,283.23429420471194,0.010668153874576,-0.0070575228892266,-0.7462236881256104,0.6655724048614502,0.1171970510062237,0.055141184682157,2.629298501142161,-0.0022892446722835,-0.0015397064853459,-0.0629766881465911,0.1345300699397921,-0.1437383108306676,-9.670001869797709,14948.0
23.5,3.0999999046325684,179.0,22.0673942565918,27.38591003417969,-79.78274127521394,40.45898824223717,283.91778591156014,0.0138284042477607,-0.0056896959431469,-0.7462811470031738,0.6654629707336426,0.1072427267425833,0.0515561889204893,2.6972479157520453,0.0253281388431787,0.0474951155483722,0.0451248474419117,0.1860279965400696,-0.1895188939198852,-9.777701734900475,14948.0
23.7,3.0999999046325684,181.0,22.047361373901367,27.855064392089844,-79.78274136519148,40.45898800720473,284.4545948791504,0.0175276584923267,-0.0045495331287384,-0.7465659379959106,0.6650649905204773,0.0833768944460996,0.0440171066294602,2.6674123722472745,-0.0817360207438469,-0.0691619142889976,-0.0746552124619484,0.1573581845685839,0.060723343687132,-9.686998556256295,14949.0
23.8,3.0,185.0,21.99978256225586,28.1572322845459,-79.78274113281736,40.45898765064251,284.8923056411744,0.0173393916338682,-0.0054186834022402,-0.7469415068626404,0.6646416187286377,0.0964453336613934,0.0518540576537015,2.7438185328254043,0.0300645548850297,0.0555503256618976,0.0644198954105377,0.24565430207178,-0.1255854379758239,-9.734975545406344,14949.0
24.0,3.0,185.0,22.073654174804688,28.022050857543945,-79.78274119483245,40.45898752433496,285.1665470886232,0.0152831058949232,-0.007937291637063,-0.7474191188812256,0.6641296744346619,0.1027354618921147,0.0459961684406919,2.7445766739431985,-0.019113965332508,0.0589224360883235,0.0395408570766449,0.1211020945105701,-0.1653700029104948,-9.748281469345091,14950.0
24.1,3.0,188.0,22.11246681213379,26.781574249267567,-79.7827410759645,40.458987188530905,285.87057426452634,0.0098887989297509,-0.0097191324457526,-0.7478394508361816,0.6637349128723145,0.123858111263994,0.0351513061945947,2.817090293575021,-0.0229265689849853,-0.0033475693780928,0.0463128313422203,0.1929822728410364,-0.1942281134985387,-9.769101650118827,14950.0
24.3,3.0,189.0,22.0035400390625,28.11747169494629,-79.78274097458876,40.45898670181519,286.58972385406486,0.0079283937811851,-0.0084748594090342,-0.7472916841506958,0.6643948554992676,0.1225400852508001,0.0299251527058866,2.8909887850243616,0.06363495439291,-0.0200341641902923,-0.0278786588460207,0.1819020915403962,0.1457921453285962,-9.713963575959204,14951.0
24.4,3.0,190.0,22.151281356811523,25.318449020385746,-79.78274103918919,40.458986601642096,286.87865856170663,0.0080920923501253,-0.0078937206417322,-0.7470868229866028,0.6646303534507751,0.1189033838064184,0.0230564804785852,2.8879373794276155,0.0814057290554046,0.0542682185769081,0.0524144545197486,0.1988110880367458,-0.1552433745749294,-9.7376412910223,14951.0
24.5,3.0,191.0,22.097442626953125,26.90085029602051,-79.78274090088316,40.45898625429525,287.2815878677368,0.0088915610685944,-0.0072260606102645,-0.746947169303894,0.6647846698760986,0.1181251468819405,0.0218404404223035,2.9401409899735063,0.0428214780986309,0.0851295515894889,0.0079659819602966,0.1682975576072931,-0.1013686279021203,-9.577296019792556,14952.0
24.7,2.900000095367432,190.0,22.02231979370117,27.218921661376957,-79.782741042577,40.458986060495945,287.8662264633178,0.0107562784105539,-0.0069112870842218,-0.7469584941864014,0.6647477149963379,0.0895957729402409,0.0202403881720226,2.916894090081481,0.0130790024995803,-0.0271982513368129,-0.064784824848175,0.2934058993309737,0.0397290346585214,-9.729674459695817,14952.0
24.8,2.900000095367432,191.0,21.975994110107425,27.77554702758789,-79.78274102248436,40.458985843757375,288.2253325271607,0.0101304361596703,-0.0069833574816584,-0.7472296357154846,0.6644520759582521,0.0748522040748542,0.0179327864632212,2.9673034055948984,-0.0244710184633731,0.0225567780435085,-0.0091847795993089,0.2008075832761824,0.0467958150431513,-9.7822356659174,14953.0
25.01,2.799999952316284,193.0,21.86080551147461,29.501081466674805,-79.78274118834031,40.45898569186495,288.81967952728274,0.0075897476635873,-0.0083182221278548,-0.7472383975982666,0.6644607782363892,0.0857224625080273,0.0016978562217645,2.9775005046182828,0.0613568313419818,0.0751740187406539,0.0766131058335304,0.1789885518886149,-0.3288296108320355,-9.86724190235138,14953.0
25.2,2.799999952316284,193.0,22.103702545166016,26.081817626953125,-79.78274120692213,40.45898547208565,289.45380714416507,0.0076678358018398,-0.0089070750400424,-0.7465047240257263,0.6652764081954956,0.0729790078653648,7.941185333492848e-05,3.023039782728706,-0.0070827971212565,-0.0342313572764396,-0.0336963012814521,0.1144094902463257,-0.1034435397852212,-9.932873389720918,14954.0
25.3,2.799999952316284,192.0,21.9309196472168,28.70590400695801,-79.78274123846954,40.45898538254421,289.7687065887452,0.0085992133244872,-0.0080388784408569,-0.7462925910949707,0.6655139923095703,0.0471806812169546,-0.0057781293771973,3.0213228139410737,-0.0174583401530981,0.0073651485145092,-0.0813722610473632,0.1835393484681844,0.1284672382101416,-9.720731143355373,14954.0
25.5,2.799999952316284,191.0,22.031084060668945,26.84518814086914,-79.78274133673185,40.45898534450604,290.07072475433347,0.0083435615524649,-0.0072011183947324,-0.7464893460273743,0.6653060913085938,0.0425714605530624,-0.0077944576304607,3.0265881502076666,0.0110313929617404,-0.0462836399674415,0.0706543400883674,0.1530113827250898,-0.100903728576377,-9.848634892702105,14955.0
25.6,2.799999952316284,189.0,21.75813674926757,29.49312973022461,-79.78274149655563,40.45898521854888,290.6892111587525,0.0087174531072378,-0.0049546579830348,-0.7470325827598572,0.6647118330001831,0.0305662699754086,-0.0265077387544781,3.0478579899948217,-0.0559552162885665,-0.0253303032368421,-0.0642322674393653,0.10876972284168,-0.0510882195085287,-9.873068068027496,14955.0
25.8,2.799999952316284,190.0,21.924659729003903,27.60855865478516,-79.78274161330769,40.4589850742754,291.3055546569824,0.0066099497489631,-0.0043120761401951,-0.74709153175354,0.6646743416786194,0.0148204473352658,-0.0306248585959681,3.076326248351456,-0.0535364635288715,-0.03455251455307,-0.0726847797632217,0.2029657174833119,0.0164602135587483,-9.952334092855454,14956.0
25.9,2.5999999046325684,193.0,21.945945739746094,27.354103088378903,-79.78274171717564,40.458985044202784,291.61320426940915,0.0040157069452106,-0.0045186546631157,-0.7467593550682068,0.6650668382644653,0.0466694969109568,-0.034213431302083,3.0791573176834937,0.0884504541754722,-0.0016450134571641,0.0617371760308742,0.2248014865256846,-0.191619177237153,-9.86555790424347,14956.0
26.01,2.5,195.0,21.932172775268555,27.5369930267334,-79.78274181334699,40.45898501470488,291.921134262085,0.0026541228871792,-0.0043578180484473,-0.7463877201080322,0.6654918789863586,0.0419641286112563,-0.0331828181398056,3.0804372925826384,-0.0189415719360113,0.0006460224976763,0.0110293263569474,0.1437844124715775,-0.0542918495787307,-9.811013907194136,14956.0
26.2,2.5,198.0,21.85454559326172,28.713855743408203,-79.78274193431416,40.45898489059977,292.53960350036624,0.0019705879967659,-0.0052268970757722,-0.745693027973175,0.6662662029266357,0.0320807611067692,-0.0331355352849997,3.0641818385631487,-0.0472181551158428,0.0327238254249095,-0.0737223029136657,0.2031241587549448,0.1587253001332283,-9.687795531749726,14957.0
26.31,2.5,199.0,21.90462684631348,26.89289855957031,-79.78274196709275,40.458984817325465,292.85012939453134,0.0028089950792491,-0.0058649466373026,-0.7454914450645447,0.6664835214614868,0.0281163304719232,-0.0189282982456311,3.0669292650454536,-0.0028635463677346,0.0104831736534833,0.0006400637794286,0.2034122072160244,0.146338923946023,-9.753690143823622,14957.0
26.51,2.400000095367432,199.0,21.97974967956543,26.550973892211918,-79.78274206742493,40.45898479633734,293.47036102294925,0.0054246047511696,-0.0055085918866097,-0.745412290096283,0.6665589213371277,0.0005764724886003,-0.0040971615253057,3.0549891431579264,-0.0271084085106849,0.0385534390807151,-0.0022179221268743,0.2139982074312865,-0.067581200315617,-9.67837976038456,14958.0
26.7,2.400000095367432,201.0,22.3641300201416,22.24906349182129,-79.7827421584258,40.45898481201235,294.0761120605468,0.006921790074557,-0.0054935100488364,-0.7456243634223938,0.6663079857826233,-0.0020009251457768,0.0130846707105301,2.989886717555214,0.1012660786509514,0.0264252573251724,0.1105764210224151,0.199155909307301,0.252282760553062,-9.600199563503264,14959.0
26.8,2.299999952316284,203.0,22.28900718688965,22.54327964782715,-79.7827421234305,40.45898481594392,294.3868897247315,0.0072467098943889,-0.0062872669659554,-0.7456497550010681,0.6662690043449402,-0.0157070028433001,0.0156877084154147,2.924831065484931,0.0295317899435758,-0.0191761571913957,0.0462104305624961,0.2185107595659792,-0.2364965939149261,-9.05613602757454,14959.0
26.9,2.299999952316284,207.0,22.54818153381348,20.15774726867676,-79.78274215905863,40.458984828473,294.67423942565915,0.0078058782964944,-0.0064672040753066,-0.7459490895271301,0.6659259200096129,-0.0134068832371711,0.0240339021834455,2.8173191521940115,0.0694310292601585,0.0695800334215164,0.0585442744195461,0.180975600220263,-0.0334740213956683,-8.771121686697006,14959.0
27.1,2.299999952316284,210.0,22.508115768432614,21.14376640319824,-79.78274219183228,40.45898479707167,295.23807266235355,0.0106699354946613,-0.0043408451601862,-0.746806800365448,0.6649413704872131,-0.0408062818595674,0.0292258690449367,2.5824996306439383,0.0083613395690917,-0.0135150821879506,-0.042450301349163,0.222608744110912,0.0536851689778268,-8.378515069484711,14960.0
27.3,2.299999952316284,211.0,22.63582420349121,19.97485542297364,-79.78274215186764,40.45898475944456,295.7336533355713,0.0127703510224819,-0.0037556840106844,-0.7474607825279236,0.6641726493835449,-0.0506618519741239,0.0297830594803222,2.2970192834784657,-0.0113689983263611,-0.0111617259681224,0.0068224412389099,0.1610473391041159,-0.0798425237461924,-8.231434206962586,14960.0
27.4,2.299999952316284,211.0,22.47430992126465,21.34256172180176,-79.78274217144273,40.45898477749888,295.955106048584,0.0128603363409638,-0.0045171449892222,-0.7476240396499634,0.6639823317527771,-0.0458946994352701,0.0287046924088808,2.1354122587203648,-0.0158359538763761,-0.0036741350777447,0.0351603217422962,0.1536671296879649,-0.1852687538601458,-8.240069375038146,14960.0
27.5,2.299999952316284,210.0,22.439252853393555,21.676536560058597,-79.78274212505676,40.4589847559136,296.1737664031984,0.0125347515568137,-0.0062205544672906,-0.7476397156715393,0.6639571189880371,-0.0504623219236774,0.0300892207048405,2.0216753695050818,-0.0568637698888778,0.0222717002034187,0.0169901605695486,0.1422259102296084,-0.0715524875745177,-8.384189207553863,14961.0
27.7,2.299999952316284,208.0,22.191347122192383,24.02230834960937,-79.78274216375317,40.4589847949306,296.5561650085449,0.0116524947807192,-0.0078439088538289,-0.7474362850189209,0.6641850471496582,-0.0429082608229907,0.0293280099954755,1.8262741493099928,-0.0342418923974037,-0.0614186078310012,-0.0044996403157711,0.2113566363975405,-0.0701157261896878,-8.90385114312172,14961.0
27.8,2.299999952316284,208.0,22.16254997253418,24.54712677001953,-79.7827420954747,40.45898476604204,296.7645943450928,0.0116390911862254,-0.0075224288739264,-0.7471175789833069,0.6645474433898926,-0.0372044804121086,0.0302599870768325,1.8042424665546268,0.0192774999886751,-0.0238651260733604,-0.0390542298555374,0.246772381067276,-0.0664721525274217,-9.168481505513194,14961.0
28.01,2.200000047683716,210.0,22.277738571166992,22.96472358703613,-79.78274201017766,40.45898476242631,297.169877319336,0.0124441953375935,-0.0066043380647897,-0.7465037107467651,0.6652321219444275,-0.0593772939045905,0.0366862842301228,1.7675748077530855,-0.114447571337223,-0.077326163649559,-0.048796497285366,0.1855865500308573,0.008198495269753,-9.287068301439287,14962.0
28.2,2.200000047683716,209.0,22.355365753173828,22.31267738342285,-79.78274203563139,40.458984817167455,297.5123455810546,0.0141257010400295,-0.0047219870612025,-0.7461429238319397,0.6656191945075989,-0.0348422042587278,0.0277375510638758,1.6601985093684983,0.1105787083506584,0.1107351183891296,0.0294433739036321,0.2907549179345369,-0.2151116451993584,-9.30228918850422,14962.0
28.31,2.0,209.0,22.339088439941406,22.304725646972656,-79.78274192016322,40.45898480008032,297.7361977386475,0.0153951970860362,-0.0036191877443343,-0.7461910247802734,0.6655440926551819,-0.047364083033971,0.0375103046896024,1.6623018608321871,0.053149364888668,-0.0295150782912969,0.0460308380424976,0.1682587832584977,-0.1504186816234141,-9.147607530355453,14962.0
28.4,2.0,209.0,22.371641159057614,21.92304039001465,-79.78274192548056,40.45898482343009,297.8989613342285,0.0162898413836956,-0.0029264530166983,-0.7463541030883789,0.6653433442115784,-0.0524489298757799,0.0370182189379315,1.5917316203308467,-0.0175804123282432,-0.057771235704422,-0.0469099059700965,0.2302018287219107,-0.1174348761700093,-9.1124932461977,14962.0
28.6,1.8999999761581416,209.0,22.319055557250977,22.52737617492676,-79.78274182844626,40.45898481245378,298.2667420196533,0.0158145725727081,-0.0038842207286506,-0.7466164827346802,0.6650554537773132,-0.0380624219402109,0.0378632241698338,1.5141894511665992,-0.0041988496668636,-0.0048869936726987,-0.0173185337334871,0.3164113673195243,-0.2087068792618811,-9.1805969363451,14963.0
28.7,1.7999999523162842,209.0,22.478065490722656,19.6965446472168,-79.78274183200486,40.45898482254208,298.4155304718018,0.0144894244149327,-0.0046958709135651,-0.746624231338501,0.6650717258453369,-0.0251694740857835,0.035895557652916,1.4538678253264952,0.0403157696127891,-0.0033365632407367,0.0813646391034126,0.2701800461299717,-0.3129832544177771,-9.19375434100628,14963.0
28.9,1.7000000476837158,209.0,22.75226593017578,17.318964004516598,-79.78274167953595,40.45898483795227,298.7193787384033,0.009218480437994,-0.0043120430782437,-0.7353032827377319,0.6776618957519531,-0.0648248774500461,0.0322149933867059,1.0673228037850495,-0.0571847930550575,-0.0542374663054943,-0.6580364108085632,0.1411483414750546,-0.247429023385048,-7.429347662329675,14963.0
29.1,1.600000023841858,209.0,22.47430992126465,21.000635147094727,-79.7827416301685,40.45898497481228,298.8598034667968,0.0078059090301394,-0.0034303336869925,-0.6771971583366394,0.735752284526825,-0.0702189870981314,0.0204766460179175,0.6915681031173521,0.0139712942764163,0.0072176954708993,-0.869170069694519,0.0857998132333159,-0.0716202558903023,-8.053221598863603,14963.0
29.2,1.600000023841858,206.0,22.478065490722656,21.09605598449707,-79.78274161585823,40.458985031195176,298.92265251159665,0.0092036509886384,-0.0026475600898265,-0.6442388296127319,0.7647644281387329,-0.0616437348477486,0.0263885236510087,0.5678738106258336,0.0640929117798805,0.0143416216596961,-0.800710141658783,0.1667894510552287,-0.1334170798491686,-8.458561112880707,14963.0
29.3,1.5,200.0,22.4567813873291,21.930992126464844,-79.78274159275756,40.458985133132856,298.91688659667966,0.0111184325069189,-0.0016868400853127,-0.6129876971244812,0.7900123596191406,-0.066659475768419,0.0381846346626077,0.4701036910192792,-0.0117748389020562,-0.0145808551460504,-0.7951840758323669,0.1773217665217817,0.0966033390071243,-8.799258488416672,14963.0
29.5,1.5,203.0,22.355365753173828,22.980627059936523,-79.78274157765672,40.45898530633411,298.9106381225586,0.0120335584506392,-0.0006057525170035,-0.5656771063804626,0.8245389461517334,-0.0295034286380266,0.0627961345059552,0.3345616704206825,0.0570574253797531,0.0266298316419124,-0.3367907702922821,0.2169551078416407,-0.0488427881989628,-9.257137573957444,14963.0
29.7,1.399999976158142,205.0,22.21388435363769,23.664478302001957,-79.78274152404411,40.45898534317293,298.94333198547366,0.014342825859785,2.0367815523059107e-05,-0.55079185962677,0.8345194458961487,-0.0177424202046025,0.0733641079085529,0.3277291844232614,0.0366102643311023,-0.0030531464144587,-0.3061941564083099,0.3836764205619693,0.0332649834360927,-9.664563959240915,14963.0
29.8,1.399999976158142,197.0,22.15629005432129,23.96664619445801,-79.78274129891332,40.458985481878045,298.9272682952881,-0.0074772094376385,0.0233912412077188,-0.5372461676597595,0.8430679440498352,0.0052397186920809,0.1921282778256344,0.3211135364593303,-0.0710954293608665,-0.6541600227355957,-0.0877687335014343,0.595835550762713,0.0601259501092136,-9.772411174178124,14963.0
29.9,1.2999999523162842,188.0,22.20011138916016,24.23700714111328,-79.78274103131268,40.458985536242416,298.95971611022946,-0.0333533138036727,0.0406012348830699,-0.5363258123397827,0.8423738479614258,0.0402842906234032,0.2682556646702916,0.3389293516520753,-0.0156893767416477,-0.629136323928833,-0.0009433103259652,0.2876035245135426,0.0365643570944666,-9.83105348467827,14963.0
30.1,1.2999999523162842,187.0,22.151281356811523,24.84134101867676,-79.78274001189524,40.45898601902713,298.9862740325928,-0.0716320648789405,0.0619562640786171,-0.5402498245239258,0.8361582159996033,0.0549547805680162,0.5194837505833907,0.4379277357571574,-0.0958286896347999,-0.3334816396236419,0.0002794462780002,0.0601079836254939,0.0404144836496561,-9.934187843799592,14963.0
30.2,1.2999999523162842,185.0,22.17256546020508,24.05411529541016,-79.78273924386588,40.45898620821164,299.02149894714364,-0.0815297961235046,0.0659179762005806,-0.5440415740013123,0.8324821591377258,0.0867286445118651,0.7024107054944784,0.4958910358570381,0.1006852984428405,-0.069846473634243,0.2091827690601349,0.0606174177210778,-0.1572763600945473,-10.009049745798114,14964.0
30.4,1.2999999523162842,168.0,22.0423526763916,25.20712280273437,-79.7827373869565,40.458987106543134,299.05902984619144,-0.089843712747097,0.0700839608907699,-0.5516536235809326,0.8262534141540527,0.0595439003065746,1.1025384848415491,0.6349543316315869,0.0824598371982574,0.0038175934460014,0.0727658793330192,0.1509358038939535,-0.0668427563644945,-10.120777173042296,14964.0
30.6,1.2999999523162842,164.0,22.14627265930176,24.06206703186035,-79.78273483191005,40.458988391746026,299.04813888549813,-0.0970242619514465,0.0781922191381454,-0.5561171770095825,0.8217092156410217,-0.0042383154670699,1.527744251073608,0.7462049139495196,-0.0380268655717372,-0.1997057646512984,-0.0193776898086071,0.0144028319022618,-0.0039905054122209,-10.079466594457628,14964.0
30.7,1.399999976158142,154.0,22.043603897094727,25.270736694335927,-79.78273287068896,40.4589889781488,299.08390739440915,-0.1004849895834922,0.0824580267071724,-0.5571844577789307,0.8201518058776855,0.0162846733363587,1.7658526748180934,0.8126479611608267,0.1477550715208053,-0.0407496765255928,0.1605415940284729,0.0143734587798826,-0.3355382675305009,-10.051457262039184,14964.0
30.8,1.399999976158142,147.0,21.922155380249023,26.02615547180176,-79.78273123497266,40.4589901649361,299.0017807769776,-0.104778878390789,0.0856033340096473,-0.5567459464073181,0.8195897340774536,-0.041001668153278,1.9819200596843167,0.8629770020058036,0.0358362607657909,-0.1101874634623527,0.0117376493290066,0.0628852466074749,-0.3500051195919514,-10.195035642385482,14964.0
31.0,1.600000023841858,129.0,22.04110145568848,26.10567283630371,-79.78272636155313,40.45899246079843,298.9541561889649,-0.1146555691957473,0.0914556384086608,-0.5549763441085815,0.8188353180885315,-0.1029109533891856,2.4742217258721744,1.041695786010449,-0.1662058383226394,-0.1451889127492904,-0.0851051732897758,-0.1751240357011556,0.1827458813041448,-10.215905524492264,14963.0
31.21,1.7000000476837158,121.0,21.93592834472656,26.495309829711918,-79.78272331211961,40.458993445466064,298.9858868408204,-0.1190240085124969,0.0945671051740646,-0.553706169128418,0.8187183737754822,-0.0725603961588797,2.73301202166804,1.1631756419890371,-0.0171306934207677,-0.170426532626152,-0.0079718148335814,-0.1522137402836233,-0.1527689060010016,-10.369930540323258,14963.0
31.3,2.0,107.0,21.978498458862305,25.42182159423828,-79.78271652180827,40.45899631287583,298.9591458129883,-0.1245718821883201,0.1022875234484672,-0.5504856705665588,0.8191366195678711,-0.0898770539774905,3.253758613204472,1.398694014872282,0.0106555800884962,-0.0244526509195566,-0.067490354180336,-0.3648566088080407,0.0734637139644473,-10.350599645376208,14963.0
31.5,2.200000047683716,101.0,22.05111694335937,24.984474182128903,-79.78270856702062,40.45899977808532,298.9464772033692,-0.1206059232354164,0.105040542781353,-0.5490244626998901,0.8203614354133606,-0.1112120328038408,3.775318029812973,1.5965491192272694,0.0014174837851896,0.0900097787380218,-0.125769168138504,-0.3125581252947449,0.007763530947268,-10.26502564430237,14963.0
31.6,2.5999999046325684,87.0,22.137508392333984,24.01435661315918,-79.7827039805516,40.4590012668946,298.97789505004886,-0.1179407462477684,0.1046551540493965,-0.5492930412292479,0.8206183910369873,-0.0849658039040857,4.045576331725096,1.6547290725851784,-0.0495192259550094,-0.0176012404263019,-0.0580754615366458,-0.4223847689107061,-0.1568866066262126,-10.092369060516358,14963.0
31.7,2.900000095367432,82.0,22.2426815032959,22.551231384277344,-79.78269909449429,40.459002826379134,299.0066006469727,-0.116785429418087,0.1041170582175254,-0.5497708916664124,0.8205320835113525,-0.0476433871146374,4.307333591308908,1.6743220773381993,-0.0008318905020132,-0.0063212160021066,0.0154756773263216,-0.4562255660444498,-0.2436627952381969,-9.766968585848806,14964.0
31.9,3.400000095367432,75.0,22.1062068939209,23.942790985107425,-79.78268916620894,40.45900731593953,298.96574333190915,-0.1154482811689376,0.1023043245077133,-0.5496286749839783,0.8210443258285522,-0.0954313066887053,4.789200670944923,1.6793508558236858,-0.0629958808422088,0.037594586610794,-0.0772301033139228,-0.6407758980989456,0.1384861955512315,-9.674542817473412,14963.0
32.1,3.5999999046325684,72.0,22.17256546020508,23.17146873474121,-79.78268424389384,40.45901040374382,298.9138768005372,-0.1132392138242721,0.102512702345848,-0.5487876534461975,0.8218882083892822,-0.1721608155893335,5.014515403443706,1.6765029476900692,0.0883164256811142,0.0008049416355788,-0.0129666412249207,-0.5795400550961495,-0.1230219089984894,-9.693428154587746,14963.0
32.2,4.199999809265137,69.0,22.15879440307617,23.322553634643555,-79.78267234491891,40.459014370727786,298.9235585021973,-0.1105131655931472,0.1058131828904152,-0.5517886281013489,0.8198290467262268,-0.1302176855899999,5.460263319110376,1.7011428645721132,0.1068213507533073,0.0206926688551902,0.0398405529558658,-0.7479304372519255,-0.1741984580084681,-9.638884157538415,14963.0
32.4,4.400000095367432,68.0,22.170061111450195,23.64857482910156,-79.78266011991356,40.459019742987,298.8709252166748,-0.1092976629734039,0.106532484292984,-0.5519063472747803,0.8198196887969971,-0.1812437343338826,5.860253966288568,1.7518546644393362,0.0079260254278779,0.0916812866926193,0.0458837375044822,-0.8458551464974878,-0.4141306565701961,-9.6258787804842,14963.0
32.5,5.0,66.0,22.02983283996582,24.642547607421875,-79.7826540775737,40.45902342449812,298.82904556274417,-0.1070468872785568,0.1049569547176361,-0.5503639578819275,0.821355402469635,-0.2881080486700027,6.037614871577071,1.7769500811590415,0.0691298767924308,0.1187792792916298,0.1674972027540207,-1.0768088357895609,-0.4441128395497799,-9.818969628810883,14963.0
32.7,5.199999809265137,65.0,22.26146125793457,22.209304809570312,-79.7826472053556,40.459025777867694,298.8218109893798,-0.0971371531486511,0.0991305559873581,-0.5525168776512146,0.8218653202056885,-0.2344139289185456,6.2035846853799175,1.8182558890735403,-0.0258169695734977,0.3541094958782196,0.0261984821408987,-1.2674056273698808,-0.3066263442859053,-9.998286191225054,14963.0
32.8,5.599999904632568,65.0,22.12874412536621,23.71219062805176,-79.7826336792587,40.45903220655618,298.77613761901864,-0.0636434629559516,0.0821599438786506,-0.5550543665885925,0.8252962231636047,-0.3326587272053408,6.551512949875704,1.5034916427965723,-0.0031297968234866,0.3460779786109924,-0.1584649533033371,-0.9435029169917108,-0.0253631932474672,-9.92465454339981,14963.0
33.0,5.9000000953674325,67.0,22.436748504638672,21.35846519470215,-79.78261953339252,40.45903927338953,298.71807792663583,-0.0395730696618557,0.066676840186119,-0.5544279217720032,0.8286119699478149,-0.3781141319161357,6.805525040264222,1.0418921612953629,-0.0198566764593124,0.2863472700119018,0.0006697896169498,-0.8254536263644696,-0.4547933636605739,-9.668614325523375,14963.0
33.1,6.300000190734862,66.0,22.250192642211918,22.28087043762207,-79.78261214342952,40.45904187607736,298.7096607971192,-0.0292700491845607,0.0595237389206886,-0.5546714067459106,0.82942134141922,-0.2984288676365671,6.8414240148392365,0.8571797302197034,-0.0693167150020599,0.2635683715343475,-0.0807795822620391,-1.1409436552226544,-0.0390100098587572,-9.61999648153782,14963.0
33.2,6.4000000953674325,65.0,22.402942657470703,20.68256378173828,-79.78260474437045,40.459044451003535,298.7011425781251,-0.0172861479222774,0.049203235656023,-0.5541281700134277,0.8307961821556091,-0.2398435788153564,6.848172563312992,0.6935060937006123,0.0719219371676445,0.2533987462520599,0.0974135398864746,-1.076457856670022,-0.5816582089662552,-9.731476571559906,14963.0
33.4,6.800000190734862,78.0,22.21388435363769,22.75002479553223,-79.78258996515275,40.45905108965444,298.6422741699218,-0.0037593266461044,0.0353360995650291,-0.5510846376419067,0.8336923718452454,-0.2231852071802708,6.842219268517237,0.3280505832024414,-0.07864560931921,0.0896361842751503,0.0384922102093696,-0.9623882541060448,-0.2416263379342854,-9.935691747665404,14963.0
33.61,6.9000000953674325,83.0,22.586994171142567,18.392452239990234,-79.78258215950292,40.4590551297141,298.5722439575196,-0.0014499834505841,0.0291808433830738,-0.5478674173355103,0.8360548615455627,-0.2524274575287244,6.861749594755437,0.2547931937578476,-0.0156175512820482,0.0456057153642177,-0.0817319974303245,-0.8483366317301989,-0.318146016933024,-10.08675690293312,14963.0
33.7,7.099999904632568,82.0,22.453025817871094,20.63485336303711,-79.78256763862925,40.45906029499103,298.5678379821777,0.0052534556016325,0.0231372993439436,-0.5444653630256653,0.8384477496147156,-0.1250134785866484,6.712604515307148,0.1500559673410248,0.0766852349042892,0.1160101071000099,0.0178060643374919,-0.9482857201248408,-0.4235437601432204,-9.73975096642971,14963.0
33.9,7.199999809265138,81.0,22.34409713745117,21.24713897705078,-79.78255243584299,40.459066955962896,298.45829704284665,0.0254527051001787,0.0131033863872289,-0.5411618351936339,0.8404310345649719,-0.094355506997633,6.591144722025372,-0.1089449995021314,-0.017037870362401,0.3037236034870148,0.041538119316101,-1.3332306575775148,-0.4378102719783783,-9.600054552555084,14963.0
34.0,7.199999809265138,85.0,22.251445770263672,21.827619552612305,-79.78254430839031,40.4590706435889,298.3533890533448,0.0368794240057468,0.0027182691264897,-0.5395746827125549,0.8411252498626709,-0.1106589586059913,6.536743865958606,-0.2976058573239979,-0.0422284938395023,0.363936573266983,0.1398387551307678,-0.9359546732157468,-0.6281502977013588,-9.88979344367981,14963.0
34.21,7.199999809265138,93.0,22.62580871582031,18.26522445678711,-79.78253741390989,40.45907315247106,298.3435833740235,0.0464039556682109,-0.0068840025924146,-0.5390109419822693,0.8409914374351501,-0.0742514840901954,6.389449698837647,-0.4711181577409642,-0.0655789300799369,0.2337685823440552,-0.1118153482675552,-0.6515979248285294,-0.3251984168216586,-9.957270312309266,14963.0
34.3,7.199999809265138,93.0,22.5744743347168,19.092208862304688,-79.7825231755202,40.4590781952617,298.2530892181397,0.0489778369665145,-0.0136535335332155,-0.5391738414764404,0.8406582474708557,-0.0614962628249444,6.1036518136716005,-0.7273252197221359,-0.1252649426460266,-0.0687615126371383,-0.1140610799193382,-0.9848935293406248,-0.4946601550653577,-9.527556095123291,14963.0
34.5,7.199999809265138,94.0,22.37038993835449,21.485692977905277,-79.78250968860722,40.459083009895615,298.1735375213624,0.0496283918619155,-0.0207437593489885,-0.537880539894104,0.8413033485412598,-0.0759241793989814,5.804240052485572,-0.7694413379367411,0.0310908146202564,-0.026626069098711,0.1026510819792747,-1.0845286953449251,-0.4768071073293686,-9.7312730884552,14963.0
34.6,7.099999904632568,99.0,22.32781982421875,21.34256172180176,-79.78250356066991,40.45908526133498,298.15696838378915,0.0474671386182308,-0.0209699720144271,-0.5374069809913635,0.8417249321937561,-0.0795657380467255,5.627296250078619,-0.7657461551331111,0.0628435313701629,-0.0511012487113475,-0.0810383632779121,-0.8802334123849869,-0.3605075228959321,-9.806181183457374,14963.0
34.7,7.099999904632568,99.0,22.352861404418945,21.37436866760254,-79.78249762189478,40.45908745863371,298.1417343902588,0.042364414781332,-0.0180515758693218,-0.5364347100257874,0.8426845073699951,-0.0892354634610988,5.471240124231282,-0.7086114643595891,0.0326355956494808,-0.1766251772642135,0.0497425310313701,-0.7276973900198936,-0.3332429430261254,-10.005147314071657,14963.0
34.9,7.0,99.0,22.61078453063965,18.336790084838867,-79.78248569934766,40.45909166609218,298.07005432128915,0.0241697505116462,-0.0106758903712034,-0.5356022119522095,0.8440569043159485,-0.0744902169088401,5.233839626762955,-0.5315355226745734,-0.1242570728063583,-0.2612021863460541,0.0254727434366941,-0.8681108918040992,-0.6756202601641417,-9.756359397768977,14963.0
35.0,6.9000000953674325,99.0,22.488082885742188,20.13389205932617,-79.78247963961397,40.459093682229366,298.0114682006836,0.0065741799771785,-0.0102936057373881,-0.5355645418167114,0.8444060683250427,-0.0728468051361838,5.164280932756762,-0.4714269916435884,-0.1445375829935074,-0.2062297761440277,0.1219450011849403,-0.8167673682421446,-0.6502798893302679,-9.500702172517776,14963.0
35.2,6.699999809265138,92.0,22.478065490722656,19.79196548461914,-79.78246884005429,40.45909775811512,297.9612076568604,-0.0159049890935421,0.0029508278239518,-0.5352285504341125,0.8445524573326111,-0.1189682366656676,5.015976306392507,-0.2691944132963072,0.2395276129245758,-0.0630708932876586,0.0502285845577716,-0.9487180486321448,-0.2379037994518876,-9.386269238591195,14962.0
35.4,6.599999904632568,88.0,22.29151153564453,21.978702545166016,-79.78245804730821,40.45910155462354,297.88262870788583,-0.0246888268738985,0.0160564240068197,-0.5351040959358215,0.8442727327346802,-0.1457783245660003,4.934105826584182,-0.1726042594463752,-0.0408975407481193,-0.0064076418057084,-0.0132198482751846,-1.021991481408477,-0.0418692526314407,-9.17022339105606,14962.0
35.5,6.5,88.0,22.141263961791992,23.43387794494629,-79.78245277096055,40.45910335833778,297.8326351928711,-0.0264127254486084,0.0153429042547941,-0.5350009799003601,0.8442991375923157,-0.1292371931569255,4.902455220800488,-0.1305114349748091,0.0500324517488479,0.0250126253813505,-0.0037196124903857,-0.9073211505264044,-0.4939751537516714,-9.537378832697868,14962.0
35.6,6.4000000953674325,89.0,22.143768310546875,23.227130889892567,-79.78244763961021,40.45910535440411,297.79047706604007,-0.0258650332689285,0.0156547576189041,-0.535281240940094,0.844132661819458,-0.1757608675348328,4.892555312636468,-0.1205391566386906,-0.0995355397462844,0.0031978387851268,0.0515183992683887,-0.8054544677585364,-0.1824924227781593,-9.694508135318756,14962.0
35.81,6.300000190734862,86.0,21.994773864746094,25.46953201293945,-79.78243729305484,40.45910909478802,297.7168343353272,-0.0349665656685829,0.0165185313671827,-0.5328391790390015,0.8453324437141418,-0.1982742072967593,4.8536492646481815,-0.0688243631340206,-0.0635669380426406,-0.113623023033142,0.0911966040730476,-0.7341443107277156,-0.5116670010611415,-9.779636578559876,14962.0
36.01,6.300000190734862,83.0,22.09368705749512,23.855321884155277,-79.78242704290201,40.45911274165395,297.64008644104007,-0.0392575822770595,0.0213185269385576,-0.5300083160400391,0.8468149900436401,-0.1760679706666767,4.846695470835648,0.0451992430527322,-0.0553240291774272,-0.0907406359910965,-0.0818495154380798,-0.7866314765810967,-0.2754871800541877,-9.809364407658578,14962.0
36.1,6.199999809265138,83.0,22.13625717163086,23.441829681396484,-79.78242198616417,40.45911478200155,297.6041653442383,-0.0416999757289886,0.0256978627294302,-0.5296239852905273,0.8468170762062073,-0.190249534087434,4.862129351292834,0.0796554381433153,-0.0469466596841812,-0.080055259168148,-0.0164100266993045,-0.8665093394368888,-0.3082687175273895,-9.797202783823014,14962.0
36.2,6.099999904632568,83.0,21.99101829528809,24.96061897277832,-79.78241692090366,40.45911685184995,297.56928565979007,-0.0437733419239521,0.0296906307339668,-0.5303373336791992,0.8461351990699768,-0.2011704283225288,4.885153857599192,0.1412254731094927,0.0106483316048979,-0.0606338940560817,0.0184337589889764,-0.9887878480553628,-0.1451277463138103,-9.883686611652372,14962.0
36.4,6.099999904632568,81.0,21.914644241333008,26.08976936340332,-79.78240674273232,40.459120862069575,297.4912998962402,-0.047705303877592,0.0435733497142791,-0.5314885973930359,0.8445978164672852,-0.2196183098884334,4.927065752361984,0.3017235489267946,-0.0671646296977996,-0.1257329285144806,0.0704626217484474,-1.03143371142447,-0.3262752546742559,-10.120696481466291,14962.0
36.5,6.0,78.0,21.81072425842285,26.88494682312012,-79.78240175334356,40.45912272268987,297.42519882202146,-0.0538140758872032,0.0433587692677974,-0.5310255289077759,0.8445330262184143,-0.2054602128464316,4.9416174347141535,0.3963792270182943,-0.1352690309286117,-0.024197056889534,-0.2348771244287491,-0.6998957799375057,0.0206431015022099,-10.297689360380174,14962.0
36.7,6.099999904632568,77.0,22.084922790527344,24.32447624206543,-79.78239131290421,40.45912697249722,297.39150741577146,-0.0632080659270286,0.042121835052967,-0.5301911830902101,0.8444690108299255,-0.2193417591469798,5.040899378054755,0.6033361280868901,-0.0082913851365447,-0.0771755054593086,0.0881210714578628,-0.8397482413798572,-0.3009177807345986,-10.153002347946169,14962.0
36.9,6.0,77.0,21.9309196472168,25.437725067138672,-79.78238623934594,40.45912911738158,297.31631210327146,-0.0643183141946792,0.0440774783492088,-0.5299752950668335,0.8444207906723022,-0.2305349880373969,5.079208034512772,0.6183313219124834,0.0704509019851684,-0.0811085328459739,0.0189561042934656,-0.855509776622057,-0.1172528907191008,-10.092191305160524,14962.0
37.0,6.099999904632568,74.0,21.793193817138672,27.354103088378903,-79.78237568152349,40.459133486145454,297.2421257781984,-0.065312311053276,0.0482554361224174,-0.5309814810752869,0.8434834480285645,-0.2502642946162986,5.1752878937203874,0.7326623471974905,-0.0138220600783824,0.0937120914459228,-0.0326791256666183,-0.9453614544868468,-0.1280481390282511,-10.30989366889,14962.0
37.1,6.099999904632568,75.0,22.101198196411133,22.50352096557617,-79.78237021702553,40.45913574912748,297.23507621765134,-0.0639164373278617,0.0465730018913745,-0.5310878753662109,0.8436180949211121,-0.2758578185120904,5.2369935108843295,0.8134201550672342,-0.0154073955491185,0.0406123735010623,0.0092549053952097,-0.8709750773012639,-0.1724451338499784,-10.393224678039552,14962.0
37.3,6.099999904632568,75.0,21.85204124450684,26.964466094970703,-79.78235905034009,40.45914037818547,297.19417312622073,-0.064018540084362,0.0424733236432075,-0.5298429131507874,0.8446088433265686,-0.3006119388075867,5.365248851258282,0.7867589437463398,-0.1400308459997177,0.0484993867576122,0.0229383055120706,-1.0043132288753986,-0.0873940383084118,-10.012155786752704,14962.0
37.4,6.199999809265138,74.0,21.716819763183597,27.314342498779297,-79.78235341037465,40.45914275230008,297.1922829437256,-0.0640285015106201,0.0388164520263671,-0.5291004180908203,0.8452492952346802,-0.3111032232552842,5.410851788547177,0.8507585839511312,-0.0680919215083122,0.0403293333947658,-0.092741310596466,-0.9686372465640308,-0.1225804624892771,-10.319536896944047,14962.0
37.6,6.199999809265138,76.0,21.944692611694336,24.96857070922852,-79.78234198989887,40.45914767753408,297.1730587768555,-0.0542039163410663,0.0396488532423973,-0.5294036865234375,0.8457078337669373,-0.3090599383892064,5.509666565312916,0.8573090431622967,0.1401455104351043,0.0918996036052704,0.2303005009889603,-0.9736152736097576,-0.2338902340829372,-10.227581244707109,14962.0
37.8,6.199999809265138,76.0,21.924659729003903,25.68422889709473,-79.78233053227426,40.4591527744997,297.1533825683593,-0.0447474420070648,0.0457613058388233,-0.5324497222900391,0.8440385460853577,-0.3534484147400385,5.572823723869318,0.8318944544014765,0.0809750482439994,0.1307377666234969,-0.0727996602654457,-0.94723132096231,-0.0792665181867778,-10.164206782579422,14962.0
37.9,6.199999809265138,76.0,21.776918411254886,26.92470741271973,-79.78232470935309,40.45915526026217,297.16663291931155,-0.038103349506855,0.0451788716018199,-0.5343531966209412,0.8431926369667053,-0.3734679468698929,5.594913686822643,0.8534609310214565,-0.0153355998918414,0.1002885922789573,-0.0389347933232784,-0.9428950989246369,-0.3022706619836389,-10.310726312398913,14962.0
38.0,6.300000190734862,76.0,22.02357292175293,24.165441513061523,-79.78231882787532,40.45915798739015,297.160298614502,-0.0331726484000682,0.0423380136489868,-0.5354874134063721,0.8428288698196411,-0.4092904331803235,5.615963979627578,0.8021419409001274,-0.0642621740698814,0.0160346385091543,-0.0432109571993351,-0.8451021713018417,-0.2258368091471493,-10.199649095535277,14962.0
38.2,6.300000190734862,77.0,22.004791259765625,23.410022735595703,-79.78230706541446,40.459162947750286,297.19949462890634,-0.032561469823122,0.0414740480482578,-0.5364574790000916,0.8422785997390747,-0.3840544496579629,5.6480776902191865,0.7565931923983684,-0.0860838741064071,-0.0472090542316436,-0.025308933109045,-0.8335795019567013,-0.276019733492285,-10.000982927083973,14962.0
38.4,6.300000190734862,76.0,22.02732849121093,24.276765823364247,-79.78230109331331,40.45916557396578,297.206441192627,-0.0330851152539253,0.0397327169775962,-0.5364152193069458,0.8423689007759094,-0.3725686575999872,5.658337513737093,0.7380786477550803,-0.0926322042942047,-0.0392703413963317,-0.0236856639385223,-0.927329153046012,-0.1870434751734137,-9.728717270493508,14962.0
38.5,6.199999809265138,75.0,22.008546829223643,23.529298782348643,-79.78228911056802,40.45917061971079,297.2431042480468,-0.0334718897938728,0.0359389707446098,-0.5349586009979248,0.843449592590332,-0.3249020579689986,5.6844577470106685,0.6949372726329085,-0.0089695304632186,0.0681196674704551,0.1213337033987045,-0.9328908053040504,-0.2607016547396779,-9.699908623695372,14962.0
38.7,6.199999809265138,75.0,21.78693389892578,26.46350288391113,-79.78227716659059,40.459175513082215,297.26895263671884,-0.0327211953699588,0.0267734322696924,-0.5330076217651367,0.8450536131858826,-0.2838971136920654,5.715279644490884,0.6198870948347301,-0.0601771771907806,0.0470646806061267,0.0849231258034706,-0.8982305574417114,-0.1200375449471175,-9.639698089957236,14962.0
38.8,6.199999809265138,76.0,22.031084060668945,23.29074668884277,-79.78227107602699,40.45917813522686,297.30395248413083,-0.0318497419357299,0.023389795795083,-0.5326594114303589,0.8454067707061768,-0.2787764431785605,5.732978939972501,0.6279045855072283,-0.0391211099922657,-0.0023868668358773,-0.0208558458834886,-0.6671634321659804,-0.2227424626238644,-9.95090386390686,14962.0
38.91,6.099999904632568,77.0,22.0673942565918,24.3721866607666,-79.78226507604174,40.45918059048369,297.3189575958252,-0.0287664830684661,0.0232722591608762,-0.5321947336196899,0.8458130955696106,-0.2611350413236298,5.740966878975683,0.6022126782654624,0.0183005668222904,0.0727344751358032,-0.0463553220033645,-0.7119079343229533,-0.1713125647231936,-9.81481342792511,14962.0
39.1,6.099999904632568,76.0,22.14627265930176,23.05219268798828,-79.78225281013782,40.45918570443696,297.37356689453134,-0.0170772708952426,0.0248183198273181,-0.5301345586776733,0.8473781943321228,-0.2602664163126159,5.757143711050827,0.5154379107585236,-0.0545736998319625,0.0595992878079414,-0.1416123509407043,-0.6728525537252427,0.1061131865903735,-9.528122105598449,14962.0
39.2,6.0,76.0,21.977245330810547,24.730016708374023,-79.78224681689873,40.45918816764655,297.38763740539554,-0.0174964852631092,0.0226912200450897,-0.5292654037475586,0.8479723930358887,-0.2461815182091521,5.740920478042535,0.449860117172096,-0.0892059877514839,-0.1146840080618858,-0.0383218191564083,-0.7118164984881878,-0.0530450496124103,-9.7008032476902,14962.0
39.4,6.0,79.0,22.21513557434082,21.64472770690918,-79.78223466702869,40.45919322173938,297.45732810974124,-0.0222402289509773,0.0186250023543834,-0.5277918577194214,0.8488782644271851,-0.2224610730939052,5.706387109154378,0.5243002486305712,0.070262424647808,-0.0207382291555404,-0.0706330761313438,-0.7540545916557312,-0.3842986008524895,-10.025612568855284,14962.0
39.6,6.0,80.0,22.297771453857425,20.746177673339844,-79.78222272287137,40.45919812503889,297.5278523254395,-0.0163488462567329,0.0304739363491535,-0.5297166705131531,0.8474694490432739,-0.2350941313350348,5.654467397072944,0.5436737488778467,0.1289173811674118,0.0029279219452291,0.0058884588070213,-0.8952609758824108,-0.3200610166043043,-9.73365232050419,14962.0
39.7,6.0,81.0,22.28775405883789,21.14376640319824,-79.78221684553124,40.45920055363765,297.5474007415772,-0.014015051536262,0.039077740162611,-0.5316605567932129,0.8459395170211792,-0.2520917205564812,5.627981367163451,0.5033534606543023,0.075086198747158,-0.1054254472255706,-0.0502450205385685,-0.9532771957665682,-0.4297344631701708,-9.42945384979248,14962.0
39.81,6.0,82.0,22.052370071411133,24.181344985961918,-79.78221067963554,40.45920301186604,297.59662178039554,-0.0176989659667015,0.0415422841906547,-0.5338534116744995,0.8443704843521118,-0.2670305481718854,5.627479298195135,0.5104493914968776,-0.0024478221312165,-0.0275455676019191,0.2088448256254196,-0.8304837667196989,-0.3806830846890808,-9.308497762084007,14962.0
40.0,6.099999904632568,80.0,22.057376861572266,24.17339324951172,-79.78219875729081,40.459208059844,297.6665795135498,-0.0293583385646343,0.0365290530025959,-0.5364046692848206,0.8426588773727417,-0.3003790371683951,5.616211345992764,0.5909347046313884,0.0029392361175268,0.0075830868445336,-0.0149390781298279,-0.6526102240383626,-0.4328074673563242,-9.628352737426756,14962.0
40.11,6.099999904632568,82.0,22.13249969482422,22.59894180297852,-79.78219288242425,40.45921046183621,297.68017318725583,-0.0311318263411521,0.0358434095978736,-0.536995530128479,0.8422480821609497,-0.3216003465533661,5.6080675655563565,0.6219034311478318,-0.0387877374887466,-0.0209396034479141,0.0447151474654674,-0.8594418098777533,-0.2898802841082215,-9.62650501728058,14962.0
40.3,6.099999904632568,82.0,22.004791259765625,24.403993606567383,-79.7821870040497,40.459212873996975,297.6927578735352,-0.0323798768222332,0.036209836602211,-0.5373005867004395,0.8419908881187439,-0.3452703655403318,5.620882007943798,0.6229058314915437,-0.0735214948654174,-0.0564219690859317,-0.1827010065317154,-0.8499993605911732,-0.2062705089524388,-9.5906054520607,14962.0
40.4,6.199999809265138,83.0,22.02231979370117,23.95869445800781,-79.7821751058562,40.45921771212848,297.754838256836,-0.031124573200941,0.0425768345594406,-0.5378594994544983,0.841383159160614,-0.3486067918689163,5.630397193018483,0.6698694035974315,-0.0185794383287429,-0.005207915790379,0.0204376261681318,-0.8872452472150326,-0.3151008966565132,-9.75051335155964,14962.0
40.6,6.199999809265138,83.0,22.138761520385746,22.51942443847656,-79.78216299551863,40.45922269167488,297.82174613952634,-0.0343430712819099,0.0459948033094406,-0.5374605655670166,0.8413330316543579,-0.34082746723253,5.67014309747235,0.7398943480962862,-0.0355420485138893,-0.0455506518483161,0.0466625802218914,-0.8571478740870953,-0.6013741430640221,-9.893153253793717,14962.0
40.7,6.199999809265138,84.0,22.17381858825684,22.64665222167969,-79.78215703335681,40.45922511608256,297.83817031860355,-0.0365455076098442,0.0440753065049648,-0.5369916558265686,0.8416423201560974,-0.3171013203728236,5.687055350625586,0.7576179915937644,0.0482966564595699,0.139498233795166,-0.0205256156623363,-0.7841882175207139,-0.2250744235888124,-9.75005083680153,14962.0
40.8,6.199999809265138,84.0,21.96722984313965,24.88109970092773,-79.78215098830725,40.45922753403183,297.8724282073975,-0.0365637019276618,0.043612040579319,-0.5365969538688661,0.8419173359870911,-0.3034147477548024,5.6865837251228,0.7691013337198761,-0.0195951350033283,0.0026027408894151,0.1499414145946502,-0.9755556721240284,-0.3159655536711216,-9.59335832118988,14962.0
41.0,6.199999809265138,83.0,22.08993148803711,23.29869842529297,-79.78213879368771,40.45923243314024,297.9285729217529,-0.0368160009384155,0.0395072102546691,-0.5350182056427002,0.8431129455566406,-0.2970780526627978,5.738560429259652,0.7528246484037144,-0.1926849782466888,-0.0574661679565906,-0.2225154787302016,-0.7979978059977293,-0.1238422550819814,-9.51538686990738,14962.0
41.2,6.199999809265138,83.0,21.902122497558597,25.14350891113281,-79.78213274193695,40.45923486007288,297.9430592346192,-0.0383764803409576,0.0366188548505306,-0.5337899327278137,0.8439518213272095,-0.2617683714917702,5.75110614450962,0.7334516195476443,-0.0356925316154956,-0.0064963442273437,0.0616963654756546,-0.9083610778301956,-0.1057743130344897,-9.563290184140207,14962.0
41.3,6.199999809265138,83.0,21.93342399597168,24.80158233642578,-79.78212053823259,40.45923974610989,297.9907601165772,-0.0330285429954528,0.0321750231087207,-0.5313245058059692,0.8459126353263855,-0.2335142933311075,5.776463380758222,0.7310380268519778,-0.0469354800879955,0.0789066106081008,-0.0480441339313983,-0.8121079413592815,-0.0442003273777663,-9.795176723599434,14962.0
41.5,6.199999809265138,83.0,22.0673942565918,22.94086837768555,-79.78210824678324,40.459244704426034,298.03608444213864,-0.0335731506347656,0.0289333723485469,-0.5286498665809631,0.8476821780204773,-0.2062066021543734,5.8073768245997845,0.6850184883772075,0.0292642582207918,-0.0284186583012342,0.1004196554422378,-0.7758750117570162,-0.4181842022761703,-9.794041779041288,14963.0
41.6,6.099999904632568,85.0,22.099946975708008,22.789783477783203,-79.78210214897875,40.45924717692817,298.0539944458008,-0.0328342020511627,0.0300831422209739,-0.5281876921653748,0.8479591608047485,-0.2081987170924941,5.822400443567034,0.6828539884991156,-0.0311256069689989,-0.050637163221836,0.1228566542267799,-0.7749676700681448,-0.3355294967070222,-9.732636074423793,14963.0
41.8,6.099999904632568,85.0,22.0035400390625,24.865196228027344,-79.7820960496901,40.459249659804975,298.07055404663083,-0.0325966142117977,0.0314728021621704,-0.5289389491081238,0.8474494218826294,-0.1928918892209633,5.825975303379321,0.6648976587132787,0.1020856872200966,-0.0081565165892243,0.1091292649507522,-0.6851659858971835,-0.263452568706125,-9.728717855215072,14963.0
41.9,6.099999904632568,85.0,21.988513946533203,24.12568283081055,-79.78208360424851,40.4592546356584,298.1161644744873,-0.0293283369392156,0.033058013767004,-0.5311605930328369,0.8461179137229919,-0.2296726654500094,5.84205817978175,0.6630770841164577,0.0272735450416803,-0.0556839108467102,-0.0622118152678012,-0.7489640787988902,-0.3456591034680605,-9.79462240755558,14963.0
42.1,6.099999904632568,85.0,22.001035690307614,23.33050537109375,-79.78207126589089,40.45925959000676,298.1607601928711,-0.0341301411390304,0.0342960096895694,-0.5334859490394592,0.8444239497184753,-0.2634332278277401,5.834407406074117,0.7116932712155563,0.0202171690762043,-0.0024003291036933,0.0751122683286666,-0.8769414299726487,-0.5057669046521187,-9.813307185173038,14963.0
42.21,6.199999809265138,85.0,21.99352264404297,23.354360580444336,-79.7820651505464,40.45926208671072,298.1813137817383,-0.0358624793589115,0.0327074825763702,-0.5342172980308533,0.8439527153968811,-0.2815414943094701,5.830014117339879,0.7552240062165911,0.0202191192656755,0.0775263831019401,0.0403464660048484,-0.9707728689908982,-0.3614764430746436,-9.865757879018783,14963.0
42.3,6.199999809265138,84.0,22.0423526763916,23.577009201049805,-79.78205910122426,40.459264737900966,298.20133522033694,-0.0350394584238529,0.0326305478811264,-0.5343531370162964,0.8439042568206787,-0.3049565197181383,5.830303081991545,0.7574792022087725,0.1531241536140442,0.0859791859984397,0.0834837332367897,-0.985938134416938,-0.2885695759020746,-9.824056706428529,14963.0
42.5,6.199999809265138,84.0,22.04110145568848,23.03628921508789,-79.78204678692794,40.45926991200668,298.2421524810792,-0.0300383362919092,0.0410011559724807,-0.5336894989013672,0.8441518545150757,-0.3064968255234591,5.853442728637729,0.7325112861673059,0.1895322203636169,0.0717077180743217,-0.0185489412397146,-0.963874104693532,-0.3751596951484679,-9.681369441747666,14963.0
42.6,6.199999809265138,84.0,22.054872512817383,23.05219268798828,-79.78204064923119,40.459272434235054,298.26020172119144,-0.0288395173847675,0.0439055077731609,-0.5332612991333008,0.844318151473999,-0.3111797677267969,5.86166546629215,0.7238614650558802,0.0266151390969753,0.069416344165802,-0.0357739254832267,-0.9061746577173472,-0.3586086396127939,-9.749279004335405,14963.0
42.81,6.199999809265138,83.0,22.07490539550781,23.27484130859375,-79.78202827943646,40.459277573094376,298.30538108825687,-0.03065125644207,0.0388591326773166,-0.5325924754142761,0.8449235558509827,-0.2965206096675423,5.873629946274576,0.7221527087297996,-0.1515439599752426,-0.0562853962182998,0.076757051050663,-0.844891671538353,-0.4435204800590873,-9.735139267444607,14963.0
43.0,6.199999809265138,83.0,22.253950119018555,20.610998153686523,-79.78202211273124,40.459280086064574,298.3220398712158,-0.0321764722466468,0.0347372964024543,-0.5325000286102295,0.8451046347618103,-0.2734601059142195,5.882682111323318,0.7023656949317341,-0.0935545861721038,-0.0017286125803366,0.1461000144481659,-0.8517785221338272,-0.470404113829136,-9.697403676509856,14963.0
43.1,6.300000190734862,83.0,22.097442626953125,23.37821578979492,-79.78200979582641,40.4592852652889,298.36599090576175,-0.0291104186326265,0.0297955516725778,-0.5330460667610168,0.8450602293014526,-0.2816776953550367,5.892058827150887,0.6206585906103068,-0.0388202406466007,-0.1145511716604232,-0.0346205942332744,-0.7694800581783057,-0.1639308935031294,-9.409083904623984,14963.0
43.21,6.300000190734862,83.0,22.12123107910156,22.72616958618164,-79.78200364081451,40.45928778488926,298.3764469909668,-0.0285873655229806,0.0293686762452125,-0.5330392718315125,0.8450973629951477,-0.2818703514724488,5.890423080053768,0.5655045917696718,0.0638672560453414,0.1104134246706962,0.0079699624329805,-0.6465136977285147,-0.0843174344301223,-9.60027908563614,14963.0
43.4,6.199999809265138,85.0,21.99352264404297,24.197248458862305,-79.78199106625152,40.459292963323456,298.41076400756833,-0.0279235616326332,0.0287925694137811,-0.5331496596336365,0.8450697064399719,-0.2787408905498494,5.897161386436324,0.5333803706520883,0.0856802091002464,0.0242913737893104,0.1531520634889602,-0.8641136620938779,-0.5416147951036692,-9.664631202220916,14963.0
43.5,6.199999809265138,85.0,22.101198196411133,22.408098220825195,-79.7819847802743,40.4592955473017,298.43315055847165,-0.0269451420754194,0.0276595316827297,-0.5331123471260071,0.8451628684997559,-0.2855768646809865,5.8995895183114815,0.5446977337009582,-0.0329120159149169,0.034884937107563,0.0789559930562973,-0.8606138842552901,-0.1546221444569528,-9.739267401695251,14963.0
43.7,6.199999809265138,84.0,22.31780433654785,20.61894989013672,-79.78197247582733,40.45930058104026,298.4469502258301,-0.0261967908591032,0.031967457383871,-0.5331043601036072,0.8450393676757812,-0.2850652272222612,5.891426560457318,0.4697437724075562,-0.0594982169568538,-0.0694475620985031,-0.1250242888927459,-0.8283173002302647,0.0555438161082565,-9.337712205648424,14963.0
43.9,6.099999904632568,84.0,22.06363677978516,23.21122741699219,-79.78196000992241,40.45930557214653,298.46410873413083,-0.029569836333394,0.0329467467963695,-0.5332292318344116,0.844811737537384,-0.2528079608857487,5.881633502980037,0.4514359124253154,0.0821161046624183,0.0304423738270998,0.2215372025966644,-0.7817043203115464,-0.2052132958173752,-9.383860770463944,14963.0
44.0,6.099999904632568,83.0,22.14251708984375,22.074125289916992,-79.78195379617401,40.45930819147419,298.4834091949463,-0.0297213178128004,0.030940705910325,-0.5333923101425171,0.8447792530059814,-0.2798750791765588,5.880155476989138,0.4820836899247676,-0.1782093942165374,-0.003073260653764,-0.1424783766269683,-0.9092393296211958,-0.2638601561821997,-9.612098647356031,14963.0
44.1,6.099999904632568,82.0,22.064889907836918,23.39411926269531,-79.78194765429463,40.459310688538864,298.48096397399905,-0.0293740443885326,0.0288521889597177,-0.5336819887161255,0.8446823954582214,-0.276134910346255,5.872031626396666,0.4526163081881373,-0.0570139177143573,-0.0306033417582511,0.0378036834299564,-0.9065531187504532,-0.1187444697506725,-9.53116792023182,14963.0
44.3,6.099999904632568,81.0,22.08867835998535,22.96472358703613,-79.78193526754457,40.459315703932816,298.4778092193604,-0.0306066200137138,0.0277552679181098,-0.5334111452102661,0.8448464870452881,-0.260593290534993,5.8768435937196735,0.4174201998071612,0.0926124230027198,0.0027937302365899,0.0298784635961055,-0.7990081317722798,-0.4625725359097123,-9.590755140781402,14963.0
44.5,6.099999904632568,81.0,21.95721244812012,24.777727127075195,-79.78192285551896,40.459320766905954,298.470242767334,-0.0317960381507873,0.0263822525739669,-0.5328139066696167,0.8452232480049133,-0.2609257965438479,5.868221383968708,0.4602380925503294,0.0976799502968788,0.0833563357591629,0.0979766175150871,-0.995207725390792,-0.3575297552347184,-9.717035703063011,14963.0
44.6,6.0,81.0,21.88334274291992,25.23892974853516,-79.78191672353394,40.45932327015419,298.4688656616211,-0.0300041306763887,0.0271401535719633,-0.5324803590774536,0.8454750180244446,-0.2714746931514441,5.873660952129692,0.4794816048423047,0.0393734201788902,0.0214128103107214,-0.0518547929823398,-0.8414131629467011,-0.1170555563271045,-9.986533287763596,14963.0
44.7,6.0,80.0,22.05612564086914,23.855321884155277,-79.78191059415744,40.4593257746735,298.4703305053711,-0.0285452064126729,0.0283713210374116,-0.5320600271224976,0.84574955701828,-0.257096568211373,5.872435942157957,0.4917307817619668,0.0871647447347641,0.0532910451292991,-0.0588192045688629,-0.8086490940302611,-0.2800347606651485,-9.954089426994324,14963.0
44.9,6.099999904632568,80.0,21.938432693481445,24.594837188720703,-79.78189828206484,40.45933084960154,298.46290710449216,-0.0249469615519046,0.0337372832000255,-0.5314502120018005,0.8460497260093689,-0.2420430833915285,5.861716840717351,0.4986997131029137,0.070443570613861,0.0058248545974493,0.01666921377182,-0.9080750028043986,-0.3457191105186939,-9.887426490783694,14963.0
45.0,6.099999904632568,80.0,21.908382415771484,24.80158233642578,-79.78189208738556,40.45933335006717,298.4505989837647,-0.0236113369464874,0.0343913249671459,-0.5315529108047485,0.8459972739219666,-0.2294411749646391,5.847105370800357,0.4961144930540746,-0.0247463472187519,0.0329646430909633,0.0676838383078575,-0.7638310631364584,-0.2804245872236789,-9.985909974575042,14963.0
45.2,6.099999904632568,79.0,22.12874412536621,21.87532997131348,-79.78187986632109,40.45933829565545,298.46306541442874,-0.0295913070440292,0.0271107703447341,-0.5325166583061218,0.8454676270484924,-0.2302980455947939,5.833183364190832,0.4983431145863555,-0.0842967927455902,-0.1102892979979515,0.1597360074520111,-0.7858926077932121,-0.2177150631509721,-9.832352735996247,14963.0
45.4,6.099999904632568,80.0,22.078662872314453,23.624719619750977,-79.78187365823945,40.45934070051617,298.45042541503915,-0.0317256972193718,0.0287551544606685,-0.5330350399017334,0.8450090885162354,-0.2089870706930152,5.829571563940843,0.4892182905621538,0.0824055224657058,-0.1230751499533653,0.022759398445487,-0.8078803313523532,-0.3008092417940498,-9.657730903029442,14963.0
45.5,6.099999904632568,80.0,21.97223854064941,24.54712677001953,-79.78186136053867,40.45934557344745,298.44029548645017,-0.0327884368598461,0.0324185751378536,-0.5333479642868042,0.8446384072303772,-0.2181780721796636,5.8193783389104725,0.4867288556263792,-0.0036122070159763,-0.0434635430574417,0.1110030487179756,-0.7912954350560903,-0.2601045992039144,-9.680654327273368,14963.0
45.6,6.199999809265138,79.0,22.081167221069336,23.39411926269531,-79.78185525922619,40.459348012042994,298.43854263305667,-0.0332981944084167,0.0298584178090095,-0.5331825017929077,0.8448172807693481,-0.2122236660495628,5.817568471451511,0.5049297852344685,0.0444913581013679,0.085244670510292,0.0989993289113044,-0.8948448003083468,-0.1198876004107296,-9.678508399128914,14963.0
45.8,6.099999904632568,79.0,21.87833404541016,25.23097801208496,-79.7818429554988,40.45935289112349,298.42406776428226,-0.0329748541116714,0.0315295793116092,-0.5326421260833739,0.8451099991798401,-0.2055878748499692,5.827359899211898,0.4762560465069458,0.0437305197119712,0.0212026294320821,-0.0222853254526853,-0.7836417952179909,-0.2896786648035049,-9.669405453801156,14963.0
45.9,6.099999904632568,78.0,21.818235397338867,25.92278289794922,-79.78183684258295,40.45935532920373,298.42137840271,-0.0342873483896255,0.0306072011590004,-0.532221257686615,0.845356822013855,-0.2062434855872333,5.826677481882224,0.5027150523716912,-0.0550800934433937,0.0427140071988105,-0.0461332313716411,-0.7642937971651554,-0.094319754615426,-9.979345890283586,14963.0
46.1,6.199999809265138,78.0,21.928415298461918,24.61869239807129,-79.78182457915261,40.45936016080813,298.4122250366211,-0.0363357961177825,0.0273254103958606,-0.5311141014099121,0.8460797667503357,-0.1826459437070791,5.825248650688463,0.5430364254150521,0.0162563994526863,-0.0130532113835215,-0.0080945184454321,-0.9032318271696568,-0.1822843715362251,-9.956789671182632,14963.0
46.3,6.199999809265138,78.0,22.03609275817871,23.736045837402344,-79.78181223467847,40.45936507540983,298.4012368011475,-0.0426825508475303,0.0250930916517972,-0.5291129946708679,0.8471056222915649,-0.1876905937776046,5.84542791453411,0.5872413294197822,-0.0322921611368656,-0.0121606336906552,-0.0521162003278732,-0.8462221323698759,-0.3836170347779989,-9.887790187597275,14963.0
46.4,6.199999809265138,77.0,21.974742889404297,24.17339324951172,-79.78180610368291,40.45936755134729,298.40493896484384,-0.0458822697401046,0.0229195822030305,-0.52827388048172,0.8475236296653748,-0.2010708495683813,5.859217777614182,0.632693757113298,-0.0498839020729064,0.0964960306882858,-0.0879585146903991,-0.8230364605039359,-0.1316173525527119,-9.946200363636017,14963.0
46.5,6.099999904632568,76.0,22.140012741088867,22.583038330078125,-79.78179997160794,40.4593699513642,298.3981373596192,-0.0449725203216075,0.0246555190533399,-0.5282125473022461,0.8475619554519653,-0.1727534941956761,5.853337007155098,0.6611661383784995,0.1941807866096496,0.0853457301855087,-0.0510135889053344,-0.7606275198608637,-0.2141586221382022,-10.09016466021538,14963.0
46.7,6.099999904632568,77.0,22.098695755004886,22.85339736938477,-79.78178769531495,40.45937497634269,298.4092915344238,-0.0367089249193668,0.0330818332731723,-0.5290143489837646,0.8471729159355164,-0.2265767358803545,5.884142319854548,0.6265853347066918,0.0932297557592392,0.0468337386846542,0.0162044595927,-0.7228274633735419,-0.4709101172536612,-9.844079911708832,14963.0
46.9,6.099999904632568,77.0,22.20762252807617,22.26496696472168,-79.78178151601689,40.45937753349109,298.402220993042,-0.0361076593399047,0.0343089886009693,-0.5294868946075441,0.846854567527771,-0.2682651288937888,5.892129733709643,0.5895357427607797,-0.03799195215106,-0.0570949129760265,0.1048037856817245,-0.9805635199695826,-0.4121513009816408,-9.543566941022872,14963.0
47.0,6.099999904632568,76.0,22.113719940185547,23.15556526184082,-79.78176920329466,40.459382633256496,298.4017384338378,-0.0334205627441406,0.0319641381502151,-0.5314231514930725,0.8458433747291565,-0.2833885850780773,5.914662246437421,0.5219235826627235,0.0488232299685478,0.1021697968244552,0.1399378478527069,-0.992244429588318,-0.3376619762554765,-9.460580332875251,14963.0
47.2,6.099999904632568,78.0,22.33783721923828,20.14979553222656,-79.78175688913325,40.45938776885226,298.3901932525635,-0.0271007791161537,0.0285973474383354,-0.5333283543586731,0.8449903130531311,-0.3343250995814307,5.934203572327486,0.4084335206320213,-0.1164875924587249,0.0566937327384948,-0.2133453339338302,-0.6070137460157276,0.1519664670154452,-9.573440950512888,14963.0
47.3,6.099999904632568,78.0,22.28900718688965,20.80183982849121,-79.78175060729366,40.45939027244404,298.3952820587158,-0.0260537434369325,0.0269017107784748,-0.5337086319923401,0.8448387980461121,-0.3283926115237393,5.943463828303622,0.3673764175723912,0.0027576296124607,0.0293278153985738,-0.0083760600537061,-0.9440617646276952,-0.4100901574641466,-9.434829779863357,14963.0
