time,wind_speed,wind_angle,battery_voltage,battery_current,position_x,position_y,position_z,orientation_x,orientation_y,orientation_z,orientation_w,velocity_x,velocity_y,velocity_z,angular_x,angular_y,angular_z,linear_acceleration_x,linear_acceleration_y,linear_acceleration_z,node_ids
0.0,0.699999988079071,350.0,24.392452239990234,-0.0318070948123931,-79.7827210333686,40.45899438375308,275.4433248636723,0.0049049756489694,0.0105408485978841,-0.705697774887085,0.7084175944328308,-0.0001184220688259,-0.0003196217014321,0.0200601061641023,-0.0068520768545567,-0.0009058450814336,-0.0066459593363106,-0.0800017050560563,-0.2114829728007316,-9.80419020652771,14940.0
0.11,0.8000000119209291,350.0,24.381183624267567,0.0159035474061965,-79.7827209794057,40.45899436172631,275.4544804391861,0.0049087442457675,0.0105480169877409,-0.7056995630264282,0.708415687084198,0.0019464971469852,0.0001153431989882,0.021029791765971,-0.004419146105647,-0.0018640620401129,-0.0003021377779077,-0.079015033096075,-0.2252163830213249,-9.805664289593697,14940.0
0.3,0.699999988079071,352.0,24.39119911193848,0.0,-79.78272097916464,40.45899435936596,275.45659163570406,0.0049102748744189,0.0105502270162105,-0.7057009935379028,0.7084141969680786,0.0016339859427556,-0.0001228916776439,0.0213813542415327,0.0006841330905444,0.0019645523279905,-0.0020047137513756,-0.0808066108357161,-0.2137493901327253,-9.805295330286029,14940.0
0.41,0.699999988079071,355.0,24.39620780944824,0.0079517737030982,-79.7827209210388,40.45899435283325,275.46826407289507,0.0049082268960773,0.0105509962886571,-0.7057014703750609,0.7084137201309204,-0.0010803547654936,0.0004585130198977,0.0220526355551409,-0.0045844437554478,0.0001126670540543,-0.0074194185435771,-0.0798902425076812,-0.2322401315532625,-9.806655392646787,14940.0
0.6,0.699999988079071,354.0,24.3974609375,0.0238553211092948,-79.78272092029319,40.45899435298983,275.4704720673561,0.0049099223688244,0.0105531765148043,-0.705703854560852,0.7084113955497742,-0.0005032783755881,0.0004186917252404,0.0220785761139272,0.0077343839220702,0.0018921360606327,0.002941318321973,-0.0788382005039602,-0.2245370279252529,-9.804581969976423,14940.0
0.71,0.6000000238418579,355.0,24.38994789123535,0.0238553211092948,-79.78272085745205,40.45899434658163,275.48276314115526,0.0049103805795311,0.0105565898120403,-0.7057045698165894,0.7084105610847473,-0.0020649770835803,0.0008935160205868,0.0224678601477196,0.0015696648042649,0.0002643149928189,0.0035732726100832,-0.0808877683617174,-0.2240087319910526,-9.805149149894715,14940.0
0.9,0.6000000238418579,355.0,24.398712158203125,0.0079517737030982,-79.78272078585425,40.45899433986378,275.4940375981331,0.0049072923138737,0.0105607844889163,-0.7057057619094849,0.7084093689918518,-0.0019767365409635,0.0036628075177486,0.0250326494462875,0.0039190538227558,0.0002301810163771,0.0019539024215191,-0.0794379146955907,-0.2300282212346792,-9.805371344089508,14940.0
1.0,0.699999988079071,353.0,24.39620780944824,-0.0079517737030982,-79.7827207769444,40.458994344087614,275.499093085289,0.0049087069928646,0.0105628371238708,-0.7057067155838013,0.7084084153175354,-0.0030543719536268,0.0034839908578262,0.0252428921431701,0.00670335162431,-0.0007258185651153,0.0041017248295247,-0.0802062753774225,-0.2104367780126631,-9.803007899522784,14940.0
1.2,0.699999988079071,356.0,24.39495658874512,0.0238553211092948,-79.78272069913172,40.45899432430314,275.51089683151247,0.0049095042049884,0.0105707673355937,-0.7057077288627625,0.7084072828292847,-0.0005675079111539,0.0060896522630689,0.0277730297078532,-0.0030269569251686,-0.0032269530929625,0.0021172887645661,-0.0812177797313779,-0.2237753367237746,-9.804112438559534,14940.0
1.31,0.699999988079071,357.0,24.39495658874512,0.0318070948123931,-79.7827206178588,40.45899431328504,275.5275448856354,0.0049087423831224,0.0105760293081402,-0.7057110071182251,0.7084038853645325,-0.0010862125578551,0.0080786879265821,0.0331474064109713,0.0025671750772744,5.021365359425545e-05,0.0033592958934605,-0.0801446055248379,-0.2133037409372628,-9.803095023036004,14940.0
1.5,0.6000000238418579,2.0,24.39996337890625,0.0,-79.78272060803472,40.45899431412919,275.5308683810234,0.0049087423831224,0.0105760293081402,-0.7057110071182251,0.7084038853645325,-0.0024784406496369,0.0080808717758587,0.0334516850436993,-0.0048941527493298,-0.0003484811168164,-0.007060959469527,-0.0796644577570259,-0.209263716917485,-9.803009653687475,14940.0
1.61,0.6000000238418579,1.0,24.398712158203125,0.0079517737030982,-79.78272050607781,40.45899428768925,275.55002400255205,0.0049091652035713,0.0105880592018365,-0.7057143449783325,0.7084003686904907,0.0006828174977493,0.0129475470439833,0.0409012601350131,-0.0018625276861712,0.003059497103095,-0.0031432448886334,-0.0790370971988886,-0.2254978350922465,-9.803768622279168,14940.0
1.8,0.699999988079071,0.0,24.3974609375,0.0238553211092948,-79.78272049036491,40.45899428602871,275.5541085896492,0.0049111065454781,0.0105899851769208,-0.7057161927223206,0.7083985209465027,0.0005889652209609,0.0129943393962978,0.0410977952609415,-0.0011470668250694,0.0043258783407509,-0.0017732086125761,-0.0794455526210367,-0.2148571816831827,-9.803621857166291,14940.0
1.91,0.699999988079071,358.0,24.38869667053223,0.0079517737030982,-79.78272040003671,40.458994264957965,275.57261314964296,0.0049107759259641,0.0105953449383378,-0.7057172656059265,0.7083973884582521,0.0010038759197654,0.0153100391417831,0.0446145263743695,-0.0055259177461266,-0.0041947118006646,-0.0060899839736521,-0.0791580340638756,-0.2309209631569684,-9.805250891447068,14940.0
2.11,0.699999988079071,1.0,24.39620780944824,0.0318070948123931,-79.78272038143838,40.45899426284432,275.57706066942217,0.0049122110940516,0.0105970483273267,-0.7057183980941772,0.7083961963653564,0.0016411616266484,0.0154630422957436,0.0446997626097414,0.0065557244233787,0.0059278761036694,0.0032304648775607,-0.0782727107964456,-0.2256913962028921,-9.804186113476751,14940.0
2.2,0.699999988079071,1.0,24.3974609375,0.0238553211092948,-79.78272033699035,40.45899425619484,275.59416738128664,0.0049179065972566,0.010593551211059,-0.7057199478149414,0.7083946466445923,-0.0004953988100421,0.0103950523982937,0.0442579788240711,0.0017002994427457,0.0004841980407945,-0.0028364043682813,-0.0804823187738657,-0.2205835975147784,-9.804279668927194,14940.0
2.4,0.699999988079071,1.0,24.39495658874512,0.0159035474061965,-79.78272027877031,40.458994236533705,275.6072344479561,0.0049205874092876,0.0105979461222887,-0.7057201862335205,0.7083944082260132,0.0024095047577457,0.0106588032648626,0.0439534852181796,0.0036695913877338,0.0018855660455301,0.0035373747814446,-0.0795966300554573,-0.2304993971809745,-9.80556020915508,14940.0
2.5,0.699999988079071,2.0,24.39495658874512,0.0079517737030982,-79.78272025260928,40.45899423181184,275.61604288196565,0.0049216002225875,0.0105992015451192,-0.7057212591171265,0.7083932161331177,0.0016766094532363,0.0107708719287858,0.0441963194894518,0.0044911252334713,0.0011546992463991,0.0005554172676056,-0.0801709271315485,-0.2094760256633162,-9.802329622507097,14940.0
2.7,0.699999988079071,1.0,24.39495658874512,0.0238553211092948,-79.78272022685793,40.45899422836825,275.6291000542641,0.0049242596141994,0.0105950850993394,-0.7057209610939026,0.7083935737609863,-0.0009157768138384,0.0069129398009653,0.0437890414764394,-0.0033871217165142,0.0005245231441222,-0.0033737020567059,-0.0798740621656179,-0.2161015057191253,-9.8034400087595,14940.0
2.81,0.6000000238418579,0.0,24.38744354248047,0.0238553211092948,-79.78272016807291,40.458994212964896,275.64656630134584,0.0049277665093541,0.0106018297374248,-0.7057226896286011,0.7083917856216431,0.0009932669507019,0.0079307103309897,0.0438436554395477,-0.0012302550021559,-0.0005755669553764,0.0025782759767025,-0.0790054217353463,-0.221020073890686,-9.80375868201256,14940.0
3.0,0.699999988079071,359.0,24.39620780944824,-0.0079517737030982,-79.7827201583423,40.45899421128254,275.65095284557344,0.0049277665093541,0.0106018297374248,-0.7057226896286011,0.7083917856216431,0.0005389800656759,0.0079122349468785,0.04413158867179,-0.000280136562651,-0.0004273152735549,-0.0043244380503892,-0.0801082066074013,-0.2116442645899952,-9.803186824321749,14940.0
3.1,0.699999988079071,357.0,24.39119911193848,0.0079517737030982,-79.78272010504273,40.458994206956895,275.6680944857597,0.0049264077097177,0.0106031391769647,-0.7057265639305115,0.7083879113197327,-0.0014731876178183,0.0088221690114656,0.0439030005042863,-0.0034123768564313,0.0007023536600172,-0.005274262279272,-0.0792208459507674,-0.2302235365100205,-9.805028697252274,14940.0
3.3,0.699999988079071,359.0,24.392452239990234,0.0159035474061965,-79.78272009415191,40.45899420688848,275.6724801955223,0.0049293711781501,0.0106061631813645,-0.7057271003723145,0.7083873152732849,-0.0008129976526585,0.0089292386976365,0.043892901327858,0.0013352984096854,0.0030757726635783,0.0057679996825754,-0.0780865135230124,-0.2267501076869666,-9.803977952599526,14940.0
3.4,0.699999988079071,356.0,24.398712158203125,0.0159035474061965,-79.7827200483153,40.45899420297098,275.6891035733223,0.0049289991147816,0.0106073077768087,-0.7057272791862488,0.7083870172500609,-0.0018808908280298,0.0095276181001117,0.0438272032951369,-0.0008262898772954,0.0030588479712605,-0.0006491313688457,-0.0793744541332125,-0.2193713966198265,-9.803813645839693,14940.0
3.6,0.699999988079071,358.0,24.39996337890625,0.0318070948123931,-79.78272003662687,40.45899420437564,275.6934973893166,0.0049291080795228,0.0106072621420025,-0.7057289481163025,0.7083854675292969,-0.0027114439628129,0.0096420401332784,0.0440909431634869,-0.0005295787705108,-0.0012848955811932,0.003769121132791,-0.0802041740342974,-0.2277285661362112,-9.805336260795594,14940.0
3.7,0.699999988079071,358.0,24.40121650695801,0.0318070948123931,-79.78271997267191,40.4589941808736,275.70978024578096,0.0049321833066642,0.0106184175238013,-0.7057314515113831,0.7083827257156372,0.0010922662530807,0.0134577503889696,0.0439258116894051,0.0021936655975878,0.0021856031380593,0.0033298095222562,-0.0786725233029574,-0.2094419290870428,-9.80310262441635,14940.0
3.9,0.699999988079071,359.0,24.39620780944824,0.0079517737030982,-79.78271997270635,40.45899419286695,275.72075656032564,0.004932758398354,0.010611904785037,-0.7057312130928041,0.7083830833435059,-0.0035131491452261,0.0098068015455387,0.0436612207541407,-0.0039366991259157,0.0021497826091945,-0.0046979482285678,-0.0793067360669374,-0.2133221962116658,-9.803880888819696,14940.0
4.01,0.6000000238418579,1.0,24.38994789123535,0.0079517737030982,-79.78271994862821,40.458994197446046,275.72951778745653,0.0049331695772707,0.0106125194579362,-0.7057321667671204,0.7083821296691895,-0.0044115828578253,0.0099690614309293,0.0440569060188729,-0.0035797115415334,-0.0010451698908582,-0.0034673446789383,-0.0795198488049209,-0.2245324049703776,-9.804028238654135,14940.0
4.2,0.699999988079071,1.0,24.40246772766113,0.0079517737030982,-79.78271993975982,40.4589941707719,275.7401784358025,0.0049406629987061,0.0106196831911802,-0.7057321071624756,0.7083820104598999,0.0031261328540932,0.0098058975981169,0.0437960535209927,0.0021540115121752,0.0004047430120408,0.0015495758270844,-0.0791163269709795,-0.21499703977257,-9.803848144412044,14940.0
4.31,0.699999988079071,2.0,24.39620780944824,0.0238553211092948,-79.78271992169066,40.45899417671682,275.75312969064714,0.0049413936212658,0.0106202969327569,-0.7057321071624756,0.7083820104598999,0.0005891813919106,0.0098123944711471,0.0398992460141751,-0.0038167277816683,-0.0004672076611313,-0.0030469805933535,-0.0790280248783528,-0.2296766391210258,-9.805723346471789,14940.0
4.5,0.699999988079071,5.0,24.38368797302246,0.0795177370309829,-79.78271990964457,40.45899417538025,275.7571153936386,0.0049413936212658,0.0106202969327569,-0.7057321071624756,0.7083820104598999,0.0009546149456889,0.0099775796283957,0.0399696879926527,0.0076479311101138,0.0015308132860809,0.0050110071897506,-0.0788406581617891,-0.228762152865529,-9.803482108712195,14940.0
4.6,0.699999988079071,6.0,24.392452239990234,0.0159035474061965,-79.78271983350294,40.45899418339271,275.77071663713457,0.0049321469850838,0.0106312669813632,-0.7057362198829651,0.7083777785301208,-0.000409244167798,0.0207741213939915,0.0410753454574872,0.0018981144530698,0.0006727260770276,0.00343882991001,-0.0793168225139379,-0.2134245590306818,-9.803018424510958,14940.0
4.8,0.8999999761581421,8.0,24.39495658874512,0.0795177370309829,-79.78271980859064,40.45899418363993,275.7748247084618,0.0049329088069498,0.0106320045888423,-0.7057375311851501,0.7083764672279358,-0.0017113066223039,0.020880643359279,0.041345012870765,-0.0046061398461461,-0.002537969732657,-0.0021498329006135,-0.0801565466355532,-0.2233086192794144,-9.804839247465132,14940.0
5.01,0.8999999761581421,12.0,24.38368797302246,0.0795177370309829,-79.78271982284048,40.45899416589261,275.7875451741219,0.0049441982991993,0.0106310974806547,-0.7057369947433472,0.7083769440650941,0.0033061877171724,0.0151180192635912,0.0417565556777993,-0.0010032575810328,0.0004643432039301,0.002405316568911,-0.0801260862965136,-0.2285950138606131,-9.804403629899024,14940.0
5.1,0.8999999761581421,13.0,24.38994789123535,0.0874695107340812,-79.7827198503845,40.4589941725579,275.79975041723253,0.0049511459656059,0.0106258019804954,-0.7057373523712158,0.7083767056465149,0.0013721745778409,0.0094584640814807,0.0419063156868119,0.0052230833098292,0.0031756712123751,0.0055036339908838,-0.0780765641201287,-0.2095497371256351,-9.802672854065897,14940.0
5.3,1.0,18.0,24.386192321777344,0.1351801604032516,-79.78271983892094,40.45899417121367,275.8039441404343,0.0049508791416883,0.0106257544830441,-0.7057390809059143,0.7083748579025269,-0.0002446055134808,0.0093473012767714,0.042181706568081,-0.0076061650179326,-0.00356345041655,-0.006294728256762,-0.0797414765506982,-0.2132163067907095,-9.802927207946777,14940.0
5.4,1.0,19.0,24.37492370605469,0.1431319266557693,-79.7827198770276,40.45899418745242,275.8137401638031,0.004954163916409,0.0106206750497221,-0.7057381868362427,0.7083758711814879,-0.0017297688713471,0.0056164004527186,0.0387174010771749,-0.0045189196243882,0.0006313198828138,-0.0019712471403181,-0.0788809034507721,-0.2251466001570224,-9.804097820520402,14940.0
5.6,1.100000023841858,24.0,24.38368797302246,0.0636141896247863,-79.78271987006359,40.45899418789694,275.8176176247597,0.0049569034017622,0.0106237381696701,-0.7057392001152039,0.7083747386932373,-0.0016481049812507,0.0056213723539604,0.0389583027444508,0.0022471933625638,0.0019160107476636,-0.0023449989967048,-0.0795193006284535,-0.2144313582032919,-9.803633551597596,14940.0
5.7,1.100000023841858,26.0,24.38744354248047,0.0874695107340812,-79.78271995415933,40.45899417926047,275.8237316308022,0.0049682585522532,0.010620268061757,-0.7057381868362427,0.7083758115768433,0.0012135374849018,-0.0016057113034208,0.0320741749252978,-0.006487806327641,-0.0023441817611455,-0.0050260149873793,-0.079246189976111,-0.2308572285063565,-9.80642267346382,14940.0
5.9,1.100000023841858,33.0,24.38744354248047,0.1113248318433761,-79.78271995570816,40.45899417736632,275.8269362745285,0.0049682585522532,0.010620268061757,-0.7057381868362427,0.7083758115768433,0.0017781182405892,-0.0015319549159487,0.0320659838002511,0.0071009937673807,0.0002580158470664,0.0033874039072543,-0.0786746063735336,-0.2279198979958892,-9.804113023281095,14940.0
6.01,1.100000023841858,34.0,24.384939193725582,0.0795177370309829,-79.78271997556716,40.45899420032226,275.835971921444,0.0049663889221847,0.0106239765882492,-0.7057408094406128,0.7083731293678284,-0.0007259556000708,0.0019454010910395,0.0321536015300189,0.0031828233040869,0.0013643049169331,4.389040987007321e-05,-0.0800320557598024,-0.2192780238948762,-9.804149860739706,14940.0
6.2,1.100000023841858,37.0,24.38869667053223,0.0636141896247863,-79.7827200247178,40.45899423074072,275.83981397724153,0.0049647432751953,0.0106192352250218,-0.7057402729988098,0.7083737254142761,-0.0043528823224345,0.001003273259766,0.028983909649268,-0.0019624913111329,0.0022800136357545,0.0012409619521349,-0.0789413855876773,-0.2298826986551285,-9.804770835042,14940.0
6.31,1.100000023841858,40.0,24.382434844970703,0.0636141896247863,-79.78272005947667,40.45899423821314,275.84677681303026,0.0049671600572764,0.010625222697854,-0.7057410478591919,0.7083728313446045,-0.0004779993804828,0.0032665916135378,0.0265613273045922,0.0045949835330247,0.0005277386517263,0.0039624208584427,-0.0792548328917473,-0.2095983055606484,-9.802617305517195,14940.0
6.51,1.0,38.0,24.38744354248047,0.055662415921688,-79.78272005534465,40.45899423884659,275.8494467434884,0.0049671600572764,0.010625222697854,-0.7057410478591919,0.7083728313446045,-0.0020900709650238,0.0033336387601944,0.0268375879559989,-0.0074978875927627,4.521338632912375e-05,-0.0048538642004132,-0.0793375709932297,-0.2137641178071499,-9.801947214603423,14940.0
6.6,1.0,39.0,24.386192321777344,0.0874695107340812,-79.7827201342339,40.45899426121047,275.85352006530763,0.0049748755991458,0.010612909682095,-0.7057397365570068,0.7083743214607239,-0.0025936593653055,-0.0026679147250249,0.0205212720110927,-0.0044744373299181,-0.0018390509067103,-0.0005641548195853,-0.0779130704887211,-0.223317170832306,-9.80362945854664,14940.0
6.8,1.0,39.0,24.386192321777344,0.1351801604032516,-79.78272013720222,40.45899426284559,275.8555837569237,0.0049860086292028,0.0106207523494958,-0.7057477235794067,0.7083660960197449,-0.0024040174686242,-0.0027125208559254,0.0206883582883622,0.0007789828814566,0.0007667376194149,0.0020642592571675,-0.0791954196989536,-0.2186112037673592,-9.804531683921814,14940.0
6.9,1.0,39.0,24.38994789123535,0.0874695107340812,-79.7827201916676,40.45899424613896,275.8594608006477,0.0050001190975308,0.0106383673846721,-0.7057642936706543,0.7083492875099182,0.0052338690214568,-0.002299857729273,0.017096843729988,0.0001965024421224,-0.0006568046519532,-0.0051909703761339,-0.0806264526396989,-0.2275768857076764,-9.804918184876444,14940.0
7.1,1.0,37.0,24.38994789123535,0.0954212844371795,-79.78272019414048,40.45899424126449,275.86116656637194,0.0049956734292209,0.0106584578752517,-0.7057529091835022,0.7083603143692017,0.0049861058534736,-0.0022320769318243,0.0172639730724696,0.0015995876165106,-0.004560568369925,0.0054300930351018,-0.0796423845179379,-0.2306324030645192,-9.805830350518226,14940.0
7.2,1.0,34.0,24.384939193725582,0.0874695107340812,-79.78272024676895,40.45899426136031,275.8630867300034,0.0050041382201015,0.010645299218595,-0.7057348489761353,0.7083784937858582,0.0027168877645622,-0.0020121966337389,0.0122096792572617,0.0024675838649272,-6.544592906720936e-05,0.0062699667178094,-0.079172496786341,-0.2088786046765745,-9.803038305044174,14940.0
7.4,1.0,32.0,24.38869667053223,0.0874695107340812,-79.78272029519088,40.45899428709511,275.86740204668047,0.0050119934603571,0.0106566697359085,-0.7057244777679443,0.70838862657547,0.0004606313189591,-0.0018333089789276,0.0150902598040739,-0.002557405270636,-0.0024590604007244,-0.0056950869038701,-0.078931682864204,-0.2089860289916396,-9.802326114177704,14940.0
7.51,1.0,31.0,24.384939193725582,0.1033730581402778,-79.78272029932289,40.45899428533309,275.87045380449297,0.0050144232809543,0.010649430565536,-0.705730140209198,0.7083830237388611,-0.0004017694124448,-0.0019627759006438,0.0155564853110786,-0.0074578826315701,-0.0020187182817608,-0.0081755435094237,-0.0805410193372517,-0.229319191519171,-9.804477889537813,14940.0
7.7,0.8999999761581421,30.0,24.38869667053223,0.0874695107340812,-79.78272035074689,40.45899429542615,275.8747586903572,0.0050076371990144,0.0106394477188587,-0.7057413458824158,0.7083720564842224,0.0035434510401058,-0.0019296773039285,0.0174250601212826,0.0079227406531572,0.0017381048528477,0.0054006604477763,-0.0784759654942899,-0.2274515908397734,-9.804231721758844,14940.0
7.81,0.8999999761581421,29.0,24.39620780944824,0.0238553211092948,-79.78272042931569,40.45899430155636,275.8781066236496,0.0050147552974522,0.0106375347822904,-0.705740213394165,0.7083731889724731,0.0057926104021775,-0.0062594630487261,0.0144142322553441,0.0044129556044936,0.0035117943771183,0.0044944304972887,-0.0795426620822399,-0.2158177513070404,-9.804525251984597,14940.0
8.0,0.8000000119209291,29.0,24.38994789123535,0.0079517737030982,-79.78272043657554,40.45899429669649,275.8795546588898,0.0050147552974522,0.0106375347822904,-0.705740213394165,0.7083731889724731,0.0045004398017824,-0.0063181243910163,0.0145919876381841,-0.0020421305671334,-0.0031875418499112,0.0003894186229445,-0.0808457689080387,-0.2220010539516806,-9.80286405801773,14940.0
8.1,0.8000000119209291,29.0,24.39370346069336,0.0079517737030982,-79.78272046509983,40.45899430514951,275.88339868164064,0.0050121922977268,0.0106461448594927,-0.7057405710220337,0.7083727121353149,0.0051475728894034,-0.0004749321305589,0.0138555666434356,-0.0008430540328845,-0.0010953008895739,0.0018415214726701,-0.0804667688347399,-0.2161592287011444,-9.802307403087616,14940.0
8.3,0.8000000119209291,30.0,24.38368797302246,-0.0636141896247863,-79.78272046558753,40.458994300307175,275.8847852048874,0.0050120707601308,0.0106467427685856,-0.705741286277771,0.7083719372749329,0.0047626179675344,-0.000662800917648,0.0141069863130719,0.0024020571727305,-0.0034221278037875,-0.0003521752078086,-0.0802812293730676,-0.2117993254400789,-9.80339673936367,14940.0
8.4,0.8000000119209291,30.0,24.386192321777344,-0.055662415921688,-79.78272053802719,40.45899432814532,275.8878643808365,0.0050136847421526,0.0106399208307266,-0.7057408094406128,0.7083725333213806,0.0015128068342347,-0.0045628860326265,0.0130258144764632,-0.0043199672363698,0.0004316116392146,-0.0048394012264907,-0.0799662014935165,-0.2307916117832065,-9.804633425474169,14940.0
8.6,0.8000000119209291,32.0,24.3974609375,0.0159035474061965,-79.78272054321471,40.45899432634548,275.8891724047661,0.0050138342194259,0.010640949010849,-0.7057435512542725,0.708369791507721,0.0019707707249085,-0.0045233145163437,0.0131600092061521,0.004382143728435,0.0004405396466609,0.004445572849363,-0.0789597038179636,-0.2310874260775745,-9.805599385499956,14940.0
8.7,0.8000000119209291,32.0,24.392452239990234,0.0318070948123931,-79.78272059217916,40.45899433478945,275.8914709386826,0.0050173834897577,0.0106465723365545,-0.7057449817657471,0.7083682417869568,0.004369206008291,-0.0033693521859453,0.012149280316033,0.0029252616222947,0.0046721831895411,0.005108640063554,-0.0792948771826922,-0.2102420291863382,-9.803401417136191,14940.0
8.9,0.8000000119209291,32.0,24.39370346069336,0.0159035474061965,-79.78272064261441,40.45899436292975,275.8924535212517,0.0050151282921433,0.0106445178389549,-0.7057448625564575,0.7083683609962463,0.0009261839107735,-0.0026481837798744,0.0114606704384559,-0.0048007126897573,0.001846631639637,-0.003206625347957,-0.0801780625618994,-0.2156689944863319,-9.802572281956673,14940.0
9.0,0.8000000119209291,32.0,24.39370346069336,0.0,-79.78272064893609,40.45899436037857,275.89476814842226,0.0050145997665822,0.0106445299461483,-0.7057465910911559,0.7083666920661926,0.0003793576119374,-0.0028782179969754,0.011733084846576,-0.0054630488157272,-0.003617372829467,-0.0019718033727258,-0.0792738454788923,-0.2231324719078839,-9.803659279346467,14940.0
9.2,0.8000000119209291,31.0,24.39620780944824,0.0238553211092948,-79.78272068694787,40.45899437438389,275.8954703507424,0.0050140405073761,0.0106482245028018,-0.7057465910911559,0.7083666324615479,0.002671658603847,-0.0001436397784005,0.0114817141307202,0.0030272975564002,0.0040848753415048,0.0010510527063161,-0.0802379234321415,-0.2153018989786505,-9.802655897140504,14940.0
9.3,0.8000000119209291,31.0,24.39370346069336,0.0238553211092948,-79.78272075775091,40.45899438661696,275.8967604336739,0.0050221681594848,0.0106479004025459,-0.7057463526725769,0.7083668708801271,0.0044607318259593,-0.0046905559770574,0.0112021967790957,-0.0003253286995459,2.223209207841137e-07,-0.0031998541671782,-0.0801483970787376,-0.2290068588405848,-9.805315210819243,14940.0
9.51,0.8999999761581421,32.0,24.39620780944824,0.0159035474061965,-79.78272076313023,40.45899438232272,275.89787408685686,0.0050221681594848,0.0106479004025459,-0.7057463526725769,0.7083668708801271,0.0048368523181958,-0.0046482002553354,0.0111919341872872,0.0030513308010995,-0.0012550288811326,0.0073899687267839,-0.0793193167168647,-0.2300226481072605,-9.803921819329265,14940.0
9.6,0.8000000119209291,31.0,24.3974609375,0.0,-79.7827207821059,40.45899438066198,275.9005804953576,0.0050202310085296,0.0106607256457209,-0.705748438835144,0.7083645462989807,0.0094873730209075,0.0035250681641023,0.0147515007296932,0.0066384756937623,0.0023376736789941,0.0063129714690148,-0.0786407290678471,-0.2105486425571144,-9.803396154642105,14940.0
9.8,0.8000000119209291,30.0,24.39119911193848,0.0159035474061965,-79.7827207777954,40.45899437255988,275.9020483789444,0.005020176526159,0.0106608476489782,-0.7057503461837769,0.7083626389503479,0.0080131516509702,0.0035012806944542,0.0150639860275992,-0.0027674348093569,-0.0016021316405385,-0.00526565592736,-0.08003192785196,-0.2190873498469592,-9.80423815369606,14940.0
9.91,0.8000000119209291,30.0,24.39620780944824,0.0159035474061965,-79.78272086074502,40.45899442731138,275.9045170841217,0.0050184708088636,0.0106463460251688,-0.7057502865791321,0.7083629369735718,-0.0004903189157492,-0.0026814292083259,0.0171137881165509,-0.0026541121769696,0.000620647566393,0.0020424420945346,-0.0797145428135991,-0.2198068314604461,-9.80316694378853,14940.0
10.1,0.8000000119209291,29.0,24.39370346069336,0.0079517737030982,-79.78272086379765,40.45899442715546,275.9062379894257,0.0050205290317535,0.0106490049511194,-0.7057511210441589,0.7083620429039001,-0.0006433995852349,-0.0027688351788011,0.0172455354635657,0.0019787517376244,0.0026988759636878,0.0006812206702306,-0.0792337372340262,-0.2123228522390128,-9.802103335261345,14940.0
10.21,0.8999999761581421,27.0,24.392452239990234,0.0079517737030982,-79.78272090636378,40.45899444645827,275.907932668686,0.0050154007039964,0.0106540983542799,-0.7057546973228455,0.7083585262298584,0.0003492564269078,-0.0002719560035278,0.0182102286633012,-0.0045786201953887,-0.0033685492817312,-0.003375741885975,-0.0792219148948788,-0.2310726618580521,-9.804968470931051,14940.0
10.4,0.8000000119209291,27.0,24.39620780944824,0.0079517737030982,-79.78272096544606,40.45899448208785,275.90761533355715,0.0050053354352712,0.0106345266103744,-0.7057543396949768,0.7083592414855957,4.239464849265323e-05,-0.0007562284682984,0.0187402940160383,0.0049348366446793,-0.0014451071619987,0.006025698967278,-0.0795149243529886,-0.2293076067231596,-9.80474393785,14940.0
10.51,0.8000000119209291,27.0,24.39119911193848,-0.0079517737030982,-79.78272096713329,40.45899448297264,275.9114241895676,0.005013427697122,0.010638004168868,-0.7057557106018066,0.7083576321601868,-0.0007711789067832,-0.0009708659001813,0.0191530457636831,0.005509621463716,0.0013598445802927,0.0037099402397871,-0.0808479616139084,-0.2114916705340147,-9.803508421182633,14940.0
10.7,0.8000000119209291,28.0,24.3974609375,0.0238553211092948,-79.78272101160944,40.45899451674129,275.9104516801834,0.005022550933063,0.0106354663148522,-0.7057465314865112,0.7083668112754822,-0.0025041633605569,0.0020391493933372,0.0195142141127635,-0.0029036949854344,-0.0010956135811284,-0.0023326245136559,-0.0802237713430076,-0.2211953624524176,-9.80540818154812,14940.0
10.8,0.8000000119209291,30.0,24.39620780944824,0.0238553211092948,-79.78272108596823,40.45899453474341,275.912843495369,0.0050597614608705,0.0106426049023866,-0.7057339549064636,0.7083789706230164,0.0011015363821931,1.9322209420258264e-05,0.0235774816880783,-1.634677937545348e-05,0.0005333110457286,0.0025805674958974,-0.0798491384088993,-0.2187124519608915,-9.803924158215525,14940.0
10.91,0.8000000119209291,32.0,24.40246772766113,0.0715659633278846,-79.78272108586353,40.45899453334823,275.9152081308365,0.0050713759846985,0.0106476191431283,-0.705734133720398,0.7083786725997925,0.0006583942630233,-0.0002111093485411,0.0237276470792727,0.0006874133832752,-0.001560311182402,-0.0075665367767214,-0.080434042699635,-0.2107620476558804,-9.801957154870031,14940.0
11.11,0.8000000119209291,33.0,24.39370346069336,0.0159035474061965,-79.78272115623086,40.458994556320526,275.91532132005693,0.0050804303027689,0.0106411995366215,-0.7057303786277771,0.7083824276924133,0.0016703363783314,-0.0010817810195936,0.0228337822523464,-0.0050451238639652,-0.0009897269774228,-0.0059978435747325,-0.0796259392239153,-0.2310228691622615,-9.80536023437977,14940.0
11.3,0.8000000119209291,34.0,24.39620780944824,0.0079517737030982,-79.78272115724981,40.458994553835296,275.9176104960442,0.005067987833172,0.0106642814353108,-0.7057262659072876,0.7083863019943237,0.002497804914876,-0.0011490169961777,0.0229608639363724,0.0044860141351819,0.0050123776309192,0.0076037608087062,-0.0786837152391672,-0.2291280241124332,-9.8049088293314,14940.0
11.4,0.8000000119209291,35.0,24.39119911193848,0.0079517737030982,-79.7827212194079,40.458994593237406,275.916985660553,0.0050755720585584,0.0106742903590202,-0.7057275176048279,0.7083848118782043,0.000843983135288,0.0014340513582249,0.0221132414476469,0.007707365322858,0.0002212055260315,0.0034988294355571,-0.0792017876822501,-0.212863683141768,-9.803221322894094,14940.0
11.6,0.8000000119209291,36.0,24.38869667053223,0.0079517737030982,-79.78272121753373,40.45899459274693,275.91920641040804,0.0050619882531464,0.0106733748689293,-0.7057141661643982,0.708398163318634,-0.000466409062956,0.0013587890984223,0.0223378669182234,-0.0055165914818644,-0.0018442218424752,-0.0015922703314572,-0.0801579901669174,-0.2221331462077796,-9.80441649377346,14940.0
11.71,0.8000000119209291,36.0,24.392452239990234,0.0238553211092948,-79.78272130280868,40.45899461895122,275.9173174200058,0.0050679352134466,0.010679192841053,-0.7057161927223206,0.7083960771560669,0.0024275490501042,-0.0003039475261993,0.0212400949679934,-0.0002023824345087,-0.0003647007979452,0.0027787045110017,-0.0795458963233977,-0.2166350276023149,-9.80269565820694,14940.0
11.91,0.8000000119209291,37.0,24.39495658874512,0.0238553211092948,-79.78272135188062,40.45899465616874,275.9127446112633,0.0050726919434964,0.0106867644935846,-0.7057198286056519,0.7083922624588013,0.0038365487098302,0.0057120604535845,0.02045638610313,-0.0019446985097602,-0.0005082390853203,-0.0063249287195503,-0.0791884395852685,-0.2107257401011884,-9.803106717467308,14940.0
12.01,0.8000000119209291,39.0,24.392452239990234,0.0,-79.78272133807981,40.45899464839397,275.9168484506607,0.0050734463147819,0.0106878820806741,-0.7057223916053772,0.7083896994590759,0.0030387634340803,0.0055647396737902,0.0209135477876619,-0.0055935382843017,-0.0002316655736649,-0.0055429758504033,-0.0790661596879363,-0.2304449632577598,-9.804562674164773,14940.0
12.2,0.8000000119209291,42.0,24.392452239990234,0.0079517737030982,-79.78272146914357,40.45899470043566,275.91213235235216,0.0050805630162358,0.0106757273897528,-0.7057213783264159,0.7083908319473267,0.0021524081462512,-0.0038751972213756,0.0201751049297209,0.0052011827938258,0.002788518089801,0.0043329168111085,-0.0782941079512238,-0.2251869276724756,-9.804635764360428,14940.0
12.3,0.8000000119209291,42.0,24.38869667053223,-0.0079517737030982,-79.78272155164062,40.45899475331348,275.9072311220169,0.0050756395794451,0.0106763541698455,-0.7057218551635742,0.708390474319458,0.0002878907556605,-0.0002243147013624,0.0164562911475397,0.000431049382314,0.0009439173154532,0.0006981111364439,-0.0798955872282385,-0.2150092092901468,-9.803369257450104,14940.0
12.5,0.8999999761581421,42.0,24.39370346069336,-0.0397588685154914,-79.78272155185284,40.45899475307639,275.90888944244386,0.0050756395794451,0.0106763541698455,-0.7057218551635742,0.708390474319458,-0.0001047485970873,-0.0003624091279835,0.0166573477421925,0.0036537360865622,-0.0008062988636083,0.0062327552586793,-0.080417908038944,-0.2292641363292933,-9.805150319337846,14940.0
12.6,0.8999999761581421,41.0,24.39119911193848,-0.0079517737030982,-79.78272167118179,40.45899481067777,275.9022891817093,0.0050835930742323,0.0106685413047671,-0.7057174444198608,0.7083948850631714,-0.0008854334509388,-0.005378432629522,0.0134245699902255,0.0039844750426709,-0.0002377857454121,0.0069020786322653,-0.0800345408264547,-0.2092716472037136,-9.803243542313576,14940.0
12.8,0.8999999761581421,41.0,24.384939193725582,0.0079517737030982,-79.78272167744589,40.4589948117409,275.9036547241211,0.0050808149389922,0.010665045119822,-0.7057198882102966,0.7083925008773804,-0.0022413600234767,-0.0054952840172286,0.0137301987783094,-0.0038216507527977,0.0001436863240087,-0.0037101285997778,-0.0796133037563413,-0.2163301866687834,-9.804322353601457,14940.0
12.91,0.8999999761581421,42.0,24.392452239990234,0.0079517737030982,-79.78272178181383,40.45899483628576,275.89624413824083,0.0050927866250276,0.0106708705425262,-0.7056867480278015,0.7084254026412964,0.0053608518708735,-0.0046891552048842,0.0117452626606836,-6.644862151006237e-05,-0.0017911497270688,-0.0003154033038299,-0.081472069658339,-0.2273565553128719,-9.804312413334848,14940.0
13.1,0.8999999761581421,43.0,24.38994789123535,-0.0079517737030982,-79.78272178730072,40.458994830975605,275.8974204359055,0.0051163951866328,0.0106742475181818,-0.7056848406791687,0.7084270119667053,0.0051284735730765,-0.0048931088988706,0.0119583697897212,-0.0004284016613382,-0.0005623385659419,-0.0034258882515132,-0.0800337368343025,-0.2107460226304828,-9.80312133550644,14940.0
13.2,0.8999999761581421,43.0,24.386192321777344,-0.0397588685154914,-79.78272193320531,40.45899489191768,275.8901242313385,0.0050984593108296,0.0106566464528441,-0.7056834101676941,0.7084288597106934,0.001967829276038,-0.0108145162752801,0.0109440749715182,-0.0017676071729511,0.0015726624988019,-0.004864880349487,-0.0794226388446986,-0.2305330917611718,-9.804648628234863,14940.0
13.4,0.8000000119209291,44.0,24.386192321777344,-0.0159035474061965,-79.78272201822936,40.45899492879175,275.8828690943718,0.0051169744692742,0.0106700519099831,-0.7056785225868225,0.7084333896636963,0.0078398539322711,-0.0050445323889961,0.0134664072769211,0.0047738407738506,0.0015383490826934,0.0050421254709362,-0.0783399994578212,-0.2265666147507727,-9.804307735562324,14940.0
13.5,0.8000000119209291,45.0,24.39119911193848,0.0,-79.78272203018552,40.45899491520704,275.8855997619629,0.0051123378798365,0.0106958951801061,-0.7056792974472046,0.7084322571754456,0.0073059427730423,-0.0054365381228554,0.0139531532072462,0.0027953323442488,0.0003336467780172,0.0033425993751734,-0.0806905618775636,-0.21954160541296,-9.805059687495232,14940.0
13.71,0.8000000119209291,45.0,24.38869667053223,0.0079517737030982,-79.78272215533795,40.45899496897861,275.8778098521233,0.0051156538538634,0.0106914481148123,-0.7056761384010315,0.7084354758262634,0.00694348427733,-0.0084951304541367,0.0157590023820984,-0.0048432881012558,-0.0016560797812417,0.0043457243591547,-0.0803226532414555,-0.2270652360655367,-9.805325151085857,14940.0
13.81,0.8999999761581421,42.0,24.386192321777344,0.0318070948123931,-79.782722261403,40.45899502140674,275.8667198119164,0.0051099406555294,0.010694220662117,-0.7056770324707031,0.7084345817565918,0.007083523685156,-0.0030497055508908,0.0093090858709488,0.0059131952002644,-0.0009255422046408,0.0014720191247761,-0.0788795878272503,-0.2108949621766805,-9.80388264298439,14940.0
14.0,0.8000000119209291,42.0,24.39370346069336,0.0318070948123931,-79.78272226502202,40.45899501526655,275.8676502404213,0.0051099406555294,0.010694220662117,-0.7056770324707031,0.7084345817565918,0.0059259958651353,-0.0032605751429308,0.0095421084528449,-0.0049678636714816,-0.0016121860826388,-0.0047046355903148,-0.0788222394324839,-0.2105655263923108,-9.803403756022451,14940.0
14.11,0.8999999761581421,42.0,24.33360481262207,1.296139121055603,-79.78272237962936,40.45899506585433,275.85778138017656,0.0051182387396693,0.0107074854895472,-0.7056434154510498,0.7084677219390869,0.005604061284833,-0.0033000714764366,0.0092760662773017,-0.0055271103046834,-0.0060507101006805,-0.0023211585357785,-0.078903872044757,-0.2259541006386281,-9.804597172737124,14940.0
14.3,0.8999999761581421,43.0,24.36991500854492,0.3021674156188965,-79.7827223834297,40.458995059775226,275.8586952981949,0.0051303589716553,0.0106999678537249,-0.7056896686553955,0.7084216475486755,0.0066734625883149,-0.0037363354232433,0.0092420797322905,0.0074239526875317,0.0050111492164433,-0.005665139760822,-0.0774871282372623,-0.2294135875068605,-9.804114777445792,14940.0
14.41,0.8999999761581421,43.0,24.37367057800293,0.3021674156188965,-79.78272252925066,40.458995128240254,275.8479795751572,0.0051233731210231,0.0107306484133005,-0.705640971660614,0.7084698677062988,0.0023144728804007,-0.0069471004059075,0.009188875939715,-0.001779154757969,-0.0066330824047327,-0.002723268000409,-0.0831354837398976,-0.2162142473459244,-9.801495809555057,14940.0
14.51,0.8999999761581421,44.0,24.3686637878418,0.2862638533115387,-79.78272253762363,40.45899512540794,275.8488951621056,0.0051293214783072,0.0107124364003539,-0.7056902647018433,0.708420991897583,0.0031379357307872,-0.0072239591680635,0.0092058946901905,0.0031389468349516,0.0048777270130813,0.0057821404188871,-0.0764873731322586,-0.2351151343993843,-9.808488494753838,14940.0
14.71,1.0,45.0,24.372419357299805,0.3180709481239319,-79.78272264434291,40.45899518059922,275.83474734401705,0.0051322230137884,0.0107442922890186,-0.7056644558906555,0.7084461450576782,0.0046744242034912,-0.0023509737029589,0.0051026057107739,0.0049307039007544,-0.0001450939598726,-0.003371296217665,-0.0793816626537591,-0.2066606278717518,-9.80370196402073,14940.0
14.9,1.0,45.0,24.372419357299805,0.3816851377487183,-79.78272279797396,40.458995279413685,275.8192036447525,0.0051154471002519,0.0107340682297945,-0.7057004570960999,0.7084106206893921,-0.0028505733241471,-0.0068580624141028,0.0018360872046689,-0.0039287344552576,-0.0013283431762829,0.0007993699982762,-0.0784908119402825,-0.2213766809552908,-9.804988351464274,14940.0
15.0,1.0,45.0,24.362401962280277,0.3975887000560761,-79.78272281440786,40.45899528419482,275.8196158704758,0.0051246997900307,0.0107427202165126,-0.7056649923324585,0.70844566822052,-0.0039314108929662,-0.0070305857635174,0.0020266358245043,-0.0058955876156687,-0.0036864932626485,-0.0094176884740591,-0.0761871368810534,-0.2295843079313636,-9.808363364338875,14940.0
15.2,1.0,44.0,23.274370193481445,26.95651435852051,-79.78272294098895,40.45899533065523,275.8039990959168,0.0051407171413302,0.0107567925006151,-0.7056794762611389,0.7084309458732605,0.0034878200474546,-0.0054743815525467,0.0007461326786123,0.0027619095053523,0.0014564713928848,-0.0025503046344965,-0.0756657708110287,-0.2185327414423227,-9.804753878116609,14940.0
15.3,1.0,43.0,24.14579772949219,2.329869747161865,-79.78272309145001,40.458995401345774,275.78888419246675,0.0052209044806659,0.010899537242949,-0.7056993246078491,0.7084084749221802,-7.05499778968713e-05,-0.0078136940616827,0.0035956353583952,-0.0131477992981672,-0.0081948125734925,-0.0145672066137194,-0.0812795135378837,-0.2201728488877416,-9.804470872879028,14940.0
15.5,1.0,40.0,24.36490631103516,0.2306014448404312,-79.78272310175967,40.45899540040924,275.7892017064095,0.0052134622819721,0.0109223872423172,-0.7056626677513123,0.7084446549415588,-0.0032863085484623,-0.0081693893645597,0.0037912969212302,-0.0368018560111522,-0.0266167856752872,-0.0015908724162727,-0.1048523989878594,-0.1962774346768856,-9.798787379264832,14940.0
15.61,1.0,40.0,23.026464462280277,16.873664855957028,-79.78272328691213,40.45899546005175,275.7721391615868,0.0052805705927312,0.0108676441013813,-0.7056912779808044,0.7084165215492249,0.0051226857879655,-0.0158264527666659,0.0020547134431195,0.0040202219970524,0.0295113548636436,0.0088206445798277,-0.0879358742013573,-0.2466196225583553,-9.805997580885888,14940.0
15.8,1.0,40.0,24.33861351013184,0.4532511234283447,-79.78272330396375,40.45899545610517,275.7723656592369,0.0053548482246696,0.0109839467331767,-0.705626368522644,0.7084788084030151,0.0073109584641897,-0.0152607049076586,0.0021391685418193,0.0097544258460402,-0.0087022054940462,0.0020340916234999,-0.0944640346616506,-0.2737066115252674,-9.81448481440544,14940.0
15.91,1.0,40.0,24.354890823364247,0.2544567584991455,-79.7827234929668,40.458995521671575,275.75107285356523,0.0053159776143729,0.010912294499576,-0.7056455612182617,0.7084611058235168,-0.000123549884728,-0.0171626743254016,-0.0039953615515593,-0.0282833017408847,-0.0034560293424874,-0.0151120573282241,-0.0896831044647842,-0.2877885523438453,-9.803879719376564,14940.0
16.1,0.8999999761581421,40.0,24.29604339599609,1.884570360183716,-79.78272351417186,40.45899552000076,275.7506539521217,0.0052726473659276,0.0108554027974605,-0.7056475877761841,0.70846027135849,0.0037634616697226,-0.0169303355570426,-0.0041779590663633,0.0150188645347952,-0.0021334795746952,-0.0096928784623742,-0.075322699137032,-0.255210589338094,-9.806829054951669,14940.0
16.2,0.8999999761581421,38.0,24.14204216003418,4.206488609313965,-79.78272365822689,40.45899557225055,275.73194178915026,0.0052714757621288,0.0108251916244626,-0.7056688070297241,0.7084395289421082,0.0043987958127657,-0.0140709305366175,-0.0029105553008953,0.0039608594961464,-0.0023937874939292,-0.0078093619085848,-0.0975527806486934,-0.1945756025612354,-9.80787687599659,14940.0
16.4,0.8999999761581421,36.0,24.003063201904297,6.1387696266174325,-79.78272379278846,40.45899563991036,275.71104952669145,0.005279276985675,0.0108537385240197,-0.7056764364242554,0.7084314823150635,0.0067291472712789,-0.0099349015064742,-0.0061292390576874,0.0279352702200412,-0.0103571070358157,0.0053960522636771,-0.0807359782978892,-0.3035625129193067,-9.815489366054535,14940.0
16.51,0.8999999761581421,35.0,23.91291618347168,6.902139663696289,-79.78272381790771,40.45899563479912,275.7099535164833,0.0055122571066021,0.0111018745228648,-0.7057409286499023,0.7083615660667419,0.0026449178635372,-0.0089281720988118,-0.0029726082917799,-0.0200449302792549,0.0009076657588593,-0.0088027222082018,-0.0897805062867701,-0.2241822846606374,-9.803217814564707,14940.0
16.7,0.8999999761581421,36.0,23.75140190124512,9.661405563354492,-79.7827239489753,40.45899570189371,275.68975403881075,0.0058292807079851,0.0114306323230266,-0.7057647109031677,0.7083301544189453,0.0013463385935387,-0.0075702108129128,-0.0027568048042682,0.0013727067271247,-0.0288686491549015,0.038576167076826,-0.0423478380963206,-0.2095512720197439,-9.86655894756317,14940.0
16.81,0.8999999761581421,36.0,23.64748191833496,10.838268280029297,-79.78272409383811,40.45899574173872,275.66835859394075,0.0069657377898693,0.0125296292826533,-0.7056685090065002,0.7083971500396729,0.0111849339566057,-0.0027270201684233,0.0011763146698805,0.0078055905178189,0.0194513984024524,0.0369060300290584,-0.2343504099547863,-0.219093087427318,-9.759839075803756,14940.0
17.0,0.8999999761581421,34.0,23.433380126953125,14.011025428771973,-79.782724103262,40.45899573226932,275.6681937274933,0.0077817104756832,0.0132509283721447,-0.7056741714477539,0.7083698511123657,0.0029603949069467,-0.0004480685901722,0.0003579745267899,-0.0685660168528556,0.0212711468338966,0.1142110228538513,-0.0806754778884351,-0.3311455102264881,-9.818543951511383,14940.0
17.1,0.8999999761581421,36.0,23.28939437866211,15.569573402404783,-79.78272427972071,40.45899574276167,275.6493203935624,0.0097916619852185,0.014224243350327,-0.7057063579559326,0.7082939743995667,0.0134890437794613,-0.0248236034544836,0.0058652519931898,0.0239554662257432,0.0386710241436958,-0.0360154584050178,-0.1914848191849887,-0.324148841612041,-9.763419910669327,14940.0
17.3,1.0,36.0,23.08781433105469,18.74233055114746,-79.78272431419883,40.458995730381496,275.650152712822,0.0116872107610106,0.0132649419829249,-0.7057273387908936,0.7082629203796387,0.0178291480864191,-0.0260317081932251,0.0078865048431228,0.0327511802315712,-0.0105674434453248,-0.0428132116794586,-0.1320586711540818,-0.1417533912509679,-9.755812098383904,14940.0
17.4,1.0,36.0,22.96010589599609,20.491722106933597,-79.78272445017744,40.458995755608136,275.6262426671982,0.0122833456844091,0.0127179464325308,-0.7055274844169617,0.7084619402885437,0.008887144600559,-0.0030717388477337,0.0229826098403245,-0.0840554162859916,-0.0204837955534458,0.0171926338225603,0.03998395498842,-0.3709970257803798,-9.773651368618012,14940.0
17.6,1.100000023841858,34.0,22.70218276977539,24.41989707946777,-79.78272444453421,40.458995737754286,275.62989804124834,0.0072031375020742,0.0120932105928659,-0.7067340612411499,0.7073392868041992,0.0268312409309275,0.0002754544971036,0.0520853065394794,-0.1367017328739166,0.0773616284132003,-0.028041798621416,-0.0498753699380904,-0.0879711128119379,-10.07622372865677,14940.0
17.7,1.100000023841858,35.0,22.57572555541992,26.034107208251957,-79.78272463621218,40.45899568894578,275.617057472229,-0.0101625835523009,-0.0062675126828253,-0.7076082825660706,0.7065040469169617,0.0446225319319523,0.0253551364623783,0.141738093880307,-0.2294306606054306,0.0510439164936542,0.1203910484910011,-0.0538121494883671,0.0914075854048133,-10.177982822656633,14940.0
17.9,1.2000000476837158,35.0,22.704687118530277,22.33653259277344,-79.78272464564205,40.45899549968487,275.6031326351166,-0.0128477923572063,-0.0109124043956398,-0.7076793313026428,0.7063326239585876,0.0380732692298617,0.0429200633314269,0.2044673268603574,-0.1425975710153579,-0.0493981316685676,-0.1207370012998581,0.0033464780054055,0.4732229834049939,-10.76444802761078,14940.0
18.0,1.2999999523162842,36.0,22.83615303039551,20.380395889282227,-79.78272447986686,40.45899541781525,275.6600649652481,-0.0072456654161214,-0.0043115825392305,-0.7068570256233215,0.7073062062263489,0.0258597020338503,0.077452580102951,0.3278756649232731,-0.0640746802091598,0.0270199701189994,-0.0725358426570892,0.0804137327615171,0.0906981171481311,-10.707449369430543,14940.0
18.21,1.399999976158142,36.0,22.74224853515625,22.121835708618164,-79.78272462922675,40.45899557866889,275.6565737423897,-0.0048580490984022,-0.0049833906814456,-0.7061717510223389,0.7080064415931702,0.016442517521076,0.0832695668872572,0.2836772449382866,-0.0904531702399253,0.0400685928761959,-0.1253373324871063,-0.023682972989045,0.3143568019196391,-9.79168827474117,14940.0
18.31,1.399999976158142,37.0,22.76353454589844,22.360387802124023,-79.78272456245878,40.45899572726207,275.67002722597124,-0.0005964509909972,-0.0089393388479948,-0.7045574188232422,0.709590494632721,0.025104968149924,0.1006401479578536,0.2052078751928832,0.0508765168488025,0.0061954907141625,-0.0336900800466537,0.0805067308992147,0.0740979724097996,-9.752614840865135,14940.0
18.5,1.399999976158142,37.0,22.568214416503903,24.04616355895996,-79.78272445165071,40.45899570867886,275.689377635479,0.0004846990923397,-0.0075594000518321,-0.704021155834198,0.7101386189460754,0.0171512160874145,0.0961262698746715,0.1827657326370197,-0.0263492353260517,-0.0265572257339954,-0.1166022717952728,0.0868987425975501,0.3227118883654476,-9.595197270512582,14940.0
18.6,1.399999976158142,39.0,22.59701156616211,23.815563201904297,-79.78272440468658,40.458995631254695,275.711609035492,0.0031954096630215,-0.0086724683642387,-0.7039546966552734,0.7101848721504211,0.0487894239419278,0.0930837586493786,0.1804337731008192,0.0369082540273666,0.0565193630754947,0.0643886029720306,0.1473547223489731,0.2661788147315383,-9.759759553670882,14940.0
18.8,1.5,38.0,22.54692840576172,24.642547607421875,-79.78272430250058,40.458995591247934,275.7297925052643,0.0040465565398335,-0.0089964801445603,-0.7043465971946716,0.7097877264022827,0.0295262780687929,0.0910576632527778,0.1820623342586352,-0.1459361910820007,-0.09479670971632,-0.0662947073578834,0.1198139254935085,0.2894506233930588,-9.791269614100456,14940.0
18.9,1.5,38.0,22.598262786865234,23.07604789733887,-79.78272413738596,40.45899562426429,275.7588401732445,0.0008600550936535,-0.0124525800347328,-0.7055246829986572,0.7085754871368408,0.020010720204249,0.0678655696782055,0.250846881907296,-0.0915297493338584,-0.045808095484972,-0.0549046844244003,0.139403377007693,-0.0870055091008544,-9.974995561838153,14940.0
19.1,1.600000023841858,41.0,22.652101516723643,22.91701316833496,-79.78272407026381,40.45899561072832,275.78485175943376,-0.0013097767950966,-0.0142491571605205,-0.7060769200325012,0.7079905867576599,0.0235213674281018,0.0572965287513755,0.261533485228976,0.0090335868299007,0.077721893787384,0.0559115447103977,0.1190793507546186,0.0755196269648149,-9.945345500707628,14940.0
19.21,1.600000023841858,40.0,22.65085029602051,23.29869842529297,-79.782724065876,40.458995683396665,275.82692417478563,-0.0040568290278315,-0.0133914938196539,-0.7071790099143982,0.7068961858749391,0.0001358276029868,0.0535973304501639,0.2575418713335513,-0.0423146411776542,-0.062772661447525,0.0077323643490672,0.0612284563248977,0.5519719681888821,-9.759044439196588,14940.0
19.4,1.7000000476837158,42.0,22.5494327545166,23.974597930908203,-79.78272406046608,40.45899565814036,275.8448871073723,-0.004256248474121,-0.0123005807399749,-0.70757657289505,0.7065168023109436,0.0091401190583693,0.0717582755789776,0.2768168938889082,0.081573948264122,0.0398014336824417,0.0064798281528055,0.0725096128229051,0.1027431986667216,-9.897042821645735,14940.0
19.5,1.7000000476837158,43.0,22.52814865112305,24.10182762145996,-79.78272392074791,40.458995678369696,275.9021235404015,-0.0010747723281383,-0.0114514622837305,-0.7075551748275757,0.7065644860267639,-0.001420832860361,0.0533197649574352,0.295732794879431,0.1051325500011444,0.0976307094097137,0.0772046670317649,0.0413934720028191,0.0857241283357143,-9.91236603498459,14940.0
19.7,1.7000000476837158,44.0,22.73849296569824,23.48158836364746,-79.78272399935047,40.45899568211379,275.9169873890877,-0.000704251404386,-0.0118134766817092,-0.7075557112693787,0.7065584659576416,-0.0123505411383957,0.0561538313633451,0.2655286406126192,-0.0386468209326267,0.0215299967676401,0.0158288422971963,0.0316322672367095,0.161675055976957,-9.362070536613464,14940.0
19.8,1.7000000476837158,45.0,22.38416290283203,26.717960357666016,-79.78272394197863,40.45899571778408,275.94826528406145,-0.0025273158680647,-0.0097770150750875,-0.7080235481262207,0.7061166763305664,-0.0043329940759157,0.0492128120067164,0.1100459823284438,0.0642509162425994,0.0235348585993051,0.0539572164416313,0.0824999918974936,0.0531693623308092,-8.704730061292649,14940.0
20.0,1.7000000476837158,46.0,22.133752822875977,30.200838088989247,-79.78272388952516,40.45899572775805,275.96104243373867,-0.0021679583005607,-0.0084001990035176,-0.7084090709686279,0.7057488560676575,-0.0271812584392025,0.0457865913320226,0.1534873005273752,-0.1407192796468734,-0.0910529643297195,-0.1245904564857482,0.0219044327130541,0.4385827988013625,-10.01393450975418,14940.0
20.1,1.7000000476837158,48.0,22.14752578735352,30.91649627685547,-79.78272399091708,40.458995658832656,276.0186783370972,-5.255985524854623e-05,-0.0077846348285675,-0.7093334794044495,0.7048301696777344,-0.0005711079089842,0.0569466884014004,0.4029556889487296,0.0066842786036431,0.0204136651009321,0.0910326018929481,0.1316649342700839,-0.0122068666666746,-10.57081046462059,14941.0
20.21,1.7000000476837158,50.0,22.04110145568848,30.908544540405277,-79.78272393413656,40.45899566736232,276.06644585704805,0.0001626299053896,-0.0077612311579287,-0.7096395492553711,0.7045221328735352,0.0012230558206799,0.056393833724917,0.5551475800272229,0.0341966375708579,0.0043195220641791,0.038650382310152,0.1159531734511256,0.1625653859227895,-11.175641773939132,14941.0
20.4,1.7000000476837158,53.0,21.723079681396484,36.450931549072266,-79.7827243145769,40.45899571604159,276.1762389240265,-0.0028388192877173,-0.0071182064712047,-0.7101444005966187,0.7040144205093384,-0.020313710927509,0.0370867739702543,0.9301517365798004,-0.0667054802179336,-0.0112527757883071,-0.0412262268364429,0.1445692275837063,0.2108037821576,-11.56784727215767,14941.0
20.5,1.7999999523162842,54.0,21.66172981262207,35.9420166015625,-79.78272427628194,40.45899574127629,276.2811359462738,-0.0033507442567497,-0.0063205915503203,-0.7103496789932251,0.7038127183914185,-0.0082769438404454,0.0446915813464795,1.1661637023525773,0.0722778141498565,-0.0466512367129325,0.0716815739870071,0.1432419735845178,0.0907355484645813,-12.109695882797242,14941.0
20.7,1.7999999523162842,55.0,21.640443801879886,37.13478469848633,-79.78272457342374,40.458995802924704,276.37541177845003,-0.0031092772260308,-0.0036108340136706,-0.7101311683654785,0.7040532827377319,-0.0159052043999861,0.0437411696952271,1.3654082374403151,0.0660364404320716,-0.0345378518104553,-0.0540170818567276,0.161798870768398,0.0802958382759243,-12.022489339113235,14941.0
20.81,2.0,55.0,21.32743263244629,40.65742111206055,-79.78272491493594,40.458995914438376,276.64050856208803,0.0005492910859175,-0.0016143778339028,-0.7083637118339539,0.7058455944061279,-0.0332284164545426,0.0402357421783228,1.8006157754740697,-0.0358158908784389,0.0344258546829223,-0.006101896520704,0.1083797592390328,-0.0151194561459124,-12.29837617635727,14941.0
21.0,2.0,54.0,21.50397109985352,38.31959915161133,-79.78272486480567,40.45899594817253,276.8340369758606,0.0020585607271641,-0.0034817319829016,-0.7073315978050232,0.7068703770637512,-0.0351648201191957,0.0558151997833213,2.0654397702873326,-0.0189542137086391,0.0391758047044277,-0.0606837570667266,0.2324363239109516,0.1082410157751292,-12.400992472171788,14941.0
21.1,2.200000047683716,55.0,21.51899528503418,37.914058685302734,-79.78272524286658,40.458996040767936,277.2199241218567,0.0032274820841848,-0.0039319521747529,-0.7064311504364014,0.7077634930610657,-0.0237087274446057,0.0674735956471881,2.481180908063025,-0.022878473624587,-0.0403586030006408,0.0249709449708461,0.2696052831038833,0.1650942701473832,-12.205953916311266,14942.0
21.3,2.299999952316284,55.0,21.716819763183597,32.642032623291016,-79.78272587690545,40.45899614849591,277.61118736839296,0.0005400196532718,-0.0053647309541702,-0.706389844417572,0.7078025341033936,-0.0123704528703778,0.0478155792722756,2.7714149273489834,-0.0312427040189504,-0.0448840335011482,-0.0624416582286357,0.2263826101832092,0.0828231327887624,-12.100711051225662,14942.0
21.4,2.400000095367432,54.0,21.72933959960937,34.26419448852539,-79.78272585264985,40.458996165671714,277.8953472671509,-0.0014356856700032,-0.0052325171418488,-0.7065795063972473,0.7076129317283629,0.0086787142144974,0.0503870175831292,2.904864734462511,0.0037103390786796,-0.0579396560788154,0.0538850277662277,0.1268366233538836,0.169386363979429,-11.23527401804924,14942.0
21.6,2.400000095367432,57.0,21.58284950256348,24.69025802612305,-79.78272582019663,40.45899618004154,278.1919437942505,-0.0029084465932101,-0.0048745172098279,-0.7070820331573486,0.707108736038208,0.0102168102296743,0.0475599492121642,3.022152337344343,-0.0502425990998744,0.0074254502542316,-0.0083824833855032,0.105139186643064,0.2715777133964002,-11.003187503814695,14943.0
21.8,2.299999952316284,60.0,21.743112564086918,32.75335693359375,-79.78272662578847,40.45899635251885,278.5832203922272,-0.0019119506468996,-0.0037010870873928,-0.7083767056465149,0.7058223485946655,-0.0060611650489914,0.0228944168193008,2.9020540891648103,0.0627821087837219,0.0337685570120811,0.0120267076417803,0.0969809869118034,0.1000928385369479,-9.848698042631147,14943.0
21.9,2.299999952316284,55.0,21.984758377075195,29.61240577697754,-79.78272720167776,40.45899644227568,279.01388135528566,0.0028472214471548,-0.0073238075710833,-0.7075502276420593,0.7066194415092468,-0.0129508122365453,0.0275812262573873,2.854217212110947,0.064872145652771,0.0785920619964599,0.0305845141410827,0.0901001388486474,-0.1117285692784935,-9.983134886026384,14944.0
22.0,2.200000047683716,51.0,22.06989860534668,28.4912052154541,-79.7827271856147,40.45899648047857,279.3007036743164,0.0064951707608997,-0.0074763339944183,-0.7064282894134521,0.7077153921127319,-0.0166672861391781,0.0556319504057638,2.879009046704951,0.1117390021681785,0.0472262501716613,0.0423671565949916,0.205227767676115,-0.1203718777745962,-10.073942145109177,14944.0
22.21,2.200000047683716,47.0,22.18258285522461,27.58470344543457,-79.7827276500705,40.45899656248272,279.50131621932985,0.0088812876492738,-0.0068327928893268,-0.7049328088760376,0.7091856002807617,-0.042402231433972,0.0459182967898716,2.8302709301224462,-0.0151361664757132,0.0468668788671493,-0.0760719403624534,0.1520700815040618,0.0460079758241772,-10.010676441192627,14944.0
22.4,2.200000047683716,44.0,22.104955673217773,27.83916091918945,-79.7827277862161,40.45899670935616,280.0012327728272,0.0095366351306438,-0.0081874206662178,-0.7031478881835938,0.7109325528144836,-0.0587484241395616,0.0429174407670898,2.759751688209348,-0.1234354972839355,-0.0179324857890605,-0.0592452883720398,0.1450245155487209,0.2677837657928467,-9.728622545599938,14945.0
22.51,2.200000047683716,45.0,22.165054321289062,26.98036956787109,-79.78272781975494,40.458996739075154,280.2759224472046,0.0072054811753332,-0.009194697253406,-0.7028985619544983,0.7111942768096924,-0.0321654049384667,0.03705795469579,2.7317095883020643,0.0085026985034346,-0.0500225275754928,0.0365372113883495,0.1658829864487052,0.0649304062128067,-9.583557218313215,14945.0
22.6,2.0999999046325684,38.0,22.23892402648925,26.19314384460449,-79.7827278198636,40.45899674998216,280.83444610214235,0.005340086761862,-0.0092883445322513,-0.7036153674125671,0.7105003595352173,-0.0081254237599086,0.0190620750066334,2.6443139755602623,-0.032649777829647,0.0057543152943253,-0.003969585057348,0.1161693559773266,0.1316102628037333,-9.4445993077755,14945.0
22.8,2.0,33.0,22.103702545166016,26.805429458618164,-79.7827278639911,40.45899676979228,281.0968085823059,0.0063422289676964,-0.0088565582409501,-0.7039875388145447,0.7101287841796875,-0.0114651283731906,0.0115070336102641,2.603746401337339,-0.047374028712511,-0.09525166451931,-0.0473768785595893,0.1152079184073954,0.1159012428671121,-9.422854682207108,14946.0
22.9,1.7999999523162842,20.0,22.140012741088867,28.1015682220459,-79.78272746953125,40.458996516690185,281.8284298477173,0.0096015306189656,-0.0114626623690128,-0.7048220634460449,0.7092265486717224,-0.0024016297271061,0.0361908650720662,2.611414477764911,-0.0123823303729295,0.1038724854588508,0.0120050776749849,0.1279737697541713,0.0257709908578544,-9.420833884477618,14946.0
23.11,1.600000023841858,11.0,22.007295608520508,27.33819961547852,-79.7827272915696,40.45899643833592,282.4772826728821,0.0124683361500501,-0.0159388333559036,-0.7054504156112671,0.708470344543457,0.0154796995336085,0.0559760116508466,2.586248175156008,0.0649003982543945,0.0997781753540039,0.1381394565105438,0.191739392336458,0.1046975025907158,-9.450351798534394,14947.0
23.2,1.5,359.0,22.103702545166016,26.92470741271973,-79.78272734781514,40.45899643900904,282.73470893478395,0.0129769397899508,-0.0171630475670099,-0.7054294347763062,0.7084535956382751,0.0134500658633776,0.0482010909437549,2.5621087001074376,-0.0076558766886591,-0.0021328993607312,-0.0227714050561189,0.1792411333322525,-0.0736939572170376,-9.521285541057589,14947.0
23.41,1.600000023841858,355.0,22.06864547729492,28.992168426513672,-79.78272711436932,40.45899640341067,283.1167427597046,0.0133813340216875,-0.01761837862432,-0.7055323123931885,0.708332359790802,0.0093366468669066,0.0457694471740173,2.5945690943606348,-0.0778311342000961,-0.0694241970777511,-0.0754642114043235,0.2923504403606057,0.0772437927033752,-9.620293520092964,14948.0
23.6,1.600000023841858,345.0,22.12874412536621,26.638442993164062,-79.78272731269506,40.45899640478481,283.63285222625734,0.0129951778799295,-0.0167078077793121,-0.7053782343864441,0.7085151076316833,0.0254495544810422,0.0061852665691323,2.5721372064411194,0.1274236887693405,0.0068922941572964,0.0494476370513439,0.2691555774025619,-0.0469607978872954,-9.715775628089906,14948.0
23.71,1.399999976158142,341.0,21.950952529907227,29.15915489196777,-79.78272701837416,40.45899631132521,284.02407041168215,0.0151136899366974,-0.0144804390147328,-0.7051389217376709,0.7087602615356445,0.0304705574777815,0.0048574843021585,2.606033468206514,0.1171861663460731,0.084337443113327,0.0761621072888374,0.1678275876492262,-0.04063638091553,-9.600998877882958,14949.0
23.8,1.2000000476837158,334.0,22.008546829223643,27.354103088378903,-79.78272679362229,40.45899612387474,284.69766011810304,0.0196699146181345,-0.0091159967705607,-0.7044974565505981,0.7093753218650818,0.0053719493316575,0.0003215315334961,2.666606710993781,-0.0431334786117076,-0.0372935608029365,-0.0598245896399021,0.2699514748156071,0.1388317842688411,-9.787694626450538,14949.0
24.0,1.100000023841858,335.0,21.905879974365234,28.79337310791016,-79.78272710172011,40.458996029728354,285.22888246154787,0.0127204889431595,-0.0110955527052283,-0.7040230035781859,0.7099766135215759,0.0322979006207939,-0.0493910315480937,2.6593799015771955,-0.0718645080924034,0.0247955285012722,0.0518735237419605,0.1987245857901871,0.0816011926252395,-9.715982619524002,14950.0
24.2,0.8999999761581421,331.0,21.910886764526367,28.403736114501957,-79.78272681669591,40.45899590992791,285.64186826324465,0.0084785688668489,-0.0135787418112158,-0.7035709619522095,0.7104447484016418,0.0756765008876438,-0.0476770493379066,2.733172226020052,0.0132767045870423,-0.0269998740404844,0.0951057076454162,0.2183279792591928,-0.0662325263209641,-9.77756958782673,14950.0
24.3,0.8999999761581421,337.0,22.103702545166016,27.529041290283203,-79.78272697478258,40.45899584417604,285.914815574646,0.0061520054005086,-0.0140479458495974,-0.7034307718276978,0.710598349571228,0.0996498208027402,-0.0653072426557031,2.7271277850032893,0.062296524643898,0.0529538504779338,0.1043097302317619,0.1680065855383873,0.0359813074674457,-9.752313709259033,14950.0
24.4,0.8999999761581421,347.0,21.86330986022949,29.668067932128903,-79.78272671244073,40.45899580560626,286.61895909881594,0.0057247341610491,-0.0102490484714508,-0.7045158743858337,0.7095912098884583,0.0892130663558251,-0.0665252367816222,2.7812262092830324,0.0028713911306113,0.0155495656654238,0.0367236733436584,0.1623245537281036,0.0387849286012351,-9.753008943200111,14951.0
24.61,0.8999999761581421,353.0,21.929668426513672,28.864938735961918,-79.78272650378794,40.45899570597879,287.3373343048096,0.0056288125924766,-0.007056560833007,-0.7050975561141968,0.7090528607368469,0.0519931039312772,-0.0520839722241442,2.89261231683664,-0.0665551647543907,-0.0508720241487026,-0.0834750682115554,0.1465617028623819,0.090971657205373,-9.861620389223097,14952.0
24.7,1.0,9.0,22.01605987548828,28.16518402099609,-79.78272663914393,40.458995661766245,287.626090675354,0.0034049884416162,-0.007189568132162,-0.7045577764511108,0.7096020579338074,0.0480970685537093,-0.0652409172083295,2.883049588484522,-0.0835586562752723,-0.052482821047306,-0.1208430603146553,0.1322079944238066,0.1464183181710541,-9.746572328209878,14952.0
24.9,1.100000023841858,20.0,21.96973419189453,27.735788345336918,-79.7827268565952,40.4589954166938,288.01654306030275,0.0008442979888059,-0.0089041348546743,-0.7038517594337463,0.7102906703948975,0.0777250373151388,-0.082193583799753,2.953632740508504,-0.0687072128057479,-0.01712142303586,-0.0290025118738412,0.095321053750813,0.1350864507816732,-9.828536843061448,14953.0
25.1,1.2000000476837158,34.0,21.95721244812012,27.79145050048828,-79.78272716078006,40.45899530760048,288.60909047698976,0.0007099309586919,-0.0112444227561354,-0.7032194137573242,0.7108837366104126,0.1024071993152951,-0.0871365566712286,2.966225299194162,0.0712977349758148,0.022439481690526,0.0110564595088362,0.1349588809814304,0.160545099824667,-9.826533586978911,14953.0
25.2,1.2000000476837158,43.0,21.974742889404297,27.57675170898437,-79.78272735770283,40.45899521366336,288.9460884628296,0.0013559815706685,-0.0107896672561764,-0.7034587264060974,0.7106530070304871,0.0943811893709151,-0.090937694137358,2.9902770478763263,0.0935477614402771,0.0913561135530471,0.0933848246932029,0.126452589193359,-0.0313629115931689,-9.832622877359393,14953.0
25.3,1.2999999523162842,61.0,21.952205657958984,29.087589263916016,-79.78272767747094,40.45899509093082,289.5688911972046,0.0007596010691486,-0.0107338335365057,-0.7040197253227234,0.710098922252655,0.0773186792763474,-0.0932537575244221,2.9932160573898434,0.0357182957231998,0.052971962839365,0.0746409818530082,0.0782057510409504,-0.0578778053261339,-9.74693485558033,14954.0
25.5,1.399999976158142,64.0,21.86581420898437,28.65819358825684,-79.78272801453113,40.458995055573936,290.169942527771,-0.0003135334700345,-0.0065747057087719,-0.7051571607589722,0.7090205550193787,0.0405878999466454,-0.0988185715286694,3.0253056205376603,-0.0259025413542985,-0.0472650900483131,-0.02897834405303,0.1902576530724764,-0.1412978017888963,-9.928095045089725,14955.0
25.6,1.5,65.0,22.04986572265625,25.5570011138916,-79.78272819081319,40.45899496017571,290.48810067749025,-0.0004851662379223,-0.0047769853845238,-0.7058194875717163,0.7083755731582642,0.0365214466093445,-0.1048548949811145,3.0365992384633933,-0.0826656743884086,-0.095784418284893,-0.0980886071920394,0.1636920712888241,0.147959141721949,-9.860088418722151,14955.0
25.8,1.5,62.0,21.7744140625,29.96228408813477,-79.78272834507862,40.45899494390752,290.7911440429688,0.0001258424454135,-0.0036490212660282,-0.7062651515007019,0.707938015460968,0.040027511817839,-0.105481237832377,3.0259676698133813,0.0443339794874191,-0.0357833169400692,0.0189392361789941,0.1537889162264764,0.1819441366754473,-9.740760780572892,14955.0
26.0,1.5,58.0,21.87332534790039,27.77554702758789,-79.78272860057348,40.45899501667383,291.4113451538086,0.0015110280364751,-0.0041047097183763,-0.7065008878707886,0.70769864320755,-0.0075907060620605,-0.0856341033794945,3.0590572467805672,-0.1402495056390762,-0.0559790767729282,-0.1327083706855774,0.2096543840132654,0.1223929587285965,-9.928544111251831,14956.0
26.1,1.5,55.0,21.945945739746094,27.640365600585927,-79.78272903572302,40.4589949720138,292.03283563232424,-0.0007103930693119,-0.0106319347396492,-0.7061933279037476,0.7079389095306396,0.0404241875298741,-0.0683908351800954,3.0912552377922013,0.0468421578407287,0.1259114444255828,0.1028126031160354,0.1855026059411466,0.1082720334269106,-9.991394662857056,14957.0
26.2,1.7999999523162842,45.0,21.91339111328125,28.90469741821289,-79.7827291524162,40.45899497052873,292.34242501831056,-0.0005634839180856,-0.0112794246524572,-0.7061616778373718,0.7079606056213379,0.0450229801631337,-0.0481835481468545,3.099261047235924,-0.0522240102291107,-0.105343610048294,-0.0863698273897171,0.3060325047187507,0.1310445446893572,-9.897531648874285,14957.0
26.41,1.7999999523162842,39.0,21.83075523376465,29.09554100036621,-79.78272937197437,40.4589949706074,292.64623513793947,-0.000720459385775,-0.009507143869996,-0.7060752511024475,0.7080727219581604,0.0404116435930866,-0.0365126764695044,3.0888097935922594,0.0162414461374282,-0.0390958748757839,0.0051070945337414,0.286594514362514,0.2634593478217721,-9.784806686639786,14957.0
26.6,1.8999999761581416,9.0,21.92716407775879,27.97434043884277,-79.78272953304277,40.45899498758365,293.2629114685059,0.0004269679484423,-0.0066433288156986,-0.7041749954223633,0.7099953293800354,0.0146185522802759,-0.023475411132094,3.0840264322271262,-0.029063818976283,-0.0373785570263862,-0.1215176805853843,0.2187258274666965,0.2139726806804537,-9.767334621548653,14958.0
26.71,2.0,354.0,21.872074127197266,28.17313575744629,-79.78272957359987,40.45899495855876,293.5715662536621,0.001567835919559,-0.0091784354299306,-0.7024867534637451,0.711635947227478,0.0215580361824534,-0.0034295908910325,3.0607588104282737,0.0337536334991455,0.1373499482870102,0.0393459014594554,0.2442336296662688,-0.1098974497430026,-9.679880740642549,14958.0
26.8,2.200000047683716,344.0,21.88709831237793,29.23072052001953,-79.78272969387052,40.45899489736775,294.1878058013916,0.0045247091911733,-0.0133903585374355,-0.7001510262489319,0.7138549685478209,0.0464080085351985,0.0518635943456669,3.0351495991517785,0.1246876791119575,0.0802625119686126,0.0820101276040077,0.3453873175755143,0.113949442282319,-9.61884867310524,14959.0
27.0,2.400000095367432,344.0,21.790691375732425,28.284460067749023,-79.78272970635209,40.458994899049,294.4913145599365,0.0066553214564919,-0.0126939499750733,-0.7002527713775635,0.7137511372566223,0.0402971161489317,0.0670473223004488,3.034685275784286,0.0301811434328556,0.0362481363117694,-0.0017587993061169,0.2746652808040381,0.0805498906597495,-9.76210954964161,14959.0
27.1,2.5,337.0,21.954710006713867,26.821332931518555,-79.78272985715142,40.45899486867051,295.10420861816414,0.0103808119893074,-0.0137853054329752,-0.7005359530448914,0.7134084701538086,0.0271490573509391,0.0716278964465167,3.058536532771652,-0.0551939904689788,-0.0504474379122257,-0.0510013066232204,0.3075727526843548,0.3005170637369156,-9.801755425930024,14960.0
27.3,2.5999999046325684,336.0,21.83952140808105,29.75553894042969,-79.78272988560056,40.458994853467885,295.40941873168947,0.0081828283146023,-0.0143929673358798,-0.7004017829895021,0.7135567665100098,0.0453538938246914,0.079494081228477,3.0445743237043894,0.029010996222496,0.0687329322099685,0.1076714769005775,0.2865335936844349,0.0033956517186015,-9.69273876786232,14960.0
27.5,2.700000047683716,334.0,21.925912857055664,28.66614532470703,-79.78272985153151,40.4589948369126,296.030785232544,0.0020854221656918,-0.0149669609963893,-0.6998077034950256,0.7141714692115784,0.0643549626264299,0.0591262210302638,3.0499896562323947,-0.0871749594807624,-0.021251006051898,-0.0417177975177764,0.2370551491901278,0.3294009568914771,-9.746129693984988,14961.0
27.61,2.700000047683716,330.0,21.93342399597168,27.76759529113769,-79.78272987712684,40.45899481464053,296.33436647033693,0.0004528796707745,-0.0142500642687082,-0.6998996138572693,0.7140989303588867,0.0799901292726934,0.0529149228365709,3.02124857579978,0.0111140208318829,0.0233578290790319,0.0183527991175651,0.2702259650453925,0.2793639023043216,-9.592102339267733,14961.0
27.7,2.700000047683716,331.0,21.84077262878418,27.831209182739247,-79.78272990570139,40.458994742491456,296.93797555541994,-0.0005486797308549,-0.0134928738698363,-0.7008946537971497,0.7131369709968567,0.0608200949034632,0.0412611014215289,3.0079463026559843,-0.115183986723423,0.011214792728424,-0.0450136810541152,0.1705152237787842,0.3099566990509629,-9.680259640216828,14961.0
27.9,2.700000047683716,333.0,21.92340850830078,27.33819961547852,-79.78272977101491,40.45899462409171,297.54513040161135,0.0017512638587504,-0.0147609189152717,-0.7030078768730164,0.7110267281532288,0.0679051439849169,0.0809496599000973,3.037961284333716,0.1183800473809242,0.1181791126728058,0.1990655958652496,0.2067886453494429,0.1390998882427811,-9.828129876852037,14962.0
28.0,2.700000047683716,336.0,21.72808837890625,30.08156013488769,-79.78272974398888,40.458994628767705,297.849367767334,0.0029340279288589,-0.0146857658401131,-0.7038493156433105,0.710191547870636,0.0451518541188602,0.0961051703687192,3.0468485478126515,-0.0437174327671527,-0.0448714084923267,-0.0719880536198616,0.3128415325284004,0.1411827943660319,-9.916062644720078,14962.0
28.2,2.700000047683716,340.0,21.942188262939453,25.517242431640625,-79.78272970448076,40.45899445808839,298.14941850280763,0.0043123518116772,-0.0137430932372808,-0.7044355869293213,0.7096218466758728,0.0592037457164025,0.102337889801577,3.06578005670486,-0.048202384263277,-0.0300989169627428,-0.1025383472442627,0.2303001898527145,0.3429240683466196,-9.899221494197846,14963.0
28.3,2.700000047683716,342.0,21.844528198242188,27.41771697998047,-79.78272968099317,40.45899432473613,298.74887147521974,0.0048231584951281,-0.0140882767736911,-0.7045795321464539,0.7094687819480896,0.0594450017009363,0.1027415309459083,3.05306440631792,-0.0694449916481971,-0.0612288378179073,-0.0310846175998449,0.2822976513952017,0.1272816238738596,-9.78443597316742,14963.0
28.51,2.5999999046325684,343.0,21.7744140625,30.495052337646484,-79.78272961899052,40.45899426885687,299.35962930297853,0.0010890907142311,-0.014716369099915,-0.7044923901557922,0.7095581293106079,0.0810054966597738,0.1015511032315082,3.063609044874788,-0.0311853904277086,-0.0115006305277347,-0.0126519259065389,0.2258749074116349,0.2472052029334009,-9.76274806559086,14964.0
28.6,2.5999999046325684,344.0,21.977245330810547,25.71603775024414,-79.78272958920967,40.458994174318335,299.65388360595705,0.0003499570884741,-0.0165849532932043,-0.7046440839767456,0.709367036819458,0.0793338598497267,0.0980019079322668,3.075708999955333,-0.0914834588766098,-0.055508978664875,-0.0838533043861389,0.1651829833723604,0.2994990634918213,-9.921982365846636,14964.0
28.8,2.5999999046325684,342.0,21.77942276000977,29.1114444732666,-79.78272955582227,40.45899415062715,299.9613539276123,0.0006375063676387,-0.0181704759597778,-0.7048984169960022,0.7090752720832825,0.1036691466992175,0.1001577859921536,3.069293468064362,0.0737943276762962,0.1385521292686462,0.1284067779779434,0.2163713729940355,0.0795934323593974,-9.784370484352111,14964.0
29.0,2.5999999046325684,339.0,21.89961814880371,27.012176513671875,-79.78272959630964,40.45899411112383,300.5585505065918,0.0033329022116959,-0.0184101853519678,-0.7045618295669556,0.7093960046768188,0.0731334596580057,0.1031201204796227,3.0405634666818955,0.0745200514793396,0.0724324733018875,0.0576624050736427,0.2414543749764561,0.0902759573142975,-9.71424599647522,14965.0
29.1,2.5999999046325684,338.0,21.85078811645508,27.06783866882324,-79.78272958109122,40.4589941147328,300.86202111816414,0.0048388638533651,-0.0175356287509202,-0.7041488885879517,0.7098193764686584,0.0508714636136413,0.1037333049580823,3.021041985675512,0.0047979527153074,-0.0687189698219299,-0.0831322222948074,0.2743007617257536,0.1720696329697966,-9.608889110684396,14965.0
29.2,2.5999999046325684,336.0,21.864561080932614,26.38398551940918,-79.78272951493159,40.45899406771613,301.45545640563967,0.0047265840694308,-0.0146660972386598,-0.7021163702011108,0.7118954658508301,0.0202974297069373,0.1012120062439512,2.985676926468541,-0.0257310979068279,-0.0392061285674572,-0.1098292768001556,0.2245403352566063,0.1924447675421834,-9.629816880226135,14966.0
29.4,2.5999999046325684,334.0,21.76189422607422,29.19891357421875,-79.78272952850148,40.458994040350056,301.7490774688721,0.0050840619951486,-0.0149481864646077,-0.7008146643638611,0.7131686210632324,0.0177006371112403,0.0932688985161183,2.9881223909325474,0.0481728315353393,0.0325866490602493,0.0542783923447132,0.2232020355015993,0.0002849421277642,-9.667446051836016,14966.0
29.5,2.5,328.0,21.914644241333008,26.9167537689209,-79.78272951166255,40.45899410138853,302.3481909332276,0.0070755616761744,-0.0149827534332871,-0.6990747451782227,0.7148566842079163,-0.0044713912272892,0.0937860999179683,3.0000157379064416,-0.0595740005373954,-0.070381686091423,-0.1342231631278991,0.2033610075339675,0.2278365203551948,-9.805428062081338,14967.0
29.71,2.400000095367432,327.0,21.76189422607422,28.499156951904297,-79.78272952726215,40.458994076094974,302.6399694976807,0.0069215539842844,-0.0149045763537287,-0.6986573934555054,0.7152677178382874,-0.0035041775103686,0.0973571331668511,3.0080375215606545,0.0827770978212356,0.0681732073426246,0.1402737647294998,0.278712065666914,-0.0690160111058503,-9.822453399896624,14967.0
29.8,2.200000047683716,326.0,21.629175186157227,29.85891151428223,-79.78272952226517,40.45899409602922,303.2336145935059,0.0071135903708636,-0.0109385233372449,-0.6980953216552734,0.7158859372138977,-0.0159617714410346,0.0844906311500896,3.0490297911136164,0.0047430372796952,-0.0329627841711044,-0.0624812133610248,0.2228778622113168,0.0764389874227345,-10.088777700662613,14968.0
30.0,2.200000047683716,325.0,21.79444694519043,29.24662399291992,-79.78272952642138,40.458994136061655,303.54028192138674,0.0093952137976884,-0.0074743693694472,-0.6977920532226562,0.7161998152732849,-0.0375551754333511,0.0774348935944069,3.0751458069259567,-0.027571277692914,-0.1016005501151084,-0.0620059147477149,0.2065595989488065,0.2065922702662647,-10.019603970050811,14968.0
30.2,2.0999999046325684,321.0,21.829504013061523,27.99819564819336,-79.78272954657714,40.45899422655347,304.1324965057373,0.0137461498379707,-0.0041230735369026,-0.6963973045349121,0.7175130248069763,-0.0534335697832755,0.0619239632418566,3.0989608081423734,0.0781920850276947,0.0842537507414817,0.0745904073119163,0.1989632435515523,-0.058518797205761,-10.059663244485854,14969.0
30.31,2.0,316.0,21.7844295501709,28.348073959350582,-79.78272956217198,40.45899424457237,304.4434057769776,0.0145369414240121,-0.0051004039123654,-0.6963393092155457,0.7175474166870117,-0.0553094321235565,0.0645618600015833,3.1164414830921223,-0.0625794231891632,-0.0530717968940734,-0.021847466006875,0.2050861554220319,-0.0786709427274763,-10.020220266580582,14969.0
30.4,2.0,315.0,21.733097076416016,27.354103088378903,-79.78272960782516,40.4589941305403,305.04972901916506,0.0101615702733397,-0.0099857933819293,-0.6980346441268921,0.7159223556518555,-0.009629468430002,0.0686810835331418,3.1488950671625098,-0.0545665919780731,-0.0396002531051635,0.0514550916850566,0.2092368928156793,0.0270288183074444,-10.056289401054382,14970.0
30.6,2.0,313.0,21.80821990966797,26.59073257446289,-79.78272964037825,40.458994118802345,305.3655859527588,0.0070770909078419,-0.0113175520673394,-0.6992069482803345,0.7147947549819946,0.0333236361392398,0.0563150865867169,3.161129053555966,0.0833488777279853,0.0742746666073799,0.1707272678613662,0.2634128076396883,-0.15606828879565,-9.951092144250868,14970.0
30.8,1.8999999761581416,312.0,21.85204124450684,25.827362060546875,-79.7827297644808,40.45899405461458,305.9809881744385,0.0043307477608323,-0.0132156331092119,-0.7009726166725159,0.7130525708198547,0.0307123347629036,0.0409809625514549,3.1508576466695195,0.0060542779974639,-0.0421416200697422,0.0062751937657594,0.1857990049570799,0.1646919999830425,-9.847438552379607,14970.0
30.9,1.8999999761581416,311.0,21.875829696655277,25.73989295959473,-79.78272982629895,40.45899400005353,306.278998046875,0.005529164802283,-0.0130483517423272,-0.7015200257301331,0.7125089168548584,0.0497603571808563,0.0355165205100656,3.1367906665229404,0.1574496477842331,0.1107909977436065,0.1325282007455825,0.2192188573814928,-0.1452074146270752,-9.824980566501615,14971.0
31.0,1.7999999523162842,309.0,21.86330986022949,26.54302215576172,-79.78272992183656,40.4589940073415,306.9056936798096,0.0079957107082009,-0.0080385264009237,-0.7028853297233582,0.7112128138542175,0.0273243289133878,0.0348251771521711,3.1294120889191617,0.1765499860048294,0.0686182379722595,0.1027485579252243,0.2440503011830152,-0.2063989832438528,-9.768526284098623,14971.0
31.2,1.8999999761581416,307.0,21.849536895751957,26.89289855957031,-79.78273002978077,40.458993971142,307.5159479675293,0.0077603249810636,-0.0053435335867106,-0.7034745216369629,0.710658073425293,0.0056737756853744,0.021986322248662,3.1080245869964136,0.0877835601568222,0.0498897843062877,0.0480955578386783,0.1729981708154082,0.2829859600402415,-9.694710448980333,14972.0
31.3,2.0,297.0,21.954710006713867,25.69218063354492,-79.78273010496008,40.45899393703582,307.8196131286621,0.0086485808715224,-0.006306726951152,-0.7033912539482117,0.7107223272323608,-0.0154614892272096,0.0146000142333754,3.1132161794218614,-0.06632611900568,0.0265733730047941,-0.0805052295327186,0.1866650324128568,0.1444119466189295,-9.750309868454933,14972.0
31.41,2.0,290.0,21.914644241333008,26.60663604736328,-79.7827301593869,40.45899393798543,308.13056817626955,0.0084062991663813,-0.010360449552536,-0.7029240131378174,0.7111397981643677,-0.0110680895038935,0.0183680494720941,3.1039315824449005,-0.0859014466404914,0.0756066814064979,-0.0041370005346834,0.1758775408007204,-0.1176072411239147,-9.723475826382638,14973.0
31.7,2.0,280.0,21.882089614868164,25.723989486694336,-79.78273034972862,40.45899391814385,308.7470499572754,0.0078905830159783,-0.0120382998138666,-0.7021799087524414,0.711854100227356,0.0188155512674739,0.0396452406534912,3.0845060497586965,0.0853247940540313,0.0233187321573495,0.0471014864742755,0.2516221896372736,-0.0091153272637166,-9.58850337803364,14973.0
31.8,2.0,275.0,21.924659729003903,25.86712074279785,-79.78273042001058,40.45899392467445,309.0538164672852,0.0078670661896467,-0.0082440543919801,-0.7012553215026855,0.7128191590309143,-0.0034697399121226,0.0272744204096499,3.0526054388536115,-0.0809454098343849,-0.1719163060188293,-0.1584329456090927,0.1398953471146524,0.1217959671467542,-9.486432042717936,14974.0
31.9,2.0999999046325684,261.0,21.970985412597656,24.316524505615234,-79.78273052786818,40.45899379488132,309.6653772888184,0.0053113498724997,-0.0072581581771373,-0.6987582445144653,0.7153013944625854,-0.0415063632405898,0.0097806034521512,3.022179545618776,-0.1653366237878799,-0.0645451471209526,-0.1402605772018432,0.1380451419018209,0.262102373521775,-9.437953362464905,14974.0
32.1,2.0999999046325684,260.0,21.902122497558597,25.23892974853516,-79.78273066210754,40.4589937096683,310.2744623718262,0.0098996888846158,-0.0032503991387784,-0.6976937055587769,0.7163204550743103,-0.0218796816977621,0.0079458516079415,2.9664644754423413,-0.0115286856889724,-0.0978841334581375,-0.0762046873569488,0.1316023873351514,-0.0711460421327501,-9.335565692782405,14975.0
32.2,2.0,249.0,21.77190971374512,28.7218074798584,-79.78273071422737,40.458993712787326,310.56830087280275,0.0133450664579868,-0.0006269311998039,-0.6987304091453552,0.71526038646698,-0.0075205939752011,0.0097096588323287,2.9136939813994007,0.2024809420108795,0.0736706107854843,0.1692378669977188,0.2410122889280319,-0.249126835539937,-9.328487053513529,14975.0
32.4,2.0,249.0,21.75438117980957,28.32421875,-79.78273073554384,40.45899375168614,310.86225,0.0137577317655086,-0.0008729607798159,-0.7003377676010132,0.7136784791946411,-0.0584672089375432,0.0209218145735545,2.9144208762254102,-0.1839737147092819,-0.0415716916322708,-0.0069255651906132,0.1878132976591587,0.0718138626823201,-9.463871730566025,14975.0
32.6,2.0999999046325684,249.0,21.7844295501709,27.560848236083984,-79.7827308352471,40.458993726787256,311.442743927002,0.0056552025489509,-0.0091858338564634,-0.704590380191803,0.7095322608947754,0.0041811398347313,0.0117872717900378,2.8931165294547587,-0.0798703283071518,-0.0135446321219205,0.1062413081526756,0.1703065695427358,-0.1187043980509042,-9.695205708146096,14976.0
32.7,2.0,241.0,21.562816619873047,31.560590744018555,-79.78273082057088,40.45899385495853,311.74677911376955,0.0028789513744413,-0.0111337844282388,-0.7060259580612183,0.7080925703048706,0.023923829563129,0.016251207864811,2.9334322391984022,-0.0806193873286247,-0.0806849747896194,-0.0854838564991951,0.1091676258668303,0.1796789253316819,-9.72060075044632,14976.0
32.8,1.8999999761581416,215.0,21.67675399780273,28.841083526611328,-79.78273094265488,40.45899387133045,312.3319536743164,0.0034569206181913,-0.0087023973464965,-0.7051882743835449,0.7089583277702332,0.0307053402529849,0.0160053322944789,2.996617294418644,0.0858971625566482,0.0083553800359368,0.0019047366222366,0.1409836327191442,-0.1985824253596364,-10.03766368031502,14977.0
33.01,1.8999999761581416,198.0,21.823244094848643,26.94856262207031,-79.78273105067417,40.45899389657474,312.9352175292969,0.0050983056426048,-0.0030188676901161,-0.7009982466697693,0.7131384611129761,-0.0156860540244832,-0.0062963918084151,3.025776466482993,-0.0249566845595836,-0.0807807818055152,-0.2021187543869018,0.1187581284809857,0.089371831594035,-10.027105947732926,14977.0
33.1,1.8999999761581416,176.0,21.685518264770508,28.96831321716309,-79.78273113503555,40.458993876463104,313.2098070678711,0.0054717729799449,-0.0008713720017112,-0.6986137628555298,0.7154776453971863,-0.0156130075292318,-0.0039322757981607,3.0231560114999088,0.0975278466939926,0.0123578077182173,-0.0025842029135674,0.1535974016413092,0.0491316315159201,-9.947810686826708,14978.0
33.3,1.8999999761581416,163.0,21.656721115112305,28.67409706115723,-79.7827311817019,40.45899388630186,313.5132776794434,0.0048595615662634,-0.000907912151888,-0.6965544819831848,0.7174869179725647,-0.0168824448571514,-0.0108712803432676,3.046405056853627,0.0633874610066413,0.0860877931118011,0.0439992547035217,0.060844540935941,-0.2536840640567243,-9.9874232339859,14978.0
33.5,1.8999999761581416,143.0,21.849536895751957,25.40591812133789,-79.78273131808038,40.458993664635024,314.0864168701172,0.0040562921203672,-0.0048804734833538,-0.6943855285644531,0.7195752263069153,-0.0044164348258395,-0.0144319108111646,3.059004928304975,-0.0879403501749038,0.057787500321865,-0.0882759317755699,0.0620015998464077,0.1108495774492621,-9.935391200780868,14979.0
33.6,1.8999999761581416,134.0,21.66798973083496,29.763490676879893,-79.78273137017213,40.458993655054776,314.3927561340332,0.0051075490191578,-0.0055925911292433,-0.6941860318183899,0.7197557687759399,0.0042171674479211,-0.0074407579214713,3.06610404754208,-0.0723146498203277,-0.0854455158114433,-0.08113344758749,0.1123947772756219,0.1069634174276143,-9.888094242811205,14979.0
33.7,2.0,127.0,21.666736602783203,28.10951995849609,-79.78273146781463,40.45899364302016,314.97035470581056,0.0074601825326681,-0.0017402116209268,-0.6943925619125366,0.7195556759834291,-0.0089903036062478,-0.0026363324151283,3.07826728770506,0.019645482301712,-0.0607381202280521,-0.0497015267610549,0.1008950399793684,0.015643119988963,-10.051497023105622,14979.0
33.91,2.0999999046325684,125.0,21.74060821533203,27.5369930267334,-79.78273168536515,40.45899363077868,315.5501390991211,0.0042111650109291,-7.085518154781312e-05,-0.694848895072937,0.7191434502601624,-0.0218342266018004,-0.0300603208389075,3.0944739098366187,0.0676921382546424,-0.0526664778590202,0.0575469657778739,0.0775567740574479,0.0486943694204092,-10.059997705221177,14980.0
34.11,2.200000047683716,130.0,21.73434829711914,27.72783470153809,-79.78273175588552,40.45899362886926,315.86000695800783,0.0043932162225246,0.0014190262882038,-0.6951566338539124,0.7188435196876526,-0.0135170014346652,-0.0404143531350401,3.1024585732683434,0.0637870654463768,0.0425860993564128,0.0495410785079002,0.0675220886198803,0.0422782196849584,-9.909930084943774,14980.0
34.21,2.0999999046325684,135.0,21.690526962280277,28.284460067749023,-79.78273195763158,40.45899350645583,316.1303049621582,0.0057070334441959,0.0028360283467918,-0.695335328578949,0.7186572551727295,8.572911749556026e-05,-0.047025176081723,3.0618111715517484,0.1212906688451767,0.0232018940150737,0.1062899231910705,0.0773572378233075,-0.2255337771959603,-9.789732381105424,14981.0
34.3,2.200000047683716,135.0,21.67550277709961,28.483253479003903,-79.78273217431828,40.45899343521637,316.7215944824219,0.0059860777109861,0.0039669247344136,-0.6957696080207825,0.7182291746139526,-0.0237229626408646,-0.02857339205969,3.049751527518066,-0.0812051445245742,-0.0546796172857284,-0.0305067542940378,0.0833397434279322,-0.0355881004873663,-9.821014984846116,14981.0
34.5,2.0999999046325684,136.0,21.6917781829834,28.690000534057607,-79.78273225843968,40.458993367942426,317.33290734863283,0.0045905001461505,0.0037622938398271,-0.6953217387199402,0.7186741232872009,-0.0027911714277202,-0.0266519611196978,3.061761184914132,-0.140173465013504,-0.0091308541595935,-0.1364950984716415,0.1130622095335275,-0.1183441912941634,-9.881932446956633,14982.0
34.6,2.0999999046325684,129.0,21.8132266998291,26.98036956787109,-79.7827323370489,40.45899327958052,317.6154696044922,0.0045885415747761,0.00072875211481,-0.6953883171081543,0.7186192274093628,0.0110034915523497,-0.0183217004460808,3.052227187699582,-0.1237474977970123,0.0020582722499966,-0.0473168045282363,0.1380962136760354,0.0763805883564055,-9.80848440170288,14982.0
34.8,2.0999999046325684,131.0,21.58660697937012,30.176982879638672,-79.7827323575091,40.45899322812467,317.9199892578125,0.0036622621119022,-0.0032550184987485,-0.6958133578300476,0.718205988407135,0.0252577642799042,0.0022899660337205,3.0392586974988967,-0.1209123954176902,0.0276871174573898,-0.0540905334055423,0.1450341269094497,0.2951521702855825,-9.720107245445252,14982.0
35.0,2.200000047683716,134.0,21.75563240051269,27.24277687072754,-79.78273244776915,40.45899316444325,318.51045098876955,0.0018441880820319,-0.005349688231945,-0.6978673934936523,0.7162047028541565,0.0526547420774089,0.0239906288787462,3.0583501411897047,-0.0322117432951927,0.0267777349799871,-0.0144191896542906,0.1112363707646727,0.2047443856671452,-9.933338828086852,14983.0
35.12,2.299999952316284,138.0,21.92340850830078,24.300621032714844,-79.7827324597513,40.45899312885791,318.81693521118166,0.0018650678684934,-0.0059154718182981,-0.6989299058914185,0.7151634097099304,0.0569521188548474,0.0191876309495893,3.0651293771772337,0.0763348937034607,0.0416929461061954,0.0737816020846366,0.1651799684017896,-0.0239735202211886,-9.8662455368042,14983.0
35.3,2.299999952316284,144.0,22.0423526763916,23.1953239440918,-79.78273246230887,40.45899307082812,319.4047113952637,0.0029359587933868,-0.0075000151991844,-0.6990939378738403,0.7149844765663147,0.0120770729055218,0.0474053213375221,2.98356726474817,-0.07725091278553,-0.0717018693685531,-0.1012812182307243,0.1910299971699715,0.0348094614967703,-9.300950760841369,14984.0
35.41,2.299999952316284,148.0,22.07991409301757,22.288822174072266,-79.78273254946744,40.45899303067341,319.9783197937012,0.0071118962951004,-0.0047029741108417,-0.69949871301651,0.7145829796791077,-0.018881737014524,0.0426286545547451,2.828335433584716,-0.0293864011764526,-0.0416292808949947,-0.03836090862751,0.1696901085600257,0.0739128075353801,-9.055361271500589,14984.0
35.5,2.200000047683716,153.0,22.126239776611328,21.994606018066406,-79.78273255067718,40.45899304376774,320.2555300292969,0.0117867728695273,-0.0031038466840982,-0.6999789476394653,0.7140594720840454,-0.022877200086005,0.0434098070637748,2.711813260813212,0.1038737595081329,0.0952861681580543,0.0595136657357215,0.1765362479165196,-0.0535793389426544,-8.720103560686113,14985.0
35.71,2.200000047683716,158.0,22.08617401123047,22.344484329223643,-79.78273259180344,40.458992942023656,320.516905456543,0.0157857071608304,-0.0015644164523109,-0.7001938819885254,0.7137765288352966,-0.0410590133855242,0.0532954854337573,2.610743841418231,0.0966751500964164,0.08916637301445,0.0666449815034866,0.2132043199986219,-0.1773106202669442,-8.560023168325424,14985.0
35.9,2.200000047683716,171.0,22.2526969909668,20.49967384338379,-79.7827326005369,40.45899291816389,321.0068728027344,0.0172476582229137,-0.0033990934025496,-0.6993367075920105,0.7145761847496033,-0.0538583248244605,0.0605936635518083,2.378208758086944,-0.0418801084160804,0.03827690705657,0.0388887114822864,0.199286941755563,-0.2313409576937556,-8.61827313065529,14986.0
36.0,2.200000047683716,180.0,22.177574157714844,22.05821990966797,-79.7827326280085,40.45899290386142,321.46019998168947,0.0137428920716047,-0.0059004421345889,-0.6973813772201538,0.7165442109107971,-0.006685422865539,0.0442679609804542,2.152497783360108,0.0204905457794666,0.028159387409687,-0.0293468870222568,0.2227284841239452,-0.2532232303731143,-8.65788626253605,14986.0
36.1,2.200000047683716,188.0,22.123735427856445,21.461837768554688,-79.78273262270716,40.4589928679214,321.67215982055666,0.0136445593088865,-0.005196236539632,-0.6964282393455505,0.7174779772758484,-0.0020553891336963,0.0416329240531945,2.0822816481740087,-0.0217688344419002,-0.015702124685049,-0.0042157326824963,0.17785110399127,0.0368754449556581,-8.797103204727174,14986.0
36.3,2.0999999046325684,190.0,22.06614112854004,23.306650161743164,-79.78273264140947,40.45899284765504,321.8755671081543,0.0125301852822303,-0.004496787674725,-0.695857048034668,0.7180569767951965,0.0008268853022008,0.0341902887456309,1.984717486838491,-0.0624506250023841,-0.0760663896799087,-0.0109421825036406,0.1841805870272219,0.0236890531796962,-8.805726093649865,14986.0
36.5,2.0999999046325684,190.0,22.08993148803711,22.360387802124023,-79.78273264396,40.458992743770864,322.2603670654297,0.008882874622941,-0.0038032545708119,-0.6954652070999146,0.7184948325157166,0.0229548061663076,0.0206802159597957,1.8341981951528656,-0.077170543372631,-0.0436210669577121,-0.0032856911420822,0.1647057226672768,0.0238470285013318,-8.92662253975868,14987.0
36.61,1.8999999761581416,196.0,22.06989860534668,22.72616958618164,-79.78273265973795,40.458992707927344,322.4397226867676,0.0058908010832965,-0.0047100586816668,-0.6962103843688965,0.7177982330322266,0.0378442325130212,0.0152976155729489,1.7520464397273516,-0.0466319024562835,0.0065192943438887,0.0384899824857711,0.2094196365773677,-0.1055076891370117,-9.023268828392029,14987.0
36.7,1.7000000476837158,201.0,22.124988555908203,21.278947830200195,-79.78273270530295,40.45899257774592,322.7888018188477,0.0038007970433682,-0.0082084266468882,-0.6979666948318481,0.7160730957984924,0.0586231443646861,0.01188094487286,1.636896925553916,0.0142169883474707,0.0751252919435501,0.0130067616701126,0.162393697053194,-0.0633801997080445,-9.036675909161568,14987.0
36.91,1.600000023841858,206.0,22.0673942565918,23.115806579589844,-79.78273272782843,40.458992477901184,322.95369973754885,0.0049783717840909,-0.0097554260864853,-0.6986655592918396,0.7153646349906921,0.0540657452867628,0.0158623344017256,1.5907588717703467,0.0010272329673171,0.0793281123042106,0.0221334509551525,0.1176651011500507,-0.0357094347802922,-9.09742964923382,14987.0
37.0,1.5,218.0,22.058629989624023,22.33653259277344,-79.78273275583165,40.45899240524205,323.2608973083496,0.0078774709254503,-0.0106436600908637,-0.6990699768066406,0.7149307131767273,0.0454184774505758,0.0193792870060494,1.4796688161611968,0.0267933066934347,0.0236011259257793,-0.0400633625686168,0.1983600301668048,0.0186973582673817,-9.214993767142298,14988.0
37.2,1.5,222.0,22.22640419006348,20.181602478027344,-79.78273281190171,40.4589923296759,323.3994928894043,0.0090456493198871,-0.0105227986350655,-0.698635995388031,0.7153427600860596,0.0386492324743206,0.0176656908588694,1.4255719248561405,-0.0040305936709046,-0.0316579900681972,-0.033298622816801,0.2130658688955009,-0.0485393907967954,-9.082798161506654,14988.0
37.3,1.399999976158142,230.0,23.311931610107425,7.768883228302003,-79.78273289090373,40.45899223084459,323.6488939819336,0.0082930838689208,-0.0089062536135315,-0.6970492601394653,0.716920018196106,0.0357697460183292,0.0074927480646489,1.1114028219975358,0.0675660222768783,-0.0899759382009506,-0.1200999319553375,0.1886711938306689,-0.0263168923929333,-7.622701050639153,14988.0
37.5,1.2999999523162842,233.0,22.197607040405277,21.994606018066406,-79.78273291692388,40.4589922107877,323.7446657714844,0.0084323333576321,-0.0029711995739489,-0.6823299527168274,0.7309897541999817,0.0089315963464663,-0.0089441915330147,0.8178854454506063,0.0486962646245956,-0.0527129843831062,-0.6053449511528015,0.1004265226889401,-0.1169056666083634,-7.181723341941834,14988.0
37.6,1.2000000476837158,237.0,22.2714786529541,21.056297302246094,-79.78273310708431,40.45899216171551,323.79632821655275,0.0083707273006439,-0.0037291320040822,-0.6311892867088318,0.7755747437477112,0.0071624899345926,-0.0332651395009226,0.4421399277536801,0.0044877212494611,-0.0053786472417414,-0.7030902504920961,0.0958935235720128,-0.0925391586776822,-8.178038018345834,14988.0
37.8,1.2000000476837158,238.0,22.273983001708984,19.99871063232422,-79.78273327423122,40.45899207148095,323.76196160888674,0.0082999374717473,-0.0040582101792097,-0.5781893730163574,0.8158503174781799,0.031129154935413,-0.0375425032486663,0.2232617150648214,0.0733959972858429,0.0717813074588775,-0.5896735191345215,0.1293786089960485,0.1045607782434672,-8.620436015725138,14988.0
38.0,1.100000023841858,250.0,21.69803810119629,27.98229217529297,-79.78273330940644,40.45899203179604,323.7804285583496,0.0092118475586175,-0.0030485454481095,-0.5569370985031128,0.8304980993270874,0.0358320850190142,-0.0381286961200447,0.1522797635290275,-0.0007059662020765,-0.0004926804103888,-0.3822963535785675,0.1542563645727932,0.1259863011538982,-9.068247950077057,14988.0
38.11,1.0,257.0,21.89461135864257,26.312419891357425,-79.78273334373033,40.45899199321848,323.79296746826174,0.0085183568298816,-0.0041521079838275,-0.5438548922538757,0.8391258120536804,0.0240020601092139,-0.0421245359162909,0.1205405501041784,-0.1829453259706496,-0.0711564123630523,-0.3459691107273102,0.1141449768282473,-0.1565539183281362,-9.466671377420424,14988.0
38.3,0.8999999761581421,255.0,21.816984176635746,26.06591415405273,-79.78273332722226,40.45899197359717,323.7284304199219,-0.0264442563056945,-0.0080110421404242,-0.5254124999046326,0.8503989577293396,0.0260935076514381,0.0598378896542256,0.1148687910529363,0.0039628599770367,-0.5771859288215637,0.0204246826469898,0.4467095514759421,-0.110624276921153,-9.922881667613984,14988.0
38.4,0.8999999761581421,262.0,21.87958526611328,24.96061897277832,-79.78273292092766,40.4589921047555,323.7441088256836,-0.0527671538293361,0.0096559431403875,-0.5217669606208801,0.8513997793197632,0.0046174172754537,0.1549490309111058,0.1631891308014695,0.0681531280279159,-0.6974727511405945,-0.0033459989354014,0.2286243230290711,0.1459178696013987,-10.057260038852691,14988.0
38.5,0.8000000119209291,276.0,21.977245330810547,24.411945343017567,-79.78273232144562,40.45899237354747,323.7823778686524,-0.0859630480408668,0.0481075830757618,-0.5222840309143066,0.8470629453659058,-0.0205947259292211,0.4191298453957575,0.2831450130822816,0.1882569640874862,-0.2346678823232651,0.0649205297231674,-0.0874069478642195,0.1097265283204615,-10.084244939088824,14988.0
38.7,0.8000000119209291,292.0,21.895862579345703,25.07194328308105,-79.78273049679026,40.45899277890532,323.8534113464356,-0.0948649123311042,0.0622055381536483,-0.5285611748695374,0.8412813544273376,-0.0062429225623011,0.8135372885062072,0.4231977323633361,0.1211391761898994,-0.0025463213678449,0.1816518902778624,-0.0200014906399883,0.0424499450996518,-10.069529836177828,14988.0
38.8,0.8999999761581421,328.0,21.884593963623047,25.93073463439941,-79.78272952567312,40.45899330151033,323.87236657714845,-0.097684770822525,0.0625748112797737,-0.5315636992454529,0.8390365242958069,-0.0438873391809057,1.0133345023908913,0.4926625151620655,-0.1489507853984832,-0.1023267805576324,0.0023510758765041,0.0502422690158709,0.1571451814658939,-10.002518405914309,14988.0
39.0,0.8999999761581421,346.0,22.018564224243164,23.39411926269531,-79.78272825100954,40.45899379960541,323.89723458862306,-0.101739652454853,0.0614456571638584,-0.5341410636901855,0.8369987010955809,-0.0466327101821358,1.2456807042181328,0.5463042214937913,-0.1301019191741943,-0.1026640459895134,-0.018677057698369,-0.0254348399117589,0.1832157416269183,-9.999353892803194,14988.0
39.2,1.100000023841858,16.0,21.914644241333008,24.276765823364247,-79.78272515852451,40.45899538879015,323.9176508483887,-0.1129388287663459,0.0643749758601188,-0.5368826985359192,0.833581268787384,-0.0794999031969777,1.6942002144010035,0.6620298511628535,0.0398420430719852,-0.1877120733261108,0.0101606855168938,0.0476382754789665,-0.0372616832423955,-9.956728860139847,14988.0
39.3,1.2999999523162842,25.0,21.93592834472656,24.49941635131836,-79.78272312688067,40.45899619030348,323.94033685302736,-0.1195426285266876,0.071250632405281,-0.5377008914947511,0.8315712809562683,-0.1038668718192473,1.942609212252724,0.7529432429986632,-0.0040669669397175,-0.2040991932153701,-0.1078673601150512,-0.0491847406793385,0.3125275370478631,-10.063361023664475,14988.0
39.4,1.600000023841858,32.0,21.929668426513672,25.024232864379893,-79.78271845573269,40.45899849081436,323.93464532470705,-0.1307112574577331,0.0875489264726638,-0.5371235013008118,0.8287026882171631,-0.129029687429355,2.4240570778366948,0.95401130298585,0.2558541893959045,-0.1242987960577011,0.1246033906936645,-0.1889031090214848,-0.226528333760798,-10.058553442955017,14988.0
39.6,1.7999999523162842,33.0,22.044857025146484,22.630748748779297,-79.78271263944656,40.45900134100083,323.916865020752,-0.1355574578046798,0.0987213477492332,-0.5362457633018494,0.8272356390953064,-0.2006442536196471,2.9516566749941595,1.1439766905222215,-0.0656877905130386,-0.1292886435985565,-0.0591468252241611,-0.2860616502910853,-0.0998553228098899,-9.996923789978029,14988.0
39.71,2.299999952316284,39.0,21.882089614868164,25.44567680358887,-79.78270916165144,40.459002696281935,323.9273478088379,-0.1388369053602218,0.1016503050923347,-0.5362512469291687,0.8263329863548279,-0.1628549820570499,3.2343939415708363,1.2138215608569618,0.1129732429981231,-0.0841919332742691,0.041973128914833,-0.3222934104502201,-0.1599486472830176,-9.802498022317886,14988.0
39.9,2.5,40.0,22.017311096191406,22.55918312072754,-79.78270551096354,40.45900476680397,323.8943010864258,-0.1432082653045654,0.1022155806422233,-0.5347661972045898,0.8264796137809753,-0.2045903979617658,3.5082079461043065,1.304725049404718,0.0247384496033191,0.0026293504051864,0.0041258283890783,-0.411884960308671,-0.1177440294250846,-9.862891573905944,14988.0
40.1,3.0,39.0,21.955961227416992,24.58688545227051,-79.78269702706255,40.45900801372685,323.89482751464845,-0.1380405724048614,0.0973535552620887,-0.5358096957206726,0.8272697329521179,-0.1753889336011362,4.018933824101138,1.4733015868533794,-0.1199095845222473,0.3334417045116425,-0.054548192769289,-0.8019901386648417,0.1643037631362676,-9.8738083255291,14988.0
40.2,3.299999952316284,40.0,22.06614112854004,22.654603958129893,-79.78269257794462,40.459010512829096,323.8606325683594,-0.1206852421164512,0.0840870589017868,-0.5363486409187317,0.8310803771018982,-0.2189620206719935,4.258760337218682,1.4652951677872907,-0.0399274416267871,0.509368360042572,0.0344183444976806,-0.8675317250937223,0.2229701385833323,-9.882741701602937,14988.0
40.3,3.900000095367432,41.0,22.263965606689453,19.076305389404297,-79.78268287870117,40.459015001599376,323.81983056640627,-0.0733247250318527,0.0648523196578025,-0.5378519296646118,0.8373368978500366,-0.2019397504153661,4.722297510734943,1.0626880190105925,0.1788488626480102,0.3899557590484619,0.1058746501803398,-0.7433069707453251,-0.1279346664994955,-9.35462644636631,14988.0
40.5,4.099999904632568,42.0,22.26521682739257,20.181602478027344,-79.78267243486479,40.45901896015396,323.7836290893555,-0.0569883622229099,0.0595993734896183,-0.5380867719650269,0.8388462662696838,-0.130602935727987,4.995959829515578,0.5737142040464394,0.0321988649666309,0.077252872288227,0.0693492889404296,-0.5990455625206232,-0.0526419252064079,-9.061096805334092,14988.0
40.7,4.599999904632568,55.0,22.186338424682614,21.6685848236084,-79.7826672316672,40.45902191612785,323.7231279907227,-0.0544031448662281,0.0575417727231979,-0.5354524254798889,0.8408448100090027,-0.1709020378311224,5.079886846435297,0.4725364603483803,0.0248095821589231,0.1041385680437088,-0.0541459247469902,-0.7501759142428637,0.0382962475530803,-9.050404586791991,14988.0
40.8,4.800000190734863,57.0,22.12123107910156,22.12978744506836,-79.78266182353264,40.45902395547275,323.6858622131348,-0.0462807267904281,0.0547801181674003,-0.5359964966773987,0.8411689400672913,-0.094589252163254,5.131973953081012,0.381948174809593,0.0351042374968528,0.2689588367938995,0.0745151415467262,-0.9573447382450104,0.0841228317841887,-9.05954846262932,14988.0
40.9,5.199999809265137,58.0,22.21513557434082,20.777984619140625,-79.78265105233905,40.45902910362461,323.58323922729494,-0.0220144763588905,0.0410001426935195,-0.5352304577827454,0.8434233069419861,-0.0927689637668482,5.211088923955288,0.1205526804698698,-0.0476685650646686,0.2295233011245727,-0.0002910137118306,-0.99454384714365,-0.233327311668545,-9.273040246367453,14988.0
41.1,5.300000190734863,59.0,22.151281356811523,22.344484329223643,-79.78264005605435,40.459034334906896,323.4679285583496,-0.0043405285105109,0.0297457408159971,-0.5347626805305481,0.8444674015045166,-0.0991118135525885,5.219301831005353,-0.2068351229068201,-0.0627547204494476,0.1508800536394119,-0.1089751273393631,-0.6418130479753018,-0.2723734829016029,-9.343958786129951,14988.0
41.21,5.599999904632568,67.0,22.240177154541016,20.451963424682614,-79.78263457425737,40.45903638810258,323.4162165222168,0.00217827106826,0.0259207524359226,-0.535619854927063,0.8440585136413574,-0.0558248993381271,5.177317161490283,-0.3263916446374417,-0.0617676079273223,0.0678604617714881,-0.0480423681437969,-0.7480535211414099,0.0730673001520335,-9.477191687822344,14988.0
41.41,5.699999809265138,73.0,22.256452560424805,19.919193267822266,-79.78262890626087,40.45903925843183,323.3425432739258,0.0060659474693238,0.0219212789088487,-0.5349598526954651,0.8445713520050049,-0.0740341596047528,5.154402299790872,-0.3985948712704287,0.0228013321757316,0.1942508816719055,0.0604290701448917,-0.8053894174844027,-0.3692984461784363,-9.6036716401577,14988.0
41.6,5.800000190734862,75.0,21.98726272583008,24.24495887756348,-79.78261814670442,40.4590432873224,323.2361094055176,0.0179251916706562,0.0111717851832509,-0.5370545983314514,0.8432831168174744,-0.062357077356861,4.997847256697861,-0.544816306246269,-0.1716060191392898,0.1280466765165329,-0.0254723243415355,-0.7739949126541615,0.1968919770419597,-9.803250558972357,14988.0
41.71,5.9000000953674325,76.0,21.932172775268555,24.435800552368164,-79.78261249631541,40.45904616045144,323.1597582397461,0.0265830513089895,0.0049293059855699,-0.5359902381896973,0.843791127204895,-0.0877025583103762,4.961320267316727,-0.5957944329149157,0.0069310516119003,0.2492093741893769,0.0970635265111923,-0.5443437637388706,-0.0273162249452434,-9.998600771427157,14988.0
41.8,5.9000000953674325,83.0,21.690526962280277,28.98421669006348,-79.7826014228603,40.45905055172523,323.00030770874025,0.0381283424794673,-0.0042347447015345,-0.535747230052948,0.8435065150260925,-0.0690011527029778,4.802496890934196,-0.6934994298171708,-0.0299538131803274,0.0356539599597454,-0.0698751211166381,-0.547088885307312,-0.0491551665589213,-10.360863847732542,14988.0
42.0,5.800000190734862,88.0,21.82699966430664,24.714113235473643,-79.78259143867326,40.45905427405223,322.93710961914064,0.0333885364234447,-0.0054220557212829,-0.5362860560417175,0.8433583378791809,-0.0553329796133207,4.568718989124911,-0.5520609482375171,-0.020502371713519,-0.2471747547388077,0.1587907820940017,-0.5457159225270153,-0.4006941935420037,-10.688724246025084,14987.0
42.1,5.699999809265138,88.0,21.97974967956543,23.60086441040039,-79.7825864828347,40.45905629038696,322.8130899963379,0.0296058729290962,-0.0025794869288802,-0.5353062152862549,0.8441352248191833,-0.0601221029696043,4.5011339189807815,-0.487742431269299,-0.0030848481692373,-0.1199629306793212,0.0622831918299198,-0.4155432707816363,-0.2301418582163751,-10.493645929098127,14987.0
42.31,5.599999904632568,89.0,21.855796813964844,26.28061294555664,-79.78258174289562,40.45905804638889,322.79555001831056,0.0258121937513351,-0.0025548706762492,-0.5336751341819763,0.8452916741371155,-0.0341066950138628,4.409739771038319,-0.3746499227019166,-0.0338856726884841,0.0099094528704881,-0.0750189572572708,-0.3857915411889553,-0.1605698225833475,-10.5169353890419,14987.0
42.5,5.5,88.0,21.910886764526367,24.49941635131836,-79.78257256788751,40.45906153340943,322.6882654724121,0.0214682407677173,-0.0128101231530308,-0.5289254784584045,0.8483000993728638,0.012096347109137,4.233792434861632,-0.2322029606575058,-0.0225221682339906,0.0938379988074302,-0.0235893465578556,-0.4783320977166296,-0.0122550696507096,-10.540483295917513,14987.0
42.6,5.400000095367432,87.0,21.803211212158203,28.22084617614746,-79.78256372454291,40.45906485703331,322.59487023925783,0.0264159645885229,-0.0179341472685337,-0.5253123044967651,0.8503103852272034,0.0498246953801055,4.059391560904022,-0.2244091193258171,0.049120582640171,0.0924728065729141,0.0133168958127498,-0.4167649003118277,-0.0479553087707608,-10.389081341028216,14987.0
42.7,5.199999809265137,87.0,21.87457847595215,24.539175033569336,-79.78255946885412,40.45906643314049,322.5992914733887,0.0264459364116191,-0.0198101829737424,-0.5241661071777344,0.8509747982025146,0.0488046101612201,3.964188817092192,-0.1814181841878023,-0.0130623774603009,0.0069325664080679,-0.0045876423828303,-0.2228881679289043,0.0354967377427965,-10.377461754083631,14987.0
42.9,5.0,87.0,21.842023849487305,26.28061294555664,-79.7825552882501,40.45906804660675,322.5062510070801,0.0261116567999124,-0.0201210901141166,-0.5233829021453857,0.8514597415924072,0.0540873673464437,3.868844401590104,-0.2043907051248547,0.0409247390925884,0.0088826697319746,-0.0529212579131126,-0.2121529540792108,0.0005752655211836,-10.35179130792618,14987.0
43.1,4.800000190734863,87.0,21.83325958251953,27.19506645202637,-79.78254731406895,40.45907103271485,322.5258928833008,0.0276645608246326,-0.0191331561654806,-0.5215480327606201,0.8525587320327759,0.0352236484150924,3.6621336524660415,-0.0989879118252203,-0.0239930748939514,0.01369300018996,-0.0080069312825798,-0.2914555422775448,-0.0127123310510069,-10.343657830953598,14987.0
43.2,4.699999809265137,88.0,21.83451271057129,25.15146064758301,-79.78254349684659,40.45907247312692,322.4232584533692,0.0281906705349683,-0.0195654612034559,-0.52041095495224,0.8532262444496155,0.0394010826651502,3.5706886172357515,-0.1153833746389876,-0.0863075628876686,-0.0509963482618331,-0.1197612136602401,-0.2575423858501017,0.1234487740136683,-10.443760993480684,14987.0
43.3,4.400000095367432,88.0,21.785682678222656,26.33627510070801,-79.78253626043632,40.45907518075087,322.36758294677736,0.0229691993445158,-0.0199996009469032,-0.5195503830909729,0.8538969159126282,0.0529054426333771,3.3880776409192985,-0.0526674057582373,-0.0414198040962219,-0.1981052458286285,0.0509323440492153,-0.2927639115974307,-0.1935493248514832,-10.324560824632645,14987.0
43.51,4.300000190734863,88.0,21.696786880493164,27.139404296875,-79.78252929914552,40.45907784808711,322.4118219909668,0.0138649716973304,-0.0173463970422744,-0.5205579400062561,0.8535376191139221,0.0320940192035286,3.238862323946904,0.1072927796389869,0.041420392692089,-0.0768532678484916,-0.0087492037564516,-0.3188244035840035,-0.0928417338151484,-10.305764365196229,14987.0
43.6,4.099999904632568,85.0,21.84703254699707,24.54712677001953,-79.78252597423513,40.459078927764935,322.3510462341309,0.0099307633936405,-0.0158576611429452,-0.5208483338356018,0.8534440994262695,0.0359369431580669,3.175478921506154,0.1227115754132508,0.0181848667562007,0.0016830826643854,-0.0051571051590144,-0.2670225496776402,-0.0073158900439739,-10.210526086091996,14987.0
43.8,4.0,83.0,21.796951293945312,26.964466094970703,-79.7825226750051,40.45908021220494,322.377501159668,0.0047311028465628,-0.0150134908035397,-0.5216561555862427,0.8530105352401733,0.0190230488133819,3.125576979772516,0.1703055054902817,0.076084591448307,-0.0934202522039413,0.0574733912944793,-0.1818637191876769,-0.1721355055086314,-10.103557122945784,14987.0
44.0,3.799999952316284,82.0,21.84077262878418,25.914831161499023,-79.78251620699322,40.45908234930829,322.31845727539064,-0.0001815484138205,-0.0111226569861173,-0.5228742361068726,0.8523373007774353,-0.0030576789640918,3.0348791327193148,0.2183356825842757,-0.0188381969928741,-0.0175994541496038,0.0435663983225822,-0.2106356747075916,-0.0674407300958409,-10.263603601455689,14987.0
44.1,3.5999999046325684,82.0,21.915895462036133,24.6027889251709,-79.7825100939191,40.45908447322861,322.3262049255371,-0.0040874611586332,-0.0084737837314605,-0.5238825678825378,0.8517385125160217,-0.01650418205727,2.964039028988781,0.2703213014806167,-0.1140849664807319,-0.0800195410847663,0.0167358443140983,-0.1513535874523222,-0.2156405441276728,-10.230521224737169,14987.0
44.2,3.5,78.0,21.99602699279785,23.44978141784668,-79.78250699100221,40.45908568645445,322.355715423584,-0.0064658229239284,-0.0069808787666261,-0.5243764519691467,0.8514334559440613,-0.0264351600800342,2.9478698018422165,0.2910191794810567,-0.0605641342699527,-0.1174107491970062,-0.0943380743265152,-0.1533105591684579,0.061806115549989,-9.93724359869957,14987.0
44.4,3.400000095367432,78.0,22.00979995727539,23.44978141784668,-79.78250401675699,40.459086907487055,322.3914972839356,-0.0072329663671553,-0.0056871068663895,-0.5247306823730469,0.851218581199646,-0.0238638618034787,2.9266217824043124,0.2922303053311924,0.0854459479451179,0.0062912474386394,0.0708542540669441,-0.1935586621239781,-0.0232175026461482,-9.770241272449494,14987.0
44.6,3.2000000476837163,78.0,21.864561080932614,24.49941635131836,-79.7824979083602,40.45908936498543,322.44481912231447,-0.0132950171828269,-0.0049589406698942,-0.5261843204498291,0.8502522110939026,-0.0864662980428277,2.9292708231834603,0.2762423509470038,-0.1926054507493972,-0.2154220640659332,-0.0243709087371826,-0.1852712206542492,0.1156560618057847,-9.598844178915025,14987.0
44.7,3.0999999046325684,77.0,21.96973419189453,23.96664619445801,-79.78249506672192,40.45909050927301,322.50301232910164,-0.0173806920647621,-0.003836813615635,-0.5270044207572937,0.8496761918067932,-0.057429851883918,2.9079290810357614,0.2906378610628066,0.0619710721075534,-0.0448857210576534,0.1701783835887909,-0.1574228145740926,-0.1180543155781924,-9.554505912065506,14987.0
44.81,3.0,72.0,21.87332534790039,25.286640167236328,-79.78248908150994,40.45909284352073,322.60644021606447,-0.0201635044068098,-0.0005618950817734,-0.5291844606399536,0.848267138004303,-0.0805605013623153,2.919213711601067,0.3378760967654853,0.0839520543813705,0.0854016095399856,0.0759772732853889,-0.0661174183990806,0.1562253048084676,-9.63585354566574,14987.0
45.0,3.0,69.0,22.034839630126957,22.29677391052246,-79.78248602289281,40.45909409175247,322.6308886108398,-0.0208670161664486,0.0010708653135225,-0.5300788283348083,0.8476909399032593,-0.1221368969340912,2.9467920099039944,0.3444475235658195,-0.1524364352226257,-0.146384447813034,-0.0963703244924545,-0.0973392567783594,0.2801994694210589,-9.747078697085383,14987.0
45.11,2.900000095367432,65.0,22.02983283996582,22.71026611328125,-79.78247988350867,40.45909664177258,322.7386499938965,-0.0248620323836803,0.0066133202053606,-0.5307106375694275,0.8471626043319702,-0.1257367616554454,2.989413592631803,0.3641914890941044,-0.0369976200163364,-0.0912403464317321,-0.0343392230570316,-0.1635197428800165,0.2310082511231303,-9.466451522111893,14987.0
45.31,2.900000095367432,63.0,22.02983283996582,22.980627059936523,-79.78247675684531,40.45909792475257,322.7604738769532,-0.0272533930838108,0.0071104164235293,-0.5306578278541565,0.847118079662323,-0.1326250318523557,3.0198573853006265,0.3477479476701819,-0.0662668719887733,-0.0293386951088905,-0.0239226873964071,-0.1550399828329682,0.1880178222991526,-9.404679197072983,14987.0
45.5,2.900000095367432,57.0,21.94344139099121,23.13966178894043,-79.78247050426067,40.45910062262022,322.83349481201174,-0.0305551197379827,0.0027412974741309,-0.5301296710968018,0.8473615050315857,-0.1344213265355235,3.0872572468124737,0.3228011616318368,-0.0419201590120792,-0.0373223014175891,0.0050747422501444,-0.1549599856138229,0.086111743915826,-9.465181506872176,14987.0
45.6,2.900000095367432,57.0,21.8570499420166,24.38809013366699,-79.78246727413377,40.45910196832055,322.8473841247559,-0.0317283608019352,0.0008920408436097,-0.5295668840408325,0.8476741909980774,-0.1476913084692706,3.1244066804086046,0.3030160439749404,-0.0629791915416717,-0.10018802434206,0.038282822817564,-0.1379213453829288,0.0578213248774409,-9.57955889225006,14987.0
45.7,2.799999952316284,54.0,22.01605987548828,22.392194747924805,-79.78246076218194,40.459104877297136,322.9176966247559,-0.0305157769471406,0.0007954572793096,-0.5291871428489685,0.8479558229446411,-0.1916611501446784,3.216692795916221,0.319132368295268,-0.1247044950723648,-0.095000609755516,-0.1365769654512405,-0.1641413749940693,0.5501216898858547,-9.591320566534996,14987.0
45.91,2.799999952316284,53.0,21.981002807617188,22.89315795898437,-79.7824540157562,40.45910775220395,323.00004449462887,-0.0282637644559144,0.0089402589946985,-0.5291849374771118,0.8479886054992676,-0.1812955879368908,3.294760079354562,0.3355866760827862,0.0840259715914726,0.020386379212141,-0.0389085970818996,-0.0375193718634545,0.0683892352692782,-9.59719877243042,14988.0
46.1,2.900000095367432,50.0,21.895862579345703,23.69628715515137,-79.7824505880119,40.4591092238259,323.01387658691414,-0.0282625053077936,0.0106469485908746,-0.5290756225585938,0.8480371236801147,-0.2008333479039952,3.3374297784240605,0.3212889013170876,-0.082158587872982,-0.0549096353352069,-0.0018483662279322,-0.1525858698785305,0.1811501396074892,-9.594454674124716,14988.0
46.21,2.900000095367432,48.0,21.96597671508789,23.49749183654785,-79.78244717454697,40.45911072886491,323.0883127746582,-0.0290750097483396,0.0102030141279101,-0.5289596915245056,0.8480873107910156,-0.1699121238724262,3.3662899738152072,0.3686866462134441,0.0576766170561313,-0.004204043187201,0.0739178657531738,-0.1630683195590972,-0.0195331811998039,-9.600935727953912,14988.0
46.4,2.900000095367432,46.0,22.007295608520508,22.55918312072754,-79.78244010855583,40.459113730397576,323.1193224487305,-0.0290587060153484,0.0081262663006782,-0.5284428596496582,0.8484324812889099,-0.1803420241639876,3.449758971466109,0.3550747677420756,-0.0499922037124633,-0.0054565444588661,-0.0163597073405981,-0.2285367061570287,0.2111385169811546,-9.639684641361235,14988.0
46.5,2.900000095367432,46.0,22.05111694335937,21.915088653564453,-79.78243656965738,40.459115483234726,323.1949717102051,-0.0283455830067396,0.0070455041714012,-0.5277797579765321,0.8488789796829224,-0.1633818017714948,3.491262309658415,0.3860451468545094,0.1202594190835952,0.0588227584958076,0.0953202098608017,-0.1430229131318628,-0.0045704532740637,-9.595603652000428,14988.0
46.6,3.0,47.0,21.970985412597656,24.761823654174805,-79.78242933890263,40.45911875267075,323.25487771606447,-0.0257551819086074,0.00547356903553,-0.526433527469635,0.8498084545135498,-0.1708806673752081,3.5630441944420297,0.341450777436561,-0.0205275733023881,0.0703069865703582,-0.0513805523514747,-0.1989834529906511,0.1954306847602129,-9.507225911021234,14988.0
46.81,3.0,46.0,21.96096992492676,23.88712882995605,-79.78242187102049,40.459122072253855,323.2999102172852,-0.0209042094647884,0.0033102775923907,-0.5259416699409485,0.8502573370933533,-0.1719566684464123,3.626282344142176,0.3027765210972704,-0.0629514902830123,-0.028885593637824,-0.0226708706468343,-0.2679764680936932,0.1642382560484111,-9.561463513970375,14988.0
46.9,3.0,45.0,22.017311096191406,22.57508659362793,-79.78241811460349,40.45912367523381,323.31256356811525,-0.0186036005616188,0.0016363498289138,-0.5261536240577698,0.8501845598220825,-0.1544797419150718,3.6444562416288337,0.2599666211761069,0.1240902468562126,0.1492669433355331,0.0791058614850044,-0.0849900835007429,0.0504722655890509,-9.590848696231845,14988.0
47.11,3.0,45.0,21.89210700988769,23.86327362060547,-79.78241433884749,40.45912528382192,323.3226801452637,-0.0169635135680437,0.0006575261941179,-0.5261281728744507,0.8502358794212341,-0.1781741529233999,3.667395595465434,0.2140294555598937,-0.0882583260536193,0.0404050983488559,-0.1092525869607925,-0.2198133913055062,0.4499527096375823,-9.502032414078712,14988.0
47.3,3.0999999046325684,48.0,21.932172775268555,24.006404876708984,-79.7824066368063,40.45912868754456,323.3568293151856,-0.0146263083443045,0.0005861557438038,-0.5249769687652588,0.8509905934333801,-0.146653485259205,3.697728943890824,0.1979176381076335,0.097912535071373,0.043487437069416,0.0358750112354755,-0.1933298532664776,0.1558553405106067,-9.63623010635376,14988.0
47.41,3.0999999046325684,49.0,21.997278213500977,23.44978141784668,-79.78240281081395,40.45913030677357,323.36533227539064,-0.0126845296472311,0.0006544673815369,-0.5243741273880005,0.8513932824134827,-0.145997181233297,3.706447898260708,0.1734226307408132,0.0328658744692802,0.0482236556708812,-0.040167111903429,-0.1426542553212493,0.2224861535802484,-9.649235483407974,14988.0
